time,angle1,angle2,intgangle,accX1,accY1,accZ1,gyroX1,gyroY1,gyroZ1,accX2,accY2,accZ2,gyroX2,gyroY2,gyroZ2
713.662,3.52811,-4.16125,0,0.56283,9.71899,-1.57113,0.457317,0.426829,1.61585,-39.743,-3.32908,-3.35782,-20.6707,10.5488,15.061
713.672,3.54503,-4.23122,0,0.57241,9.64235,-1.54479,0.335366,0.548781,2.07317,-40.2794,-3.87514,-4.15296,-17.5915,8.35366,16.4024
713.682,3.55986,-4.34647,0,0.608335,9.61121,-1.51605,0.396341,-0.121951,1.28049,-40.3848,-3.91346,-5.03433,-12.4085,7.2561,15.2134
713.692,3.56492,-4.48616,0,0.56762,9.7142,-1.54718,0.609756,-0.213415,1.21951,-39.7813,-3.69312,-5.47501,-7.59146,7.62195,16.5549
713.702,3.5679,-4.6153,0,0.543669,9.64953,-1.57353,0.182927,-0.548781,1.37195,-39.4076,-3.80808,-5.33131,-2.71341,8.62805,16.8902
713.712,3.54621,-4.74221,0,0.457449,9.63037,-1.53042,-0.670732,-1.37195,0.945122,-39.2352,-3.28118,-5.36005,2.62195,8.2622,17.8354
713.722,3.50927,-4.8409,0,0.443079,9.67827,-1.42983,-0.945122,-2.80488,0.487805,-39.149,-2.87881,-4.93853,6.28049,9.02439,18.9329
713.732,3.48648,-4.91325,0,0.469424,9.6663,-1.3963,-0.884146,-4.39024,0.701219,-39.3502,-2.56267,-4.56491,7.59146,10.2744,18.8415
713.742,3.48927,-4.97985,0,0.546064,9.68067,-1.44899,-1.43293,-5.27439,1.15854,-39.3119,-2.21779,-4.51701,11.25,8.14024,16.7988
713.752,3.50302,-5.04082,0,0.60594,9.63995,-1.40588,-1.46341,-5.97561,1.03659,-38.9861,-1.97829,-4.43079,11.6159,7.19512,15.5488
713.762,3.53584,-5.08951,0,0.704136,9.6639,-1.47773,-1.34146,-6.06707,0.945122,-38.8041,-1.86333,-4.23918,12.7744,7.22561,13.9329
713.772,3.57649,-5.13953,0,0.744851,9.62558,-1.50647,-1.12805,-5.91463,1.12805,-38.488,-1.825,-4.25834,12.8354,7.92683,12.2561
713.782,3.63368,-5.21634,0,0.821492,9.64235,-1.53042,-0.670732,-6.03659,0.792683,-38.4592,-1.71962,-4.74693,13.8415,8.62805,9.90854
713.792,3.69232,-5.25614,0,0.876577,9.70941,-1.49689,-0.213415,-5.73171,1.34146,-38.6604,-1.95913,-4.1817,13.689,9.69512,10.8232
713.802,3.76583,-5.28104,0,0.993933,9.71899,-1.57113,0.121951,-5.64024,1.79878,-38.7275,-1.71004,-3.95178,12.0732,11.8293,9.93902
713.812,3.85133,-5.30548,0,1.06099,9.69504,-1.59987,0.27439,-5.70122,1.43293,-39.1873,-1.64298,-4.00926,10.7622,11.4329,12.8049
713.822,3.94834,-5.33773,0,1.1544,9.64235,-1.60466,0.243902,-5.67073,1.70732,-39.8196,-1.75794,-4.2296,9.84756,11.4939,14.6951
713.832,4.04342,-5.34567,0,1.19272,9.69025,-1.62143,0.152439,-5.15244,2.31707,-40.2986,-2.01661,-3.86556,7.53049,11.8902,16.4634
713.842,4.14658,-5.36618,0,1.26457,9.70222,-1.58071,0.487805,-4.26829,3.01829,-40.2986,-2.33275,-4.09548,7.43902,12.2561,17.378
713.852,4.24963,-5.38911,0,1.25978,9.65672,-1.59029,0.823171,-2.56098,3.38415,-39.9825,-2.37107,-4.12422,7.19512,11.311,18.5366
713.862,4.36264,-5.42706,0,1.27655,9.53697,-1.55916,1.55488,-0.853659,4.48171,-39.2544,-2.52435,-4.32541,8.23171,12.0122,18.75
713.872,4.4721,-5.44994,0,1.20948,9.47709,-1.48491,2.53049,0.945122,5.15244,-38.6604,-2.52435,-4.02842,10.5488,11.3415,18.2622
713.882,4.57565,-5.48054,0,1.14003,9.41003,-1.51605,3.56707,2.43902,5.54878,-38.4784,-2.62973,-4.15296,12.0122,12.622,18.5671
713.892,4.66729,-5.52164,0,1.04662,9.40524,-1.53042,4.26829,3.78049,5.70122,-38.4113,-2.91713,-4.34457,14.1463,13.2012,16.6768
713.902,4.74434,-5.56258,0,0.958008,9.46991,-1.65975,4.90854,4.48171,5.57927,-38.488,-2.79259,-4.37331,17.2866,14.7561,14.6951
713.912,4.81283,-5.60924,0,0.886157,9.52978,-1.71483,5.42683,4.87805,5.82317,-38.737,-2.91713,-4.51701,20,18.1402,12.4085
713.922,4.84769,-5.666,0,0.656235,9.57529,-1.55197,5.73171,3.47561,5.39634,-38.6412,-2.58183,-4.70861,22.2561,19.1768,11.0976
713.932,4.84399,-5.69747,0,0.349673,9.55373,-1.27894,7.89634,-1.06707,5.30488,-38.6987,-2.42855,-4.30625,24.0549,22.4695,9.72561
713.942,4.85681,-5.73342,0,0.455054,9.79803,-1.36995,8.53659,-4.87805,5.79268,-39.2831,-2.21779,-4.47869,23.9634,20.4268,9.20732
713.952,4.87484,-5.7433,0,0.524509,9.99442,-1.74836,6.0061,-3.44512,5.64024,-39.8867,-2.00703,-4.11464,26.0061,18.8415,8.23171
713.962,4.91678,-5.75303,0,0.732876,9.81,-1.98068,5.30488,-0.518293,5.51829,-40.2411,-1.69088,-4.16254,27.0122,16.8293,7.04268
713.972,4.96191,-5.77855,0,0.792751,9.8076,-2.32077,6.70732,4.78659,5.21341,-40.5956,-1.78668,-4.49785,27.4695,15.1829,9.08537
713.982,5.02319,-5.79111,0,0.866997,9.83395,-2.04535,4.90854,5.64024,6.09756,-40.7393,-1.78668,-4.30625,27.3171,12.4695,9.14634
713.992,5.11382,-5.79663,0,1.06099,9.75731,-1.77471,2.53049,3.87195,6.82927,-40.6435,-1.97829,-4.1817,27.1037,11.372,8.56707
714.002,5.21589,-5.81267,0,1.1544,9.50344,-1.4921,3.59756,2.40854,6.70732,-40.2411,-1.94955,-4.33499,28.2317,10.7317,8.71951
714.012,5.30743,-5.82744,0,1.10889,9.48907,-1.49928,5.45732,4.11585,6.37195,-39.7717,-2.15073,-4.2775,26.2805,9.48171,7.89634
714.022,5.37804,-5.85613,0,0.929268,9.41003,-1.3939,5.82317,5.12195,6.52439,-39.2448,-2.26569,-4.46911,25.6402,11.189,6.92073
714.032,5.42718,-5.88615,0,0.749641,9.35495,-1.52563,7.5,6.40244,6.64634,-38.7179,-2.36149,-4.44995,25.5793,11.6463,6.52439
714.042,5.47837,-5.93527,0,0.706531,9.36692,-1.57592,7.37805,7.89634,7.5,-37.9898,-2.12199,-4.70861,23.7805,12.3476,6.37195
714.052,5.54999,-5.98178,0,0.819097,9.36932,-1.48012,7.62195,7.2561,8.29268,-37.9419,-2.04535,-4.68945,22.8963,12.9573,7.31707
714.062,5.6339,-6.0066,0,0.876577,9.43398,-1.76992,6.37195,5.91463,9.05488,-38.1335,-1.54718,-4.37331,21.0976,13.3537,7.83537
714.072,5.71367,-6.0339,0,0.953218,9.51062,-1.90165,4.14634,2.95732,7.95732,-38.5838,-1.16398,-4.48827,16.9207,12.2866,7.77439
714.082,5.76888,-6.06281,0,0.910107,9.68546,-1.88249,1.95122,-0.823171,6.34146,-38.9286,-0.895737,-4.57449,13.1707,12.5,7.86585
714.092,5.81209,-6.0744,0,0.943638,9.75012,-1.96631,0.213415,-3.5061,4.90854,-39.446,-0.943638,-4.35415,7.83537,11.4329,8.56707
714.102,5.83965,-6.09056,0,1.0083,9.69743,-1.89925,-0.0304878,-4.87805,2.53049,-39.628,-0.838257,-4.46911,6.52439,9.72561,7.19512
714.112,5.85934,-6.11223,0,1.04183,9.60882,-1.95673,0.487805,-3.75,0.213415,-39.8579,-0.981958,-4.61281,3.65854,7.31707,7.07317
714.122,5.83569,-6.13083,0,0.914897,9.61121,-1.95434,0.426829,-3.14024,-0.884146,-39.9825,-1.28852,-4.59365,0.609756,5.60976,6.58537
714.132,5.82546,-6.16337,0,0.977168,9.61361,-1.90644,0.640244,-3.78049,-0.945122,-39.9058,-1.6813,-4.85231,-0.884146,4.02439,6.67683
714.142,5.87453,-6.19264,0,1.12087,9.5705,-1.96152,-0.182927,-5,0.0609756,-39.8867,-2.06451,-4.82357,-1.55488,1.40244,5.39634
714.152,5.96001,-6.22587,0,1.30529,9.43877,-1.79626,-1.09756,-6.09756,0.884146,-39.7334,-2.04535,-4.90021,-4.29878,0.243902,5.27439
714.162,6.0752,-6.2651,0,1.56874,9.41003,-1.83938,-0.579268,-6.06707,1.67683,-39.7238,-2.17947,-5.03433,-5.70122,-1.25,5.54878
714.172,6.19712,-6.30286,0,1.68609,9.4268,-1.91841,0.213415,-5.06098,2.16463,-39.6184,-2.17947,-5.02475,-6.34146,-1.92073,5.12195
714.182,6.31643,-6.32772,0,1.72681,9.49386,-1.94955,0.609756,-3.44512,2.68293,-39.9058,-2.15073,-4.86189,-7.40854,-3.20122,5.64024
714.192,6.41924,-6.37874,0,1.62861,9.5226,-1.99505,0.396341,-0.731707,2.71341,-39.2544,-2.17947,-5.26425,-8.23171,-4.42073,5.7622
714.202,6.49504,-6.41828,0,1.43462,9.50344,-1.86812,0.396341,1.06707,2.7439,-39.331,-2.34233,-5.11097,-8.90244,-5.42683,6.46341
714.212,6.55534,-6.45584,0,1.32684,9.51302,-1.86093,0.335366,1.28049,2.86585,-39.2735,-2.48603,-5.10139,-9.17683,-6.89024,7.5
714.222,6.60636,-6.51463,0,1.26457,9.52499,-1.73878,0.762195,1.89024,2.92683,-38.9382,-2.24653,-5.45585,-9.84756,-7.19512,7.80488
714.232,6.64899,-6.57331,0,1.20709,9.5226,-1.73878,0.762195,1.09756,2.95732,-38.9957,-2.06451,-5.50376,-10.3963,-7.5,7.95732
714.242,6.68682,-6.63131,0,1.14961,9.50583,-1.82261,1.12805,1.70732,3.32317,-38.7083,-1.93997,-5.49417,-10.0305,-8.20122,10.7012
714.252,6.71557,-6.68673,0,1.12805,9.53697,-1.71483,0.762195,0.884146,2.80488,-38.9765,-1.80584,-5.52291,-9.78659,-6.89024,10.7012
714.262,6.73451,-6.75108,0,1.06818,9.52499,-1.69807,0.548781,0.0304878,2.68293,-38.8328,-1.7771,-5.69536,-8.44512,-6.4939,11.1585
714.272,6.74452,-6.80301,0,1.02986,9.61361,-1.7316,0.609756,-1.06707,2.5,-38.8328,-1.81542,-5.52291,-7.77439,-6.43293,12.3171
714.282,6.74959,-6.86623,0,0.984353,9.68067,-1.74836,0.640244,-1.70732,2.68293,-38.967,-2.15073,-5.772,-5.94512,-5.33537,11.128
714.292,6.73905,-6.9202,0,0.950823,9.60642,-1.83938,0.335366,-2.65244,1.85976,-39.3023,-2.44771,-5.69536,-5.7622,-3.29268,9.60366
714.302,6.71666,-6.94282,0,0.965193,9.59445,-1.86812,0.0609756,-4.69512,1.09756,-39.5897,-2.45729,-5.21635,-4.39024,-2.95732,7.04268
714.312,6.68329,-6.97283,0,0.902922,9.60642,-1.80584,-0.426829,-7.37805,1.12805,-40.0591,-2.62015,-5.42711,-5.36585,-2.95732,5.18293
714.322,6.6716,-6.99116,0,1.02028,9.61121,-1.79626,-0.670732,-8.41463,1.0061,-40.0304,-2.62973,-5.23551,-3.32317,-3.17073,2.80488
714.332,6.68075,-6.99328,0,1.12326,9.51781,-1.79147,-0.335366,-5.88415,0.701219,-40.0974,-2.67763,-4.96727,-2.92683,-3.47561,2.13415
714.342,6.72431,-6.97661,0,1.25499,9.54176,-1.95194,-0.0914634,-2.83537,-0.121951,-39.6567,-2.19863,-4.58407,-4.96951,-4.32927,3.35366
714.352,6.76291,-6.95367,0,1.35558,9.53457,-2.08127,-0.731707,-2.19512,-0.945122,-39.4843,-2.01661,-4.44995,-8.01829,-6.61585,5.12195
714.362,6.79341,-6.91429,0,1.45857,9.44835,-2.05253,-1.64634,-2.95732,-2.07317,-39.3502,-1.59508,-4.1338,-12.9878,-7.62195,5.7622
714.372,6.82878,-6.8829,0,1.54479,9.43159,-2.07648,-1.98171,-2.59146,-2.43902,-38.9765,-1.49928,-4.21044,-16.0366,-8.87195,7.04268
714.382,6.85703,-6.85033,0,1.5855,9.39327,-1.85854,-1.61585,-0.914634,-3.23171,-38.7466,-1.67172,-4.15296,-19.2073,-11.6159,7.59146
714.392,6.87221,-6.81407,0,1.52802,9.38608,-1.78429,-0.579268,0.884146,-3.62805,-38.8233,-1.6334,-4.07632,-20.6098,-11.9512,6.70732
714.402,6.87287,-6.7966,0,1.42025,9.41482,-1.80345,-0.243902,3.38415,-3.62805,-38.9957,-1.71962,-4.40205,-23.2622,-13.689,4.96951
714.412,6.85926,-6.77663,0,1.26697,9.39566,-1.73639,0.548781,4.66463,-3.20122,-39.0244,-1.80584,-4.35415,-24.5732,-14.939,4.14634
714.422,6.83992,-6.77526,0,1.2502,9.4747,-1.90404,0.27439,4.78659,-3.41463,-39.1298,-1.84417,-4.67029,-27.8659,-12.9878,2.56098
714.432,6.8178,-6.7809,0,1.23823,9.49625,-1.91362,-0.182927,4.32927,-3.53659,-39.2448,-1.86333,-4.80441,-28.4756,-12.5,0.365854
714.442,6.80454,-6.76444,0,1.30529,9.51541,-1.96392,-0.396341,4.05488,-3.5061,-39.264,-1.87291,-4.42121,-30.9146,-12.0122,-0.548781
714.452,6.79604,-6.75068,0,1.31966,9.53936,-1.89925,-0.579268,3.84146,-3.23171,-39.1969,-2.10283,-4.44995,-29.9695,-12.1037,-1.31098
714.462,6.79467,-6.75791,0,1.36037,9.54176,-1.89446,-0.792683,3.23171,-3.07927,-39.0532,-1.94955,-4.78525,-30.8232,-10.5793,-1.95122
714.472,6.78829,-6.73836,0,1.35798,9.54655,-1.80345,-1.06707,2.56098,-3.47561,-38.967,-1.69088,-4.30625,-30.6707,-8.5061,-1.34146
714.482,6.7832,-6.716,0,1.36516,9.58726,-1.78668,-0.853659,2.2561,-3.38415,-38.9957,-1.24062,-4.23918,-32.8963,-6.12805,-0.0304878
714.492,6.7853,-6.68486,0,1.37235,9.57529,-1.7771,-0.182927,2.43902,-2.89634,-39.3214,-1.06818,-4.09548,-36.5854,-3.32317,-0.396341
714.502,6.78556,-6.65059,0,1.35079,9.58247,-1.76992,-0.609756,2.77439,-2.80488,-39.6472,-0.905317,-4.04758,-41.5549,-1.98171,-1.40244
714.512,6.81498,-6.61685,0,1.45138,9.49146,-1.6837,-0.0609756,3.5061,-2.0122,-39.6759,-0.838257,-4.02842,-44.3598,0.182927,-2.13415
714.522,6.85371,-6.60057,0,1.50647,9.55373,-1.71004,0.213415,4.7561,-1.82927,-39.6663,-0.972378,-4.31582,-46.0976,-0.731707,-2.5
714.532,6.90757,-6.59272,0,1.55916,9.55134,-1.80824,-0.121951,5.09146,-1.52439,-39.4268,-0.981958,-4.43079,-48.2317,-1.95122,-1.43293
714.542,6.96168,-6.5953,0,1.60227,9.55134,-1.74118,-0.609756,5.64024,-1.70732,-39.4651,-1.46096,-4.62239,-48.4451,-4.57317,0.97561
714.552,7.00166,-6.60853,0,1.54718,9.52739,-1.66933,-0.0914634,6.58537,-1.92073,-39.2065,-1.78668,-4.78525,-48.3537,-5.91463,2.86585
714.562,7.01592,-6.61708,0,1.35558,9.53218,-1.51126,0.762195,7.92683,-1.67683,-39.1873,-1.95913,-4.71819,-47.0122,-8.29268,4.17683
714.572,6.98956,-6.64696,0,1.1065,9.5705,-1.58311,1.37195,9.42073,-1.40244,-39.216,-2.04535,-5.10139,-45.5488,-8.07927,4.72561
714.582,6.9291,-6.66182,0,0.934058,9.57768,-1.68849,1.21951,9.7561,-0.945122,-38.8903,-2.26569,-4.81399,-44.2988,-6.89024,3.68902
714.592,6.85013,-6.66726,0,0.835862,9.57768,-1.68849,1.06707,7.34756,-0.97561,-39.1777,-1.89207,-4.68945,-44.5122,-5.33537,4.2378
714.602,6.79831,-6.7046,0,0.941243,9.61361,-1.65975,0.914634,4.20732,-1.25,-38.9191,-1.96871,-5.21635,-42.561,-4.78659,2.77439
714.612,6.76236,-6.72702,0,1.01788,9.62558,-1.74836,0.823171,2.68293,-1.31098,-38.8233,-1.93039,-4.95769,-40.7012,-1.34146,2.9878
714.622,6.73347,-6.75179,0,1.07057,9.62319,-1.79147,0.640244,2.65244,-1.85976,-39.1011,-1.78668,-5.04391,-39.6341,0.426829,0.823171
714.632,6.71337,-6.76764,0,1.14482,9.58247,-1.75315,0.152439,1.25,-2.2561,-39.0244,-1.71004,-4.89063,-38.1402,1.79878,0.365854
714.643,6.69438,-6.80843,0,1.17116,9.55613,-1.67891,0.213415,0.457317,-2.59146,-39.4939,-2.31359,-5.40795,-36.372,0.152439,1.43293
714.652,6.68915,-6.83755,0,1.24302,9.53457,-1.54479,0.792683,1.06707,-2.34756,-39.5418,-2.63931,-5.24509,-30.061,-2.5,0.243902
714.662,6.68543,-6.89961,0,1.27176,9.60163,-1.57113,0.640244,3.20122,-2.43902,-39.4556,-3.05125,-5.85822,-25.8841,-8.20122,0.97561
714.672,6.67737,-6.96512,0,1.17356,9.53218,-1.55437,0.731707,4.29878,-1.76829,-39.1107,-3.37698,-5.92528,-15.7317,-12.3171,1.18902
714.682,6.68159,-7.02191,0,1.20469,9.45314,-1.66214,1.12805,4.81707,-1.43293,-38.7754,-3.77934,-5.76242,-10.0915,-10.8232,1.28049
714.692,6.66756,-7.05861,0,1.09452,9.48428,-1.74836,1.15854,4.26829,-1.09756,-38.5263,-3.92304,-5.38879,-5.94512,-2.77439,0.97561
714.702,6.61027,-7.0983,0,0.955613,9.48907,-1.78908,1.06707,2.43902,-0.0609756,-38.3922,-3.77934,-5.41753,-1.09756,5.82317,-0.152439
714.712,6.56958,-7.11743,0,0.991538,9.60163,-1.86333,0.670732,0.487805,-0.0914634,-37.9419,-3.33866,-5.00559,0.945122,13.3232,-1.67683
714.722,6.54049,-7.14122,0,1.01549,9.616,-1.99026,-0.182927,-1.03659,-0.243902,-37.7599,-2.78301,-5.06307,1.55488,16.372,-0.304878
714.732,6.52553,-7.14955,0,1.07297,9.63995,-1.98547,-0.396341,-2.34756,-0.853659,-38.0664,-2.49561,-4.85231,1.0061,17.622,1.55488
714.742,6.51281,-7.17092,0,1.09692,9.63277,-1.96152,-1.12805,-4.14634,-1.21951,-38.2389,-2.15073,-5.10139,-2.31707,18.2622,3.10976
714.752,6.52652,-7.21503,0,1.28613,9.5705,-1.88728,-1.85976,-5.18293,-1.7378,-38.6125,-1.93997,-5.56124,-3.65854,17.9878,4.87805
714.762,6.54666,-7.24041,0,1.38432,9.43638,-1.79866,-1.21951,-5.2439,-2.40854,-39.3981,-1.90165,-5.36963,-4.11585,19.1463,6.31098
714.772,6.55948,-7.27506,0,1.40348,9.45793,-1.77231,-0.609756,-3.9939,-2.9878,-39.7334,-1.86333,-5.60914,-3.84146,16.189,5.60976
714.782,6.56348,-7.2921,0,1.3939,9.48428,-1.80584,-0.27439,-2.77439,-3.5061,-40.0591,-1.95913,-5.36963,-5.4878,14.2988,6.82927
714.792,6.56446,-7.32603,0,1.37235,9.46033,-1.7795,0.182927,-2.28659,-3.56707,-40.3273,-2.13157,-5.73368,-6.15854,11.5244,6.28049
714.802,6.5646,-7.35241,0,1.36756,9.50583,-1.83698,0,-1.89024,-3.5061,-40.3465,-2.29443,-5.63788,-7.7439,7.56098,6.70732
714.812,6.57191,-7.38197,0,1.40827,9.54894,-1.86572,-0.213415,-1.58537,-3.2622,-40.4136,-2.35191,-5.73368,-8.71951,4.81707,7.40854
714.822,6.57479,-7.39998,0,1.36995,9.59205,-2.00703,-0.426829,-1.37195,-3.14024,-40.4136,-2.42855,-5.55166,-9.96951,3.01829,6.34146
714.832,6.5794,-7.43367,0,1.33882,9.55852,-1.95194,-1.06707,-1.67683,-2.7439,-40.2699,-2.22737,-5.83906,-10.3659,0.0914634,6.12805
714.842,6.58765,-7.44857,0,1.346,9.54655,-1.95673,-1.61585,-2.68293,-2.56098,-40.0399,-2.34233,-5.50376,-12.7134,-3.35366,5.51829
714.852,6.61265,-7.47299,0,1.42983,9.54415,-1.94476,-2.16463,-2.86585,-2.22561,-39.8004,-2.03577,-5.66662,-15.7317,-7.65244,4.42073
714.862,6.64241,-7.50213,0,1.46096,9.51062,-1.95913,-2.2561,-2.7439,-2.22561,-39.5418,-1.84417,-5.74326,-18.9634,-11.189,4.69512
714.872,6.67436,-7.50584,0,1.53281,9.4723,-1.89925,-1.79878,-2.10366,-2.68293,-39.2927,-1.56634,-5.28341,-22.561,-12.5915,6.7378
714.882,6.70162,-7.53092,0,1.54718,9.48907,-1.94476,-1.98171,-1.06707,-3.01829,-39.1969,-1.3939,-5.65704,-25.3049,-14.8171,7.37805
714.892,6.7156,-7.5305,0,1.5376,9.45075,-1.94955,-2.0122,-0.579268,-3.96341,-39.446,-1.2502,-5.26425,-27.3476,-16.4024,9.29878
714.902,6.72041,-7.53659,0,1.53521,9.45314,-1.9232,-2.28659,0.0609756,-4.72561,-39.3502,-1.16398,-5.36963,-31.0366,-17.4085,8.65854
714.912,6.71417,-7.54128,0,1.49689,9.43638,-1.87291,-2.5,0.243902,-5.36585,-39.3214,-1.08734,-5.34089,-34.6341,-16.1585,8.35366
714.922,6.69463,-7.53326,0,1.45857,9.44835,-1.82261,-2.34756,0.609756,-6.21951,-39.3981,-1.03944,-5.13013,-36.5854,-16.1585,5.82317
714.932,6.67273,-7.54082,0,1.46096,9.44835,-1.81063,-2.56098,1.28049,-6.52439,-39.4364,-1.26936,-5.40795,-36.8293,-17.0122,4.66463
714.942,6.65569,-7.5326,0,1.48731,9.46033,-1.78429,-2.71341,1.76829,-6.37195,-39.3885,-1.40348,-5.13013,-37.2561,-17.6829,3.44512
714.952,6.63753,-7.51876,0,1.48012,9.47709,-1.77471,-2.46951,2.19512,-6.40244,-39.3119,-1.59508,-5.01517,-36.6463,-17.561,1.09756
714.962,6.62048,-7.50368,0,1.46336,9.47709,-1.6334,-2.56098,1.98171,-6.12805,-39.1203,-1.71962,-4.95769,-36.6159,-17.1037,0.121951
714.972,6.60681,-7.47339,0,1.45857,9.51541,-1.49449,-2.28659,2.07317,-5.70122,-39.0532,-2.11241,-4.67029,-36.5854,-16.3415,-1.67683
714.982,6.59849,-7.43667,0,1.42504,9.51541,-1.5376,-2.16463,1.79878,-4.81707,-39.0053,-2.01661,-4.52659,-35.3963,-14.8476,-2.07317
714.992,6.5849,-7.39555,0,1.31966,9.56092,-1.43701,-2.0122,1.46341,-4.05488,-39.0053,-1.346,-4.42121,-36.189,-13.811,-0.670732
715.002,6.56486,-7.3393,0,1.19751,9.60642,-1.49689,-2.19512,1.03659,-3.20122,-39.4268,-1.27894,-4.17212,-38.5671,-13.2317,0.914634
715.012,6.5258,-7.27454,0,1.03704,9.65672,-1.50647,-2.0122,0.518293,-3.01829,-39.6088,-1.13524,-3.99968,-38.9634,-12.5915,1.82927
715.022,6.46716,-7.23094,0,0.895737,9.7142,-1.52323,-2.13415,-0.579268,-3.23171,-39.6184,-0.991538,-4.32541,-39.7561,-11.5549,2.40854
715.032,6.39028,-7.18849,0,0.747246,9.67588,-1.54,-2.77439,-2.10366,-3.38415,-39.3981,-1.14482,-4.28709,-40.9451,-10.3049,4.14634
715.042,6.30605,-7.16448,0,0.673001,9.60882,-1.49449,-2.80488,-2.37805,-3.38415,-38.8616,-1.52802,-4.51701,-41.25,-9.66463,3.44512
715.052,6.22418,-7.15222,0,0.675395,9.59684,-1.47773,-3.01829,-2.28659,-3.35366,-38.2964,-1.61424,-4.63197,-40.1524,-8.38415,2.59146
715.062,6.14446,-7.14451,0,0.694556,9.61361,-1.4442,-2.65244,-2.22561,-3.62805,-38.0185,-2.01661,-4.66071,-36.9207,-6.37195,4.39024
715.072,6.06317,-7.15165,0,0.699346,9.63995,-1.49928,-2.34756,-1.37195,-4.08537,-38.076,-2.20821,-4.90979,-35,-4.60366,3.53659
715.082,5.98532,-7.15157,0,0.718506,9.64953,-1.59508,-2.13415,-1.28049,-4.14634,-38.5263,-2.30401,-4.84273,-33.4146,-3.01829,3.96341
715.092,5.91434,-7.15779,0,0.768801,9.65432,-1.58071,-2.16463,-1.76829,-4.2378,-38.5167,-2.17947,-4.93853,-30.7927,0.457317,5.27439
715.102,5.84891,-7.14222,0,0.823887,9.65911,-1.5855,-2.2561,-2.28659,-4.5122,-38.852,-2.20821,-4.60323,-31.2195,1.55488,4.35976
715.112,5.79271,-7.13839,0,0.890947,9.70222,-1.64777,-2.0122,-2.80488,-4.48171,-39.0244,-2.02619,-4.81399,-30.9146,2.65244,4.69512
715.122,5.73543,-7.14641,0,0.912502,9.65672,-1.70765,-1.40244,-2.9878,-5.03049,-39.331,-2.07409,-5.05349,-30.0915,3.90244,5.18293
715.132,5.67699,-7.15072,0,0.950823,9.65911,-1.7316,-0.792683,-2.71341,-5.73171,-39.3023,-1.83458,-4.98643,-28.75,4.93902,6.0061
715.142,5.61772,-7.14246,0,0.958008,9.72378,-1.72441,-0.823171,-2.65244,-5.94512,-39.446,-1.93039,-4.77567,-28.8415,7.86585,5.73171
715.152,5.56457,-7.12654,0,0.996328,9.68785,-1.71244,-0.97561,-2.56098,-5.94512,-39.4651,-2.16031,-4.63197,-27.9268,9.39024,5.36585
715.162,5.51887,-7.11247,0,1.01788,9.59684,-1.67891,-1.43293,-1.7378,-5.67073,-39.2448,-2.20821,-4.62239,-26.2195,10.8232,3.56707
715.172,5.48587,-7.09907,0,1.08255,9.54176,-1.69807,-1.12805,-0.731707,-5.33537,-39.0532,-2.55309,-4.60323,-24.6646,10.4268,3.10976
715.182,5.46157,-7.08349,0,1.13045,9.48907,-1.64538,-0.884146,0.670732,-5.18293,-39.0819,-2.85007,-4.56491,-24.0854,8.81098,2.53049
715.192,5.44275,-7.0818,0,1.14721,9.45793,-1.67412,-0.396341,1.21951,-4.93902,-39.2927,-3.06083,-4.83315,-23.3537,5.73171,1.43293
715.202,5.42989,-7.08064,0,1.16637,9.49386,-1.70525,-0.152439,1.61585,-4.57317,-39.331,-3.10874,-4.85231,-20.6098,3.93293,1.34146
715.212,5.41072,-7.08154,0,1.1065,9.53218,-1.65735,0.152439,1.31098,-4.45122,-39.5993,-3.08958,-4.92895,-17.7744,1.64634,2.37805
715.222,5.3864,-7.07993,0,1.03465,9.57289,-1.65256,0.0609756,0.457317,-4.08537,-39.81,-3.08,-4.91937,-15.9451,-0.731707,0.884146
715.232,5.35657,-7.07806,0,0.981958,9.63516,-1.64538,-0.27439,-0.426829,-3.96341,-39.9729,-2.86923,-4.93853,-15.061,-2.04268,0.121951
715.242,5.32148,-7.07659,0,0.907712,9.69504,-1.64777,-0.762195,-1.34146,-3.56707,-40.1166,-2.63931,-4.96727,-14.5122,-3.56707,0.884146
715.252,5.28538,-7.0778,0,0.850232,9.67827,-1.62382,-1.06707,-2.04268,-3.01829,-40.0591,-2.28485,-5.01517,-14.4512,-5.82317,0.945122
715.262,5.24578,-7.06676,0,0.809517,9.69025,-1.65735,-1.06707,-2.92683,-2.89634,-39.8867,-2.29443,-4.78525,-15.4268,-8.53659,2.34756
715.272,5.2155,-7.06021,0,0.828677,9.66151,-1.67412,-1.18902,-3.35366,-2.2561,-39.6855,-2.21779,-4.84273,-15.9451,-11.25,2.7439
715.282,5.19339,-7.04302,0,0.852627,9.62319,-1.67412,-1.21951,-3.65854,-1.85976,-39.6951,-2.36149,-4.66071,-15.3049,-14.2683,4.02439
715.292,5.18698,-7.04975,0,0.931663,9.58726,-1.69328,-1.40244,-3.59756,-1.67683,-39.5322,-2.60099,-5.06307,-15.4878,-17.2561,4.11585
715.302,5.1799,-7.06114,0,0.953218,9.58726,-1.67412,-1.64634,-3.65854,-2.0122,-39.5609,-2.45729,-5.15887,-15.1829,-18.628,3.41463
715.312,5.18021,-7.0695,0,0.993933,9.59684,-1.69567,-2.0122,-4.05488,-1.92073,-39.5897,-2.64889,-5.12055,-15.8232,-19.6951,3.81098
715.322,5.18905,-7.09595,0,1.06578,9.52739,-1.75076,-2.46951,-3.9939,-2.16463,-39.3598,-2.58183,-5.41753,-15.1524,-20.122,4.39024
715.332,5.20436,-7.13045,0,1.1041,9.50583,-1.73878,-2.16463,-3.78049,-2.13415,-39.1969,-2.37107,-5.55166,-14.6951,-19.0854,4.48171
715.342,5.2068,-7.14743,0,1.09213,9.50104,-1.68609,-1.92073,-3.17073,-2.86585,-39.1203,-2.43813,-5.24509,-14.8171,-15.5793,3.68902
715.352,5.20212,-7.16651,0,1.11129,9.53218,-1.73399,-1.25,-1.70732,-3.59756,-38.9382,-2.38065,-5.26425,-13.3232,-14.1768,2.43902
715.362,5.18541,-7.18872,0,1.03944,9.58726,-1.66933,-0.518293,0.243902,-3.81098,-38.737,-2.41897,-5.30257,-14.0549,-13.5976,2.7439
715.372,5.15482,-7.20652,0,0.979563,9.63277,-1.74357,-0.213415,1.28049,-4.42073,-38.7945,-2.37107,-5.24509,-13.1098,-12.4085,1.70732
715.382,5.11187,-7.20317,0,0.910107,9.63995,-1.76273,-0.182927,1.70732,-4.87805,-38.6125,-2.39981,-4.86189,-14.1463,-11.0671,1.89024
715.392,5.062,-7.18197,0,0.888552,9.62319,-1.74357,-0.0914634,2.07317,-5.42683,-38.5071,-2.12199,-4.53617,-15.2744,-10.2744,2.71341
715.402,5.00903,-7.14851,0,0.838257,9.61361,-1.69088,-0.487805,1.61585,-5.2439,-38.6508,-2.26569,-4.32541,-15.8537,-9.72561,3.23171
715.412,4.96225,-7.12761,0,0.876577,9.64714,-1.67891,-0.579268,1.43293,-5.15244,-38.6125,-2.24653,-4.50743,-16.2195,-7.59146,2.89634
715.422,4.92733,-7.10986,0,0.941243,9.60642,-1.61664,-0.823171,1.31098,-4.87805,-38.7849,-2.25611,-4.56491,-15.9756,-6.76829,2.68293
715.432,4.89499,-7.10078,0,0.955613,9.59445,-1.54958,-0.640244,0.792683,-4.87805,-38.9957,-2.30401,-4.71819,-16.25,-3.65854,2.37805
715.442,4.8727,-7.09242,0,1.0107,9.57289,-1.57113,-0.670732,0.365854,-4.63415,-39.1107,-2.25611,-4.73735,-17.5915,-3.41463,1.92073
715.452,4.8517,-7.07462,0,0.996328,9.5681,-1.61664,-0.518293,0.121951,-4.39024,-38.9765,-2.39981,-4.54575,-15.7622,-1.85976,1.28049
715.462,4.84117,-7.05442,0,1.03944,9.57529,-1.62622,-0.579268,0.121951,-3.93293,-39.1107,-2.52435,-4.50743,-16.25,-1.98171,1.98171
715.472,4.83285,-7.04263,0,1.0107,9.56571,-1.67412,-0.457317,0.243902,-3.44512,-39.1298,-2.53393,-4.64155,-15.6098,-1.61585,2.92683
715.482,4.8323,-7.01713,0,1.05141,9.59445,-1.66933,-0.27439,0.335366,-3.20122,-39.264,-2.51477,-4.41163,-16.128,-2.43902,3.53659
715.492,4.83169,-6.98798,0,1.04423,9.60882,-1.74357,-0.213415,0.335366,-3.10976,-39.2256,-2.37107,-4.32541,-16.0976,-2.34756,3.32317
715.502,4.829,-6.96594,0,1.01549,9.64953,-1.69807,0,0.426829,-2.92683,-39.3885,-2.43813,-4.44995,-15.2439,-2.86585,3.93293
715.512,4.82843,-6.93054,0,0.996328,9.62798,-1.71483,-0.121951,0.243902,-2.59146,-39.3981,-2.27527,-4.20086,-15.8537,-2.86585,4.02439
715.522,4.82625,-6.90686,0,0.989143,9.62079,-1.70286,-0.426829,0,-2.65244,-39.2544,-2.41897,-4.36373,-14.3902,-2.19512,4.63415
715.532,4.83326,-6.87985,0,0.996328,9.59445,-1.68849,-0.365854,0.152439,-2.10366,-39.4364,-2.29443,-4.31582,-15.3963,-4.17683,4.54268
715.542,4.83862,-6.86647,0,0.972378,9.58487,-1.65496,-0.457317,0.365854,-1.98171,-39.3981,-2.17947,-4.53617,-14.5732,-5.21341,2.62195
715.552,4.84085,-6.84666,0,0.931663,9.58008,-1.64777,-0.27439,0.853659,-1.76829,-39.5609,-2.08367,-4.43079,-15.3963,-4.90854,2.83537
715.562,4.83331,-6.81737,0,0.883762,9.60882,-1.5855,0.152439,0.670732,-1.89024,-39.5418,-1.89207,-4.24876,-16.4939,-5.21341,1.95122
715.572,4.82104,-6.7975,0,0.852627,9.63756,-1.57113,-0.152439,0.518293,-1.85976,-39.5801,-1.83458,-4.40205,-17.7744,-6.21951,1.70732
715.582,4.81243,-6.79027,0,0.881367,9.63756,-1.56155,-0.335366,0.182927,-1.95122,-39.4651,-1.65256,-4.60323,-18.3232,-7.68293,2.28659
715.592,4.79883,-6.77324,0,0.881367,9.64953,-1.5879,-0.213415,0.335366,-2.37805,-39.4747,-1.7292,-4.43079,-19.3293,-8.90244,1.95122
715.602,4.7847,-6.7459,0,0.886157,9.63516,-1.55676,-0.27439,0.335366,-2.53049,-39.2448,-1.6813,-4.21044,-21.7073,-8.2622,2.28659
715.612,4.76235,-6.71869,0,0.840652,9.64235,-1.59748,-0.396341,0.243902,-2.7439,-39.2256,-1.91123,-4.19128,-23.3841,-8.10976,2.92683
715.622,4.73965,-6.70846,0,0.828677,9.60642,-1.5855,-0.304878,0.243902,-2.71341,-39.216,-1.89207,-4.46911,-23.872,-8.29268,3.10976
715.632,4.71418,-6.67719,0,0.850232,9.616,-1.56155,-0.304878,0.670732,-3.29268,-39.149,-1.97829,-4.0859,-25.3354,-7.95732,2.7439
715.642,4.6901,-6.67062,0,0.838257,9.62798,-1.54239,-0.243902,0.97561,-3.04878,-39.0244,-2.14115,-4.47869,-25.5488,-7.22561,1.98171
715.652,4.6751,-6.65892,0,0.898132,9.59445,-1.53042,-0.121951,1.18902,-3.01829,-39.0053,-2.15073,-4.38289,-25.2744,-7.28659,3.32317
715.662,4.65517,-6.66452,0,0.869392,9.60882,-1.56395,0.0914634,1.40244,-3.14024,-38.9095,-2.21779,-4.66071,-25.3963,-6.09756,4.72561
715.672,4.63881,-6.66824,0,0.905317,9.6184,-1.5855,0.213415,1.37195,-3.2622,-38.7562,-2.33275,-4.61281,-24.6037,-5.88415,4.35976
715.682,4.63225,-6.66412,0,0.969983,9.63277,-1.56155,-0.0304878,1.31098,-3.14024,-38.9286,-2.28485,-4.49785,-23.811,-5.33537,4.39024
715.692,4.621,-6.65865,0,0.948428,9.63037,-1.62622,0.213415,1.64634,-3.32317,-39.1969,-2.35191,-4.49785,-25.061,-4.08537,5.4878
715.702,4.60842,-6.64644,0,0.922083,9.62558,-1.66933,0.213415,1.70732,-3.17073,-39.2448,-2.09325,-4.38289,-24.0244,-4.45122,6.09756
715.712,4.6002,-6.63871,0,0.948428,9.62558,-1.62861,0.213415,1.98171,-3.10976,-39.3885,-1.98787,-4.46911,-23.6585,-4.42073,7.0122
715.722,4.58813,-6.62641,0,0.910107,9.61121,-1.63101,0.365854,1.95122,-3.04878,-39.4747,-2.08367,-4.39247,-24.3293,-4.32927,6.06707
715.732,4.5713,-6.61981,0,0.871787,9.616,-1.61185,0.27439,1.7378,-3.04878,-39.513,-2.14115,-4.48827,-24.1463,-4.14634,6.25
715.742,4.5444,-6.62323,0,0.807122,9.60403,-1.62143,0.396341,2.19512,-3.2622,-39.5609,-2.03577,-4.67029,-23.3841,-5.39634,5.85366
715.752,4.52307,-6.62137,0,0.833467,9.63037,-1.65017,0.304878,2.31707,-3.07927,-39.446,-2.39023,-4.56491,-22.9573,-5.06098,4.08537
715.762,4.50082,-6.63393,0,0.807122,9.62079,-1.56874,0.121951,2.0122,-2.89634,-39.4172,-2.42855,-4.81399,-21.7378,-4.93902,4.05488
715.772,4.48245,-6.63272,0,0.826282,9.63037,-1.59029,-0.0609756,1.67683,-2.80488,-39.3406,-2.61057,-4.57449,-20.9756,-5.85366,3.2622
715.782,4.46071,-6.64576,0,0.799937,9.62798,-1.61903,-0.0609756,1.25,-2.83537,-39.1873,-2.66805,-4.80441,-19.6037,-5.60976,2.53049
715.792,4.43985,-6.66517,0,0.807122,9.64714,-1.64538,0.0609756,0.609756,-2.86585,-39.1394,-2.85965,-4.91937,-18.872,-5.60976,4.08537
715.802,4.41516,-6.65672,0,0.761616,9.66151,-1.62382,0.0304878,0.213415,-2.68293,-39.1203,-2.83091,-4.44037,-17.6524,-4.84756,3.9939
715.812,4.389,-6.67299,0,0.759221,9.64953,-1.62382,0.0914634,-0.304878,-2.86585,-39.0915,-2.74469,-4.86189,-17.1037,-4.45122,4.35976
715.822,4.36127,-6.66907,0,0.747246,9.64714,-1.6358,-0.27439,-0.579268,-2.92683,-39.2831,-2.67763,-4.54575,-16.5244,-5.39634,4.84756
715.832,4.33791,-6.68298,0,0.771196,9.6184,-1.59508,-0.304878,-1.15854,-2.89634,-39.3214,-2.64889,-4.86189,-15.9451,-5.70122,5.30488
715.843,4.32016,-6.67788,0,0.778381,9.59924,-1.57353,-0.609756,-1.18902,-2.53049,-39.3119,-2.59141,-4.53617,-13.9939,-5.67073,5.18293
715.852,4.30893,-6.68086,0,0.802332,9.62558,-1.61424,-0.304878,-1.28049,-2.2561,-39.3214,-2.62973,-4.67987,-14.5732,-6.89024,4.69512
715.862,4.29271,-6.68708,0,0.775986,9.6639,-1.64059,-0.27439,-0.945122,-2.34756,-39.2927,-2.60099,-4.73735,-13.4451,-7.43902,4.17683
715.872,4.28488,-6.698,0,0.819097,9.62798,-1.64059,-0.335366,-1.03659,-2.22561,-39.3119,-2.40939,-4.82357,-11.8902,-6.52439,4.96951
715.882,4.27933,-6.68767,0,0.847837,9.63516,-1.56634,-0.609756,-1.03659,-2.37805,-39.3981,-2.29443,-4.46911,-12.4085,-6.95122,4.7561
715.892,4.28034,-6.69446,0,0.886157,9.62079,-1.57592,-0.365854,-0.914634,-2.31707,-39.3119,-2.48603,-4.74693,-12.0427,-5.27439,6.03659
715.902,4.28457,-6.69027,0,0.888552,9.62558,-1.65256,-0.579268,-0.762195,-2.10366,-39.0436,-2.41897,-4.52659,-11.128,-4.96951,4.90854
715.912,4.28746,-6.67706,0,0.902922,9.61361,-1.66214,-0.396341,-0.884146,-2.34756,-39.0436,-2.31359,-4.36373,-11.8293,-4.11585,5.88415
715.922,4.28893,-6.67617,0,0.881367,9.58726,-1.68849,-0.365854,-1.40244,-2.2561,-38.8041,-2.17947,-4.53617,-11.128,-2.62195,5.67073
715.932,4.28823,-6.6771,0,0.883762,9.58726,-1.65975,-0.213415,-1.40244,-2.43902,-39.0244,-2.35191,-4.59365,-11.8902,-2.83537,5.4878
715.942,4.28341,-6.67548,0,0.852627,9.62319,-1.66214,-0.27439,-1.37195,-2.37805,-39.0915,-2.23695,-4.55533,-11.2805,-2.10366,4.57317
715.952,4.28271,-6.66741,0,0.874182,9.61361,-1.63101,-0.0914634,-1.09756,-2.31707,-39.1011,-2.25611,-4.44037,-11.4329,-1.43293,4.39024
715.962,4.27674,-6.65686,0,0.859812,9.59445,-1.70525,-0.335366,-0.823171,-2.59146,-39.1298,-2.11241,-4.39247,-12.2256,-0.792683,4.54268
715.972,4.27215,-6.64424,0,0.866997,9.63037,-1.62622,-0.365854,-0.518293,-2.53049,-39.1203,-2.36149,-4.34457,-10.8537,0.213415,4.42073
715.982,4.27025,-6.63499,0,0.869392,9.61361,-1.5879,-0.27439,0.0304878,-2.37805,-39.1969,-2.35191,-4.40205,-12.3171,0.579268,3.47561
715.992,4.27103,-6.62431,0,0.876577,9.59205,-1.57353,-0.27439,-0.0304878,-2.28659,-38.9957,-2.16031,-4.34457,-12.9573,1.64634,3.5061
716.002,4.26835,-6.63142,0,0.857417,9.60882,-1.59029,-0.0304878,0.213415,-2.31707,-39.0723,-2.19863,-4.65113,-13.2927,3.07927,2.95732
716.012,4.27102,-6.63944,0,0.871787,9.59445,-1.60945,-0.27439,0.487805,-2.10366,-39.0915,-2.18905,-4.67029,-12.8659,4.26829,3.2622
716.022,4.27149,-6.64489,0,0.862207,9.60882,-1.6358,0,0.762195,-2.13415,-39.0436,-2.26569,-4.62239,-11.6159,5.09146,2.89634
716.032,4.26633,-6.64403,0,0.847837,9.63037,-1.57113,0.27439,0.853659,-2.37805,-39.149,-2.23695,-4.52659,-12.6829,5.60976,1.7378
716.042,4.25617,-6.62696,0,0.811912,9.63516,-1.65017,0.121951,0.487805,-2.37805,-39.1969,-2.22737,-4.24876,-12.6829,5.36585,1.55488
716.052,4.2439,-6.60996,0,0.795146,9.63516,-1.62382,-0.0609756,0.365854,-2.37805,-39.4076,-2.28485,-4.25834,-12.7744,6.09756,0.0914634
716.062,4.2326,-6.5996,0,0.778381,9.64474,-1.62622,-0.121951,0.304878,-2.10366,-39.4076,-2.09325,-4.36373,-12.1646,5.97561,1.12805
716.072,4.22173,-6.58051,0,0.787961,9.60403,-1.61903,0.213415,0.518293,-2.2561,-39.4747,-2.41897,-4.21044,-11.189,5.91463,1.61585
716.082,4.20406,-6.57205,0,0.749641,9.62319,-1.56874,0.365854,0.97561,-2.37805,-39.3406,-2.45729,-4.37331,-11.189,4.7561,1.09756
716.092,4.18934,-6.56156,0,0.749641,9.63277,-1.6334,0.579268,1.28049,-2.13415,-39.3598,-2.40939,-4.33499,-12.0732,4.48171,1.79878
716.102,4.1717,-6.55881,0,0.728086,9.64474,-1.54239,0.548781,1.43293,-2.13415,-39.2831,-2.37107,-4.45953,-10.8232,3.14024,2.89634
716.112,4.15671,-6.56515,0,0.720901,9.6639,-1.53042,0.518293,1.31098,-1.79878,-39.5705,-2.35191,-4.65113,-10.7622,3.01829,2.9878
716.122,4.13819,-6.55234,0,0.699346,9.63277,-1.55916,0.365854,0.97561,-1.89024,-39.4556,-2.31359,-4.30625,-11.3415,2.62195,2.83537
716.132,4.12544,-6.55883,0,0.708926,9.63277,-1.5376,0.335366,0.27439,-1.52439,-39.5897,-2.16031,-4.65113,-10.3049,3.17073,3.90244
716.142,4.11683,-6.5598,0,0.720901,9.67827,-1.59269,0.0304878,0.152439,-1.31098,-39.6376,-2.14115,-4.56491,-10.4878,2.77439,4.20732
716.152,4.11818,-6.56549,0,0.773591,9.6663,-1.56634,-0.335366,-0.823171,-1.31098,-39.264,-2.01661,-4.60323,-11.4634,3.38415,4.39024
716.162,4.12662,-6.56154,0,0.792751,9.63756,-1.57592,-0.548781,-1.25,-1.12805,-39.2448,-2.14115,-4.44037,-11.8598,2.13415,3.68902
716.172,4.13746,-6.5673,0,0.814307,9.62798,-1.60466,-0.365854,-1.18902,-1.21951,-39.2831,-2.29443,-4.61281,-11.4939,1.95122,4.20732
716.182,4.15332,-6.57686,0,0.850232,9.63277,-1.61903,-0.0304878,-1.0061,-1.28049,-39.446,-2.38065,-4.70861,-12.561,0.335366,4.5122
716.192,4.16595,-6.59826,0,0.843047,9.59445,-1.65735,-0.0304878,-0.670732,-1.40244,-39.3789,-2.46687,-4.91937,-9.96951,-0.731707,4.93902
716.202,4.18231,-6.6148,0,0.852627,9.57529,-1.59987,0.121951,-0.152439,-1.31098,-39.4556,-2.43813,-4.86189,-10.6098,-1.76829,4.42073
716.212,4.19436,-6.66186,0,0.864602,9.58008,-1.57592,-0.0609756,0.396341,-1.61585,-39.3885,-2.51477,-5.40795,-8.38415,-2.95732,3.90244
716.222,4.19728,-6.68239,0,0.804727,9.58247,-1.61664,0.335366,0.97561,-1.52439,-39.4172,-2.53393,-4.97685,-7.9878,-3.20122,3.5061
716.232,4.19057,-6.70708,0,0.764011,9.61361,-1.63101,0.335366,1.21951,-1.67683,-39.216,-2.35191,-5.04391,-8.41463,-4.66463,2.62195
716.242,4.18145,-6.73144,0,0.764011,9.63756,-1.62382,0.579268,1.37195,-1.85976,-39.4076,-2.47645,-5.08223,-9.48171,-5.33537,3.81098
716.252,4.17162,-6.7374,0,0.756826,9.65193,-1.57353,0.152439,1.40244,-1.82927,-39.446,-2.31359,-4.78525,-8.81098,-7.04268,4.60366
716.262,4.15842,-6.75683,0,0.725691,9.68306,-1.64777,0.396341,0.731707,-1.67683,-39.6472,-2.32317,-5.05349,-8.84146,-7.2561,5.4878
716.272,4.14189,-6.76982,0,0.723296,9.69025,-1.65256,-0.243902,-0.213415,-1.98171,-39.7334,-2.62015,-4.96727,-7.53049,-8.29268,5.97561
716.282,4.12661,-6.78072,0,0.732876,9.65911,-1.56155,-0.365854,-0.731707,-2.07317,-39.9154,-2.72553,-4.96727,-7.5,-9.81707,5.7622
716.292,4.11871,-6.78338,0,0.759221,9.66869,-1.62382,-0.518293,-1.21951,-1.79878,-39.7909,-2.70637,-4.81399,-7.04268,-10.1829,5.42683
716.302,4.10837,-6.77837,0,0.744851,9.67348,-1.59508,-0.457317,-1.40244,-1.82927,-39.7621,-2.63931,-4.67987,-6.89024,-11.25,5.57927
716.312,4.11093,-6.79381,0,0.799937,9.63995,-1.57353,-0.426829,-1.64634,-1.58537,-39.3119,-2.45729,-4.97685,-4.57317,-9.48171,5.30488
716.322,4.11797,-6.79076,0,0.799937,9.60882,-1.54958,-0.0914634,-1.55488,-1.34146,-39.1777,-2.48603,-4.65113,-4.87805,-10.8232,5.18293
716.332,4.12323,-6.77024,0,0.804727,9.62798,-1.54718,-0.121951,-2.07317,-1.46341,-38.9574,-2.40939,-4.31582,-5.33537,-9.93902,5.88415
716.342,4.13117,-6.75511,0,0.811912,9.62558,-1.54958,-0.365854,-2.31707,-1.37195,-38.8137,-2.32317,-4.38289,-6.52439,-10.9756,6.15854
716.352,4.14797,-6.74973,0,0.833467,9.60163,-1.64538,-0.487805,-2.80488,-1.12805,-38.6604,-2.03577,-4.52659,-7.22561,-11.9207,6.43293
716.362,4.16342,-6.74193,0,0.838257,9.59924,-1.59029,-0.457317,-2.86585,-1.21951,-38.5933,-2.05493,-4.46911,-8.07927,-10.6402,7.04268
716.372,4.17795,-6.74799,0,0.862207,9.64235,-1.65735,-0.396341,-3.14024,-1.40244,-38.5359,-1.95913,-4.68945,-8.9939,-8.75,7.65244
716.382,4.19765,-6.75964,0,0.931663,9.59684,-1.66454,-0.304878,-3.07927,-1.76829,-38.5742,-2.09325,-4.78525,-10.6707,-5.91463,8.90244
716.392,4.21746,-6.7786,0,0.962798,9.58008,-1.64538,-0.27439,-2.71341,-2.0122,-38.6796,-2.12199,-4.91937,-11.0366,-1.98171,8.96341
716.402,4.23843,-6.78909,0,0.996328,9.60403,-1.62861,-0.27439,-2.10366,-2.16463,-38.8041,-2.13157,-4.79483,-12.1646,-0.0914634,7.46951
716.412,4.26235,-6.79406,0,1.0107,9.5681,-1.65256,-0.213415,-1.43293,-2.13415,-39.1203,-2.31359,-4.73735,-13.872,1.98171,8.29268
716.422,4.28426,-6.81175,0,1.02267,9.55852,-1.69328,0,-0.518293,-2.31707,-39.1586,-2.15073,-4.96727,-14.4512,2.31707,8.38415
716.432,4.30293,-6.81783,0,1.02746,9.59684,-1.69807,0.304878,0.335366,-2.46951,-39.331,-2.27527,-4.79483,-17.2256,2.95732,9.45122
716.442,4.31664,-6.81453,0,0.998723,9.60163,-1.68849,0.365854,1.34146,-2.5,-39.4651,-2.20821,-4.65113,-18.628,2.62195,7.71341
716.452,4.33017,-6.80552,0,0.991538,9.616,-1.6837,0.518293,1.70732,-2.40854,-39.8292,-2.29443,-4.59365,-18.0183,1.58537,7.43902
716.462,4.33954,-6.81399,0,0.962798,9.60882,-1.67891,0.548781,1.95122,-2.40854,-39.628,-2.32317,-4.88105,-18.872,-0.457317,7.10366
716.472,4.34805,-6.81546,0,0.941243,9.62558,-1.70765,0.304878,2.53049,-2.22561,-39.7046,-2.25611,-4.77567,-18.8415,-1.52439,6.21951
716.482,4.34757,-6.7958,0,0.917292,9.59684,-1.69567,0.792683,2.59146,-2.65244,-39.446,-2.32317,-4.37331,-18.9634,-1.52439,8.32317
716.492,4.34571,-6.78095,0,0.881367,9.62558,-1.69328,0.396341,2.65244,-2.34756,-39.2927,-2.50519,-4.42121,-19.3598,0.213415,6.58537
716.502,4.32969,-6.76632,0,0.771196,9.60163,-1.66933,0.487805,2.53049,-2.2561,-38.9957,-2.53393,-4.37331,-18.0488,2.53049,5.27439
716.512,4.30747,-6.73714,0,0.716111,9.61121,-1.66214,0.457317,2.22561,-2.10366,-38.7562,-2.57225,-4.07632,-17.7134,5.09146,5.97561
716.522,4.28134,-6.71057,0,0.665815,9.61361,-1.59508,0.548781,2.04268,-1.70732,-38.8137,-2.34233,-4.10506,-17.7134,5.82317,4.35976
716.532,4.24191,-6.70044,0,0.579595,9.63516,-1.59748,0.548781,1.64634,-1.64634,-38.8807,-2.41897,-4.37331,-16.2805,7.5,4.39024
716.542,4.20423,-6.68209,0,0.579595,9.61361,-1.57592,0.426829,0.884146,-1.43293,-38.6987,-2.49561,-4.20086,-16.3415,8.44512,2.92683
716.552,4.16486,-6.67418,0,0.56762,9.65432,-1.65256,-0.0304878,0.243902,-1.67683,-38.8903,-2.55309,-4.39247,-16.9817,7.7439,2.80488
716.562,4.12644,-6.68565,0,0.565225,9.62319,-1.59029,-0.243902,-0.27439,-1.61585,-38.852,-2.56267,-4.71819,-15.9451,8.01829,1.61585
716.572,4.09888,-6.65857,0,0.61552,9.61121,-1.65975,-0.548781,-0.823171,-1.40244,-38.9574,-2.49561,-4.06674,-16.6463,8.56707,3.20122
716.582,4.09533,-6.64501,0,0.730481,9.57529,-1.58071,-0.823171,-1.25,-1.25,-39.1394,-2.37107,-4.30625,-17.622,7.59146,3.47561
716.592,4.09781,-6.6359,0,0.764011,9.62319,-1.56395,-0.640244,-1.25,-1.21951,-39.4843,-2.49561,-4.41163,-18.1402,7.9878,4.54268
716.602,4.11025,-6.62011,0,0.807122,9.6184,-1.54958,-0.304878,-1.18902,-1.12805,-39.5801,-2.28485,-4.30625,-19.6037,5.67073,5
716.612,4.12568,-6.6146,0,0.835862,9.62798,-1.59748,-0.27439,-0.457317,-1.21951,-39.9441,-2.38065,-4.52659,-18.9024,3.14024,4.81707
716.622,4.14979,-6.62091,0,0.874182,9.65432,-1.61424,-0.0609756,-0.0914634,-1.09756,-39.6567,-2.40939,-4.70861,-18.3232,0.518293,6.0061
716.632,4.16851,-6.61821,0,0.847837,9.65911,-1.60945,0.0304878,0.701219,-1.06707,-39.6951,-2.29443,-4.56491,-18.4756,-1.46341,6.40244
716.642,4.17459,-6.6242,0,0.821492,9.65193,-1.62861,-0.121951,1.18902,-1.46341,-39.6567,-2.27527,-4.71819,-19.2378,-3.14024,7.95732
716.652,4.18058,-6.63376,0,0.799937,9.63037,-1.64777,-0.152439,1.70732,-1.25,-39.5418,-2.12199,-4.77567,-19.7256,-4.20732,8.14024
716.662,4.18821,-6.64533,0,0.780776,9.63277,-1.5879,0.304878,1.98171,-0.914634,-39.6567,-2.24653,-4.83315,-21.0061,-4.60366,9.45122
716.672,4.19431,-6.67407,0,0.759221,9.64953,-1.62143,0.213415,1.55488,-0.670732,-39.6663,-2.35191,-5.14929,-18.8415,-5.12195,8.71951
716.682,4.18983,-6.6889,0,0.713716,9.65672,-1.60945,0.121951,1.64634,-0.609756,-39.6472,-2.37107,-4.91937,-18.3537,-4.96951,8.44512
716.692,4.19761,-6.68607,0,0.747246,9.63756,-1.55676,0.182927,1.37195,-0.396341,-39.5897,-2.41897,-4.61281,-19.2683,-5.73171,8.62805
716.702,4.19017,-6.67982,0,0.687371,9.62079,-1.57592,0.152439,1.0061,-0.121951,-39.446,-2.33275,-4.53617,-18.9329,-6.43293,7.77439
716.712,4.1954,-6.67177,0,0.732876,9.65911,-1.66693,-0.152439,0.914634,-0.243902,-39.2448,-2.35191,-4.47869,-18.811,-6.89024,7.56098
716.722,4.2128,-6.66822,0,0.756826,9.64235,-1.59029,0,0.762195,0.213415,-39.3502,-2.30401,-4.56491,-19.3902,-7.04268,7.9878
716.732,4.23142,-6.6687,0,0.771196,9.61121,-1.64059,-0.0609756,0.792683,-0.182927,-39.216,-2.42855,-4.62239,-18.689,-8.5061,9.54268
716.742,4.24296,-6.67308,0,0.771196,9.61121,-1.59987,-0.0914634,1.12805,-0.487805,-39.2065,-2.35191,-4.68945,-17.3476,-8.38415,9.26829
716.752,4.26316,-6.69583,0,0.807122,9.54415,-1.5855,-0.182927,1.40244,-0.609756,-39.3598,-2.36149,-5.03433,-17.2561,-8.32317,9.32927
716.762,4.28041,-6.70946,0,0.787961,9.58966,-1.60706,0.304878,1.4939,-0.396341,-39.216,-2.52435,-4.87147,-18.0793,-8.29268,8.01829
716.772,4.30488,-6.72751,0,0.799937,9.62558,-1.5879,0.152439,1.37195,-0.152439,-39.1203,-2.30401,-4.94811,-15.7317,-8.81098,7.19512
716.782,4.3134,-6.7276,0,0.744851,9.60163,-1.57592,0.121951,1.09756,0.0914634,-39.0244,-2.36149,-4.63197,-15.9146,-7.92683,5.88415
716.792,4.33339,-6.74236,0,0.780776,9.60642,-1.60945,0.152439,0.731707,0.152439,-38.967,-2.26569,-4.88105,-14.939,-7.95732,6.4939
716.802,4.3486,-6.75855,0,0.773591,9.64235,-1.62861,-0.0609756,0.243902,0.121951,-38.967,-2.34233,-4.90979,-14.6037,-6.09756,5.21341
716.812,4.37664,-6.76121,0,0.819097,9.62319,-1.65256,0.27439,0.0914634,0.426829,-39.0628,-2.24653,-4.69903,-13.628,-6.76829,4.39024
716.822,4.40948,-6.78518,0,0.840652,9.65193,-1.65017,-0.121951,-0.640244,0.243902,-39.3119,-2.42855,-5.10139,-12.3171,-5.54878,5.33537
716.832,4.45912,-6.80299,0,0.893342,9.62319,-1.6358,-0.0609756,-0.884146,0.182927,-39.3693,-2.54351,-5.01517,-12.8963,-5,5.42683
716.842,4.50216,-6.82774,0,0.874182,9.62079,-1.65735,-0.0914634,-0.823171,0.0609756,-39.1681,-2.57225,-5.12055,-10.1829,-4.05488,4.35976
716.852,4.53734,-6.85919,0,0.862207,9.62798,-1.59508,-0.0304878,-1.12805,-0.0609756,-39.2735,-2.51477,-5.26425,-10.061,-2.53049,4.42073
716.862,4.57504,-6.89449,0,0.874182,9.62319,-1.60227,0.121951,-1.21951,0.121951,-39.0149,-2.49561,-5.31215,-8.59756,-0.609756,4.26829
716.872,4.60786,-6.93395,0,0.864602,9.62319,-1.63101,0.152439,-0.914634,-0.0304878,-38.8903,-2.43813,-5.38879,-7.28659,0.396341,5.42683
716.882,4.64274,-6.96025,0,0.878972,9.63277,-1.59029,0.152439,-0.609756,0.121951,-39.0532,-2.29443,-5.20677,-5.82317,0.792683,5.42683
716.892,4.67399,-6.97871,0,0.869392,9.62558,-1.53521,0.335366,-0.762195,0.0304878,-38.8233,-2.28485,-5.05349,-6.46341,2.07317,4.87805
716.902,4.70966,-7.02343,0,0.890947,9.63756,-1.58071,0.0304878,-1.0061,0.0609756,-38.8999,-2.31359,-5.5325,-5.03049,2.71341,6.31098
716.912,4.74763,-7.02928,0,0.910107,9.62558,-1.51365,-0.182927,-0.945122,0.27439,-39.0723,-2.04535,-4.90979,-4.7561,1.79878,6.12805
716.922,4.79293,-7.04568,0,0.929268,9.58487,-1.56634,0.0914634,-1.34146,0.182927,-39.1298,-1.79626,-5.10139,-4.69512,3.17073,7.56098
716.932,4.84584,-7.06515,0,0.953218,9.60163,-1.5879,0.548781,-0.884146,0.0304878,-39.2831,-1.89207,-5.18761,-6.61585,2.92683,7.28659
716.942,4.89304,-7.1009,0,0.962798,9.58487,-1.58071,0.396341,-1.03659,-0.182927,-39.149,-2.06451,-5.46543,-7.0122,4.14634,7.10366
716.952,4.9377,-7.13299,0,0.967588,9.60163,-1.66933,0.365854,-0.914634,-0.182927,-39.2448,-2.08367,-5.43669,-7.16463,4.87805,7.59146
716.962,4.96998,-7.15369,0,0.974773,9.60403,-1.5855,0.609756,-0.304878,-0.548781,-39.3598,-2.02619,-5.27383,-6.92073,4.84756,7.53049
716.972,4.99869,-7.18914,0,0.946033,9.61361,-1.61424,0.487805,0.121951,-0.335366,-39.1969,-2.00703,-5.52291,-8.17073,5.79268,6.67683
716.982,5.02098,-7.19019,0,0.955613,9.58487,-1.62143,0.762195,0.548781,-0.670732,-39.4364,-2.02619,-4.97685,-8.62805,4.63415,6.31098
716.992,5.04559,-7.20455,0,0.981958,9.54176,-1.65017,1.06707,1.06707,-0.853659,-39.2544,-2.33275,-5.18761,-9.57317,4.96951,6.61585
717.002,5.07367,-7.21297,0,0.979563,9.57529,-1.67412,1.03659,1.4939,-0.609756,-39.3406,-2.10283,-5.10139,-9.05488,5.79268,6.28049
717.012,5.09548,-7.21875,0,0.972378,9.59924,-1.6813,1.06707,1.82927,-0.701219,-39.4076,-2.09325,-5.07265,-7.68293,4.87805,5.39634
717.022,5.12205,-7.22549,0,0.989143,9.59445,-1.71483,1.15854,1.76829,-0.640244,-39.216,-2.15073,-5.07265,-8.78049,3.71951,5.67073
717.032,5.13857,-7.2215,0,0.969983,9.63516,-1.76273,1.06707,1.18902,-0.762195,-39.2256,-2.31359,-4.89063,-9.29878,3.62805,6.85976
717.043,5.15364,-7.21615,0,0.958008,9.67109,-1.75794,0.701219,0.945122,-0.609756,-39.3885,-2.16989,-4.88105,-10,4.48171,7.22561
717.053,5.15415,-7.22075,0,0.898132,9.6639,-1.71483,-0.0609756,-0.335366,-0.609756,-39.1777,-2.23695,-5.02475,-9.87805,4.81707,7.62195
717.062,5.15159,-7.219,0,0.874182,9.63037,-1.61424,-0.396341,-0.487805,-0.426829,-39.331,-2.26569,-4.93853,-10.122,3.96341,7.2561
717.072,5.14492,-7.2151,0,0.859812,9.63277,-1.66693,-0.640244,-0.792683,-0.457317,-39.1969,-2.30401,-4.88105,-10.3659,4.48171,7.19512
717.082,5.14778,-7.21457,0,0.883762,9.60163,-1.60945,-0.335366,-0.518293,-0.304878,-39.1298,-2.23695,-4.92895,-12.1951,4.54268,6.52439
717.092,5.14369,-7.20385,0,0.859812,9.57768,-1.5879,-0.0609756,-0.579268,-0.335366,-39.216,-2.28485,-4.76609,-12.7744,2.89634,5.27439
717.102,5.13875,-7.20959,0,0.862207,9.57768,-1.65017,0.243902,-0.335366,-0.518293,-39.3119,-1.94955,-5.06307,-11.4024,2.0122,6.40244
717.112,5.13121,-7.19575,0,0.866997,9.59205,-1.62382,0.182927,0.0609756,-0.884146,-39.5609,-2.11241,-4.75651,-12.1646,0.853659,5.12195
717.122,5.1228,-7.19971,0,0.864602,9.62319,-1.66933,0.121951,0.0609756,-0.884146,-39.5897,-2.08367,-5.06307,-13.5366,1.58537,4.90854
717.132,5.11058,-7.20537,0,0.866997,9.60403,-1.58311,0.0914634,0,-1.37195,-39.446,-1.86333,-5.07265,-13.2012,2.95732,4.45122
717.142,5.10151,-7.20018,0,0.871787,9.5705,-1.66933,0.304878,0.365854,-1.25,-39.446,-2.03577,-4.89063,-14.3293,1.37195,4.66463
717.152,5.09702,-7.20543,0,0.874182,9.60403,-1.62382,0.335366,0.365854,-0.853659,-39.3981,-1.97829,-5.06307,-14.8171,1.98171,5.36585
717.162,5.10167,-7.1955,0,0.926873,9.64714,-1.65496,0.426829,0.213415,-0.945122,-39.1873,-2.13157,-4.77567,-15.0305,1.31098,5.18293
717.172,5.11236,-7.20323,0,0.936453,9.61121,-1.66214,0.365854,0.0914634,-0.762195,-39.0149,-2.24653,-5.06307,-15.061,-0.701219,5.51829
717.182,5.11834,-7.21265,0,0.936453,9.63277,-1.64538,-0.0304878,-0.0304878,-0.97561,-38.9861,-2.21779,-5.09181,-15.5793,0,5.45732
717.192,5.12521,-7.21623,0,0.934058,9.59205,-1.65735,-0.121951,-0.0304878,-0.945122,-39.0436,-2.27527,-5.00559,-15.9451,-0.518293,6.21951
717.202,5.14707,-7.22319,0,0.972378,9.58247,-1.66693,-0.121951,0.213415,-0.640244,-39.1873,-2.16031,-5.08223,-16.8902,0.457317,7.62195
717.212,5.16668,-7.23446,0,0.986748,9.59445,-1.65735,0.0914634,-0.0304878,-0.823171,-39.3406,-2.16989,-5.18761,-16.0671,-0.823171,6.12805
717.222,5.19191,-7.24006,0,0.998723,9.58008,-1.61903,-0.121951,0.213415,-0.701219,-39.3214,-2.06451,-5.09181,-18.2927,-0.487805,6.37195
717.232,5.21964,-7.26518,0,1.02267,9.5681,-1.67412,0.27439,0.548781,-0.792683,-39.3885,-1.97829,-5.44627,-16.4024,0.396341,6.18902
717.242,5.23478,-7.27812,0,0.996328,9.63277,-1.6334,0.182927,0.548781,-0.945122,-39.2735,-2.08367,-5.23551,-17.5305,-0.27439,5.2439
717.252,5.25739,-7.28685,0,0.993933,9.62319,-1.59269,0.243902,0.548781,-0.579268,-39.3023,-1.96871,-5.16845,-17.5,1.43293,6.76829
717.262,5.27377,-7.29605,0,1.00351,9.63756,-1.64059,0.0609756,1.18902,-0.884146,-39.2448,-2.04535,-5.17803,-17.561,0.579268,7.13415
717.272,5.28329,-7.28868,0,0.991538,9.61121,-1.60706,0.243902,1.43293,-1.12805,-39.2927,-2.11241,-4.90021,-18.1402,0.213415,7.2561
717.282,5.2843,-7.31403,0,0.958008,9.60403,-1.61185,0.27439,1.55488,-1.25,-39.2927,-2.20821,-5.47501,-17.378,-0.701219,6.95122
717.292,5.27644,-7.31168,0,0.922083,9.6184,-1.60945,0.396341,1.25,-1.40244,-39.4556,-2.12199,-5.02475,-17.0427,-0.640244,6.70732
717.302,5.25971,-7.33741,0,0.857417,9.58966,-1.64298,0.304878,1.21951,-1.15854,-39.2448,-2.27527,-5.49417,-16.6159,-1.61585,6.12805
717.312,5.2388,-7.36041,0,0.826282,9.59924,-1.6358,0.396341,0.762195,-0.823171,-39.3119,-2.30401,-5.47501,-16.311,-2.07317,6.09756
717.322,5.21687,-7.39567,0,0.819097,9.5705,-1.65017,0.396341,0.548781,-0.97561,-39.216,-2.24653,-5.69536,-15.3659,-2.56098,5.36585
717.332,5.19488,-7.41253,0,0.814307,9.5681,-1.66693,0.0914634,0.365854,-0.945122,-39.3023,-2.26569,-5.40795,-14.5732,-2.65244,4.42073
717.342,5.18117,-7.44079,0,0.850232,9.61361,-1.62143,0.213415,-0.0304878,-0.884146,-39.149,-2.25611,-5.59956,-13.4146,-2.77439,4.5122
717.352,5.17404,-7.45462,0,0.883762,9.60882,-1.62622,0.243902,-0.426829,-1.0061,-39.3789,-2.26569,-5.39837,-13.2012,-3.23171,3.59756
717.362,5.16848,-7.46367,0,0.888552,9.62558,-1.6837,0.27439,-0.182927,-0.945122,-39.216,-2.42855,-5.30257,-13.2622,-3.5061,2.0122
717.372,5.17381,-7.47522,0,0.929268,9.616,-1.65017,0.0914634,-0.426829,-0.823171,-39.3502,-2.19863,-5.36963,-11.0366,-3.01829,2.37805
717.382,5.17692,-7.47017,0,0.938848,9.64235,-1.67891,-0.243902,-0.365854,-1.03659,-39.1777,-2.28485,-5.06307,-11.9512,-3.2622,2.86585
717.392,5.17519,-7.46412,0,0.941243,9.59924,-1.66214,-0.0609756,-0.457317,-1.46341,-39.1969,-2.33275,-5.04391,-12.7134,-3.07927,3.41463
717.402,5.17994,-7.46054,0,0.958008,9.62798,-1.67891,0,-0.792683,-1.18902,-39.0915,-2.24653,-5.07265,-11.4634,-3.9939,4.08537
717.412,5.18315,-7.46194,0,0.936453,9.57289,-1.70286,0.182927,-0.518293,-1.09756,-39.034,-2.33275,-5.14929,-13.628,-3.84146,4.81707
717.422,5.19125,-7.46549,0,0.941243,9.59445,-1.62143,0.0609756,-0.518293,-0.823171,-39.1777,-2.17947,-5.20677,-13.7805,-3.81098,5.51829
717.432,5.21205,-7.47575,0,0.974773,9.59445,-1.60466,0.0304878,-0.701219,-0.579268,-39.2927,-2.28485,-5.34089,-13.9939,-3.23171,4.96951
717.442,5.23598,-7.4716,0,0.981958,9.57529,-1.64777,0.152439,-0.579268,-0.518293,-39.1298,-2.21779,-5.07265,-15.1829,-3.10976,4.87805
717.452,5.2581,-7.46402,0,0.974773,9.59684,-1.71244,-0.152439,-1.09756,-0.426829,-39.2352,-2.16989,-5.02475,-14.1768,-3.59756,5.15244
717.462,5.28735,-7.46157,0,1.00351,9.57529,-1.65496,-0.335366,-1.37195,-0.457317,-39.2352,-2.18905,-5.11097,-14.4207,-3.9939,5.67073
717.472,5.31243,-7.48527,0,1.00591,9.56092,-1.64298,0.213415,-0.823171,-0.609756,-39.1777,-2.16989,-5.56124,-14.939,-3.81098,4.26829
717.482,5.33931,-7.49306,0,1.02746,9.59924,-1.65017,0.243902,-0.853659,-0.640244,-39.2927,-2.18905,-5.31215,-14.878,-3.53659,5.4878
717.492,5.36784,-7.49699,0,1.01788,9.59205,-1.67891,0.365854,-0.396341,-0.457317,-39.264,-2.29443,-5.24509,-13.8415,-3.35366,4.7561
717.502,5.39055,-7.51308,0,1.0083,9.58247,-1.68609,0.518293,0.182927,-0.548781,-39.3981,-2.37107,-5.48459,-13.9329,-4.42073,4.5122
717.512,5.39887,-7.52972,0,1.00112,9.65193,-1.7316,0.609756,0.213415,-1.0061,-39.2448,-2.32317,-5.48459,-12.8659,-4.54268,4.78659
717.522,5.40565,-7.56134,0,0.996328,9.60882,-1.69088,-0.152439,0.121951,-1.09756,-39.1586,-2.35191,-5.74326,-13.628,-3.14024,4.20732
717.532,5.41205,-7.58697,0,0.989143,9.59924,-1.69567,0.0914634,-0.0304878,-1.03659,-38.9861,-2.17947,-5.63788,-13.5671,-4.08537,4.63415
717.542,5.40782,-7.61007,0,0.931663,9.59205,-1.66933,-0.27439,-0.0609756,-0.945122,-38.9382,-2.22737,-5.59956,-14.1159,-2.65244,4.81707
717.552,5.40213,-7.64371,0,0.950823,9.59684,-1.65975,-0.27439,-0.182927,-1.37195,-38.7179,-2.14115,-5.76242,-13.9634,-1.12805,5.12195
717.562,5.39613,-7.66615,0,0.950823,9.58247,-1.67412,0.0914634,-0.609756,-1.43293,-38.967,-2.04535,-5.6283,-13.2927,-1.70732,5.79268
717.572,5.39604,-7.67456,0,0.977168,9.61121,-1.67891,-0.243902,-0.426829,-1.31098,-38.9191,-2.23695,-5.38879,-15.2744,-0.945122,5.21341
717.582,5.3979,-7.68737,0,1.01309,9.58247,-1.67412,-0.335366,-0.335366,-1.64634,-38.8616,-2.05493,-5.45585,-15.061,1.31098,5.42683
717.592,5.39883,-7.70097,0,1.03704,9.61121,-1.70046,0.121951,-0.213415,-1.92073,-39.0244,-1.98787,-5.50376,-15.0305,0.640244,5.18293
717.602,5.40045,-7.71241,0,1.02507,9.57529,-1.65256,0,0.27439,-1.79878,-39.0436,-1.89207,-5.47501,-16.5244,1.4939,6.46341
717.612,5.39469,-7.71525,0,1.02028,9.57289,-1.67172,0.152439,0.640244,-2.28659,-39.1107,-2.21779,-5.34089,-16.3415,1.61585,5.7622
717.622,5.38741,-7.71495,0,1.0083,9.59205,-1.64059,0.121951,0.731707,-2.2561,-39.3502,-2.26569,-5.32173,-17.5305,1.12805,6.61585
717.632,5.38794,-7.71048,0,1.05381,9.57768,-1.64298,0.152439,0.97561,-2.19512,-39.1777,-2.12199,-5.22593,-16.8902,0.853659,6.85976
717.642,5.38294,-7.71223,0,1.00112,9.60882,-1.67172,0.518293,0.762195,-1.98171,-39.2256,-2.24653,-5.34089,-17.7744,0.243902,6.37195
717.652,5.37876,-7.72814,0,1.00591,9.60882,-1.71723,0.487805,1.15854,-1.98171,-39.264,-2.32317,-5.59956,-16.189,-0.487805,5.57927
717.662,5.37386,-7.73459,0,0.986748,9.62558,-1.65256,0.457317,0.945122,-1.79878,-39.1203,-2.20821,-5.41753,-15.7622,1.31098,8.04878
717.672,5.36114,-7.71662,0,0.948428,9.63756,-1.71004,0.304878,0.914634,-1.95122,-39.1586,-2.34233,-5.00559,-16.0976,-0.731707,6.70732
717.682,5.35447,-7.72386,0,0.962798,9.64474,-1.67651,0.0914634,0.762195,-1.64634,-39.1107,-2.27527,-5.42711,-15.8232,-0.152439,6.4939
717.692,5.34744,-7.73816,0,0.953218,9.61121,-1.66693,-0.0304878,0.0914634,-1.61585,-39.0723,-2.21779,-5.55166,-16.4634,-0.365854,6.82927
717.702,5.33879,-7.73392,0,0.943638,9.60403,-1.64538,-0.0304878,-0.0304878,-1.64634,-39.2448,-2.19863,-5.26425,-15.5793,-1.79878,6.37195
717.712,5.32716,-7.73502,0,0.922083,9.58487,-1.67412,-0.121951,-0.304878,-1.64634,-39.4076,-2.16031,-5.37921,-14.5427,-2.28659,4.90854
717.722,5.31653,-7.74636,0,0.919688,9.58247,-1.67651,-0.0609756,-0.243902,-1.55488,-39.3119,-2.14115,-5.55166,-14.6341,-3.38415,5.03049
717.732,5.30169,-7.75014,0,0.893342,9.60163,-1.65256,0.0304878,-0.579268,-1.52439,-39.2256,-2.31359,-5.41753,-13.7805,-4.35976,4.32927
717.742,5.28666,-7.75314,0,0.890947,9.59684,-1.65975,-0.0609756,-0.762195,-1.55488,-39.3885,-2.15073,-5.42711,-13.1098,-3.90244,4.48171
717.752,5.27773,-7.75126,0,0.922083,9.61361,-1.66933,-0.0914634,-0.884146,-1.4939,-39.4364,-2.32317,-5.35047,-12.439,-4.14634,5.45732
717.762,5.26015,-7.7382,0,0.883762,9.63277,-1.60945,0.0609756,-0.853659,-1.70732,-39.5226,-2.30401,-5.16845,-14.1463,-5.85366,5.67073
717.772,5.24419,-7.73875,0,0.900527,9.63037,-1.6358,-0.152439,-0.609756,-1.85976,-39.3502,-2.40939,-5.37921,-14.2988,-6.4939,4.57317
717.782,5.23226,-7.73621,0,0.922083,9.59205,-1.64538,-0.396341,-0.640244,-1.89024,-39.3598,-2.10283,-5.33131,-15.2134,-7.92683,5.12195
717.792,5.22303,-7.74883,0,0.938848,9.60403,-1.66214,-0.27439,-0.487805,-1.89024,-39.3598,-2.07409,-5.59956,-14.7561,-8.47561,4.35976
717.802,5.2133,-7.7566,0,0.948428,9.60403,-1.65496,-0.243902,-0.487805,-2.07317,-38.9765,-2.30401,-5.46543,-15.061,-7.5,4.2378
717.812,5.20521,-7.77377,0,0.946033,9.56571,-1.67172,-0.121951,-0.335366,-1.98171,-39.149,-2.07409,-5.65704,-16.4939,-6.52439,5.06098
717.822,5.20048,-7.77848,0,0.962798,9.55613,-1.67172,0.0609756,-0.121951,-1.95122,-38.8712,-2.23695,-5.40795,-15.3659,-5.57927,4.17683
717.832,5.19903,-7.77195,0,1.00591,9.59924,-1.71244,0.0304878,0.0914634,-2.13415,-39.0819,-2.38065,-5.24509,-14.7561,-6.09756,3.2622
717.842,5.19343,-7.76774,0,0.979563,9.55373,-1.69088,-0.0304878,0.0304878,-2.22561,-39.1969,-2.38065,-5.29299,-15.3963,-5.06098,3.71951
717.852,5.19835,-7.75915,0,1.03704,9.56331,-1.70286,-0.0609756,0.121951,-2.07317,-39.0053,-2.35191,-5.18761,-14.6646,-5,4.29878
717.862,5.20558,-7.73633,0,1.04183,9.5705,-1.71004,0.0609756,0.304878,-1.95122,-38.9191,-2.25611,-4.91937,-14.7866,-4.29878,3.87195
717.872,5.20532,-7.71199,0,1.01549,9.58487,-1.6358,0.0304878,0.670732,-2.16463,-38.9861,-2.17947,-4.88105,-13.0183,-2.92683,4.17683
717.882,5.20821,-7.68831,0,1.00591,9.59445,-1.67172,0.304878,0.884146,-1.82927,-38.9765,-2.33275,-4.87147,-15,-2.07317,4.32927
717.892,5.20594,-7.69826,0,0.986748,9.59445,-1.6334,0.0609756,1.12805,-1.98171,-39.0628,-2.12199,-5.45585,-15.1829,-2.28659,4.05488
717.902,5.19708,-7.68267,0,0.953218,9.59684,-1.6813,0.243902,1.03659,-2.10366,-39.0819,-2.02619,-5.01517,-15.3963,-1.58537,3.93293
717.912,5.18946,-7.68179,0,0.936453,9.60642,-1.71483,0.243902,1.31098,-1.79878,-39.1777,-2.29443,-5.27383,-15.9451,-1.28049,4.11585
717.922,5.17833,-7.67572,0,0.924478,9.60882,-1.66214,0.182927,0.823171,-1.95122,-39.1969,-2.06451,-5.17803,-16.0976,0.640244,3.9939
717.932,5.17142,-7.67604,0,0.922083,9.61361,-1.67651,0.0914634,0.640244,-1.58537,-39.1873,-2.17947,-5.28341,-15.5793,1.03659,3.96341
717.942,5.16608,-7.67623,0,0.941243,9.62558,-1.64298,0,0.335366,-1.70732,-39.1011,-2.16989,-5.27383,-16.25,-0.121951,3.01829
717.952,5.15259,-7.67221,0,0.881367,9.60163,-1.64777,0.213415,0.213415,-1.61585,-39.3023,-2.15073,-5.22593,-15.6707,0.152439,4.02439
717.962,5.14414,-7.67619,0,0.895737,9.57289,-1.65496,0,0.27439,-1.46341,-39.4364,-2.37107,-5.38879,-15.9451,-1.67683,3.56707
717.972,5.13949,-7.66753,0,0.917292,9.58487,-1.67172,-0.0304878,0.335366,-1.46341,-39.216,-2.22737,-5.13971,-16.189,-1.85976,3.47561
717.982,5.14061,-7.68111,0,0.953218,9.61361,-1.67651,-0.0609756,0.213415,-1.46341,-39.3981,-2.20821,-5.55166,-15.5488,-2.10366,3.96341
717.992,5.13954,-7.69344,0,0.955613,9.61121,-1.66214,-0.213415,0.0304878,-1.64634,-39.3693,-2.26569,-5.5325,-15.9451,-1.37195,4.60366
718.002,5.13828,-7.69039,0,0.953218,9.60163,-1.6837,-0.213415,0.213415,-1.64634,-39.3502,-2.30401,-5.26425,-16.3415,-0.701219,4.32927
718.012,5.1338,-7.69242,0,0.936453,9.60642,-1.70765,-0.213415,0.335366,-1.67683,-39.2256,-2.30401,-5.34089,-16.7988,-2.37805,4.45122
718.022,5.1253,-7.6873,0,0.900527,9.61121,-1.70525,-0.152439,0.243902,-1.52439,-39.1873,-2.26569,-5.21635,-16.9207,-3.87195,3.32317
718.032,5.11825,-7.69462,0,0.912502,9.59445,-1.69807,-0.0304878,0.396341,-1.61585,-39.2065,-2.17947,-5.42711,-15.5488,-1.79878,4.29878
718.042,5.10443,-7.68862,0,0.881367,9.58247,-1.64298,0.0304878,0.457317,-1.79878,-39.1681,-2.20821,-5.19719,-15.4573,-3.07927,3.9939
718.052,5.09452,-7.68887,0,0.895737,9.59205,-1.66933,0.121951,0.762195,-1.67683,-39.2448,-2.22737,-5.31215,-16.8902,-2.77439,3.81098
718.062,5.08085,-7.68841,0,0.893342,9.58247,-1.62861,0.243902,0.304878,-2.0122,-39.0532,-2.17947,-5.27383,-15.122,-2.77439,3.65854
718.072,5.06822,-7.68214,0,0.900527,9.60642,-1.66933,-0.426829,0,-2.0122,-39.0819,-2.11241,-5.17803,-16.2805,-3.44512,3.32317
718.082,5.05689,-7.69888,0,0.910107,9.61361,-1.66214,-0.152439,0,-2.04268,-39.1586,-2.25611,-5.58998,-16.0366,-3.93293,4.05488
718.092,5.0473,-7.67872,0,0.931663,9.60882,-1.59508,-0.182927,-0.213415,-2.19512,-39.2735,-2.22737,-4.96727,-17.1341,-3.78049,3.84146
718.102,5.04455,-7.67155,0,0.936453,9.60642,-1.61903,-0.152439,-0.0914634,-1.7378,-39.1969,-2.20821,-5.16845,-17.4085,-2.77439,4.7561
718.112,5.04095,-7.67007,0,0.919688,9.6184,-1.6334,0.0609756,-0.27439,-1.58537,-39.1777,-2.13157,-5.26425,-16.3415,-3.78049,3.47561
718.122,5.03449,-7.65123,0,0.926873,9.62558,-1.65975,-0.457317,-0.304878,-1.89024,-39.3119,-2.25611,-4.97685,-15.8841,-4.26829,4.5122
718.132,5.03101,-7.63518,0,0.934058,9.62079,-1.6358,-0.335366,-0.152439,-1.76829,-39.3981,-2.30401,-5.02475,-16.372,-4.45122,3.96341
718.142,5.02461,-7.61975,0,0.926873,9.63756,-1.64538,-0.365854,-0.0609756,-1.89024,-39.446,-2.31359,-5.03433,-16.7073,-5.57927,3.2622
718.152,5.02106,-7.60407,0,0.924478,9.57768,-1.68849,-0.152439,-0.0304878,-1.7378,-39.3981,-2.39023,-5.01517,-16.0671,-6.21951,4.5122
718.162,5.0212,-7.6124,0,0.917292,9.61361,-1.64777,-0.182927,0.518293,-1.34146,-39.2352,-2.25611,-5.40795,-15.1524,-6.7378,3.87195
718.172,5.02371,-7.61055,0,0.946033,9.58966,-1.65256,-0.213415,0.701219,-1.55488,-39.446,-2.24653,-5.26425,-16.6463,-7.2561,4.14634
718.182,5.0175,-7.61211,0,0.907712,9.6184,-1.68849,0.182927,0.640244,-1.67683,-39.4747,-2.22737,-5.33131,-15.8232,-8.38415,4.69512
718.192,5.01602,-7.61758,0,0.910107,9.61361,-1.65735,-0.0914634,0.304878,-1.37195,-39.3789,-2.12199,-5.38879,-15.3049,-8.47561,4.02439
718.202,5.00496,-7.62235,0,0.862207,9.59684,-1.66454,-0.304878,0.182927,-1.4939,-39.2735,-2.18905,-5.36963,-15.1524,-9.57317,3.5061
718.212,4.99681,-7.64377,0,0.886157,9.60163,-1.65496,-0.27439,-0.213415,-1.61585,-39.264,-2.29443,-5.66662,-14.6646,-9.93902,3.5061
718.222,4.9886,-7.64796,0,0.876577,9.58966,-1.60466,-0.121951,-0.304878,-1.52439,-39.1394,-2.36149,-5.36005,-16.311,-9.7561,3.62805
718.232,4.98446,-7.65225,0,0.900527,9.60163,-1.69567,-0.213415,-0.945122,-1.52439,-39.0915,-2.20821,-5.36005,-16.1585,-10.3659,3.23171
718.242,4.9797,-7.64762,0,0.900527,9.59924,-1.6813,-0.213415,-0.731707,-1.58537,-39.3119,-2.28485,-5.23551,-15.5183,-10.2439,3.87195
718.252,4.97708,-7.64907,0,0.936453,9.58487,-1.63101,-0.152439,-1.03659,-1.89024,-39.0244,-2.24653,-5.30257,-17.1037,-10.8232,3.59756
718.262,4.98724,-7.65094,0,0.996328,9.56571,-1.67651,-0.27439,-0.701219,-1.70732,-39.0532,-2.29443,-5.31215,-16.8293,-10.0305,3.62805
718.272,5.00107,-7.64489,0,1.00351,9.58487,-1.69088,0,-0.243902,-1.52439,-39.0723,-2.27527,-5.17803,-16.5244,-10.3049,3.2622
718.282,5.00317,-7.64994,0,0.986748,9.59684,-1.64777,-0.0914634,0.0304878,-2.04268,-39.0723,-2.35191,-5.36963,-15.4878,-10.6402,3.07927
718.292,5.00539,-7.65628,0,1.00351,9.60163,-1.64059,-0.0304878,0.0914634,-2.19512,-39.0053,-2.36149,-5.37921,-16.0366,-8.47561,2.80488
718.302,5.00506,-7.63321,0,0.962798,9.57529,-1.65496,0.182927,0.426829,-1.98171,-39.0436,-2.21779,-4.87147,-16.0671,-7.77439,2.7439
718.312,5.00439,-7.63032,0,0.967588,9.56331,-1.68609,-0.0304878,0.548781,-2.07317,-39.0819,-2.26569,-5.21635,-16.3415,-8.53659,3.35366
718.322,5.00488,-7.62804,0,0.962798,9.58008,-1.62861,0,0.548781,-1.92073,-39.1011,-2.26569,-5.22593,-17.3476,-8.04878,3.75
718.332,5.00701,-7.61992,0,0.958008,9.5705,-1.64777,-0.0609756,0.548781,-1.76829,-39.0723,-2.21779,-5.12055,-17.561,-8.71951,4.05488
718.342,5.00323,-7.62056,0,0.934058,9.5681,-1.60466,-0.0609756,0.792683,-1.92073,-39.3406,-2.38065,-5.30257,-17.6524,-8.17073,4.42073
718.352,5.01768,-7.60736,0,1.00112,9.59684,-1.6334,0.213415,0.914634,-1.43293,-39.331,-2.34233,-5.06307,-16.7378,-9.69512,4.63415
718.362,5.02753,-7.60093,0,0.993933,9.62319,-1.66933,0.0609756,0.914634,-1.55488,-39.4843,-2.44771,-5.19719,-15.8537,-10.8232,4.42073
718.372,5.03499,-7.59478,0,0.974773,9.64235,-1.64538,0.0914634,0.426829,-1.46341,-39.3502,-2.28485,-5.17803,-16.0061,-10.2439,4.81707
718.382,5.0457,-7.57736,0,0.974773,9.58966,-1.62143,-0.0304878,0.304878,-1.34146,-39.5897,-2.13157,-5.00559,-16.25,-10.3354,4.84756
718.392,5.05304,-7.56691,0,0.969983,9.59205,-1.63101,-0.152439,0.182927,-1.46341,-39.4556,-2.33275,-5.10139,-15.5183,-10.8841,3.81098
718.402,5.05726,-7.58533,0,0.950823,9.57289,-1.6334,0.182927,0.335366,-1.46341,-39.149,-2.26569,-5.56124,-16.9512,-10.6707,4.45122
718.412,5.05368,-7.57787,0,0.902922,9.61361,-1.67891,0.0914634,0.304878,-1.34146,-39.1586,-2.22737,-5.12055,-16.6159,-10.7317,4.42073
718.422,5.05526,-7.57264,0,0.922083,9.62319,-1.62382,0.0609756,0.243902,-1.21951,-39.1873,-2.39981,-5.15887,-17.1341,-10.8537,5.18293
718.432,5.05512,-7.59136,0,0.924478,9.59684,-1.65975,0.0914634,-0.0609756,-1.40244,-39.1394,-2.33275,-5.57082,-16.4634,-11.1585,4.96951
718.442,5.04708,-7.5932,0,0.883762,9.59205,-1.70765,0.152439,-0.243902,-1.46341,-39.0723,-2.56267,-5.27383,-16.1585,-10,5.27439
718.452,5.03911,-7.57993,0,0.883762,9.58247,-1.6813,0,0.0914634,-1.4939,-38.967,-2.38065,-4.99601,-15.8537,-9.69512,5.4878
718.462,5.04099,-7.57136,0,0.936453,9.58247,-1.65496,-0.182927,-0.365854,-1.46341,-39.0819,-2.36149,-5.08223,-14.4817,-9.20732,4.93902
718.472,5.04302,-7.56703,0,0.938848,9.59205,-1.65017,-0.243902,-0.548781,-1.46341,-39.0053,-2.41897,-5.13971,-14.4817,-8.9939,4.93902
718.482,5.04571,-7.56431,0,0.974773,9.59924,-1.66933,-0.335366,-0.762195,-1.79878,-39.149,-2.31359,-5.17803,-15.0915,-7.31707,6.52439
718.492,5.05203,-7.55679,0,1.00112,9.57768,-1.63101,-0.365854,-0.640244,-1.85976,-38.9095,-2.38065,-5.05349,-15.4573,-5.18293,5.45732
718.502,5.05436,-7.55185,0,0.989143,9.60403,-1.65256,-0.0304878,-0.487805,-1.95122,-38.9382,-2.15073,-5.09181,-14.9695,-3.65854,5.12195
718.512,5.06235,-7.54377,0,1.01788,9.58487,-1.67891,-0.0304878,-0.304878,-1.89024,-38.9861,-1.93997,-5.03433,-15.4878,-2.04268,5.09146
718.522,5.0613,-7.53746,0,0.993933,9.60163,-1.67651,0.213415,0.335366,-2.22561,-39.149,-2.03577,-5.08223,-15.5183,-2.46951,4.72561
718.532,5.06488,-7.53509,0,1.02028,9.62558,-1.69088,0.0914634,0.701219,-2.13415,-39.0532,-2.22737,-5.13013,-16.2805,-1.21951,5.64024
718.542,5.06489,-7.52163,0,0.996328,9.64953,-1.65975,0.152439,0.548781,-2.10366,-39.2831,-2.18905,-4.96727,-15.5183,-2.34756,5.30488
718.552,5.06494,-7.50852,0,0.991538,9.63277,-1.66214,-0.121951,0.609756,-2.07317,-39.1969,-2.19863,-4.94811,-15.1524,-0.853659,4.93902
718.562,5.0681,-7.49662,0,0.989143,9.59205,-1.64538,0.152439,0.640244,-1.89024,-39.1203,-2.37107,-4.94811,-16.1585,-0.152439,4.66463
718.572,5.07334,-7.48581,0,0.974773,9.58008,-1.67651,-0.0304878,0.579268,-1.61585,-39.264,-2.38065,-4.97685,-16.189,-0.0304878,4.20732
718.582,5.0794,-7.49084,0,0.972378,9.58726,-1.61903,0.152439,0.548781,-1.52439,-39.2256,-2.27527,-5.24509,-14.9695,-0.701219,5.73171
718.592,5.08263,-7.48094,0,0.977168,9.59205,-1.59029,0.243902,0.457317,-1.7378,-39.2448,-2.29443,-4.98643,-15.7927,-0.0304878,5.51829
718.602,5.08273,-7.49333,0,0.929268,9.60642,-1.6837,0.335366,0.243902,-1.37195,-39.216,-2.42855,-5.36963,-15.1829,-0.579268,5.91463
718.612,5.07675,-7.493,0,0.912502,9.60403,-1.59748,0.0914634,-0.304878,-1.61585,-39.3214,-2.39981,-5.16845,-15.6707,-0.670732,5.82317
718.622,5.06577,-7.48859,0,0.888552,9.61121,-1.61664,0.182927,0.0609756,-1.70732,-39.2448,-2.38065,-5.09181,-14.9695,-2.16463,6.03659
718.632,5.05505,-7.49646,0,0.881367,9.62558,-1.66214,0.213415,-0.304878,-1.58537,-39.2352,-2.54351,-5.30257,-14.2988,-1.92073,5.27439
718.642,5.04393,-7.49076,0,0.864602,9.616,-1.64538,0.182927,-0.0304878,-1.40244,-39.1873,-2.31359,-5.06307,-15.2439,-1.89024,4.63415
718.652,5.04051,-7.48319,0,0.910107,9.60882,-1.65256,0.121951,-0.0609756,-1.46341,-39.1298,-2.28485,-5.02475,-14.2988,-3.59756,5.79268
718.662,5.03365,-7.46152,0,0.902922,9.62798,-1.69807,0.152439,0.457317,-1.61585,-39.034,-2.50519,-4.75651,-13.9024,-2.34756,5.97561
718.672,5.03183,-7.46182,0,0.914897,9.62558,-1.69807,0.0914634,0,-1.40244,-39.0053,-2.44771,-5.12055,-13.689,-2.0122,5.60976
718.682,5.02661,-7.46005,0,0.902922,9.63516,-1.6813,-0.0304878,0.213415,-1.4939,-39.0149,-2.47645,-5.08223,-12.561,-0.914634,6.09756
718.692,5.02573,-7.46631,0,0.931663,9.60642,-1.66693,0,0.0914634,-1.58537,-39.2448,-2.45729,-5.25467,-14.6037,-1.64634,5.45732
718.702,5.0308,-7.46482,0,0.941243,9.60163,-1.65256,0.121951,0.0609756,-1.31098,-39.0915,-2.36149,-5.10139,-13.3232,-1.31098,7.40854
718.712,5.02213,-7.45959,0,0.886157,9.60882,-1.73399,0,-0.121951,-1.58537,-39.1586,-2.33275,-5.04391,-12.622,-1.37195,6.28049
718.722,5.02001,-7.44944,0,0.919688,9.616,-1.67891,0.304878,-0.152439,-1.52439,-39.1969,-2.28485,-4.95769,-13.4451,-1.06707,6.21951
718.732,5.01719,-7.46165,0,0.914897,9.63277,-1.71004,-0.152439,-0.457317,-1.4939,-39.2256,-2.13157,-5.35047,-13.872,-1.95122,6.70732
718.742,5.01461,-7.46649,0,0.922083,9.62558,-1.64777,0.0914634,-0.518293,-1.58537,-39.2544,-2.26569,-5.23551,-14.9085,-2.65244,6.28049
718.752,5.0051,-7.45595,0,0.888552,9.64474,-1.71962,0.152439,-0.304878,-1.67683,-39.1777,-2.17947,-4.95769,-16.1585,-2.34756,6.76829
718.762,5.00742,-7.45082,0,0.943638,9.60163,-1.62861,-0.365854,-0.152439,-1.55488,-39.1011,-2.38065,-5.03433,-15.8232,-2.07317,6.34146
718.772,5.01084,-7.42775,0,0.948428,9.58247,-1.70525,-0.182927,-0.243902,-1.55488,-39.264,-2.30401,-4.73735,-15.122,-2.28659,7.34756
718.782,5.01339,-7.43144,0,0.953218,9.61361,-1.65496,-0.0304878,-0.243902,-1.61585,-39.3693,-2.12199,-5.20677,-15.8841,-2.62195,8.84146
718.792,5.01468,-7.44094,0,0.929268,9.58726,-1.63819,-0.152439,-0.121951,-1.46341,-39.3023,-2.33275,-5.30257,-15.2439,-2.53049,7.34756
718.802,5.01651,-7.42489,0,0.953218,9.59924,-1.66693,-0.182927,-0.335366,-1.67683,-39.264,-2.35191,-4.85231,-14.878,-1.89024,7.62195
718.812,5.01749,-7.42442,0,0.938848,9.5681,-1.65735,0.0609756,-0.152439,-1.61585,-39.2831,-2.30401,-5.12055,-15.3659,-2.7439,6.55488
718.822,5.01419,-7.42794,0,0.910107,9.58008,-1.66454,-0.121951,-0.457317,-1.55488,-39.1777,-2.25611,-5.17803,-15.1829,-3.20122,5.70122
718.832,5.01606,-7.43293,0,0.941243,9.58966,-1.68849,0.0304878,-0.487805,-1.55488,-39.446,-2.22737,-5.24509,-14.4512,-4.08537,5.94512
718.842,5.01515,-7.43579,0,0.946033,9.60882,-1.70286,-0.182927,-0.335366,-1.76829,-39.1969,-2.24653,-5.17803,-15.0915,-4.05488,5.70122
718.852,5.01403,-7.43543,0,0.948428,9.6184,-1.71244,-0.0914634,-0.0304878,-1.79878,-39.2352,-2.21779,-5.13013,-15.9451,-4.60366,5.97561
718.862,5.01228,-7.42,0,0.960403,9.6184,-1.66214,-0.335366,0.0304878,-1.98171,-39.1394,-2.35191,-4.85231,-16.8293,-4.32927,4.78659
718.872,5.01223,-7.40775,0,0.965193,9.58966,-1.72202,-0.335366,0.487805,-1.95122,-39.2256,-2.27527,-4.90979,-16.8598,-4.78659,5.33537
718.882,5.01052,-7.4115,0,0.941243,9.57289,-1.71244,0.0304878,0.457317,-1.82927,-39.1394,-2.36149,-5.16845,-16.0366,-4.05488,5.79268
718.892,5.00545,-7.40556,0,0.922083,9.59445,-1.68609,0.0304878,0.579268,-1.82927,-39.2831,-2.44771,-5.01517,-15.9146,-2.83537,6.28049
718.902,4.99885,-7.41383,0,0.912502,9.58008,-1.74118,0.0304878,0.884146,-1.85976,-39.1298,-2.34233,-5.24509,-15.9146,-4.08537,6.70732
718.912,4.99334,-7.42116,0,0.922083,9.5705,-1.6837,-0.152439,0.548781,-1.92073,-39.1969,-2.25611,-5.23551,-15.5488,-1.79878,5.4878
718.922,4.98499,-7.41886,0,0.890947,9.61121,-1.72681,0.152439,0.426829,-1.70732,-39.0628,-2.26569,-5.05349,-16.0366,-1.67683,6.0061
718.932,4.97862,-7.40698,0,0.900527,9.60163,-1.66933,-0.152439,-0.0304878,-1.70732,-39.1969,-2.39023,-4.90021,-14.8171,-1.43293,6.0061
718.942,4.96767,-7.41713,0,0.876577,9.61121,-1.67891,-0.548781,-0.487805,-1.76829,-39.2256,-2.40939,-5.28341,-14.5122,-1.55488,4.90854
718.952,4.96173,-7.41044,0,0.893342,9.62319,-1.70286,-0.457317,-0.579268,-1.58537,-39.2448,-2.39023,-4.99601,-13.811,-1.40244,4.78659
718.962,4.96387,-7.41565,0,0.929268,9.59684,-1.64298,-0.609756,-0.518293,-1.4939,-39.2065,-2.22737,-5.19719,-15.2439,-1.82927,4.66463
718.972,4.96715,-7.40272,0,0.953218,9.59684,-1.67172,-0.609756,-0.792683,-1.67683,-39.0915,-2.16031,-4.87147,-15.8537,-2.86585,4.93902
718.982,4.98298,-7.39872,0,0.984353,9.58247,-1.70046,-0.396341,-0.670732,-1.28049,-39.2256,-2.30401,-5.03433,-15.6402,-2.37805,4.48171
718.992,4.99252,-7.41203,0,0.989143,9.57768,-1.69567,-0.396341,-0.27439,-1.64634,-39.446,-2.24653,-5.36963,-14.7256,-3.44512,4.02439
719.002,4.98853,-7.43344,0,0.941243,9.58966,-1.70765,-0.121951,-0.213415,-2.0122,-39.2927,-2.17947,-5.50376,-14.5122,-4.2378,3.71951
719.012,4.99276,-7.43936,0,0.950823,9.61361,-1.62382,0.0304878,0.213415,-1.52439,-39.3789,-2.14115,-5.25467,-13.6585,-3.53659,4.60366
719.022,4.98255,-7.43923,0,0.914897,9.63756,-1.66933,-0.365854,0.243902,-2.13415,-39.5705,-2.22737,-5.17803,-12.8963,-3.84146,4.14634
719.032,4.96816,-7.43327,0,0.857417,9.60882,-1.6837,-0.243902,0.335366,-1.79878,-39.3981,-2.27527,-5.05349,-11.4329,-4.17683,4.02439
719.042,4.95767,-7.43951,0,0.881367,9.58247,-1.63101,-0.213415,0.243902,-1.85976,-39.2735,-2.14115,-5.24509,-12.5915,-3.2622,2.34756
719.052,4.94836,-7.45694,0,0.869392,9.60403,-1.69088,-0.0609756,0.0914634,-1.58537,-39.2448,-2.18905,-5.44627,-11.4634,-4.29878,2.34756
719.062,4.93474,-7.44161,0,0.890947,9.61361,-1.67891,-0.365854,-0.213415,-2.2561,-39.1873,-2.14115,-4.87147,-12.378,-3.29268,1.92073
719.072,4.92057,-7.42642,0,0.878972,9.60403,-1.64777,-0.304878,-0.365854,-2.19512,-39.0436,-2.17947,-4.85231,-12.7439,-5.30488,1.64634
719.082,4.90804,-7.41862,0,0.881367,9.63277,-1.64059,-0.396341,-0.457317,-2.07317,-39.0149,-2.22737,-4.96727,-13.0183,-5.30488,1.0061
719.092,4.90007,-7.40489,0,0.905317,9.61361,-1.60706,-0.335366,-0.396341,-2.04268,-39.034,-2.16031,-4.86189,-15.0915,-5.70122,0.914634
719.102,4.89716,-7.40797,0,0.917292,9.59684,-1.64777,-0.365854,-0.518293,-1.82927,-39.0436,-2.22737,-5.14929,-14.6646,-6.12805,1.21951
719.112,4.8931,-7.41264,0,0.926873,9.58726,-1.67891,-0.426829,-0.701219,-2.04268,-39.216,-2.27527,-5.20677,-14.5732,-7.5,2.07317
719.122,4.89492,-7.4298,0,0.965193,9.60882,-1.64298,-0.0609756,-0.548781,-2.0122,-39.1394,-2.37107,-5.41753,-15.7012,-6.98171,2.80488
719.132,4.9009,-7.42951,0,0.984353,9.61121,-1.64538,-0.365854,-0.518293,-1.92073,-39.2831,-2.58183,-5.13971,-13.7805,-6.40244,3.75
719.142,4.90718,-7.42315,0,0.981958,9.59684,-1.60945,-0.335366,-0.396341,-1.89024,-39.3119,-2.35191,-5.03433,-15.122,-5.82317,3.38415
719.152,4.91194,-7.40311,0,0.950823,9.58487,-1.6334,0.0609756,-0.0304878,-1.67683,-39.1298,-2.39023,-4.76609,-14.8171,-5.51829,2.92683
719.162,4.91627,-7.39614,0,0.972378,9.60403,-1.64538,-0.0609756,0.152439,-1.89024,-39.1298,-2.11241,-4.97685,-14.4817,-4.32927,2.28659
719.172,4.91274,-7.3803,0,0.914897,9.60882,-1.64538,0.0304878,0.365854,-1.79878,-39.149,-2.16031,-4.81399,-13.872,-2.86585,0.579268
719.182,4.90664,-7.35991,0,0.931663,9.63277,-1.65496,-0.121951,0.0304878,-2.16463,-39.2735,-2.04535,-4.73735,-12.8354,-2.53049,0.670732
719.192,4.90403,-7.36635,0,0.922083,9.58966,-1.65256,-0.152439,0.0609756,-1.85976,-39.0819,-1.97829,-5.16845,-13.2622,-2.22561,1.15854
719.202,4.90129,-7.35466,0,0.924478,9.59684,-1.67891,-0.304878,0.213415,-1.89024,-39.2831,-2.14115,-4.88105,-13.1707,-2.37805,0.396341
719.212,4.90136,-7.34304,0,0.941243,9.58966,-1.67172,-0.518293,0.0304878,-1.89024,-39.2927,-2.16989,-4.87147,-13.75,-1.25,0.426829
719.222,4.9032,-7.34773,0,0.946033,9.58487,-1.62143,-0.365854,0.182927,-1.82927,-39.1107,-2.16031,-5.13013,-14.4207,-2.2561,0.792683
719.232,4.90074,-7.35645,0,0.946033,9.58247,-1.60706,0.0609756,0.487805,-2.13415,-39.1107,-2.27527,-5.20677,-16.128,-3.10976,2.40854
719.242,4.90509,-7.35005,0,0.943638,9.59924,-1.67891,-0.152439,0.609756,-1.61585,-39.3214,-2.32317,-4.97685,-16.6159,-3.75,2.37805
719.252,4.89954,-7.34767,0,0.893342,9.59205,-1.64298,-0.0304878,0.945122,-1.7378,-39.3885,-2.29443,-5.05349,-16.7683,-4.2378,2.92683
719.262,4.89253,-7.36142,0,0.917292,9.62798,-1.64059,0.121951,0.640244,-2.10366,-39.2927,-2.41897,-5.32173,-16.8598,-3.71951,2.89634
719.272,4.88324,-7.38689,0,0.874182,9.60642,-1.66933,-0.243902,0.914634,-1.79878,-39.3023,-2.33275,-5.54208,-15.3049,-4.39024,3.14024
719.282,4.87513,-7.38335,0,0.895737,9.6184,-1.59987,-0.0609756,0.487805,-1.98171,-39.2831,-2.44771,-5.04391,-17.2256,-3.90244,3.23171
719.292,4.87105,-7.3954,0,0.893342,9.62319,-1.59748,-0.0609756,0.701219,-1.64634,-39.1681,-2.39981,-5.30257,-15.2744,-4.45122,1.92073
719.302,4.86201,-7.39006,0,0.893342,9.62558,-1.64538,0.0304878,0.396341,-2.04268,-39.1873,-2.50519,-5.00559,-15.8841,-3.78049,1.21951
719.312,4.85984,-7.39496,0,0.917292,9.61121,-1.65017,0.213415,0.487805,-1.82927,-38.967,-2.38065,-5.14929,-14.7561,-2.80488,1.28049
719.322,4.85844,-7.38748,0,0.914897,9.57768,-1.61424,0.0914634,0.335366,-1.79878,-39.264,-2.27527,-4.97685,-15.2744,-3.62805,0.823171
719.332,4.85875,-7.37681,0,0.898132,9.59445,-1.60945,0.0304878,0,-1.46341,-39.1107,-2.35191,-4.90021,-14.3598,-4.69512,1.43293
719.342,4.85998,-7.35605,0,0.926873,9.60882,-1.63101,0.0914634,-0.0914634,-1.70732,-38.9765,-2.28485,-4.69903,-14.8171,-4.42073,1.12805
719.352,4.86203,-7.34736,0,0.910107,9.58487,-1.66214,0.213415,0.121951,-1.4939,-39.2065,-2.19863,-4.91937,-13.628,-3.07927,1.52439
719.362,4.86448,-7.3426,0,0.934058,9.62319,-1.64538,0.213415,0.0914634,-1.67683,-39.2544,-2.26569,-4.99601,-14.5122,-5.27439,1.95122
719.372,4.86927,-7.3309,0,0.929268,9.60403,-1.66693,0.182927,0.335366,-1.4939,-39.1777,-2.47645,-4.86189,-14.4817,-5.45732,1.40244
719.382,4.8725,-7.31894,0,0.934058,9.62319,-1.57113,0.121951,0.853659,-1.61585,-39.2735,-2.22737,-4.86189,-13.8415,-5.67073,1.89024
719.392,4.87687,-7.30557,0,0.938848,9.57768,-1.66454,0.396341,0.670732,-1.64634,-39.4172,-2.37107,-4.84273,-14.3902,-4.63415,2.40854
719.402,4.88335,-7.3062,0,0.948428,9.59445,-1.62143,0.640244,1.15854,-1.58537,-39.1969,-2.39023,-5.05349,-14.3293,-5,2.40854
719.412,4.88447,-7.30713,0,0.914897,9.59445,-1.61424,0.731707,0.823171,-1.55488,-39.2448,-2.40939,-5.06307,-14.6341,-4.39024,2.43902
719.422,4.88813,-7.31723,0,0.936453,9.59924,-1.63819,0.640244,0.853659,-1.61585,-39.264,-2.36149,-5.22593,-13.2317,-3.84146,1.95122
719.432,4.88214,-7.32953,0,0.912502,9.60882,-1.71004,0.670732,0.853659,-2.0122,-39.1969,-2.25611,-5.26425,-12.8354,-4.35976,1.89024
719.442,4.87138,-7.34151,0,0.905317,9.64235,-1.65496,0.548781,0.609756,-2.28659,-39.2544,-2.06451,-5.27383,-12.3171,-3.96341,2.56098
719.452,4.85417,-7.35571,0,0.843047,9.62798,-1.70286,0.0609756,0.426829,-2.10366,-39.1298,-2.08367,-5.30257,-12.5305,-3.5061,2.95732
719.462,4.84139,-7.34756,0,0.862207,9.59445,-1.64777,-0.0609756,0.152439,-2.04268,-39.331,-2.16031,-4.94811,-14.6951,-4.17683,3.38415
719.472,4.83378,-7.34753,0,0.883762,9.58726,-1.68849,-0.152439,-0.27439,-1.92073,-39.2352,-2.14115,-5.07265,-14.0244,-4.02439,2.0122
719.482,4.8298,-7.35822,0,0.907712,9.60163,-1.66693,-0.27439,-0.335366,-1.92073,-39.216,-2.19863,-5.25467,-14.1463,-2.89634,0.426829
719.492,4.83124,-7.34604,0,0.946033,9.56331,-1.65256,-0.0609756,-0.0914634,-2.0122,-39.1586,-2.29443,-4.85231,-15.122,-2.62195,1.43293
719.502,4.83852,-7.33168,0,0.962798,9.58726,-1.61903,-0.182927,0.152439,-1.76829,-39.2544,-2.27527,-4.81399,-15.6098,-1.64634,-0.426829
719.512,4.85046,-7.3369,0,1.01549,9.57529,-1.67412,-0.121951,0.152439,-1.98171,-39.1107,-2.37107,-5.13013,-17.561,-1.92073,0.823171
719.522,4.85143,-7.33032,0,0.969983,9.58726,-1.65256,0.335366,0.579268,-2.22561,-39.0723,-2.57225,-4.91937,-17.7744,-1.06707,1.67683
719.532,4.85434,-7.34,0,1.00112,9.57768,-1.73399,0.243902,0.945122,-2.40854,-39.1394,-2.63931,-5.21635,-19.0549,-3.32317,3.32317
719.542,4.84573,-7.35621,0,0.929268,9.59684,-1.67172,0.365854,0.97561,-2.5,-39.1203,-2.73511,-5.33131,-19.9695,-2.2561,4.02439
719.552,4.84088,-7.36283,0,0.950823,9.58487,-1.67651,0.487805,1.25,-2.46951,-38.9095,-2.61057,-5.14929,-19.0854,-3.14024,4.29878
719.562,4.83461,-7.37849,0,0.929268,9.61121,-1.66933,0.548781,1.64634,-2.31707,-39.1969,-2.58183,-5.35047,-19.6341,-2.92683,6.12805
719.572,4.82683,-7.37828,0,0.910107,9.59205,-1.69088,0.487805,1.55488,-2.2561,-39.1107,-2.49561,-5.07265,-20.061,-3.41463,5.60976
719.582,4.82157,-7.38462,0,0.898132,9.60163,-1.66214,0.548781,1.67683,-1.92073,-39.1681,-2.54351,-5.19719,-19.2073,-4.02439,5.85366
719.592,4.81891,-7.37595,0,0.914897,9.60642,-1.67891,0.335366,1.52439,-1.92073,-39.1681,-2.48603,-4.93853,-19.7256,-4.17683,6.28049
719.602,4.81798,-7.38595,0,0.919688,9.60403,-1.64059,0.457317,1.21951,-1.85976,-39.216,-2.50519,-5.26425,-19.6646,-3.44512,5.4878
719.612,4.81624,-7.38384,0,0.886157,9.62798,-1.66214,0.518293,0.792683,-1.4939,-39.2352,-2.59141,-5.06307,-17.439,-4.11585,5.4878
719.622,4.8143,-7.39948,0,0.881367,9.62079,-1.65735,0.396341,0.548781,-1.46341,-39.2352,-2.54351,-5.36963,-16.4634,-2.86585,4.84756
719.632,4.80973,-7.40996,0,0.855022,9.62319,-1.63101,0.304878,0.609756,-1.31098,-39.1969,-2.69679,-5.28341,-16.0366,-2.53049,4.54268
719.642,4.80597,-7.40523,0,0.874182,9.6184,-1.65256,0.243902,0.457317,-1.52439,-39.2735,-2.72553,-5.03433,-15.3963,-2.86585,6.40244
719.652,4.7971,-7.40666,0,0.843047,9.63516,-1.63101,0.518293,0.304878,-1.4939,-39.1203,-2.58183,-5.12055,-15.9756,-3.23171,5
719.662,4.7847,-7.41205,0,0.821492,9.62079,-1.65496,0.243902,0.0609756,-1.52439,-39.0149,-2.59141,-5.17803,-15.9146,-3.47561,6.34146
719.672,4.77069,-7.41731,0,0.807122,9.60882,-1.59748,0.518293,0.243902,-1.4939,-39.1203,-2.63931,-5.19719,-14.3598,-4.57317,5.4878
719.682,4.76083,-7.4264,0,0.833467,9.616,-1.61664,0.152439,0,-1.55488,-39.2448,-2.70637,-5.28341,-15.1524,-4.14634,5.39634
719.692,4.75452,-7.43885,0,0.852627,9.59205,-1.65496,0.396341,0.152439,-1.58537,-39.4268,-2.62973,-5.37921,-14.878,-5.7622,5.4878
719.702,4.7499,-7.4257,0,0.862207,9.6184,-1.69567,0.182927,-0.304878,-1.55488,-39.3789,-2.44771,-4.92895,-13.1098,-5.60976,6.79878
719.712,4.75202,-7.42433,0,0.876577,9.60403,-1.74118,0.0304878,-0.335366,-1.28049,-39.3981,-2.53393,-5.13013,-12.9878,-5.57927,7.10366
719.722,4.75498,-7.42748,0,0.907712,9.60163,-1.71483,0.0304878,-0.731707,-1.58537,-39.3119,-2.54351,-5.19719,-14.0549,-5.51829,6.31098
719.732,4.76559,-7.40152,0,0.938848,9.60882,-1.64298,-0.182927,-0.518293,-1.43293,-39.3119,-2.58183,-4.68945,-12.439,-6.18902,5.51829
719.742,4.77009,-7.39117,0,0.890947,9.57529,-1.71244,0.304878,-0.304878,-1.31098,-39.2544,-2.45729,-4.93853,-12.8659,-6.12805,6.18902
719.752,4.77931,-7.39181,0,0.917292,9.59924,-1.65496,0.457317,0.0914634,-1.28049,-39.216,-2.49561,-5.12055,-12.2866,-6.46341,6.34146
719.762,4.78159,-7.37802,0,0.895737,9.63037,-1.71004,0.548781,-0.182927,-1.40244,-39.0819,-2.29443,-4.85231,-12.0122,-6.82927,6.09756
719.772,4.78847,-7.37314,0,0.910107,9.60163,-1.71483,0.213415,0,-1.31098,-39.331,-2.35191,-5.03433,-12.3171,-7.95732,5
719.782,4.78947,-7.3616,0,0.910107,9.60163,-1.67891,0.152439,0.0914634,-1.67683,-39.2352,-2.41897,-4.90021,-12.6829,-7.56098,5.18293
719.792,4.79373,-7.33902,0,0.893342,9.61361,-1.71244,-0.152439,-0.426829,-1.25,-39.1586,-2.41897,-4.68945,-13.872,-7.56098,5.09146
719.802,4.79296,-7.32122,0,0.881367,9.59205,-1.74836,-0.0609756,-0.243902,-1.46341,-39.0915,-2.41897,-4.74693,-14.4207,-6.89024,5.94512
719.812,4.80245,-7.32792,0,0.922083,9.59205,-1.71723,0,-0.518293,-1.28049,-39.3023,-2.36149,-5.19719,-14.0854,-8.59756,4.87805
719.822,4.81189,-7.32071,0,0.941243,9.57289,-1.65256,0.121951,-0.762195,-1.4939,-39.3502,-2.48603,-4.95769,-14.8476,-7.04268,5.54878
719.832,4.8207,-7.3204,0,0.950823,9.56571,-1.69328,0.213415,-0.792683,-1.61585,-39.1011,-2.46687,-5.04391,-16.2195,-7.59146,5.88415
719.842,4.82963,-7.32222,0,0.958008,9.60163,-1.66693,0.0609756,-0.640244,-1.61585,-39.2735,-2.55309,-5.10139,-15.9146,-6.95122,5.06098
719.852,4.83323,-7.3158,0,0.929268,9.57289,-1.6837,-0.0609756,-0.121951,-1.67683,-39.2831,-2.42855,-4.95769,-16.6463,-6.67683,5.79268
719.862,4.83447,-7.30521,0,0.919688,9.60403,-1.71244,0.182927,0.243902,-1.67683,-39.216,-2.37107,-4.87147,-15.7012,-6.58537,5.12195
719.872,4.84018,-7.30013,0,0.938848,9.60642,-1.71483,-0.182927,0.365854,-1.58537,-39.1873,-2.30401,-4.95769,-16.4939,-6.7378,6.18902
719.882,4.84906,-7.30592,0,0.967588,9.59924,-1.75794,0.0609756,0.457317,-1.67683,-39.2544,-2.62015,-5.15887,-15.6707,-8.23171,5.57927
719.892,4.84751,-7.30542,0,0.931663,9.59924,-1.73639,-0.0609756,0.823171,-1.98171,-39.2927,-2.36149,-5.05349,-17.3171,-7.16463,5.09146
719.902,4.85132,-7.28782,0,0.912502,9.58487,-1.63101,0.27439,0.762195,-1.43293,-39.4651,-2.65847,-4.77567,-15.7622,-7.80488,5.97561
719.912,4.84962,-7.28946,0,0.905317,9.58966,-1.65975,-0.0304878,0.701219,-1.70732,-39.446,-2.36149,-5.10139,-17.3476,-8.04878,5
719.922,4.85295,-7.28083,0,0.936453,9.59205,-1.68609,0,0.579268,-1.70732,-39.3023,-2.41897,-4.90979,-17.5305,-9.93902,5.39634
719.932,4.8526,-7.27473,0,0.917292,9.59445,-1.69567,-0.0304878,0.670732,-1.7378,-39.4076,-2.54351,-4.95769,-17.378,-8.81098,5.12195
719.942,4.8476,-7.27576,0,0.871787,9.59445,-1.7292,-0.335366,0.670732,-1.52439,-39.4076,-2.42855,-5.08223,-17.9268,-9.69512,4.96951
719.952,4.84062,-7.27577,0,0.869392,9.60642,-1.66214,-0.182927,0.579268,-1.64634,-39.1777,-2.43813,-5.03433,-17.439,-9.32927,5.64024
719.962,4.83515,-7.26882,0,0.883762,9.62079,-1.65017,-0.152439,0.548781,-1.70732,-39.2256,-2.58183,-4.91937,-17.7134,-9.69512,5.57927
719.972,4.82696,-7.25008,0,0.862207,9.60642,-1.67651,-0.0914634,0.457317,-1.67683,-39.0819,-2.50519,-4.68945,-16.7683,-9.45122,4.5122
719.982,4.81934,-7.24576,0,0.871787,9.61121,-1.67172,-0.0304878,0.121951,-1.76829,-39.0819,-2.57225,-4.92895,-15.5793,-9.5122,5.12195
719.992,4.813,-7.24405,0,0.866997,9.59205,-1.66933,0,0.182927,-1.64634,-39.1394,-2.70637,-4.97685,-15.5183,-8.90244,5.97561
720.002,4.80431,-7.21258,0,0.852627,9.60163,-1.65256,-0.0304878,0.0914634,-1.64634,-39.1873,-2.64889,-4.45953,-14.9695,-8.68902,5.79268
720.012,4.80123,-7.19197,0,0.902922,9.62079,-1.68609,-0.121951,-0.243902,-1.82927,-39.0723,-2.55309,-4.61281,-15.7317,-8.29268,5.70122
720.022,4.79759,-7.18576,0,0.869392,9.56092,-1.64777,0,-0.304878,-1.55488,-39.149,-2.51477,-4.86189,-13.9634,-8.90244,6.52439
720.032,4.79081,-7.19034,0,0.866997,9.60882,-1.63819,0.182927,-0.365854,-1.70732,-39.2544,-2.44771,-5.05349,-13.689,-6.92073,6.03659
720.042,4.79691,-7.18169,0,0.917292,9.616,-1.65735,-0.121951,-0.762195,-1.40244,-39.0053,-2.58183,-4.79483,-12.7134,-7.31707,6.7378
720.052,4.79677,-7.16405,0,0.876577,9.62319,-1.67412,-0.426829,-0.914634,-1.31098,-39.2544,-2.69679,-4.66071,-12.1951,-7.04268,7.19512
720.062,4.80269,-7.17616,0,0.900527,9.61361,-1.66693,-0.426829,-1.0061,-1.21951,-39.3119,-2.70637,-5.17803,-11.7988,-6.82927,6.46341
720.072,4.80317,-7.1599,0,0.864602,9.60403,-1.62861,-0.487805,-1.0061,-1.12805,-39.216,-2.67763,-4.67987,-11.4939,-7.9878,8.84146
720.082,4.80178,-7.15715,0,0.871787,9.59205,-1.64777,-0.365854,-1.0061,-1.37195,-39.3981,-2.67763,-4.92895,-10.9146,-8.23171,7.9878
720.092,4.80456,-7.15623,0,0.881367,9.60642,-1.66454,-0.426829,-1.12805,-1.18902,-39.3406,-2.69679,-4.95769,-9.66463,-9.78659,7.71341
720.102,4.80912,-7.1454,0,0.900527,9.57768,-1.65017,-0.243902,-1.21951,-1.34146,-39.3693,-2.57225,-4.78525,-8.47561,-9.60366,8.41463
720.112,4.81766,-7.13879,0,0.907712,9.62798,-1.71483,-0.213415,-0.853659,-1.09756,-39.3693,-2.68721,-4.85231,-8.90244,-9.66463,8.56707
720.122,4.82478,-7.13187,0,0.912502,9.58487,-1.71244,-0.0304878,-1.09756,-1.28049,-39.5705,-2.62015,-4.87147,-8.35366,-10.9451,8.10976
720.132,4.8243,-7.15091,0,0.857417,9.5681,-1.65975,-0.457317,-1.0061,-1.09756,-39.3789,-2.60099,-5.30257,-7.37805,-11.4024,7.46951
720.142,4.81875,-7.14423,0,0.864602,9.60403,-1.67172,-0.640244,-1.37195,-1.52439,-39.331,-2.42855,-4.86189,-7.5,-13.0488,8.71951
720.152,4.81768,-7.13281,0,0.871787,9.63516,-1.64538,-0.457317,-1.76829,-1.25,-39.1681,-2.39981,-4.75651,-7.2561,-13.75,9.14634
720.162,4.81307,-7.12114,0,0.859812,9.60163,-1.69567,-0.640244,-1.95122,-1.40244,-39.2735,-2.38065,-4.75651,-6.15854,-13.6585,7.5
720.172,4.81026,-7.10176,0,0.874182,9.60403,-1.7316,-0.823171,-2.13415,-1.46341,-39.4651,-2.39981,-4.63197,-7.65244,-12.622,8.59756
720.182,4.80914,-7.09216,0,0.888552,9.60642,-1.68609,-0.579268,-2.31707,-1.52439,-39.3406,-2.39023,-4.77567,-8.23171,-12.5,8.20122
720.192,4.80615,-7.08783,0,0.881367,9.59924,-1.67651,-0.426829,-2.5,-1.58537,-39.2831,-2.56267,-4.85231,-7.86585,-11.8902,7.19512
720.202,4.80036,-7.08997,0,0.871787,9.60403,-1.67651,-0.945122,-2.43902,-1.67683,-39.1394,-2.27527,-4.94811,-8.65854,-12.8049,7.19512
720.212,4.78959,-7.09434,0,0.864602,9.59924,-1.67412,-0.792683,-2.28659,-2.0122,-39.1298,-2.52435,-4.98643,-8.01829,-12.5,6.31098
720.222,4.77963,-7.07865,0,0.883762,9.58247,-1.6813,-0.731707,-2.28659,-2.22561,-39.3885,-2.13157,-4.67029,-7.89634,-12.8963,6.25
720.232,4.77512,-7.06312,0,0.902922,9.57768,-1.6813,-0.518293,-2.07317,-2.04268,-39.2065,-2.31359,-4.63197,-9.2378,-10.3963,5.94512
720.242,4.77198,-7.04267,0,0.931663,9.58726,-1.66454,-0.548781,-2.22561,-2.2561,-39.264,-2.15073,-4.54575,-9.39024,-11.5549,6.40244
720.252,4.77169,-7.02596,0,0.917292,9.5705,-1.64298,-0.640244,-2.10366,-1.92073,-39.149,-2.23695,-4.58407,-9.93902,-11.7073,5.70122
720.262,4.77101,-7.00283,0,0.934058,9.61121,-1.69328,-0.670732,-1.76829,-2.07317,-39.2544,-2.19863,-4.46911,-11.0671,-10.7317,5.64024
720.272,4.7759,-6.9729,0,0.986748,9.63037,-1.69088,-0.457317,-1.55488,-2.19512,-39.1873,-2.22737,-4.32541,-11.311,-10.4573,4.81707
720.282,4.79128,-6.94069,0,1.0083,9.60642,-1.73399,-0.0304878,-1.0061,-1.76829,-39.149,-2.32317,-4.25834,-11.5244,-9.7561,4.90854
720.292,4.8076,-6.91537,0,1.00351,9.59205,-1.68849,-0.152439,-0.884146,-1.67683,-39.149,-2.23695,-4.35415,-12.4695,-9.11585,4.66463
720.302,4.81903,-6.9002,0,0.996328,9.6184,-1.64777,-0.152439,-0.792683,-1.82927,-39.2065,-2.13157,-4.51701,-12.9878,-8.04878,4.90854
720.312,4.82842,-6.89325,0,0.981958,9.6184,-1.65256,-0.0914634,-0.792683,-1.79878,-39.0532,-2.12199,-4.63197,-13.2317,-7.95732,4.60366
720.322,4.84365,-6.88532,0,0.993933,9.58008,-1.65496,-0.457317,-0.731707,-1.61585,-39.3406,-2.42855,-4.64155,-14.6037,-7.2561,4.29878
720.332,4.85454,-6.87774,0,0.981958,9.59445,-1.60706,0.0609756,-0.640244,-1.70732,-39.1681,-2.39023,-4.62239,-13.811,-7.37805,4.45122
720.342,4.86359,-6.87526,0,0.934058,9.53936,-1.65256,-0.121951,-0.518293,-1.40244,-39.1203,-2.26569,-4.69903,-13.9329,-6.92073,4.39024
720.352,4.86708,-6.87299,0,0.926873,9.55852,-1.69328,0,0.0609756,-1.61585,-39.1203,-2.43813,-4.69903,-13.9939,-6.37195,3.68902
720.362,4.86305,-6.84973,0,0.914897,9.59445,-1.69807,-0.0304878,-0.0914634,-1.95122,-39.0149,-2.27527,-4.31582,-15.4573,-5.42683,4.60366
720.372,4.85758,-6.84605,0,0.912502,9.59445,-1.65975,-0.0609756,0.213415,-2.04268,-39.2735,-2.28485,-4.67029,-14.5732,-5,3.87195
720.382,4.84698,-6.83896,0,0.881367,9.58726,-1.65017,0.0914634,0.121951,-2.10366,-39.264,-2.27527,-4.60323,-13.7195,-3.9939,4.32927
720.392,4.84034,-6.82442,0,0.907712,9.59924,-1.67891,-0.243902,0.27439,-2.10366,-39.3502,-2.16031,-4.47869,-15.3354,-4.32927,3.93293
720.402,4.82622,-6.80259,0,0.871787,9.59205,-1.66933,-0.304878,0.152439,-2.31707,-39.2256,-2.30401,-4.32541,-14.4512,-3.90244,5.09146
720.412,4.81759,-6.7794,0,0.890947,9.58008,-1.60466,0,0.335366,-2.13415,-39.3406,-2.38065,-4.29667,-15.5488,-3.23171,4.2378
720.422,4.80135,-6.7441,0,0.857417,9.61361,-1.62861,0.213415,0.640244,-2.34756,-39.2352,-2.14115,-4.05716,-16.0976,-3.20122,4.57317
720.432,4.79069,-6.72386,0,0.874182,9.61361,-1.62622,0.0914634,0.548781,-2.10366,-39.2256,-2.20821,-4.29667,-16.128,-3.65854,3.9939
720.442,4.7765,-6.71534,0,0.871787,9.63277,-1.6358,0.182927,0.762195,-2.37805,-39.2448,-2.44771,-4.48827,-17.1951,-3.17073,4.81707
720.452,4.76298,-6.68752,0,0.862207,9.61121,-1.6334,0.182927,0.792683,-2.2561,-39.3119,-2.23695,-4.15296,-16.6159,-3.53659,4.54268
720.462,4.74615,-6.66879,0,0.857417,9.65432,-1.61185,0.365854,0.731707,-2.46951,-39.3885,-2.31359,-4.29667,-18.0183,-2.22561,4.42073
720.472,4.73976,-6.6437,0,0.890947,9.61121,-1.64059,-0.0914634,0.884146,-2.07317,-39.264,-2.40939,-4.16254,-17.8049,-3.29268,4.05488
720.482,4.72915,-6.63233,0,0.881367,9.61121,-1.64298,-0.121951,0.823171,-2.31707,-39.3406,-2.26569,-4.39247,-17.8049,-2.89634,4.7561
720.492,4.72325,-6.61648,0,0.883762,9.61121,-1.68849,0.152439,0.670732,-1.98171,-39.1873,-2.34233,-4.28709,-17.7134,-2.2561,5.2439
720.502,4.71923,-6.61721,0,0.881367,9.62798,-1.69088,0.304878,0.884146,-1.79878,-39.3502,-2.46687,-4.58407,-17.4085,-1.95122,4.87805
720.512,4.71532,-6.62282,0,0.886157,9.60163,-1.67651,0.243902,0.701219,-1.89024,-39.1011,-2.65847,-4.64155,-17.6524,-2.22561,4.17683
720.522,4.71199,-6.60497,0,0.883762,9.57768,-1.65496,0.0609756,0.304878,-1.85976,-39.1394,-2.49561,-4.23918,-16.8293,-1.92073,4.5122
720.532,4.70375,-6.59552,0,0.847837,9.60642,-1.62622,0.152439,0.365854,-1.76829,-39.0819,-2.46687,-4.36373,-16.8902,-0.945122,4.57317
720.542,4.7032,-6.58829,0,0.883762,9.60642,-1.59269,0.182927,0.182927,-1.64634,-39.1394,-2.46687,-4.40205,-16.9512,-0.823171,4.29878
720.552,4.69499,-6.57317,0,0.840652,9.616,-1.63819,-0.213415,-0.213415,-1.67683,-39.0244,-2.34233,-4.24876,-16.7378,-1.46341,3.93293
720.562,4.69774,-6.58643,0,0.890947,9.60163,-1.64777,-0.0914634,-0.304878,-1.52439,-39.1203,-2.47645,-4.73735,-16.9512,0.670732,4.20732
720.572,4.70117,-6.57608,0,0.910107,9.58487,-1.6358,0.0609756,-0.304878,-1.70732,-39.0723,-2.27527,-4.32541,-16.311,1.64634,4.93902
720.582,4.70452,-6.5661,0,0.898132,9.64474,-1.64298,0.121951,0.152439,-1.4939,-39.149,-2.39023,-4.33499,-16.6463,1.06707,3.65854
720.592,4.71007,-6.54733,0,0.934058,9.63277,-1.69328,0.182927,0.396341,-1.7378,-39.264,-2.45729,-4.1817,-16.9207,2.62195,4.42073
720.602,4.71216,-6.52643,0,0.914897,9.62558,-1.66454,0.304878,0.792683,-1.76829,-39.216,-2.40939,-4.12422,-16.8902,3.20122,4.63415
720.612,4.71104,-6.52179,0,0.890947,9.59205,-1.66454,0,1.18902,-1.76829,-39.4364,-2.30401,-4.42121,-16.5244,2.56098,4.20732
720.622,4.71364,-6.50312,0,0.890947,9.58487,-1.69807,0.0304878,1.31098,-1.52439,-39.3598,-2.50519,-4.16254,-17.2561,2.68293,3.65854
720.632,4.71038,-6.50185,0,0.862207,9.60882,-1.65735,0.426829,1.25,-1.55488,-39.149,-2.39981,-4.43079,-17.8659,2.80488,4.48171
720.642,4.7092,-6.48786,0,0.874182,9.61121,-1.65735,0.27439,1.40244,-1.55488,-39.2544,-2.28485,-4.22002,-18.4756,2.56098,3.29268
720.652,4.71423,-6.49936,0,0.886157,9.61361,-1.65256,0.487805,1.43293,-1.28049,-39.2256,-2.45729,-4.65113,-17.7439,3.23171,3.9939
720.662,4.71701,-6.5011,0,0.876577,9.60642,-1.67412,0.0914634,1.12805,-1.31098,-39.3981,-2.47645,-4.50743,-18.4756,3.38415,3.84146
720.672,4.71628,-6.5022,0,0.864602,9.60163,-1.69328,0.121951,0.945122,-1.40244,-39.4268,-2.22737,-4.49785,-18.4451,4.14634,3.81098
720.682,4.72774,-6.50065,0,0.912502,9.60882,-1.64777,0.518293,1.0061,-1.18902,-39.1107,-2.39023,-4.42121,-17.561,2.7439,4.39024
720.692,4.72502,-6.49781,0,0.862207,9.60163,-1.6813,0.335366,0.853659,-1.4939,-39.3119,-2.35191,-4.42121,-19.0244,2.43902,4.29878
720.702,4.72445,-6.50075,0,0.869392,9.60403,-1.64777,0.182927,1.15854,-1.43293,-39.2831,-2.50519,-4.51701,-18.9939,2.56098,4.26829
720.712,4.71713,-6.50059,0,0.850232,9.59924,-1.62622,0.152439,1.09756,-1.70732,-39.3885,-2.42855,-4.47869,-19.4512,1.98171,4.20732
720.722,4.70867,-6.50541,0,0.819097,9.60163,-1.67891,0.457317,1.40244,-1.37195,-39.2544,-2.38065,-4.55533,-18.628,0.579268,4.7561
720.732,4.69884,-6.51813,0,0.816702,9.58966,-1.67412,0.457317,1.43293,-1.4939,-39.3789,-2.40939,-4.70861,-19.6341,1.61585,4.90854
720.742,4.69663,-6.50911,0,0.847837,9.6184,-1.62382,0.335366,1.31098,-1.31098,-39.4556,-2.31359,-4.34457,-18.9329,1.37195,4.20732
720.752,4.6944,-6.50154,0,0.843047,9.59684,-1.68849,0.27439,1.25,-1.28049,-39.1011,-2.45729,-4.32541,-18.4756,1.09756,4.17683
720.762,4.70049,-6.50017,0,0.874182,9.6184,-1.66454,0.426829,1.06707,-1.09756,-39.4076,-2.36149,-4.46911,-19.4817,-0.609756,4.87805
720.772,4.70227,-6.49928,0,0.850232,9.60882,-1.71004,0.579268,0.97561,-1.06707,-39.1777,-2.34233,-4.44995,-19.1159,-0.518293,4.32927
720.782,4.71138,-6.50232,0,0.878972,9.60882,-1.6813,0.304878,0.97561,-0.97561,-39.3502,-2.50519,-4.53617,-19.2073,0.0609756,4.48171
720.792,4.72322,-6.50954,0,0.864602,9.58487,-1.69328,0.548781,0.945122,-0.670732,-39.2448,-2.58183,-4.60323,-18.5366,-1.06707,3.38415
720.802,4.73894,-6.50943,0,0.922083,9.6184,-1.69807,0.152439,1.18902,-1.03659,-39.3789,-2.56267,-4.49785,-18.0183,-1.89024,3.44512
720.812,4.74614,-6.52901,0,0.871787,9.616,-1.64538,0.396341,1.25,-0.914634,-39.3693,-2.64889,-4.84273,-19.3598,-1.76829,3.84146
720.822,4.757,-6.54227,0,0.878972,9.5681,-1.69807,0.0609756,1.09756,-0.853659,-39.2256,-2.54351,-4.72777,-18.5061,-1.76829,4.20732
720.832,4.76913,-6.55468,0,0.883762,9.5681,-1.68849,0.121951,1.28049,-0.823171,-39.3502,-2.52435,-4.73735,-18.1402,-1.82927,5.45732
720.842,4.78024,-6.56991,0,0.890947,9.60163,-1.6837,0.243902,1.37195,-0.884146,-39.3023,-2.61057,-4.79483,-17.378,-3.32317,4.84756
720.852,4.79111,-6.58231,0,0.881367,9.6184,-1.70046,0.487805,1.12805,-0.731707,-39.3214,-2.63931,-4.75651,-17.5,-2.86585,4.45122
720.862,4.79469,-6.59269,0,0.857417,9.616,-1.65735,0.0914634,0.945122,-0.823171,-39.3023,-2.51477,-4.72777,-17.5305,-2.9878,3.96341
720.872,4.80035,-6.60853,0,0.869392,9.61361,-1.6837,0.152439,0.548781,-0.853659,-39.331,-2.62973,-4.83315,-16.4329,-2.62195,3.65854
720.882,4.80208,-6.61591,0,0.862207,9.62798,-1.6358,-0.0609756,0.518293,-0.97561,-39.3023,-2.44771,-4.68945,-16.0976,-1.85976,4.66463
720.892,4.80885,-6.62931,0,0.857417,9.60642,-1.66454,0.243902,0.304878,-0.609756,-39.331,-2.58183,-4.80441,-16.8598,-2.04268,4.63415
720.902,4.8116,-6.63474,0,0.857417,9.60403,-1.66933,-0.213415,0.182927,-0.853659,-39.1969,-2.38065,-4.66071,-16.4024,-2.95732,4.66463
720.912,4.83102,-6.65244,0,0.907712,9.61121,-1.64777,-0.152439,0.182927,-0.579268,-39.149,-2.62015,-4.87147,-16.7988,-2.28659,5.06098
720.922,4.85305,-6.64849,0,0.902922,9.57768,-1.72681,0.182927,-0.121951,-0.426829,-39.1011,-2.36149,-4.49785,-14.939,-1.85976,5.18293
720.932,4.88218,-6.65917,0,0.958008,9.57289,-1.70765,-0.0304878,0.0914634,-0.670732,-39.4076,-2.47645,-4.78525,-16.4939,-1.09756,4.42073
720.942,4.9086,-6.679,0,0.965193,9.59445,-1.66454,0.0609756,0.335366,-0.762195,-39.2065,-2.53393,-4.92895,-15.5793,-1.12805,3.56707
720.952,4.93019,-6.70451,0,0.950823,9.60642,-1.68609,0.365854,0.304878,-0.762195,-39.3598,-2.28485,-5.06307,-16.1585,-1.34146,5.09146
720.962,4.95262,-6.71206,0,0.962798,9.59205,-1.72441,0.0914634,0.304878,-0.823171,-39.2065,-2.45729,-4.74693,-16.8293,-1.70732,3.5061
720.972,4.97251,-6.72875,0,0.941243,9.62079,-1.69807,0.121951,0.426829,-0.640244,-39.264,-2.51477,-4.91937,-15.6402,-1.58537,5.12195
720.982,4.97879,-6.75654,0,0.919688,9.63516,-1.69807,0.0914634,0.457317,-1.03659,-39.149,-2.57225,-5.11097,-16.372,-1.4939,4.2378
720.992,4.97544,-6.78515,0,0.888552,9.63277,-1.65256,0.0304878,0.579268,-1.28049,-39.1203,-2.42855,-5.13971,-14.9695,-1.15854,6.09756
721.002,4.97838,-6.80339,0,0.895737,9.60882,-1.68609,-0.121951,0.0609756,-0.97561,-39.2735,-2.43813,-4.99601,-16.372,-0.792683,4.60366
721.012,4.97639,-6.81128,0,0.878972,9.59684,-1.64777,-0.152439,-0.0304878,-1.09756,-39.1681,-2.29443,-4.81399,-16.4329,-0.853659,5.18293
721.022,4.97912,-6.82632,0,0.905317,9.56331,-1.64298,0.27439,-0.152439,-1.18902,-39.2256,-2.39023,-4.94811,-15.4573,0.27439,4.90854
721.032,4.97741,-6.82627,0,0.886157,9.5705,-1.69088,0.304878,0.0609756,-1.21951,-39.1681,-2.29443,-4.68945,-16.1585,-0.457317,5.67073
721.042,4.98269,-6.83278,0,0.926873,9.5681,-1.62382,0.0304878,-0.0304878,-1.28049,-39.3885,-2.21779,-4.83315,-17.622,-0.97561,5.09146
721.052,4.98414,-6.83531,0,0.907712,9.60882,-1.65496,0.0304878,0,-1.21951,-39.3214,-2.43813,-4.75651,-16.6159,-0.0914634,5.27439
721.062,4.98803,-6.8355,0,0.931663,9.61121,-1.65735,-0.182927,-0.152439,-1.34146,-39.2927,-2.54351,-4.71819,-16.4634,-1.43293,4.84756
721.072,4.99486,-6.8354,0,0.943638,9.59684,-1.63101,0,0.182927,-1.31098,-39.2065,-2.48603,-4.69903,-17.2256,-0.304878,4.57317
721.082,4.99792,-6.83918,0,0.922083,9.6184,-1.65975,0.213415,0.152439,-1.25,-39.2735,-2.45729,-4.77567,-16.8902,-0.487805,4.2378
721.092,5.00224,-6.84643,0,0.941243,9.60642,-1.67651,0.213415,0.121951,-1.40244,-39.3598,-2.44771,-4.85231,-16.0366,-1.15854,4.35976
721.102,5.00785,-6.84576,0,0.919688,9.60163,-1.72202,0.0609756,0.487805,-1.06707,-39.4076,-2.30401,-4.72777,-16.0061,-2.31707,5.27439
721.112,5.00861,-6.85923,0,0.914897,9.58247,-1.6837,0.27439,0.213415,-1.34146,-39.216,-2.39981,-4.94811,-15.0915,-1.12805,4.05488
721.122,5.01553,-6.86245,0,0.941243,9.60882,-1.67172,-0.121951,0.0609756,-1.21951,-39.2735,-2.61057,-4.78525,-15.1524,-1.25,4.54268
721.132,5.02174,-6.85557,0,0.943638,9.60403,-1.70765,-0.213415,0.213415,-1.28049,-39.1394,-2.55309,-4.59365,-15.7622,-1.09756,4.45122
721.142,5.03016,-6.86871,0,0.953218,9.59924,-1.71004,-0.182927,-0.27439,-1.25,-39.0723,-2.41897,-4.92895,-15.4878,-0.487805,4.87805
721.152,5.03514,-6.8675,0,0.931663,9.60642,-1.66214,0,-0.121951,-1.18902,-39.1777,-2.38065,-4.69903,-15.7622,-0.243902,4.2378
721.162,5.04916,-6.88568,0,0.965193,9.58966,-1.67172,-0.182927,-0.243902,-1.06707,-39.2352,-2.36149,-5.04391,-15,0.213415,6.12805
721.172,5.06011,-6.90173,0,0.958008,9.54894,-1.68609,0,0.0609756,-1.18902,-39.2544,-2.62015,-5.02475,-14.3293,-0.701219,4.93902
721.182,5.06954,-6.90191,0,0.958008,9.61121,-1.67412,0.182927,0.182927,-1.15854,-39.4172,-2.57225,-4.77567,-15.2744,-0.396341,5.4878
721.192,5.07136,-6.8872,0,0.926873,9.60882,-1.66454,0.121951,0.457317,-1.25,-39.1969,-2.35191,-4.48827,-14.5427,-0.365854,5.27439
721.202,5.06953,-6.89352,0,0.917292,9.61361,-1.65017,0.426829,0.396341,-1.37195,-39.1586,-2.33275,-4.84273,-15.0915,-0.640244,4.78659
721.212,5.05838,-6.91398,0,0.857417,9.62558,-1.71962,0.426829,0.518293,-1.21951,-39.4172,-2.27527,-5.13013,-15.4573,-1.0061,4.20732
721.222,5.04968,-6.92118,0,0.878972,9.59684,-1.71483,0.426829,0.487805,-1.43293,-39.4268,-2.49561,-4.90979,-15.4878,-0.579268,5.64024
721.232,5.03737,-6.94571,0,0.876577,9.6184,-1.68849,0.0304878,0,-1.70732,-39.5035,-2.49561,-5.23551,-14.4817,-1.76829,5.54878
721.242,5.03286,-6.94652,0,0.900527,9.60882,-1.68849,-0.182927,0,-1.43293,-39.2831,-2.48603,-4.80441,-14.878,-1.34146,4.54268
721.252,5.02707,-6.93077,0,0.900527,9.60163,-1.66933,0.152439,-0.457317,-1.55488,-39.4556,-2.61057,-4.53617,-14.5427,-1.95122,4.63415
721.262,5.03053,-6.92503,0,0.919688,9.59924,-1.64777,-0.0609756,-0.457317,-1.15854,-39.1394,-2.52435,-4.66071,-13.9024,-1.0061,4.84756
721.272,5.03227,-6.92928,0,0.919688,9.60642,-1.69567,-0.0609756,-0.457317,-1.25,-39.216,-2.48603,-4.84273,-13.6585,-1.52439,4.78659
721.282,5.05062,-6.95458,0,0.979563,9.58726,-1.69088,-0.27439,-0.27439,-1.0061,-39.0915,-2.52435,-5.19719,-12.6524,-0.97561,4.60366
721.292,5.06189,-6.95719,0,0.958008,9.59924,-1.61903,0.0609756,-0.457317,-1.09756,-38.8903,-2.58183,-4.79483,-13.3232,-1.61585,4.45122
721.302,5.08741,-6.97177,0,0.967588,9.5681,-1.65975,0.182927,-0.182927,-0.579268,-39.0532,-2.48603,-5.02475,-11.5549,-1.25,4.26829
721.312,5.10863,-6.98123,0,0.977168,9.60882,-1.71004,-0.243902,-0.396341,-0.731707,-39.0819,-2.59141,-4.94811,-12.1646,-1.06707,3.90244
721.322,5.13099,-6.99244,0,0.984353,9.58247,-1.68849,0.121951,-0.579268,-0.762195,-39.1203,-2.43813,-4.98643,-11.7378,0.0609756,4.17683
721.332,5.15695,-6.99496,0,0.972378,9.57289,-1.64538,0.213415,-0.457317,-0.487805,-39.2831,-2.32317,-4.86189,-12.1341,0.152439,4.60366
721.342,5.17315,-6.98688,0,0.958008,9.60163,-1.71244,0.0609756,-0.548781,-0.640244,-39.1586,-2.49561,-4.66071,-12.5,0.731707,3.90244
721.352,5.20604,-7.01005,0,0.993933,9.56571,-1.65975,0.182927,-0.97561,-0.396341,-38.9861,-2.52435,-5.17803,-10.8841,1.28049,3.62805
721.362,5.22471,-7.01949,0,0.969983,9.56092,-1.6813,0,-0.487805,-0.640244,-39.1011,-2.39981,-4.96727,-11.7378,1.70732,5.85366
721.372,5.24476,-7.02634,0,0.998723,9.55373,-1.69328,0.365854,-0.152439,-0.853659,-39.2065,-2.48603,-4.93853,-11.9512,2.68293,4.02439
721.382,5.26161,-7.04034,0,0.974773,9.59445,-1.73878,0.335366,-0.121951,-0.640244,-39.2544,-2.41897,-5.07265,-11.7683,3.35366,4.08537
721.392,5.27176,-7.06098,0,0.974773,9.59684,-1.69567,0.426829,0.152439,-0.945122,-39.2256,-2.31359,-5.19719,-12.2866,2.86585,4.69512
721.402,5.28097,-7.08037,0,0.960403,9.58487,-1.70286,0.304878,0.0914634,-0.823171,-39.2256,-2.35191,-5.18761,-13.0183,3.41463,3.68902
721.412,5.30039,-7.08645,0,0.998723,9.58247,-1.76752,0.182927,0.213415,-0.731707,-39.2544,-2.39023,-4.96727,-12.9878,4.45122,3.90244
721.422,5.3133,-7.09217,0,0.981958,9.58726,-1.68609,0.0609756,0.0914634,-0.823171,-39.2831,-2.41897,-4.96727,-12.1341,4.87805,4.32927
721.432,5.33105,-7.08498,0,0.984353,9.56092,-1.66933,0.335366,0.182927,-0.640244,-39.1969,-2.38065,-4.73735,-12.622,3.90244,3.59756
721.442,5.34968,-7.09291,0,1.00351,9.58726,-1.65735,0.579268,0.0304878,-0.731707,-39.3693,-2.53393,-5.01517,-13.0183,5.15244,4.17683
721.452,5.36097,-7.10988,0,0.989143,9.61121,-1.6837,0.426829,0.152439,-0.853659,-39.0532,-2.58183,-5.13971,-13.3537,4.84756,4.57317
721.462,5.38891,-7.1205,0,1.01788,9.58247,-1.69088,0.304878,0,-0.457317,-39.149,-2.65847,-5.05349,-12.9573,4.60366,4.35976
721.472,5.41112,-7.11509,0,1.02507,9.58247,-1.69088,0.0609756,0.121951,-0.701219,-39.2065,-2.34233,-4.78525,-12.5,5.06098,4.2378
721.482,5.44497,-7.12847,0,1.00591,9.56331,-1.65256,0.396341,0,-0.0914634,-39.4556,-2.31359,-5.14929,-12.2866,3.53659,4.81707
721.492,5.47743,-7.1266,0,1.03944,9.5681,-1.6837,0.243902,0.396341,-0.396341,-39.2448,-2.41897,-4.86189,-12.3171,3.84146,4.39024
721.502,5.534,-7.11763,0,1.08734,9.58008,-1.65017,0.27439,0.487805,-0.0914634,-39.2831,-2.26569,-4.74693,-12.2561,2.0122,4.45122
721.512,5.5763,-7.12198,0,1.07057,9.60403,-1.65496,0.335366,0.640244,0.426829,-39.1681,-2.16031,-4.95769,-13.1098,2.7439,4.05488
721.522,5.61741,-7.12736,0,1.07536,9.59205,-1.69567,0.335366,0.579268,0.518293,-38.9861,-2.24653,-4.95769,-13.3232,2.16463,4.78659
721.532,5.65481,-7.1279,0,1.07536,9.57529,-1.71962,0.426829,0.914634,0.97561,-39.0915,-2.36149,-4.89063,-12.5305,2.04268,5.36585
721.542,5.68618,-7.12843,0,1.0562,9.61121,-1.70046,0.27439,0.701219,1.21951,-39.1681,-2.41897,-4.90021,-14.1463,2.04268,5.27439
721.552,5.7234,-7.1428,0,1.08973,9.59445,-1.70286,0.182927,0.853659,1.34146,-39.2831,-2.46687,-5.15887,-13.0183,1.98171,6.31098
721.562,5.76238,-7.1549,0,1.1041,9.58726,-1.70765,0.396341,0.853659,1.43293,-39.2065,-2.39981,-5.12055,-13.5976,1.4939,6.55488
721.572,5.7976,-7.17373,0,1.08734,9.59684,-1.6837,0.243902,0.731707,1.58537,-39.3981,-2.36149,-5.27383,-14.2073,1.18902,6.79878
721.582,5.82721,-7.17301,0,1.05141,9.56092,-1.67172,0.670732,0.792683,1.67683,-39.2831,-2.39023,-4.92895,-15.061,0.792683,7.07317
721.592,5.85721,-7.19419,0,1.07057,9.60882,-1.70046,0.731707,0.945122,1.52439,-39.3598,-2.27527,-5.32173,-15.3659,1.55488,7.13415
721.602,5.88267,-7.20241,0,1.03704,9.57768,-1.69328,0.762195,1.0061,1.70732,-39.4268,-1.98787,-5.12055,-15,0.426829,6.34146
721.612,5.89865,-7.18477,0,1.00351,9.60882,-1.69567,0.97561,1.7378,1.40244,-39.3693,-2.21779,-4.66071,-16.3415,1.06707,6.55488
721.622,5.89687,-7.19814,0,0.950823,9.60642,-1.70765,0.914634,2.16463,0.792683,-39.1107,-2.11241,-5.15887,-17.4695,1.67683,6.12805
721.632,5.88244,-7.20541,0,0.912502,9.60403,-1.74118,1.06707,2.22561,0.579268,-39.0915,-2.10283,-5.06307,-17.5,0.396341,6.09756
721.642,5.84588,-7.22268,0,0.862207,9.59684,-1.74118,0.823171,2.04268,0.243902,-39.2735,-2.27527,-5.26425,-18.811,1.43293,6.79878
721.652,5.80692,-7.23349,0,0.862207,9.60163,-1.70525,0.914634,1.67683,0.121951,-39.1203,-2.43813,-5.14929,-18.5671,-0.579268,6.37195
721.662,5.77361,-7.25982,0,0.862207,9.56092,-1.75076,0.762195,1.09756,0.213415,-39.2065,-2.43813,-5.43669,-17.8354,0.701219,6.21951
721.672,5.73789,-7.29273,0,0.859812,9.56092,-1.72681,0.548781,0.670732,-0.27439,-39.1586,-2.72553,-5.56124,-17.439,1.58537,6.95122
721.682,5.71809,-7.32238,0,0.907712,9.60163,-1.75555,0.152439,0.335366,-0.182927,-39.1011,-2.68721,-5.52291,-16.9817,0.365854,4.69512
721.692,5.70194,-7.3412,0,0.912502,9.53936,-1.67412,0.426829,-0.0304878,-0.335366,-39.0149,-2.71595,-5.34089,-16.25,0.548781,5.27439
721.702,5.68133,-7.36227,0,0.902922,9.61121,-1.64059,0.152439,-0.823171,-0.823171,-39.2352,-2.75427,-5.42711,-16.6768,-0.396341,5.85366
721.712,5.6666,-7.38703,0,0.922083,9.616,-1.64059,0.121951,-1.28049,-0.670732,-39.1107,-2.68721,-5.48459,-15.9451,0.945122,4.02439
721.722,5.65077,-7.39126,0,0.929268,9.60642,-1.6837,0.0914634,-1.21951,-1.15854,-39.3214,-2.65847,-5.16845,-16.3415,1.18902,4.14634
721.732,5.63982,-7.41772,0,0.943638,9.62558,-1.68609,-0.27439,-0.640244,-0.945122,-39.1777,-2.59141,-5.54208,-16.3415,1.58537,4.14634
721.742,5.60973,-7.43773,0,0.845442,9.4723,-1.47054,0.97561,-1.4939,-1.12805,-39.149,-2.53393,-5.44627,-15.3659,0.579268,4.14634
721.752,5.58892,-7.43423,0,0.888552,9.64235,-1.52563,2.16463,-2.95732,-0.792683,-39.3981,-2.39981,-5.08223,-15.3659,-0.182927,4.02439
721.762,5.58291,-7.44295,0,0.955613,9.73096,-1.85135,1.58537,-1.64634,-0.701219,-39.3598,-2.39023,-5.29299,-16.6463,-0.945122,3.84146
721.772,5.58458,-7.44574,0,1.0083,9.74294,-1.8777,-0.121951,-0.579268,-0.945122,-39.3789,-2.49561,-5.19719,-15.3354,-1.0061,3.84146
721.782,5.61349,-7.45115,0,1.11608,9.54415,-1.89686,0.518293,0.121951,-0.97561,-39.3214,-2.48603,-5.24509,-15.0915,-3.14024,4.08537
721.792,5.66723,-7.45534,0,1.1999,9.54415,-1.94955,0.884146,1.40244,-0.731707,-39.4651,-2.53393,-5.24509,-14.0854,-2.71341,3.90244
721.802,5.70038,-7.46621,0,1.18793,9.5226,-1.84177,0.670732,0.426829,-1.28049,-39.2352,-2.52435,-5.34089,-12.7134,-4.42073,4.57317
721.812,5.72862,-7.45857,0,1.21427,9.4747,-1.77471,0.762195,0.0609756,-1.70732,-39.216,-2.56267,-5.01517,-13.9939,-2.95732,4.29878
721.822,5.77014,-7.45463,0,1.21188,9.45793,-1.73878,1.37195,1.18902,-1.18902,-39.2831,-2.79259,-5.09181,-13.3232,-5.30488,3.56707
721.832,5.79569,-7.45653,0,1.13045,9.44117,-1.65017,2.43902,2.59146,-1.15854,-39.3023,-2.64889,-5.18761,-12.3171,-3.35366,3.10976
721.842,5.80616,-7.46819,0,1.08494,9.5705,-1.62622,2.53049,3.93293,-1.18902,-39.0723,-2.46687,-5.33131,-12.0122,-3.81098,2.89634
721.853,5.79252,-7.49256,0,1.00351,9.60642,-1.66693,2.62195,4.35976,-1.82927,-39.2544,-2.56267,-5.58998,-12.0427,-4.26829,3.44512
721.862,5.78522,-7.49585,0,1.02746,9.60163,-1.79387,3.14024,4.84756,-1.64634,-39.3406,-2.24653,-5.24509,-13.0793,-3.71951,2.77439
721.872,5.78004,-7.51437,0,1.02267,9.63516,-1.78429,3.04878,6.18902,-1.37195,-39.3789,-2.36149,-5.52291,-14.2378,-4.08537,3.47561
721.882,5.80614,-7.5268,0,1.10171,9.53218,-1.90404,2.71341,5.94512,-0.701219,-39.4651,-2.43813,-5.44627,-13.0793,-5.85366,4.42073
721.892,5.88342,-7.53271,0,1.21906,9.45314,-1.94955,3.04878,5.33537,-0.304878,-39.5035,-2.38065,-5.34089,-13.1402,-4.81707,3.68902
721.902,5.97205,-7.52305,0,1.29331,9.45793,-1.80345,2.65244,5.70122,-0.426829,-39.4556,-2.66805,-5.06307,-13.2927,-4.7561,4.11585
721.912,6.04448,-7.53896,0,1.23104,9.46512,-1.61424,2.43902,4.72561,-0.335366,-39.1203,-2.86923,-5.46543,-13.8415,-5.7622,4.02439
721.922,6.07077,-7.54417,0,1.09931,9.51541,-1.70765,3.20122,4.5122,-0.27439,-39.1681,-2.72553,-5.29299,-12.7134,-5.12195,3.41463
721.932,6.05596,-7.5509,0,0.981958,9.62798,-1.72202,2.43902,4.90854,-0.213415,-38.9382,-2.55309,-5.29299,-13.3537,-5.42683,3.20122
721.942,6.01794,-7.56801,0,0.905317,9.61361,-1.66933,1.52439,3.78049,-0.182927,-38.6891,-2.60099,-5.44627,-13.4756,-6.06707,3.32317
721.952,5.96972,-7.58153,0,0.864602,9.66869,-1.70286,0.823171,2.43902,-0.213415,-38.8424,-2.56267,-5.41753,-15.6098,-6.18902,3.47561
721.962,5.93372,-7.58871,0,0.888552,9.64714,-1.68849,0.0304878,0.640244,-0.457317,-39.0819,-2.31359,-5.35047,-15.4268,-6.58537,4.17683
721.972,5.91116,-7.59381,0,0.934058,9.64953,-1.78429,-0.304878,-0.335366,-0.731707,-39.2352,-2.43813,-5.34089,-14.6646,-6.92073,3.29268
721.982,5.9079,-7.59077,0,1.01788,9.55134,-1.75076,-0.152439,-1.03659,-0.97561,-39.3119,-2.38065,-5.21635,-14.6646,-8.41463,4.17683
721.992,5.9054,-7.58337,0,1.09213,9.54415,-1.74836,-0.518293,-1.4939,-1.92073,-39.3981,-2.32317,-5.13971,-16.25,-5.7622,4.2378
722.002,5.91185,-7.57906,0,1.14961,9.52499,-1.71004,0.335366,-1.12805,-1.95122,-39.1969,-2.38065,-5.16845,-15.4878,-7.5,3.75
722.012,5.91314,-7.59206,0,1.11368,9.55852,-1.73399,0.121951,-0.0609756,-1.85976,-39.1681,-2.34233,-5.46543,-14.6037,-7.34756,4.11585
722.022,5.9188,-7.59886,0,1.13045,9.50344,-1.75794,0.487805,-0.0914634,-1.82927,-39.0628,-2.42855,-5.35047,-13.9634,-7.19512,2.68293
722.032,5.93215,-7.61005,0,1.14242,9.55852,-1.77471,0,-0.152439,-1.40244,-39.2256,-2.44771,-5.45585,-13.9329,-7.46951,4.2378
722.042,5.94396,-7.62426,0,1.13045,9.53936,-1.86333,0.27439,-0.792683,-1.37195,-39.0149,-2.48603,-5.48459,-13.2012,-6.70732,4.81707
722.052,5.9605,-7.64739,0,1.14961,9.53936,-1.93997,-0.121951,-1.21951,-1.28049,-38.9861,-2.42855,-5.64746,-13.9939,-6.85976,3.56707
722.062,5.9775,-7.66658,0,1.15679,9.53936,-1.80345,-0.609756,-1.25,-1.31098,-39.1777,-2.66805,-5.61872,-13.7195,-5.97561,4.48171
722.072,5.98983,-7.68665,0,1.17595,9.57529,-1.80584,-0.579268,-1.12805,-1.64634,-39.1203,-2.32317,-5.63788,-13.4756,-5.54878,3.41463
722.082,6.0076,-7.67292,0,1.22864,9.55134,-1.76752,-0.762195,-1.43293,-1.82927,-39.1873,-2.48603,-5.06307,-14.3293,-4.42073,3.41463
722.092,6.04282,-7.67516,0,1.29331,9.54655,-1.76752,-0.97561,-1.89024,-1.4939,-38.967,-2.40939,-5.30257,-14.1159,-3.9939,4.78659
722.102,6.08789,-7.67419,0,1.346,9.54176,-1.75794,-0.914634,-1.61585,-1.43293,-39.0915,-2.29443,-5.26425,-14.7256,-3.78049,3.71951
722.112,6.14109,-7.66254,0,1.40348,9.49386,-1.69328,-0.365854,-0.640244,-1.52439,-38.9957,-2.38065,-5.06307,-15.1829,-3.59756,5.03049
722.122,6.17874,-7.65689,0,1.35079,9.50344,-1.60466,0.457317,0.792683,-1.70732,-38.9478,-2.23695,-5.14929,-15.9756,-2.31707,4.42073
722.132,6.19118,-7.6557,0,1.22146,9.50583,-1.71004,0.945122,2.07317,-1.85976,-38.8328,-2.29443,-5.20677,-16.25,-2.04268,3.93293
722.142,6.18555,-7.64917,0,1.12566,9.58726,-1.72441,1.40244,3.75,-1.92073,-38.8999,-2.22737,-5.12055,-17.4695,-1.61585,4.11585
722.152,6.1688,-7.64512,0,1.04423,9.62558,-1.85375,1.12805,3.07927,-1.7378,-39.034,-2.06451,-5.17803,-17.561,-1.92073,4.84756
722.162,6.1566,-7.65782,0,1.08015,9.53936,-1.94236,0.670732,1.85976,-2.0122,-39.1681,-2.27527,-5.48459,-18.2317,-1.06707,4.93902
722.172,6.14615,-7.65674,0,1.09452,9.53936,-1.91602,-0.0609756,1.85976,-2.07317,-39.2735,-2.27527,-5.26425,-17.9878,-0.823171,3.41463
722.182,6.12736,-7.65621,0,1.03704,9.50583,-1.80345,0.152439,1.06707,-2.13415,-39.2831,-2.40939,-5.27383,-19.3902,-0.579268,4.48171
722.192,6.1161,-7.66841,0,1.06818,9.54415,-1.78668,0.548781,0.609756,-1.85976,-39.331,-2.49561,-5.50376,-19.4817,-0.335366,3.9939
722.202,6.08724,-7.66991,0,0.979563,9.60642,-1.71483,-0.0609756,0.548781,-2.22561,-39.264,-2.41897,-5.31215,-19.1159,0.27439,3.14024
722.212,6.06157,-7.68246,0,0.993933,9.616,-1.80105,-0.0609756,-0.121951,-2.16463,-39.0244,-2.51477,-5.47501,-20.8841,0.121951,4.14634
722.222,6.03769,-7.70923,0,1.01788,9.58966,-1.76273,-0.487805,-0.731707,-2.43902,-39.0628,-2.60099,-5.74326,-20.7012,-1.15854,4.26829
722.232,6.03412,-7.71056,0,1.12326,9.54176,-1.80824,-0.426829,-1.15854,-2.10366,-39.3981,-2.52435,-5.36005,-20.9756,-0.914634,3.38415
722.242,6.03827,-7.6976,0,1.1999,9.50583,-1.7795,-0.518293,-0.884146,-2.40854,-39.2448,-2.65847,-5.09181,-20.1524,-1.89024,4.29878
722.252,6.04876,-7.70445,0,1.22625,9.51302,-1.6837,-0.121951,-0.548781,-2.22561,-39.216,-2.65847,-5.42711,-19.3598,-1.7378,4.5122
722.262,6.03753,-7.71292,0,1.08973,9.53697,-1.65735,0.213415,-0.121951,-2.31707,-39.3119,-2.69679,-5.47501,-18.5976,-2.04268,4.32927
722.272,6.02903,-7.70227,0,1.09213,9.58008,-1.71004,0.670732,0.182927,-2.07317,-39.2256,-2.60099,-5.13013,-17.5915,-1.46341,3.5061
722.282,6.01181,-7.69513,0,1.04423,9.63037,-1.75794,0.487805,0.27439,-2.16463,-39.149,-2.67763,-5.17803,-17.3476,-2.53049,4.2378
722.292,6.00996,-7.6878,0,1.10889,9.60403,-1.73878,0,0.426829,-1.76829,-39.2256,-2.56267,-5.17803,-17.6829,-1.98171,4.42073
722.302,6.01943,-7.67599,0,1.14721,9.51302,-1.79626,0.0609756,0.304878,-1.58537,-39.0819,-2.62973,-5.07265,-17.5305,-1.21951,2.9878
722.312,6.02318,-7.68841,0,1.13763,9.50823,-1.83219,0.518293,1.09756,-1.82927,-39.2352,-2.47645,-5.51333,-16.128,-1.82927,5.03049
722.322,6.0153,-7.6876,0,1.06099,9.54894,-1.79147,0.670732,1.34146,-1.70732,-38.9286,-2.57225,-5.24509,-17.5915,-1.15854,5.18293
722.332,5.9993,-7.67784,0,1.02746,9.58247,-1.80824,0.457317,0.213415,-1.92073,-39.3693,-2.44771,-5.14929,-16.6463,-2.10366,4.35976
722.342,5.97719,-7.6834,0,1.0107,9.56331,-1.81063,-0.121951,-0.152439,-2.34756,-39.149,-2.49561,-5.37921,-16.8598,-1.09756,3.96341
722.352,5.95083,-7.68087,0,0.984353,9.53457,-1.77471,0.152439,0.243902,-2.5,-39.2352,-2.48603,-5.25467,-17.0732,-1.7378,4.08537
722.362,5.91368,-7.67557,0,0.924478,9.59205,-1.80584,1.09756,0.335366,-2.77439,-39.4364,-2.31359,-5.22593,-18.5061,-0.304878,4.29878
722.372,5.87814,-7.68844,0,0.938848,9.59445,-1.75315,0.945122,0.548781,-2.89634,-39.1298,-2.42855,-5.50376,-17.9268,-1.15854,2.80488
722.382,5.84486,-7.69735,0,0.950823,9.58008,-1.79626,0.823171,0.731707,-2.92683,-39.2065,-2.48603,-5.45585,-17.6829,-1.79878,3.29268
722.392,5.81322,-7.70622,0,0.993933,9.59445,-1.8777,0.762195,0.914634,-3.38415,-39.1586,-2.54351,-5.45585,-17.4695,-2.13415,2.80488
722.402,5.78794,-7.71711,0,1.03465,9.55613,-1.83938,0.731707,0.823171,-3.38415,-39.3502,-2.40939,-5.52291,-19.2073,-1.64634,2.83537
722.412,5.76248,-7.70818,0,1.03704,9.56092,-1.8274,0.213415,0.152439,-3.47561,-39.3214,-2.57225,-5.17803,-19.3902,-2.04268,3.14024
722.422,5.7391,-7.71963,0,1.05141,9.55852,-1.76752,-0.0914634,-0.914634,-3.5061,-39.4172,-2.69679,-5.55166,-18.5061,-3.9939,3.14024
722.432,5.72003,-7.71732,0,1.06339,9.53457,-1.73399,0.0304878,-0.701219,-3.32317,-39.2927,-2.62973,-5.30257,-18.1707,-4.90854,3.2622
722.442,5.70212,-7.70945,0,1.06578,9.59205,-1.76992,0.0609756,-0.396341,-3.20122,-39.1873,-2.73511,-5.18761,-17.561,-4.54268,3.56707
722.452,5.68535,-7.69031,0,1.03225,9.58487,-1.80345,0.762195,-0.121951,-2.7439,-39.3502,-2.80217,-5.00559,-16.6463,-4.72561,2.59146
722.462,5.67935,-7.69293,0,1.08734,9.55613,-1.8777,0,-0.823171,-2.53049,-39.2831,-2.69679,-5.36963,-16.128,-5.45732,2.13415
722.472,5.69819,-7.68189,0,1.21906,9.54415,-1.85135,-0.304878,-1.61585,-2.13415,-39.4172,-2.78301,-5.14929,-15.8537,-5.79268,3.20122
722.482,5.72016,-7.66763,0,1.26457,9.51541,-1.82021,-0.487805,-1.61585,-2.34756,-39.149,-2.75427,-5.05349,-14.3902,-6.7378,3.07927
722.492,5.7426,-7.65268,0,1.21667,9.51302,-1.74597,0,-0.548781,-1.92073,-39.1203,-2.73511,-5.02475,-15.2744,-5.88415,3.71951
722.502,5.75069,-7.6391,0,1.14242,9.56331,-1.75794,0.640244,1.21951,-1.98171,-39.1777,-2.56267,-5.04391,-15.4268,-5.33537,4.48171
722.512,5.75019,-7.63508,0,1.08015,9.61361,-1.80824,0.396341,1.95122,-1.82927,-39.1586,-2.47645,-5.20677,-15.6098,-7.37805,5.27439
722.522,5.7569,-7.63751,0,1.12326,9.54894,-1.81542,-0.27439,1.0061,-1.89024,-39.216,-2.40939,-5.32173,-16.0671,-6.37195,4.32927
722.532,5.76185,-7.63798,0,1.09213,9.5705,-1.77231,-0.182927,1.12805,-1.64634,-39.2448,-2.52435,-5.29299,-15.8841,-6.40244,4.72561
722.542,5.7589,-7.63534,0,1.04183,9.51062,-1.76752,0.27439,0.304878,-1.70732,-39.149,-2.51477,-5.22593,-16.7378,-6.46341,3.5061
722.552,5.74846,-7.63228,0,1.02986,9.56331,-1.74597,0.457317,0.365854,-2.07317,-39.1586,-2.46687,-5.21635,-16.8598,-6.0061,3.41463
722.562,5.7338,-7.62652,0,0.998723,9.55373,-1.71723,0.914634,0.0914634,-2.07317,-38.9382,-2.19863,-5.13971,-16.8902,-6.58537,3.23171
722.572,5.70902,-7.62281,0,0.938848,9.60163,-1.82021,0.670732,0.365854,-2.16463,-39.0915,-2.37107,-5.18761,-17.2256,-5.33537,3.5061
722.582,5.68815,-7.63593,0,0.969983,9.58008,-1.78668,0.152439,0.396341,-2.31707,-38.9957,-2.37107,-5.46543,-18.0793,-4.87805,2.37805
722.592,5.68271,-7.63846,0,1.03944,9.52739,-1.88009,0.182927,-0.823171,-1.98171,-39.1298,-2.50519,-5.31215,-17.7744,-6.34146,2.71341
722.602,5.68538,-7.64629,0,1.09931,9.56092,-1.8274,0.0914634,-0.945122,-2.0122,-39.2831,-2.56267,-5.42711,-17.2866,-5.97561,2.80488
722.612,5.69913,-7.6465,0,1.15679,9.56571,-1.75555,-0.243902,-0.426829,-1.85976,-39.3885,-2.67763,-5.31215,-15.8841,-5.91463,3.65854
722.622,5.70719,-7.65,0,1.11847,9.57768,-1.8274,-0.396341,-0.0609756,-1.79878,-39.1107,-2.62015,-5.33131,-18.3841,-5.54878,3.04878
722.632,5.70787,-7.64842,0,1.10171,9.53936,-1.83458,0.0304878,0.731707,-2.16463,-39.1011,-2.88839,-5.24509,-17.8659,-6.06707,3.87195
722.642,5.69702,-7.64401,0,1.02028,9.59684,-1.8274,0.335366,1.4939,-2.04268,-39.1873,-2.75427,-5.20677,-17.9268,-6.37195,2.80488
722.652,5.69043,-7.6394,0,1.03465,9.6184,-1.80584,-0.365854,0.701219,-1.85976,-39.1586,-2.69679,-5.19719,-17.1951,-6.55488,4.2378
722.662,5.69849,-7.64309,0,1.10171,9.52499,-1.74357,-0.335366,0.487805,-1.7378,-39.2352,-2.74469,-5.35047,-16.9207,-6.64634,4.7561
722.672,5.70437,-7.63187,0,1.07776,9.46751,-1.72681,0.0609756,0.518293,-1.70732,-39.1011,-2.76385,-5.07265,-15.8537,-6.4939,4.02439
722.682,5.70429,-7.65508,0,1.03944,9.5705,-1.76273,0.579268,0.365854,-1.4939,-39.0149,-2.62015,-5.65704,-15.8841,-6.52439,3.56707
722.692,5.69798,-7.65679,0,1.01788,9.61361,-1.85135,0.365854,-0.304878,-1.61585,-39.2065,-2.56267,-5.32173,-14.1768,-6.37195,4.05488
722.702,5.69237,-7.66514,0,1.02986,9.5705,-1.76034,0,-0.609756,-1.79878,-39.2544,-2.53393,-5.44627,-15.0305,-6.34146,4.11585
722.712,5.70455,-7.67093,0,1.11368,9.55852,-1.79626,0.0609756,-0.731707,-1.55488,-39.2927,-2.53393,-5.41753,-16.25,-7.83537,4.39024
722.722,5.72009,-7.66987,0,1.13045,9.56571,-1.83219,-0.335366,-0.853659,-1.4939,-39.1586,-2.52435,-5.28341,-15.1524,-8.10976,4.14634
722.732,5.73536,-7.65807,0,1.13763,9.54894,-1.70765,-0.548781,-0.457317,-1.58537,-39.1969,-2.57225,-5.10139,-15.8232,-8.71951,4.35976
722.742,5.74889,-7.64993,0,1.13524,9.57768,-1.75555,-0.457317,0,-1.58537,-39.1586,-2.45729,-5.14929,-16.9512,-7.83537,5.39634
722.752,5.74786,-7.63622,0,1.07057,9.55373,-1.75315,-0.213415,0.548781,-1.85976,-39.1298,-2.62973,-5.04391,-16.6159,-8.35366,4.78659
722.762,5.75044,-7.64633,0,1.06578,9.59684,-1.71962,0.243902,0.914634,-1.4939,-39.0244,-2.59141,-5.43669,-17.0427,-8.01829,4.81707
