time,angle1,angle2,intgangle,accX1,accY1,accZ1,gyroX1,gyroY1,gyroZ1,accX2,accY2,accZ2,gyroX2,gyroY2,gyroZ2
523.969,88.7798,1.33959,0,9.57768,0.110171,-1.86572,-0.396341,0.27439,-1.34146,-9.87227,-0.502954,0.198787,-15.4573,-3.5061,6.34146
523.978,88.7803,1.34247,0,9.53457,0.131726,-1.86333,-0.27439,0.548781,-1.34146,-9.86509,-0.469424,0.239502,-16.0976,-3.81098,6.85976
523.988,88.7736,1.35908,0,9.55852,0.131726,-1.87291,-0.182927,0.487805,-1.85976,-9.82677,-0.457449,0.294587,-17.1341,-3.2622,6.82927
523.998,88.7697,1.36192,0,9.59445,0.110171,-1.89925,0.304878,0.731707,-1.92073,-9.84114,-0.459844,0.241897,-18.5366,-2.31707,6.03659
524.009,88.7629,1.3463,0,9.62798,0.122146,-1.89446,0.0609756,0.884146,-2.0122,-9.9058,-0.502954,0.191602,-17.0427,-1.09756,6.15854
524.018,88.7589,1.32303,0,9.61361,0.112566,-1.8753,0.152439,0.914634,-1.92073,-9.96807,-0.526904,0.165256,-18.811,-1.18902,6.21951
524.028,88.7569,1.29409,0,9.58726,0.0838257,-1.88009,0.0609756,1.34146,-2.10366,-9.96807,-0.498164,0.126936,-17.9268,-1.89024,5.30488
524.039,88.7573,1.28316,0,9.58487,0.0886157,-1.88488,0.0609756,1.58537,-1.89024,-9.98244,-0.517324,0.177231,-17.0122,-3.32317,5.85366
524.049,88.7562,1.28495,0,9.54894,0.0981958,-1.825,0.213415,1.25,-1.89024,-9.91778,-0.471819,0.225132,-17.9573,-5.57927,6.40244
524.058,88.7522,1.29786,0,9.54655,0.114961,-1.79387,0.121951,1.09756,-1.92073,-9.90101,-0.488584,0.273032,-17.8049,-6.06707,5.64024
524.068,88.7417,1.30717,0,9.52739,0.119751,-1.84656,0.0914634,0.792683,-2.37805,-9.86269,-0.455054,0.258662,-16.9207,-6.0061,6.40244
524.078,88.7198,1.30209,0,9.52499,0.239502,-1.89686,0.121951,1.28049,-1.7378,-9.88425,-0.447869,0.198787,-17.3476,-5.57927,6.40244
524.088,88.7171,1.30447,0,9.60163,0.0670605,-1.79866,0.609756,-0.365854,-2.40854,-9.85311,-0.493374,0.229922,-17.0732,-5,5.82317
524.098,88.7037,1.31122,0,9.78366,0.217947,-2.01421,1.0061,2.16463,-1.40244,-9.8603,-0.486189,0.249082,-17.6829,-5.30488,4.66463
524.109,88.6994,1.32763,0,9.5681,0.196392,-1.83219,0.945122,1.61585,-0.914634,-9.86988,-0.488584,0.292192,-17.7744,-5.18293,4.72561
524.124,88.7158,1.34664,0,9.55613,0.0407153,-1.78189,0.243902,-0.243902,-1.52439,-9.9082,-0.481399,0.306563,-17.6829,-7.0122,4.60366
524.13,88.7249,1.35452,0,9.51781,0.0742456,-1.79626,0.304878,-0.121951,-1.58537,-9.91059,-0.459844,0.261057,-16.1585,-7.37805,4.63415
524.138,88.7187,1.35006,0,9.51541,0.134121,-1.79626,-0.335366,-0.701219,-1.92073,-9.90341,-0.514929,0.208367,-16.1585,-7.43902,4.84756
524.149,88.7129,1.36099,0,9.5226,0.126936,-1.88249,-0.243902,0.579268,-1.98171,-9.89862,-0.507744,0.275427,-17.378,-6.31098,5.54878
524.158,88.705,1.3599,0,9.59445,0.146096,-1.88009,0.0304878,0.548781,-1.92073,-9.88425,-0.512534,0.225132,-16.8902,-5.82317,5.88415
524.169,88.7122,1.35988,0,9.62558,0.100591,-1.81542,0.640244,0.518293,-1.40244,-9.89383,-0.529299,0.229922,-18.5366,-5.67073,5.15244
524.178,88.7133,1.34904,0,9.62079,0.138911,-1.83458,0.426829,-0.152439,-1.34146,-9.89143,-0.495769,0.182021,-17.561,-6.61585,5.36585
524.188,88.7151,1.34407,0,9.59684,0.119751,-1.83219,-0.121951,-0.426829,-1.52439,-9.90341,-0.505349,0.205972,-16.2805,-6.52439,6.12805
524.199,88.7246,1.32887,0,9.5705,0.122146,-1.80345,-0.0609756,-0.182927,-1.03659,-9.91059,-0.519719,0.160466,-15.6707,-6.76829,6.98171
524.209,88.7317,1.33619,0,9.52978,0.0981958,-1.81542,0.121951,-0.731707,-1.43293,-9.93694,-0.543669,0.256267,-15.1829,-7.31707,5.94512
524.218,88.7388,1.33388,0,9.54176,0.0910107,-1.82979,0,-0.609756,-1.4939,-9.93694,-0.529299,0.215552,-14.9695,-7.10366,5.85366
524.228,88.7478,1.33323,0,9.58247,0.0646655,-1.88967,0.182927,-0.792683,-1.61585,-9.92975,-0.522114,0.222737,-14.6341,-6.58537,5.85366
524.238,88.7535,1.32309,0,9.616,0.110171,-1.91362,0.0914634,-0.792683,-1.31098,-9.92736,-0.514929,0.182021,-14.3293,-5.70122,5.91463
524.249,88.7579,1.32788,0,9.60163,0.100591,-1.86812,-0.182927,-0.762195,-1.4939,-9.87706,-0.514929,0.244292,-15.0305,-5.2439,5.51829
524.258,88.7523,1.31781,0,9.57529,0.136516,-1.82021,-0.182927,-0.731707,-1.76829,-9.88425,-0.536484,0.179626,-13.75,-6.67683,5.06098
524.268,88.7513,1.3038,0,9.58008,0.124541,-1.88249,-0.0304878,-0.579268,-1.58537,-9.87946,-0.510139,0.160466,-12.622,-6.89024,6.34146
524.278,88.7561,1.30737,0,9.54176,0.105381,-1.8777,0,-0.518293,-1.43293,-9.85311,-0.510139,0.234712,-13.811,-5.85366,6.4939
524.289,88.7531,1.31581,0,9.58247,0.107776,-1.83938,0,-0.365854,-1.92073,-9.86748,-0.510139,0.256267,-13.689,-6.4939,6.89024
524.299,88.7551,1.33325,0,9.58487,0.0958008,-1.88967,0.0914634,-0.152439,-1.70732,-9.87467,-0.481399,0.296982,-13.9634,-6.58537,7.07317
524.308,88.7517,1.32898,0,9.58726,0.112566,-1.85854,0.0609756,-0.731707,-1.89024,-9.8603,-0.481399,0.205972,-13.872,-5.91463,6.64634
524.319,88.7525,1.34192,0,9.58726,0.100591,-1.85854,0.0609756,-0.27439,-1.7378,-9.86509,-0.481399,0.280217,-14.9085,-4.96951,6.28049
524.328,88.7564,1.34597,0,9.59445,0.0981958,-1.86333,-0.213415,-0.335366,-1.55488,-9.8555,-0.457449,0.244292,-14.7256,-4.42073,5.60976
524.338,88.7536,1.35317,0,9.58726,0.124541,-1.88728,-0.243902,-0.152439,-1.70732,-9.86988,-0.510139,0.258662,-13.689,-4.87805,5.64024
524.349,88.7563,1.36718,0,9.58008,0.0886157,-1.8777,-0.0609756,-0.213415,-1.7378,-9.92017,-0.493374,0.289797,-15.7012,-3.62805,5.64024
524.358,88.759,1.37608,0,9.58247,0.107776,-1.83698,0.0304878,-0.152439,-1.52439,-9.90341,-0.495769,0.270637,-14.2378,-4.48171,5.85366
524.368,88.7498,1.37028,0,9.56331,0.146096,-1.90404,0.243902,-0.304878,-1.92073,-9.88185,-0.510139,0.208367,-14.3598,-4.81707,5.82317
524.379,88.7401,1.36843,0,9.5681,0.162861,-1.88728,0.0914634,-0.152439,-1.76829,-9.90101,-0.512534,0.225132,-14.3902,-4.42073,6.89024
524.389,88.7341,1.37576,0,9.56092,0.153281,-1.89446,-0.0304878,-0.0914634,-1.61585,-9.87706,-0.488584,0.263452,-13.9329,-4.14634,6.0061
524.398,88.7291,1.38545,0,9.59684,0.141306,-1.87051,-0.0304878,0.213415,-1.70732,-9.90341,-0.502954,0.275427,-14.4817,-4.78659,5.7622
524.408,88.7239,1.38747,0,9.57289,0.148491,-1.83219,0.0914634,0.182927,-1.64634,-9.9058,-0.514929,0.244292,-13.628,-4.66463,6.67683
524.419,88.7273,1.39957,0,9.57529,0.100591,-1.90644,0.335366,0.213415,-1.61585,-9.89143,-0.531694,0.287402,-13.6585,-4.20732,6.43293
524.428,88.7318,1.41534,0,9.5705,0.105381,-1.86093,0.27439,0.152439,-1.4939,-9.92975,-0.510139,0.306563,-14.1159,-5.06098,6.37195
524.438,88.7313,1.4267,0,9.5681,0.119751,-1.87291,0.335366,0.152439,-1.64634,-9.8603,-0.474214,0.287402,-15.122,-6.40244,6.64634
524.449,88.7293,1.42835,0,9.56331,0.150886,-1.86333,0.396341,0.457317,-1.37195,-9.87706,-0.471819,0.249082,-15.2744,-4.66463,6.46341
524.458,88.7286,1.42715,0,9.56092,0.134121,-1.8777,0.152439,0.0609756,-1.4939,-9.88904,-0.500559,0.237107,-14.9695,-5.06098,6.40244
524.468,88.7291,1.42608,0,9.57289,0.117356,-1.83219,0,0.457317,-1.61585,-9.87946,-0.459844,0.237107,-16.9817,-5.15244,5.97561
524.478,88.7363,1.42716,0,9.58247,0.117356,-1.8274,0.27439,0.518293,-1.18902,-9.89143,-0.457449,0.246687,-15.7012,-4.93902,5.88415
524.489,88.7373,1.43443,0,9.57529,0.112566,-1.86572,0.152439,0.518293,-1.61585,-9.89143,-0.479004,0.273032,-15.5488,-5.79268,6.0061
524.498,88.7402,1.43496,0,9.59684,0.114961,-1.85854,-0.213415,0.396341,-1.46341,-9.92257,-0.450264,0.246687,-15.7622,-4.69512,6.09756
524.508,88.7532,1.42925,0,9.59445,0.0598755,-1.90404,-0.0914634,0.396341,-1.43293,-9.92975,-0.483794,0.220342,-14.5122,-4.5122,5.94512
524.519,88.7591,1.43258,0,9.55852,0.0958008,-1.88728,-0.0914634,0.609756,-1.46341,-9.86988,-0.498164,0.256267,-15.4573,-5.09146,4.87805
524.528,88.7579,1.43838,0,9.5705,0.141306,-1.88728,-0.0609756,0.548781,-1.37195,-9.91778,-0.476609,0.268242,-15,-5.82317,5
524.539,88.76,1.43337,0,9.55852,0.124541,-1.83458,-0.0914634,0.27439,-1.37195,-9.91059,-0.476609,0.222737,-13.7805,-5.21341,5
524.549,88.7567,1.44357,0,9.57289,0.134121,-1.9232,-0.0609756,0.548781,-1.61585,-9.91299,-0.490979,0.287402,-14.6341,-5.82317,4.87805
524.558,88.7547,1.45456,0,9.56092,0.122146,-1.86093,0.152439,0.0914634,-1.67683,-9.88425,-0.469424,0.292192,-15.3049,-4.35976,4.72561
524.568,88.7616,1.45082,0,9.58247,0.0981958,-1.82979,-0.243902,-0.0304878,-1.37195,-9.89383,-0.474214,0.232317,-15.7622,-3.78049,4.66463
524.578,88.7655,1.43757,0,9.58008,0.0862207,-1.83458,0.152439,0.304878,-1.67683,-9.84593,-0.471819,0.191602,-16.128,-3.59756,4.32927
524.589,88.7674,1.43638,0,9.55852,0.0862207,-1.83938,-0.121951,0.365854,-1.79878,-9.87467,-0.512534,0.239502,-15.2134,-3.90244,5.18293
524.599,88.7636,1.43117,0,9.56571,0.100591,-1.85854,0.0609756,0.365854,-2.04268,-9.88425,-0.488584,0.222737,-16.311,-3.81098,4.93902
524.608,88.761,1.43166,0,9.55373,0.117356,-1.86093,0.0914634,0.304878,-1.76829,-9.89862,-0.455054,0.246687,-14.1463,-3.04878,4.78659
524.619,88.7613,1.43505,0,9.5681,0.107776,-1.8274,-0.121951,0.0609756,-1.67683,-9.91538,-0.450264,0.258662,-15.5793,-4.17683,6.12805
524.628,88.7607,1.42777,0,9.57289,0.107776,-1.89207,0.0304878,-0.182927,-1.7378,-9.88904,-0.464634,0.217947,-15,-2.5,5.06098
524.638,88.7598,1.41738,0,9.58008,0.117356,-1.80345,-0.0304878,-0.243902,-1.64634,-9.89143,-0.500559,0.203577,-14.8171,-2.7439,5.30488
524.649,88.7527,1.42486,0,9.55613,0.141306,-1.79387,0.0304878,-0.365854,-1.82927,-9.91778,-0.507744,0.273032,-14.9085,-3.07927,4.81707
524.659,88.7528,1.43352,0,9.58008,0.114961,-1.87291,0.0304878,-0.121951,-1.61585,-9.95849,-0.507744,0.280217,-15.4573,-2.9878,4.90854
524.668,88.7546,1.44857,0,9.57768,0.126936,-1.80345,0,-0.213415,-1.37195,-9.92257,-0.469424,0.308958,-16.6159,-5.57927,5.18293
524.679,88.7588,1.45259,0,9.56092,0.110171,-1.86572,-0.121951,-0.701219,-1.40244,-9.92496,-0.435894,0.263452,-16.7988,-5.88415,4.11585
524.688,88.7609,1.45873,0,9.55613,0.122146,-1.79626,-0.304878,-0.945122,-1.40244,-9.89622,-0.464634,0.273032,-16.128,-5.15244,4.81707
524.699,88.7642,1.46444,0,9.54894,0.119751,-1.88009,-0.243902,-1.0061,-1.34146,-9.93694,-0.495769,0.273032,-16.3415,-5.73171,4.78659
524.709,88.7681,1.46017,0,9.57289,0.110171,-1.88009,-0.213415,-0.914634,-1.40244,-9.9082,-0.543669,0.229922,-16.0671,-5.64024,5.03049
524.719,88.7601,1.4468,0,9.51781,0.160466,-1.83698,-0.0304878,-1.31098,-1.61585,-9.90341,-0.546064,0.189207,-16.25,-5.97561,3.68902
524.728,88.7618,1.45591,0,9.6184,0.122146,-1.88009,-0.365854,-0.304878,-1.40244,-9.91778,-0.56762,0.285007,-15.6707,-6.03659,5.03049
524.738,88.7664,1.47809,0,9.64474,0.107776,-1.93757,-0.335366,-0.487805,-1.37195,-9.91059,-0.519719,0.342488,-14.6951,-7.28659,5.12195
524.749,88.7698,1.48162,0,9.58008,0.112566,-1.8753,-0.335366,-0.27439,-1.40244,-9.91059,-0.512534,0.265847,-13.8415,-6.12805,5.18293
524.758,88.7777,1.48997,0,9.5681,0.0958008,-1.87291,-0.304878,-0.396341,-1.31098,-9.88185,-0.457449,0.287402,-14.1159,-3.9939,5.4878
524.768,88.7874,1.49113,0,9.56571,0.0910107,-1.8777,-0.396341,-0.762195,-1.25,-9.87467,-0.474214,0.258662,-14.6951,-3.44512,5.73171
524.778,88.7914,1.48934,0,9.58966,0.102986,-1.81542,-0.0914634,-0.396341,-1.43293,-9.85311,-0.457449,0.244292,-15.3659,-5.30488,4.78659
524.788,88.7962,1.48964,0,9.59445,0.0838257,-1.90644,-0.182927,-0.548781,-1.58537,-9.87227,-0.498164,0.253872,-15.9146,-4.7561,4.29878
524.798,88.7959,1.48106,0,9.60163,0.112566,-1.86333,0.0914634,-0.426829,-1.58537,-9.86748,-0.502954,0.215552,-15.7317,-4.93902,4.32927
524.809,88.8037,1.48467,0,9.5705,0.0862207,-1.8753,-0.243902,-0.213415,-1.37195,-9.92017,-0.514929,0.268242,-14.8171,-4.29878,5.36585
524.818,88.8074,1.48693,0,9.5705,0.0886157,-1.86572,-0.0914634,0.182927,-1.58537,-9.87946,-0.519719,0.261057,-14.1768,-5.57927,5.79268
524.828,88.8139,1.47697,0,9.5705,0.0718506,-1.85854,-0.152439,0.0914634,-1.58537,-9.88664,-0.479004,0.208367,-13.9024,-5.91463,4.78659
524.839,88.817,1.4871,0,9.59924,0.0981958,-1.86812,0.213415,0.121951,-1.4939,-9.90341,-0.457449,0.294587,-15.4878,-5.51829,5.39634
524.849,88.8184,1.50203,0,9.57768,0.0910107,-1.90404,-0.152439,0.0609756,-1.67683,-9.87227,-0.476609,0.316143,-15.7317,-5.42683,4.90854
524.858,88.8232,1.50711,0,9.59684,0.0934058,-1.85614,0.0609756,-0.0304878,-1.43293,-9.91538,-0.464634,0.277822,-15.6402,-4.72561,4.93902
524.869,88.8213,1.51297,0,9.56331,0.107776,-1.88967,-0.0914634,0.182927,-1.70732,-9.85311,-0.479004,0.280217,-15.9146,-4.84756,4.45122
524.879,88.8212,1.51332,0,9.60642,0.110171,-1.85375,-0.27439,0.0609756,-1.55488,-9.86509,-0.500559,0.258662,-15.7622,-3.96341,5.70122
524.888,88.818,1.51984,0,9.60163,0.112566,-1.93518,-0.182927,0.182927,-1.7378,-9.87946,-0.505349,0.285007,-16.2805,-3.62805,3.96341
524.898,88.8115,1.504,0,9.56331,0.131726,-1.86572,-0.304878,0.487805,-1.76829,-9.87227,-0.522114,0.191602,-15.4268,-4.05488,4.02439
524.908,88.8052,1.50283,0,9.5681,0.143701,-1.89207,-0.0609756,0.396341,-1.61585,-9.91059,-0.524509,0.251477,-14.3902,-4.35976,4.42073
524.919,88.7952,1.51412,0,9.56331,0.150886,-1.88967,-0.457317,0.152439,-1.82927,-9.89862,-0.495769,0.304167,-14.878,-4.39024,4.39024
524.928,88.7951,1.52413,0,9.52978,0.110171,-1.81303,-0.457317,0.182927,-1.61585,-9.93933,-0.510139,0.301772,-15.7622,-5.18293,4.42073
524.938,88.79,1.53763,0,9.57529,0.119751,-1.87051,-0.152439,0.0304878,-1.85976,-9.94412,-0.500559,0.318538,-13.9329,-3.96341,5.30488
524.949,88.7877,1.55084,0,9.59924,0.0862207,-1.93757,-0.152439,-0.152439,-2.04268,-9.90101,-0.476609,0.318538,-16.0366,-4.84756,5.33537
524.959,88.7827,1.5556,0,9.58008,0.114961,-1.86093,-0.0609756,0.304878,-1.92073,-9.91059,-0.471819,0.285007,-16.189,-4.14634,4.57317
524.969,88.7831,1.54994,0,9.5681,0.0838257,-1.91841,0.121951,0.213415,-1.89024,-9.89622,-0.502954,0.241897,-16.7073,-3.71951,5.18293
524.978,88.7816,1.55388,0,9.59445,0.119751,-1.86333,0.152439,0.304878,-1.61585,-9.90341,-0.488584,0.280217,-17.3171,-5.67073,5.27439
524.988,88.7794,1.5631,0,9.52739,0.114961,-1.85854,0.365854,0.121951,-1.7378,-9.90101,-0.490979,0.304167,-16.8293,-4.78659,4.69512
524.998,88.7767,1.56886,0,9.5705,0.124541,-1.86093,0,0.0914634,-1.64634,-9.88904,-0.479004,0.289797,-16.6768,-5.91463,4.45122
525.008,88.7729,1.58156,0,9.5705,0.124541,-1.90165,0.0609756,0.0914634,-1.7378,-9.9058,-0.522114,0.320933,-15.6707,-6.67683,5.70122
525.019,88.7713,1.58315,0,9.5705,0.126936,-1.89446,0.365854,0.152439,-1.55488,-9.9058,-0.498164,0.275427,-16.6463,-5.82317,4.54268
525.028,88.7711,1.60907,0,9.57289,0.119751,-1.84417,0.152439,-0.27439,-1.55488,-9.88904,-0.488584,0.380808,-16.311,-5.91463,4.66463
525.038,88.7715,1.60347,0,9.60163,0.112566,-1.86093,0.27439,-0.213415,-1.58537,-9.89862,-0.500559,0.249082,-15.0915,-5.51829,5.39634
525.049,88.7705,1.60528,0,9.62079,0.102986,-1.82261,0.396341,0.0304878,-1.79878,-9.89383,-0.469424,0.280217,-15.7927,-5.33537,4.63415
525.058,88.7705,1.60992,0,9.63995,0.124541,-1.9232,0.213415,0,-1.46341,-9.8555,-0.512534,0.292192,-15.8537,-4.35976,5.33537
525.068,88.7683,1.61723,0,9.59445,0.114961,-1.91841,-0.121951,0.548781,-1.7378,-9.8603,-0.505349,0.304167,-14.7256,-5.18293,5.42683
525.078,88.7679,1.61616,0,9.58966,0.105381,-1.89925,0.0304878,0.457317,-1.7378,-9.89862,-0.510139,0.270637,-15.1524,-4.93902,5.06098
525.088,88.7667,1.62669,0,9.5681,0.110171,-1.88728,0.304878,0.335366,-1.7378,-9.92496,-0.495769,0.320933,-15.4573,-5.7622,6.67683
525.098,88.7643,1.62446,0,9.56092,0.107776,-1.82979,0.121951,0.457317,-1.85976,-9.88425,-0.507744,0.265847,-16.0061,-6.06707,5.54878
525.108,88.7607,1.62775,0,9.5705,0.110171,-1.80824,-0.152439,0.27439,-1.92073,-9.9082,-0.514929,0.289797,-15.3963,-6.4939,4.66463
525.119,88.7634,1.63456,0,9.55613,0.114961,-1.89686,0,0.152439,-1.43293,-9.92736,-0.529299,0.306563,-16.7988,-6.12805,5.4878
525.128,88.7625,1.63301,0,9.60163,0.124541,-1.87291,0.0304878,0.0914634,-1.55488,-9.91059,-0.490979,0.270637,-14.7866,-6.31098,4.5122
525.139,88.7625,1.62847,0,9.58487,0.129331,-1.83219,-0.121951,0.121951,-1.43293,-9.93215,-0.486189,0.256267,-14.2073,-8.17073,4.90854
525.149,88.7666,1.61364,0,9.55613,0.0910107,-1.84656,0.0914634,0.121951,-1.61585,-9.92496,-0.474214,0.210762,-14.5122,-7.62195,5.2439
525.159,88.771,1.607,0,9.55613,0.112566,-1.90404,0.0304878,0.182927,-1.34146,-9.92496,-0.488584,0.241897,-13.872,-10.061,5.79268
525.169,88.7773,1.60585,0,9.59684,0.100591,-1.89686,0.0609756,-0.182927,-1.34146,-9.94891,-0.486189,0.265847,-13.9634,-9.54268,4.45122
525.178,88.7823,1.60944,0,9.59924,0.119751,-1.90404,0.426829,0.518293,-1.18902,-9.92736,-0.502954,0.285007,-13.1707,-10.5488,4.26829
525.189,88.789,1.61518,0,9.56092,0.102986,-1.91602,0.365854,0.396341,-1.28049,-9.94652,-0.507744,0.294587,-14.1159,-11.6768,4.57317
525.198,88.7945,1.62586,0,9.54655,0.0981958,-1.87291,0.609756,0.701219,-1.40244,-9.93215,-0.498164,0.316143,-13.1707,-12.4695,3.44512
525.209,88.7963,1.63357,0,9.56571,0.100591,-1.92799,0.579268,0.731707,-1.58537,-9.92257,-0.486189,0.304167,-12.5915,-13.1098,4.26829
525.218,88.7991,1.63759,0,9.59205,0.0838257,-1.86812,0.762195,0.640244,-1.70732,-9.94652,-0.459844,0.289797,-13.1098,-13.3841,3.53659
525.228,88.7997,1.64697,0,9.60163,0.0934058,-1.84177,0.884146,0.426829,-1.7378,-9.92736,-0.467029,0.313748,-14.1159,-12.9878,4.72561
525.239,88.8103,1.66677,0,9.58726,0.0550855,-1.85614,0.792683,0.365854,-1.52439,-9.91778,-0.483794,0.359253,-13.9634,-14.6341,3.71951
525.249,88.8144,1.67909,0,9.62319,0.0694556,-1.88728,0.762195,0.487805,-1.7378,-9.92975,-0.464634,0.330513,-15.3354,-14.4207,4.02439
525.258,88.8154,1.67682,0,9.60642,0.0910107,-1.8777,0.914634,0.548781,-1.70732,-9.95849,-0.481399,0.268242,-16.1585,-15.9451,3.93293
525.268,88.8159,1.67589,0,9.59684,0.112566,-1.87051,0.853659,1.34146,-1.4939,-9.94652,-0.486189,0.273032,-17.1646,-16.3415,4.05488
525.278,88.8171,1.6756,0,9.58008,0.0958008,-1.88488,0.670732,0.762195,-1.64634,-9.98005,-0.507744,0.275427,-16.0671,-17.7439,3.32317
525.289,88.8149,1.69196,0,9.5705,0.102986,-1.82261,0.640244,0.365854,-1.79878,-9.99202,-0.541274,0.347278,-14.6951,-19.8476,2.68293
525.298,88.8044,1.70276,0,9.60163,0.141306,-1.81542,0.457317,0.0304878,-1.98171,-10.004,-0.546064,0.325723,-14.7256,-20.122,3.23171
525.308,88.8045,1.7075,0,9.56331,0.0934058,-1.88728,0.365854,-0.243902,-1.76829,-9.95131,-0.529299,0.299377,-14.8171,-20.061,3.35366
525.319,88.8055,1.70841,0,9.55852,0.0886157,-1.825,0.579268,0.152439,-1.76829,-9.92975,-0.505349,0.282612,-14.6646,-20.2439,3.23171
525.328,88.8021,1.73529,0,9.58726,0.112566,-1.79866,0.335366,0.0304878,-1.79878,-9.94652,-0.55804,0.395178,-13.7195,-22.6524,2.59146
525.339,88.8017,1.74857,0,9.58966,0.112566,-1.84896,-0.0304878,0.0914634,-1.58537,-9.98244,-0.534089,0.340093,-14.6037,-24.1463,3.01829
525.349,88.809,1.76107,0,9.58487,0.0766406,-1.81542,-0.0914634,-0.121951,-1.4939,-9.97047,-0.510139,0.337698,-13.4146,-25.122,3.20122
525.358,88.8092,1.77899,0,9.55852,0.100591,-1.83458,-0.0609756,-0.213415,-1.67683,-9.97765,-0.507744,0.364043,-15.1829,-25.061,2.5
525.368,88.8091,1.7797,0,9.54415,0.0981958,-1.77471,-0.396341,-0.365854,-1.7378,-9.94173,-0.476609,0.289797,-14.3598,-25.7012,2.34756
525.378,88.805,1.7854,0,9.54655,0.0958008,-1.82261,-0.365854,-0.396341,-2.04268,-9.94173,-0.490979,0.311353,-15.122,-26.25,2.0122
525.388,88.7991,1.77792,0,9.57768,0.107776,-1.86093,-0.304878,-0.457317,-2.04268,-9.9537,-0.459844,0.253872,-15.7012,-27.3476,1.7378
525.398,88.7968,1.76901,0,9.58247,0.0981958,-1.85854,-0.579268,-0.548781,-1.89024,-9.95131,-0.483794,0.246687,-14.9695,-26.8598,0.487805
525.408,88.7935,1.79094,0,9.58487,0.100591,-1.84656,-0.548781,-0.640244,-1.95122,-9.97286,-0.498164,0.378413,-13.872,-30.2439,0
525.419,88.7898,1.82967,0,9.58247,0.100591,-1.84896,-0.335366,-0.213415,-1.98171,-10.0232,-0.495769,0.455054,-12.6829,-34.2378,-0.762195
525.428,88.7861,1.86396,0,9.60163,0.100591,-1.90883,-0.426829,-0.213415,-1.98171,-10.0639,-0.522114,0.443079,-11.9512,-35.3354,-0.731707
525.439,88.7812,1.89644,0,9.58487,0.0934058,-1.90165,-0.518293,-0.0609756,-2.16463,-10.0136,-0.493374,0.438289,-12.6524,-35.9451,-1.4939
525.449,88.7802,1.92601,0,9.56571,0.0718506,-1.83698,-0.701219,0.213415,-2.13415,-9.98244,-0.514929,0.428708,-12.5,-37.1646,0.335366
525.458,88.7776,1.95195,0,9.62079,0.100591,-1.825,-1.15854,0.426829,-1.92073,-9.95849,-0.531694,0.416733,-13.1098,-37.3476,0.518293
525.468,88.7817,1.97342,0,9.60642,0.0814307,-1.80584,-1.21951,-0.518293,-1.67683,-9.9561,-0.507744,0.399968,-13.7805,-39.1159,0.426829
525.478,88.7879,2.02641,0,9.63037,0.0934058,-1.88249,-0.97561,-0.884146,-1.40244,-9.92257,-0.462239,0.538879,-12.8049,-40.9756,-0.304878
525.488,88.7875,2.07354,0,9.55134,0.105381,-1.81303,-0.823171,-1.67683,-1.70732,-9.98244,-0.455054,0.522114,-14.0549,-45,0.701219
525.498,88.7913,2.12784,0,9.53457,0.0886157,-1.83698,-1.06707,-1.64634,-1.61585,-10.0256,-0.488584,0.56283,-13.811,-46.7683,0.121951
525.508,88.7918,2.15985,0,9.62319,0.0981958,-1.78908,-1.95122,-1.7378,-1.70732,-10.0016,-0.517324,0.471819,-15.3354,-47.561,0.213415
525.519,88.7964,2.19192,0,9.70222,0.112566,-1.82261,-2.34756,-2.5,-1.25,-9.96568,-0.55804,0.476609,-13.872,-46.7683,-0.0609756
525.528,88.8179,2.21966,0,9.7118,0.0694556,-1.87051,-1.82927,-4.20732,-0.792683,-9.92975,-0.622705,0.459844,-13.6585,-48.689,-0.396341
525.539,88.8325,2.26295,0,9.58247,0.114961,-1.9232,-2.62195,-6.31098,-0.640244,-9.93215,-0.61073,0.531694,-12.8354,-50.2439,-0.304878
525.549,88.872,2.3059,0,9.45075,0.00718506,-1.79147,-1.06707,-6.09756,-0.792683,-9.9537,-0.570015,0.536484,-10.4878,-53.0183,-0.487805
525.559,88.8775,2.34184,0,9.44117,0.110171,-1.85135,-0.853659,-4.84756,-1.12805,-9.90101,-0.529299,0.510139,-9.60366,-53.2927,-1.06707
525.569,88.8752,2.34315,0,9.50104,0.114961,-1.78908,-2.04268,-3.59756,-1.55488,-9.91299,-0.481399,0.366438,-9.57317,-52.1341,-1.12805
525.578,88.8802,2.35339,0,9.62798,0.0814307,-1.92081,-3.9939,-4.08537,-1.43293,-9.84114,-0.519719,0.404758,-9.57317,-49.7866,-1.52439
525.588,88.8956,2.36825,0,9.70941,0.0167651,-1.91362,-4.26829,-5.88415,-1.43293,-9.78605,-0.58199,0.423918,-8.47561,-50.1829,-2.22561
525.598,88.9102,2.38351,0,9.68785,0.00958008,-1.99026,-3.81098,-7.53049,-1.52439,-9.75012,-0.565225,0.426313,-8.04878,-50.4878,-2.19512
525.608,88.9094,2.37603,0,9.55613,0.0646655,-1.95194,-4.48171,-8.14024,-1.95122,-9.75731,-0.60594,0.330513,-8.17073,-51.4329,-3.32317
525.619,88.9009,2.36312,0,9.44117,0.0838257,-1.79626,-4.87805,-7.83537,-2.34756,-9.81,-0.632285,0.308958,-7.92683,-49.7256,-3.20122
525.628,88.881,2.36729,0,9.46512,0.136516,-1.80345,-6.15854,-6.43293,-2.68293,-9.84353,-0.63947,0.380808,-6.82927,-51.128,-3.62805
525.638,88.8649,2.36252,0,9.54894,0.100591,-1.79387,-7.80488,-6.0061,-2.83537,-9.89143,-0.63468,0.342488,-6.58537,-53.2927,-2.43902
525.649,88.8588,2.38315,0,9.9537,-0.0598755,-1.97589,-9.63415,-4.87805,-3.75,-9.91778,-0.598755,0.452659,-3.90244,-54.5732,-2.71341
525.659,88.8695,2.41624,0,9.71899,-0.126936,-2.02858,-8.68902,-7.68293,-3.07927,-9.95131,-0.637075,0.510139,-2.86585,-57.4085,-3.44512
525.668,88.8755,2.45684,0,9.65193,-0.134121,-2.12199,-8.53659,-9.42073,-3.53659,-9.93454,-0.651445,0.546064,-1.43293,-59.6951,-2.56098
525.678,88.8719,2.49169,0,9.53457,-0.110171,-2.02379,-8.04878,-9.54268,-4.14634,-9.93694,-0.701741,0.526904,0.426829,-60.9451,-1.92073
525.689,88.8437,2.5126,0,9.4244,-0.0407153,-1.92799,-8.14024,-6.79878,-5.70122,-9.97286,-0.711321,0.474214,3.53659,-60.061,-0.518293
525.698,88.8012,2.53261,0,9.24478,0.00958008,-1.82021,-8.01829,-4.78659,-6.58537,-9.94652,-0.756826,0.474214,5.03049,-58.2622,0.304878
525.708,88.7431,2.5726,0,9.22083,0.0598755,-1.91123,-8.32317,-3.14024,-7.62195,-10.0256,-0.689766,0.570015,7.77439,-58.2622,1.95122
525.718,88.6819,2.61521,0,9.34776,-0.0119751,-2.00942,-7.22561,-2.68293,-8.96341,-10.1525,-0.701741,0.593965,9.7561,-60.6707,3.56707
525.728,88.6138,2.69223,0,9.29507,-0.0143701,-1.98787,-5.57927,-4.60366,-9.81707,-10.2172,-0.704136,0.756826,12.6829,-65.4268,1.58537
525.738,88.5277,2.73144,0,9.39087,0.0958008,-2.10043,-5.03049,-6.0061,-10.4268,-10.3345,-0.699346,0.603545,12.7134,-68.689,-0.731707
525.749,88.418,2.83799,0,9.45314,0.282612,-2.09325,-5.12195,-6.82927,-10.7012,-10.3848,-0.735271,0.919688,13.9329,-72.9573,-3.23171
525.758,88.291,2.99941,0,9.56331,0.428708,-2.019,-5.54878,-6.64634,-10.9451,-10.4806,-0.752036,1.19272,14.7561,-85.2439,-6.15854
525.768,88.1745,3.15718,0,9.65432,0.364043,-1.98787,-4.7561,-6.67683,-10.9756,-10.4495,-0.740061,1.19511,15.4878,-92.7134,-6.46341
525.778,88.0427,3.31621,0,9.5705,0.450264,-2.14354,-4.42073,-6.95122,-11.6768,-10.3561,-0.627495,1.21427,15.7927,-98.0793,-4.90854
525.788,87.9077,3.48681,0,9.41722,0.419128,-2.20821,-4.05488,-6.31098,-12.561,-10.1884,-0.5772,1.27176,17.6524,-102.896,-1.92073
525.798,87.7572,3.65219,0,9.30705,0.536484,-2.3088,-4.08537,-6.03659,-12.8963,-10.107,-0.555645,1.26457,16.7683,-107.378,-1.70732
525.809,87.6158,3.79269,0,9.34297,0.483794,-2.18665,-4.14634,-6.52439,-12.9573,-10.0399,-0.541274,1.17116,15.9146,-110.396,-1.0061
525.818,87.4774,3.99934,0,9.38369,0.541274,-2.20821,-4.48171,-6.95122,-12.2561,-10.0902,-0.56762,1.49449,14.8171,-118.445,-2.28659
525.829,87.3348,4.23778,0,9.5705,0.694556,-2.19623,-4.90854,-7.0122,-11.2195,-10.1812,-0.59157,1.6813,15.3354,-130,-4.05488
525.838,87.1936,4.45245,0,9.52499,0.744851,-2.07648,-4.57317,-7.56098,-10.7317,-10.1764,-0.550855,1.60706,15.3963,-138.354,-4.96951
525.849,87.0628,4.67686,0,9.41482,0.701741,-2.15073,-3.90244,-6.67683,-10.3659,-10.1645,-0.531694,1.6837,16.9817,-144.268,-3.93293
525.859,86.9387,4.9267,0,9.20166,0.62989,-2.1627,-3.17073,-4.66463,-10.6707,-10.0208,-0.479004,1.81063,15.5183,-150.244,-2.13415
525.869,86.8114,5.18154,0,8.88313,0.58678,-2.05972,-1.98171,-5.12195,-11.5244,-9.94412,-0.464634,1.85854,13.9329,-156.768,0.487805
525.878,86.6917,5.40198,0,9.04599,0.510139,-2.1148,-1.55488,-2.22561,-12.1341,-9.85072,-0.450264,1.7292,12.3476,-159.97,0.945122
525.888,86.5725,5.62028,0,9.20646,0.500559,-2.12438,-1.37195,-1.28049,-12.561,-9.78366,-0.452659,1.74357,9.93902,-163.628,0.396341
525.898,86.4499,5.89307,0,9.29986,0.57241,-2.07409,-0.823171,-2.40854,-12.3171,-9.88664,-0.498164,2.04056,6.28049,-171.128,-0.792683
525.908,86.3154,6.16215,0,9.39566,0.696951,-2.02619,-0.213415,-4.32927,-12.3171,-10.0136,-0.555645,2.08846,3.35366,-183.293,-3.90244
525.919,86.194,6.41902,0,9.59924,0.699346,-2.13396,0.27439,-7.04268,-11.4024,-10.0902,-0.574805,2.09085,1.70732,-190.274,-5.70122
525.928,86.0775,6.69882,0,9.51302,0.742456,-2.24892,0.670732,-10.2134,-10.5488,-10.1022,-0.55804,2.23934,0.121951,-199.238,-6.55488
525.939,85.9749,7.00825,0,9.65911,0.708926,-2.39502,1.34146,-9.60366,-9.90854,-10.0806,-0.541274,2.41657,-2.10366,-208.476,-4.7561
525.948,85.8823,7.29358,0,9.68546,0.66821,-2.4549,1.70732,-8.17073,-9.60366,-10.016,-0.541274,2.33754,-4.45122,-217.622,-2.7439
525.958,85.7969,7.57787,0,9.60403,0.61073,-2.41897,2.34756,-8.29268,-9.69512,-9.86509,-0.486189,2.34472,-4.84756,-222.774,1.95122
525.969,85.7115,7.85633,0,9.61121,0.617915,-2.4501,2.89634,-7.95732,-9.78659,-9.70222,-0.471819,2.32556,-6.25,-228.415,6.82927
525.978,85.6352,8.13815,0,9.6639,0.593965,-2.42855,2.16463,-6.7378,-9.35976,-9.63756,-0.445474,2.37107,-7.10366,-232.622,7.89634
525.988,85.5683,8.4234,0,9.72857,0.622705,-2.44531,2.0122,-6.18902,-8.2622,-9.62079,-0.392783,2.42855,-10.3963,-237.287,8.9939
525.998,85.5178,8.68663,0,9.79084,0.617915,-2.5004,1.79878,-6.43293,-6.82927,-9.70222,-0.443079,2.39741,-13.0183,-240.61,8.59756
526.008,85.4893,8.94298,0,9.89383,0.62031,-2.49082,2.07317,-7.89634,-4.7561,-9.70462,-0.438289,2.41418,-15.7927,-240.518,6.46341
526.019,85.4783,9.20662,0,9.96328,0.651445,-2.61776,2.0122,-8.5061,-2.80488,-9.81,-0.481399,2.51717,-18.4451,-244.36,4.5122
526.028,85.4834,9.46826,0,9.86748,0.58199,-2.77822,2.34756,-6.03659,-2.16463,-9.9058,-0.593965,2.57704,-19.0244,-248.72,3.38415
526.038,85.4892,9.72942,0,9.60642,0.455054,-2.66566,2.04268,-4.05488,-3.32317,-9.87946,-0.603545,2.61297,-20.6098,-252.256,2.40854
526.049,85.4715,9.96457,0,9.27831,0.423918,-2.61297,0.396341,-0.731707,-5.70122,-9.82197,-0.57241,2.52435,-22.0427,-253.354,4.63415
526.059,85.4329,10.1828,0,9.21603,0.337698,-2.63692,-0.182927,3.81098,-8.90244,-9.73575,-0.538879,2.46448,-20.9146,-256.433,6.92073
526.069,85.3605,10.4214,0,9.1825,0.392783,-2.59141,1.09756,7.46951,-11.7073,-9.61361,-0.517324,2.56028,-20.5488,-261.982,12.5305
526.078,85.2579,10.7317,0,9.29268,0.555645,-2.39023,1.64634,7.68293,-12.9573,-9.62079,-0.55325,2.92671,-18.872,-269.909,15.8841
526.088,85.1485,11.0581,0,9.72378,0.60594,-2.49801,0.945122,8.78049,-13.5671,-9.70941,-0.541274,3.0776,-20.9756,-280.457,16.8293
526.098,85.0291,11.3623,0,9.93215,0.799937,-2.67045,0.426829,9.39024,-12.6829,-9.70941,-0.579595,3.0273,-21.372,-287.622,15.8841
526.108,84.9324,11.6508,0,10.2746,0.831072,-3.03928,-1.09756,10.8232,-10.5793,-9.63516,-0.57241,2.98419,-22.1037,-290.579,12.8354
526.119,84.8951,11.9423,0,10.016,0.313748,-2.73272,1.46341,11.8598,-10.4878,-9.49625,-0.593965,3.00814,-24.5122,-289.787,9.32927
526.128,84.8175,12.1944,0,9.21364,0.483794,-2.32556,-0.335366,12.1951,-12.1951,-9.28789,-0.701741,2.82133,-29.0244,-285.244,4.72561
526.138,84.7524,12.5319,0,9.59684,0.167651,-2.32317,-0.487805,20.9756,-15.1829,-9.29028,-0.699346,3.25004,-30.0305,-290.061,-0.884146
526.148,84.6243,12.8987,0,9.59924,0.450264,-2.28724,-0.762195,25.4573,-18.2927,-9.26394,-0.764011,3.43446,-30.8537,-293.445,-3.56707
526.159,84.4739,13.2654,0,9.27112,0.433499,-1.96631,-2.10366,20.8537,-20.8537,-9.22801,-0.819097,3.48236,-28.0488,-299.817,-5.57927
526.168,84.3221,13.6398,0,9.7621,0.356858,-2.16749,-0.182927,20.4573,-22.5,-9.21364,-0.749641,3.57337,-25.2744,-307.561,-5.21341
526.178,84.14,14.0511,0,9.72857,0.531694,-2.28245,-1.43293,14.6646,-23.7805,-9.26394,-0.780776,3.82964,-21.3415,-316.372,-2.56098
526.188,83.9678,14.4974,0,9.76928,0.529299,-2.35909,-1.67683,8.75,-23.2012,-9.30226,-0.814307,4.0859,-20.2134,-325.335,-1.25
526.199,83.7913,15.0061,0,10.5022,0.670605,-2.70877,-1.7378,12.2866,-22.8659,-9.32381,-0.819097,4.48348,-21.2195,-335.396,-1.4939
526.209,83.5826,15.5344,0,10.0711,0.974773,-2.35191,-6.15854,9.90854,-22.6829,-9.34776,-0.713716,4.68945,-25.1829,-345.03,-1.82927
526.218,83.3788,16.0789,0,9.97047,0.804727,-2.20821,-10.2134,8.90244,-24.4817,-9.29507,-0.60115,4.84752,-29.8171,-351.585,-1.82927
526.228,83.1602,16.6233,0,10.1142,0.771196,-2.59141,-14.1768,10.6707,-26.9207,-9.24238,-0.529299,4.92895,-34.5122,-354.665,-2.83537
526.238,82.9096,17.141,0,10.1333,0.864602,-2.43813,-19.2683,12.1646,-29.5732,-9.12263,-0.512534,4.83794,-39.7256,-355.274,-4.02439
526.249,82.6289,17.7112,0,9.9537,1.01309,-1.83938,-25,10.1524,-31.25,-8.91666,-0.469424,5.10379,-45.4573,-354.512,-5.4878
526.259,82.3287,18.38,0,9.75252,1.11129,-1.43941,-29.4207,6.37195,-32.4085,-8.83044,-0.457449,5.69775,-52.9878,-357.256,-6.09756
526.268,82.0465,19.0659,0,9.25915,0.869392,-1.36277,-29.4512,4.48171,-33.5061,-8.67237,-0.459844,5.83666,-62.8354,-355.549,-7.2561
526.279,81.7374,19.6779,0,9.4747,0.993933,-1.32924,-28.2927,1.76829,-35.5488,-8.45681,-0.546064,5.45346,-68.3841,-344.207,-7.56098
526.288,81.3899,20.3041,0,9.60882,1.2502,-1.36037,-28.9634,-0.640244,-37.1951,-8.15025,-0.57241,5.47022,-69.5427,-327.652,-7.80488
526.298,81.0404,20.9518,0,10.3177,1.41067,-1.67891,-30.6707,1.43293,-37.3476,-8.00176,-0.673001,5.61632,-62.7744,-322.652,-8.59756
526.308,80.6958,21.6239,0,10.3058,1.40348,-1.8274,-30.1829,-1.06707,-37.622,-7.8389,-0.890947,5.7696,-52.8659,-316.951,-8.04878
526.319,80.3349,22.3299,0,9.9082,1.53042,-1.50886,-27.2561,-7.68293,-37.8963,-7.52036,-1.03465,5.85582,-40.1829,-312.409,-6.03659
526.328,79.986,23.0505,0,10.3776,1.4897,-2.08606,-24.2988,-2.22561,-38.6585,-7.46288,-1.30289,6.04263,-27.8963,-308.994,-5.42683
526.339,79.6011,23.8049,0,10.0543,1.6813,-1.98308,-22.9878,-2.7439,-40.3354,-7.31678,-1.40827,6.27256,-19.0854,-302.195,-3.93293
526.348,79.2204,24.5686,0,9.69264,1.54479,-1.96152,-23.3232,-1.76829,-41.5854,-7.22577,-1.47533,6.42105,-14.4817,-296.098,-4.42073
526.359,78.819,25.3326,0,9.48907,1.58071,-1.93518,-22.2866,-3.41463,-43.6585,-7.09884,-1.43941,6.48571,-13.7195,-291.799,-3.78049
526.368,78.4131,26.1403,0,9.137,1.66454,-1.75315,-19.2378,-6.7378,-43.1707,-6.89526,-1.24781,6.73,-15.5183,-287.927,-2.83537
526.379,78.0069,26.9674,0,9.39327,1.73639,-1.97829,-17.2256,-6.64634,-43.7195,-6.66055,-1.07057,6.80425,-17.0122,-285.793,0.396341
526.388,77.6205,27.8119,0,10.0639,1.88488,-2.25371,-14.3598,-0.0609756,-42.2561,-6.38752,-0.895737,6.8282,-19.1463,-279.482,4.87805
526.399,77.2381,28.678,0,9.90341,2.01661,-2.26569,-11.128,1.03659,-40.7927,-6.10969,-0.869392,6.86652,-20.061,-271.768,8.10976
526.408,76.8657,29.5477,0,10.0232,2.17228,-2.14833,-6.64634,6.85976,-39.0854,-5.89893,-0.864602,6.86413,-18.9634,-265.762,9.48171
526.419,76.5789,30.4196,0,9.68067,1.80824,-1.92799,-6.55488,7.86585,-34.4817,-5.59716,-0.862207,6.73719,-14.7866,-259.939,7.56098
526.428,76.3683,31.3315,0,8.64842,1.42025,-1.90644,-9.5122,15.3659,-29.8476,-5.22833,-0.874182,6.73958,-11.6768,-252.256,6.64634
526.438,76.1666,32.2517,0,8.09517,1.55437,-1.54718,-8.90244,8.32317,-26.2195,-4.88584,-0.890947,6.57433,-8.35366,-240,4.26829
526.448,75.9115,33.1681,0,7.76465,2.04056,-1.21906,-6.4939,3.38415,-24.2073,-4.65352,-0.953218,6.47134,-6.0061,-225.091,2.56098
526.459,75.656,34.1076,0,7.77663,2.09325,-1.46096,-8.41463,2.86585,-24.0854,-4.55293,-0.996328,6.70845,-7.43902,-213.232,-0.304878
526.469,75.4554,35.0496,0,8.25563,1.91123,-1.7292,-7.28659,9.14634,-23.1402,-4.42839,-1.07297,6.79228,-7.5,-201.738,-3.17073
526.478,75.2819,35.9661,0,8.57896,1.87051,-1.69328,-6.64634,6.31098,-22.2866,-4.41163,-1.06339,6.85934,-5.94512,-190.152,-4.32927
526.489,75.0876,36.859,0,8.39215,2.09564,-1.31487,-5.12195,0.213415,-21.25,-4.38768,-0.950823,6.92161,-5.91463,-179.116,-3.10976
526.498,74.883,37.7208,0,8.44244,2.30161,-1.16877,-5.7622,-0.640244,-20.1829,-4.38528,-0.931663,6.95753,-1.95122,-170.732,-0.487805
526.508,74.7109,38.5316,0,8.70111,2.24174,-1.75555,-4.5122,-2.59146,-18.9329,-4.56251,-0.929268,7.13237,-2.10366,-161.86,3.04878
526.518,74.5555,39.3091,0,8.99809,2.3064,-1.65496,-4.5122,-3.07927,-17.7134,-4.63197,-0.857417,7.24254,-1.98171,-154.787,5.15244
526.528,74.3945,40.0369,0,8.68434,2.29682,-1.28373,-3.96341,-4.05488,-17.7134,-4.75651,-0.775986,7.31199,-3.53659,-147.927,8.75
526.538,74.2078,40.7074,0,8.35862,2.4525,-1.22864,-3.84146,-4.39024,-17.5305,-4.90021,-0.814307,7.34073,-4.72561,-140.305,9.54268
526.548,74.0164,41.366,0,8.66997,2.68003,-1.56155,-2.46951,-0.457317,-16.7073,-4.94093,-0.689766,7.51318,-5.4878,-134.848,11.0061
526.559,73.815,41.9817,0,9.29507,2.99617,-1.94715,-2.2561,4.93902,-16.7073,-5.09421,-0.65863,7.63053,-5.88415,-129.939,10.0305
526.568,73.595,42.5722,0,9.35734,3.20214,-1.71004,-1.4939,4.69512,-16.9207,-5.20677,-0.711321,7.79579,-7.7439,-127.53,8.01829
526.578,73.3245,43.1433,0,8.57656,3.34345,-1.29092,-2.22561,-4.54268,-17.622,-5.28581,-0.680186,7.94667,-7.80488,-126.037,7.40854
526.588,73.0949,43.7246,0,9.60642,3.27639,-1.72202,-1.25,2.0122,-19.0244,-5.31215,-0.6251,8.24366,-8.71951,-125.457,7.40854
526.599,72.8647,44.3,0,9.62798,3.35303,-1.95673,-0.640244,6.09756,-18.811,-5.32413,-0.651445,8.39933,-9.81707,-125.884,8.84146
526.608,72.6196,44.8524,0,9.12263,3.32668,-1.59748,-0.731707,-0.945122,-19.0854,-5.34808,-0.723296,8.44005,-10.5183,-123.598,8.78049
526.619,72.3814,45.3958,0,9.34776,3.39135,-2.15552,-2.22561,5.09146,-19.0854,-5.21156,-0.742456,8.33467,-11.2195,-119.238,8.59756
526.629,72.1283,45.9305,0,8.87115,3.31231,-1.76034,-3.56707,0.457317,-20,-5.14929,-0.761616,8.34664,-14.2683,-115.457,8.65854
526.638,71.9111,46.4507,0,9.30944,3.14945,-1.92799,-1.18902,-1.06707,-20.4878,-5.14929,-0.811912,8.40173,-16.5549,-114.97,8.35366
526.648,71.6895,46.9681,0,9.1825,3.27639,-1.69567,-0.792683,-2.71341,-19.4512,-5.15408,-0.809517,8.5598,-17.2256,-115.427,9.78659
526.659,71.4196,47.4952,0,9.31184,3.59253,-1.65496,0.0609756,-2.80488,-21.8598,-5.12295,-0.809517,8.77535,-16.372,-112.012,10.0305
526.668,71.1367,48.0143,0,9.58487,3.8464,-2.03816,1.15854,-0.487805,-22.1646,-5.20677,-0.840652,9.03641,-16.0976,-111.829,10.9146
526.678,70.837,48.5079,0,9.7597,3.98771,-2.10762,1.34146,-0.823171,-23.7195,-5.32652,-0.823887,9.19448,-17.0122,-114.024,10.122
526.688,70.5314,48.9714,0,9.48667,3.91586,-1.77471,1.67683,-3.68902,-24.5122,-5.39598,-0.802332,9.21364,-21.372,-114.695,9.78659
526.699,70.2315,49.3973,0,9.24717,3.71468,-1.65975,0.518293,-4.48171,-25.6707,-5.38879,-0.689766,9.02683,-24.3902,-113.689,10.9756
526.709,69.9627,49.7925,0,9.79084,3.63085,-2.08367,1.34146,2.59146,-26.25,-5.384,-0.603545,8.8975,-26.9207,-112.134,9.87805
526.718,69.6532,50.1782,0,9.27112,3.81766,-1.58311,0.609756,-3.53659,-26.7988,-5.36245,-0.584385,8.91187,-27.8659,-114.848,11.2195
526.728,69.3569,50.5926,0,9.78126,3.95178,-1.89686,-0.243902,2.68293,-26.8598,-5.28581,-0.673001,9.17772,-25.2744,-117.561,10.6098
526.739,69.0749,51.0209,0,10.2459,3.97334,-2.14115,1.15854,6.43293,-27.6524,-5.24988,-0.802332,9.39566,-25.3049,-121.738,10.122
526.749,68.7405,51.4411,0,9.81958,4.27511,-2.01661,1.0061,-0.792683,-28.811,-5.22114,-0.888552,9.43159,-23.628,-121.524,9.87805
526.758,68.3935,51.8662,0,9.92017,4.35415,-1.99266,0.914634,0.0609756,-30.4268,-5.19001,-0.965193,9.58726,-22.3171,-121.982,7.53049
526.768,68.052,52.276,0,9.96568,4.30625,-2.10522,1.40244,-0.945122,-31.25,-5.20917,-0.989143,9.63756,-21.7073,-122.561,5.2439
526.778,67.703,52.6494,0,9.81719,4.27271,-1.90404,0.914634,-2.0122,-32.4085,-5.24509,-1.01788,9.50823,-19.4207,-118.75,3.23171
526.789,67.35,53.0071,0,9.79563,4.22242,-1.93757,0.426829,-2.92683,-33.9329,-5.21635,-0.941243,9.44356,-17.7134,-120.64,4.02439
526.798,66.9869,53.3723,0,9.88185,4.2799,-1.91602,0.0304878,-0.213415,-35.4878,-5.22114,-0.876577,9.66869,-19.1463,-120.762,4.02439
526.809,66.6011,53.7419,0,10.0064,4.51222,-2.24413,-1.82927,2.16463,-36.7988,-5.1924,-0.816702,9.80042,-21.7683,-125.64,6.25
526.819,66.1838,54.1008,0,9.74054,4.66789,-2.10283,-1.89024,0.0914634,-38.0793,-5.14929,-0.835862,9.7597,-24.1768,-125.61,7.5
526.828,65.7153,54.4364,0,8.95498,4.72777,-1.71723,-1.76829,-7.83537,-39.6037,-5.13253,-0.881367,9.63756,-24.3293,-123.689,5.97561
526.839,65.2218,54.7476,0,8.73943,4.79722,-1.78429,-0.304878,-8.87195,-41.2195,-5.13492,-0.936453,9.52739,-21.2195,-125.213,3.53659
526.849,64.7226,55.0626,0,9.05557,5.01996,-1.8753,-0.121951,-9.11585,-42.3171,-4.99122,-0.929268,9.41482,-18.689,-127.622,-0.243902
526.858,64.2227,55.386,0,9.26633,5.11097,-1.86333,-1.67683,-8.59756,-43.6585,-4.905,-0.917292,9.45554,-15.2439,-130.701,-2.62195
526.868,63.7313,55.7314,0,9.40045,5.11816,-1.93757,-2.2561,-6.61585,-44.4512,-4.75411,-0.943638,9.51541,-16.7378,-132.348,-5.42683
526.879,63.2585,56.089,0,9.58966,5.04631,-2.12678,-3.56707,-1.76829,-45.2134,-4.61041,-0.924478,9.49865,-17.7439,-131.951,-6.55488
526.888,62.747,56.4622,0,8.88073,5.07505,-1.8753,-4.7561,-12.6829,-46.0671,-4.45713,-0.895737,9.49625,-18.5671,-132.896,-5.7622
526.898,62.2273,56.8361,0,8.38017,4.89781,-1.54,-5.73171,-19.4817,-46.7988,-4.28229,-0.905317,9.29028,-18.0793,-131.463,-4.45122
526.909,61.7352,57.2232,0,8.70829,4.82117,-1.71483,-4.54268,-17.9573,-47.7744,-4.1362,-0.931663,9.27831,-16.189,-128.811,-3.23171
526.919,61.2325,57.6222,0,8.63644,4.92416,-1.90404,-6.15854,-16.4024,-48.3841,-4.038,-0.984353,9.36213,-12.7134,-127.195,-2.37805
526.928,60.7731,58.014,0,9.17532,4.81159,-2.28485,-6.15854,-4.5122,-49.1159,-3.98052,-1.0562,9.32381,-10.7317,-128.506,-1.06707
526.938,60.2983,58.3902,0,8.88552,4.82357,-2.03816,-4.26829,-8.2622,-49.939,-3.89909,-1.08255,9.14179,-8.62805,-123.78,-0.701219
526.948,59.8063,58.7686,0,8.54782,4.91937,-1.76273,-3.81098,-14.1463,-49.7561,-3.75539,-1.04662,8.99809,-8.17073,-120.976,0.182927
526.958,59.2981,59.1586,0,8.28198,5.00799,-1.70765,-6.25,-15.3659,-49.878,-3.59253,-0.986748,8.90708,-6.98171,-117.622,2.16463
526.969,58.7985,59.564,0,8.25803,5.0511,-1.77231,-6.76829,-14.6341,-49.4512,-3.47996,-0.969983,8.98851,-5.64024,-113.262,5.91463
526.978,58.2997,59.9736,0,8.04727,5.01996,-1.90404,-7.22561,-16.0366,-49.3598,-3.41051,-0.929268,9.05317,-4.08537,-111.22,6.46341
526.988,57.8138,60.3786,0,8.06643,5.05828,-2.04774,-6.34146,-16.9207,-48.7805,-3.29794,-0.893342,8.90468,-1.58537,-105.671,8.10976
526.998,57.3102,60.7882,0,7.92033,5.22114,-1.87291,-9.26829,-17.3476,-48.9329,-3.20214,-0.890947,8.91187,0.853659,-98.2927,8.04878
527.008,56.816,61.2009,0,7.86045,5.21396,-1.71004,-10.1829,-17.9878,-48.6585,-3.15664,-0.905317,9.03401,0.335366,-94.7561,7.43902
527.019,56.3394,61.6108,0,7.99458,5.26665,-1.83458,-10.3963,-19.2683,-48.2317,-3.09437,-0.919688,9.0412,0.487805,-90.0305,6.18902
527.028,55.8808,62.0072,0,7.95386,5.26665,-1.93518,-9.63415,-20.3659,-47.1037,-3.03449,-0.864602,8.91905,0.823171,-83.0793,5.21341
527.038,55.4456,62.4106,0,8.01374,5.30736,-2.09804,-10.1829,-20.6098,-45.6402,-2.98419,-0.795146,9.08191,0.304878,-77.5305,5.33537
527.048,55.0093,62.8017,0,7.77663,5.30018,-2.22258,-9.39024,-19.9695,-45.0915,-2.97222,-0.711321,9.11065,1.64634,-71.9207,6.09756
527.058,54.5354,63.1799,0,7.29523,5.43669,-1.94715,-11.128,-22.3171,-44.878,-2.91713,-0.759221,9.00048,1.15854,-62.6524,6.21951
527.068,54.0804,63.5417,0,7.38864,5.41514,-2.15073,-11.311,-22.5305,-44.8476,-2.92911,-0.828677,9.0388,2.56098,-54.8171,5.70122
527.078,53.6385,63.9041,0,7.51318,5.54208,-2.23695,-10.4878,-21.7683,-44.0854,-2.91474,-0.907712,9.21364,2.62195,-50.0915,5.30488
527.088,53.1927,64.2548,0,7.53473,5.71931,-2.10283,-10.6098,-23.3841,-43.7805,-2.89558,-0.934058,9.20406,3.87195,-44.9695,5.45732
527.099,52.7276,64.597,0,7.39822,5.9612,-2.11959,-12.1341,-23.75,-43.2622,-2.85726,-0.934058,9.1825,4.5122,-36.5244,4.87805
527.109,52.3918,64.9135,0,7.79818,5.16606,-1.61664,-7.92683,-16.372,-41.9207,-2.92671,-0.965193,9.24478,6.21951,-31.4634,3.75
527.118,51.9182,65.221,0,6.94556,5.93725,-2.19623,-11.7683,-28.4756,-42.378,-2.91234,-0.941243,9.26633,6.43293,-25.6707,3.38415
527.128,51.4461,65.5081,0,7.04375,6.09293,-2.29443,-13.4756,-28.5366,-42.5,-2.92192,-0.878972,9.19687,8.47561,-19.7256,2.34756
527.138,50.9556,65.7899,0,6.90484,6.35159,-2.14594,-15.3354,-29.0854,-41.7683,-2.89797,-0.874182,9.22562,9.69512,-12.439,0.670732
527.148,50.5095,66.0567,0,7.34073,6.40189,-2.28245,-16.4939,-26.6768,-41.3415,-2.94587,-0.862207,9.33339,8.47561,-7.68293,0.0609756
527.159,50.0672,66.4042,0,7.34552,6.49529,-2.26569,-17.1037,-25.7317,-41.0671,-2.92192,-0.821492,9.35255,9.93902,-1.76829,-0.396341
527.168,49.6184,66.6486,0,6.99106,6.40668,-2.05253,-16.9512,-28.75,-40.5488,-2.90276,-0.799937,9.22562,9.20732,5.27439,0.27439
527.179,49.1531,66.8693,0,6.83778,6.60067,-2.55788,-17.5915,-27.0122,-40.122,-2.96264,-0.797541,9.26633,8.04878,9.78659,-1.7378
527.188,48.708,67.088,0,6.81623,6.53601,-2.48364,-19.8171,-26.372,-39.3902,-2.92192,-0.740061,9.24717,8.75,14.7561,-1.76829
527.199,48.268,67.2866,0,6.58391,6.38991,-2.18665,-20.5488,-30.4268,-39.0854,-2.94348,-0.673001,9.17053,9.45122,20.3049,-1.79878
527.208,47.8456,67.4738,0,6.5863,6.251,-2.34712,-18.4146,-31.5549,-39.4817,-2.9315,-0.665815,9.10107,9.63415,26.7378,-1.37195
527.218,47.4049,67.6588,0,6.33962,6.38752,-2.39741,-18.2927,-34.1463,-38.7195,-2.88839,-0.603545,9.06275,9.02439,35.7622,-2.43902
527.228,46.9985,67.8368,0,6.47134,6.31567,-2.53393,-18.0183,-36.6768,-37.9878,-2.85486,-0.593965,8.97893,11.0976,41.9817,-1.52439
527.239,46.599,68.0078,0,6.55756,6.53122,-2.44771,-19.6951,-37.0427,-36.9207,-2.82133,-0.62989,8.8951,10.5183,49.939,-1.18902
527.248,46.2111,68.1737,0,6.60786,6.53361,-2.48364,-21.2805,-35.7012,-36.9817,-2.81415,-0.64426,8.91426,10.9451,56.9817,-0.914634
527.258,45.8378,68.3299,0,6.61744,6.55038,-2.42615,-21.1585,-33.9634,-36.2195,-2.84528,-0.665815,8.98132,9.42073,61.6159,-2.10366
527.268,45.4692,68.4765,0,6.62223,6.62702,-2.49322,-21.3415,-30.8537,-35.8537,-2.85247,-0.63947,8.97653,8.07927,68.7195,-3.59756
527.278,45.1005,68.6199,0,6.33722,6.50008,-2.42615,-20.8537,-35.7317,-35.1829,-2.84528,-0.584385,9.01006,3.81098,75.7927,-1.92073
527.289,44.7271,68.7421,0,6.19592,6.45697,-2.58423,-19.6646,-36.0366,-35.4878,-2.86444,-0.565225,8.87834,0.609756,83.7195,-3.01829
527.299,44.3217,68.8563,0,5.87498,6.55996,-2.56028,-21.3415,-36.3415,-35.4878,-2.88839,-0.414338,8.93103,-0.426829,91.1585,-1.03659
527.308,43.9464,68.9375,0,6.04263,6.46176,-2.57704,-22.2866,-36.8598,-35.7622,-2.98898,-0.443079,8.87594,1.52439,97.3476,0.243902
527.319,43.5691,68.9872,0,6.00431,6.51445,-2.62015,-22.7134,-37.439,-35.8841,-3.05365,-0.462239,8.72745,1.95122,105.64,0.914634
527.328,43.2024,69.0142,0,6.13125,6.56954,-2.55549,-23.5061,-35.4573,-36.311,-3.16382,-0.519719,8.80409,0.182927,114.116,0.670732
527.338,42.8461,69.0221,0,6.12167,6.5887,-2.68961,-24.1463,-35.3049,-35.7317,-3.2237,-0.56283,8.76577,-1.03659,120.244,-0.0914634
527.348,42.4767,68.9882,0,5.99234,6.70605,-2.76146,-23.9024,-34.0549,-35.5183,-3.32429,-0.55325,8.56938,-1.21951,127.683,-0.304878
527.359,42.0994,68.9447,0,5.84864,6.81383,-2.57465,-23.9634,-37.5915,-34.7561,-3.40572,-0.55325,8.66997,-1.58537,133.994,-1.7378
527.369,41.7004,68.8813,0,5.60914,7.04615,-2.4549,-24.7866,-39.7561,-33.4146,-3.42488,-0.534089,8.49513,-0.27439,141.555,-1.55488
527.378,41.3258,68.8086,0,5.63548,7.04136,-2.38304,-26.7073,-41.9207,-32.0427,-3.47996,-0.531694,8.52627,-0.182927,151.677,-0.792683
527.388,40.9843,68.7204,0,5.82469,7.15153,-2.38783,-28.5061,-46.4634,-30.4268,-3.56139,-0.55804,8.53824,-2.37805,157.165,0.609756
527.398,40.6641,68.6238,0,5.84145,7.18266,-2.47406,-30.8537,-47.9878,-28.872,-3.59013,-0.543669,8.49513,-1.58537,163.537,1.0061
527.408,40.3517,68.4932,0,5.82948,7.23056,-2.28006,-32.2561,-48.4146,-28.2317,-3.65959,-0.627495,8.29156,-2.56098,173.75,2.71341
527.418,40.0255,68.3399,0,5.71931,7.44133,-2.3064,-34.4207,-45.9756,-27.561,-3.79371,-0.62989,8.33227,-2.95732,181.402,3.23171
527.428,39.7109,68.1609,0,5.66183,7.48204,-2.31119,-35.7622,-43.75,-26.1585,-3.85838,-0.63468,8.18139,-1.79878,188.232,4.26829
527.438,39.3829,67.9423,0,5.46064,7.62574,-2.13636,-36.2805,-43.0488,-25.0915,-3.96855,-0.60594,7.99937,0.335366,196.341,5
527.448,39.0832,67.7059,0,5.54208,7.65209,-2.15791,-35.4573,-42.2561,-23.5061,-4.09069,-0.627495,8.01853,2.34756,201.921,6.21951
527.459,38.7903,67.446,0,5.5804,7.77423,-2.44052,-36.9207,-41.1585,-22.9268,-4.21044,-0.58678,7.97542,4.39024,207.256,4.84756
527.468,38.5068,67.1507,0,5.578,7.70238,-2.57465,-37.6524,-41.9207,-23.0488,-4.29427,-0.60115,7.76465,6.34146,215.335,4.60366
527.478,38.2515,66.8614,0,5.7241,7.52036,-2.57465,-37.5,-39.5427,-23.5366,-4.39726,-0.584385,7.91314,7.43902,221.128,3.68902
527.489,38.0255,66.557,0,5.76481,7.17069,-2.86444,-37.4695,-39.1159,-24.1768,-4.44755,-0.493374,7.79579,8.62805,226.25,1.89024
527.499,37.8017,66.2387,0,5.8654,7.16829,-2.96024,-37.378,-37.0732,-25.4268,-4.44516,-0.387993,7.5994,10.2134,233.933,1.92073
527.508,37.5811,65.9236,0,5.79595,7.00783,-3.03688,-35.9756,-33.7195,-26.1585,-4.41642,-0.311353,7.49641,12.5915,245,2.37805
527.518,37.3644,65.616,0,5.85343,6.89287,-3.0297,-33.2317,-32.1037,-27.7439,-4.49306,-0.265847,7.59221,12.378,248.323,4.84756
527.528,37.1134,65.3026,0,5.71452,6.98388,-3.02251,-31.7378,-31.0976,-29.5427,-4.49785,-0.241897,7.47486,12.4085,254.665,6.0061
527.538,36.8524,64.9699,0,5.63788,6.90245,-2.93629,-29.9085,-26.7073,-30.9756,-4.5697,-0.280217,7.37187,9.66463,263.537,7.83537
527.549,36.5739,64.5991,0,5.65464,6.86892,-2.79259,-27.1646,-23.4146,-33.75,-4.66071,-0.340093,7.1659,8.35366,273.811,7.77439
527.559,36.2644,64.1992,0,5.60435,6.90245,-2.66805,-25.9451,-21.9207,-36.6768,-4.75172,-0.349673,7.0198,11.4024,283.75,8.59756
527.569,35.9204,63.7573,0,5.54926,7.09405,-2.71116,-24.4512,-17.5,-38.7195,-4.86428,-0.349673,6.81383,13.5366,290.488,9.78659
527.578,35.5561,63.2951,0,5.61393,7.29283,-2.66566,-23.811,-13.2012,-40.5793,-5.02715,-0.387993,6.80425,15.4573,294.36,10.6707
527.589,35.1605,62.8195,0,5.37442,7.3599,-2.78301,-23.3841,-10.2439,-41.5549,-5.21635,-0.380808,6.85694,14.7561,293.567,11.0976
527.598,34.7458,62.2865,0,5.23551,7.42456,-2.61536,-21.5549,-7.95732,-42.378,-5.36005,-0.440684,6.58151,17.1646,298.933,11.9207
527.608,34.2909,61.7612,0,4.90739,7.60179,-2.61776,-21.372,-11.8293,-42.5305,-5.50615,-0.457449,6.68929,15.5793,307.043,12.0427
527.619,33.8287,61.1877,0,4.79004,7.67364,-2.37586,-20.6402,-13.3537,-42.439,-5.59956,-0.443079,6.40668,17.3171,316.524,13.2622
527.628,33.3713,60.5678,0,4.77567,7.70238,-2.22258,-20.7927,-15.061,-42.5305,-5.62111,-0.438289,6.0594,18.1707,326.372,12.1951
527.638,32.9168,59.9866,0,4.64634,7.5994,-1.98308,-20.8841,-13.4451,-42.439,-5.74086,-0.462239,6.27016,20.2744,330.152,13.628
527.648,32.4813,59.3964,0,4.86428,7.70478,-2.16749,-20.061,-9.35976,-43.1098,-5.8678,-0.376018,6.22945,20.4268,329.299,15.7927
527.659,32.0522,58.7588,0,4.905,7.68801,-2.3088,-20.4573,-7.5,-43.9024,-5.98515,-0.320933,5.97318,20,332.622,17.9878
527.668,31.581,58.1023,0,4.60802,7.81974,-2.11241,-20.5488,-10.4268,-44.939,-6.18394,-0.313748,5.93965,21.6463,336.433,17.439
527.678,31.115,57.4238,0,4.58646,7.83411,-2.11001,-20.8841,-10.061,-45.0305,-6.40907,-0.285007,5.90372,21.0366,339.482,16.2805
527.688,30.6391,56.7447,0,4.54814,8.13588,-2.22258,-20.2134,-12.0427,-44.6646,-6.56475,-0.280217,5.90372,23.6585,341.524,13.0793
527.699,30.1448,56.0277,0,4.27032,8.27719,-2.41178,-19.3902,-13.1098,-43.5976,-6.77312,-0.316143,5.75284,23.75,344.604,11.6159
527.708,29.6254,55.2453,0,4.02842,8.42089,-2.28006,-19.7561,-16.128,-43.6585,-6.91921,-0.275427,5.40556,25.4878,349.085,8.68902
527.718,29.0905,54.4613,0,3.81048,8.44963,-2.2106,-19.939,-20.7012,-43.6585,-7.11081,-0.217947,5.39358,26.4939,350.427,6.95122
527.728,28.5603,53.7036,0,3.8943,8.48316,-2.17707,-19.7866,-19.878,-45.061,-7.2617,-0.170046,5.4798,27.7134,345.488,7.28659
527.738,28.0101,52.9343,0,3.68114,8.3203,-2.03816,-17.4695,-22.439,-46.5549,-7.33834,-0.129331,5.32892,26.25,345.61,7.62195
527.749,27.4252,52.1825,0,3.53984,8.7059,-2.15552,-19.2683,-26.9207,-47.6829,-7.37666,-0.0598755,5.29539,24.0854,348.201,9.05488
527.758,26.9142,51.3879,0,4.16973,8.5095,-2.55788,-20.6707,-26.5244,-49.4512,-7.38145,-0.0215552,4.9553,22.7439,355,9.11585
527.768,26.4723,50.6275,0,4.59844,8.05445,-2.67763,-17.9573,-19.7256,-50.8232,-7.44133,0.0239502,5.01038,24.7256,356.799,9.45122
527.778,26.0061,49.8569,0,4.53138,8.58375,-2.32796,-18.3232,-15.5488,-50.3354,-7.54192,0.0958008,4.88344,24.9085,355.091,9.42073
527.788,25.567,49.1003,0,4.58886,8.49753,-2.20581,-19.5732,-8.07927,-49.6341,-7.60898,0.0646655,4.84752,21.372,353.384,7.92683
527.798,25.0954,48.3488,0,4.07153,8.30593,-2.42136,-17.3171,-0.609756,-49.2378,-7.71436,0.0790356,4.79722,18.9634,353.872,4.48171
527.809,24.6112,47.5622,0,3.95897,8.47358,-2.41418,-15.7012,-1.31098,-49.2988,-7.75507,0.131726,4.52419,14.3598,358.445,0.97561
527.818,24.1003,46.7751,0,3.69552,8.59573,-2.28006,-15.2439,-3.17073,-49.3902,-7.81495,0.184417,4.42121,9.08537,366.22,-0.335366
527.828,23.5476,46.0088,0,3.37458,8.63644,-2.25371,-14.878,0.762195,-50.7622,-7.9826,0.273032,4.46911,4.2378,367.348,-1.40244
527.839,22.9721,45.2349,0,3.15424,8.57417,-2.4501,-15.0305,6.03659,-51.8902,-8.18378,0.282612,4.39965,-4.17683,363.293,-4.17683
527.849,22.3701,44.4476,0,2.82852,8.65081,-2.48364,-14.9085,4.72561,-51.4939,-8.36341,0.292192,4.28709,-11.189,360.549,-6.92073
527.859,21.7928,43.6804,0,3.01054,8.7035,-2.21539,-16.3415,6.12805,-52.1951,-8.41849,0.356858,4.26074,-19.0854,357.774,-11.372
527.869,21.241,42.9361,0,3.04886,8.66279,-2.05014,-17.7439,8.56707,-51.4024,-8.42328,0.452659,4.22721,-28.5976,356.402,-14.6341
527.879,20.647,42.1881,0,2.52196,8.71069,-1.81542,-16.5549,6.52439,-50.2134,-8.45442,0.364043,4.0883,-39.0244,355.64,-17.8049
527.888,20.0715,41.4503,0,2.49082,8.96935,-2.00942,-17.1037,5.70122,-48.2622,-8.43765,0.349673,3.9901,-45.061,354.085,-21.2195
527.898,19.4691,40.6614,0,1.95194,9.2807,-2.09085,-17.8963,2.10366,-44.7561,-8.48795,0.273032,3.6524,-50.0915,354.39,-23.5976
527.908,18.9626,39.8959,0,2.4525,9.09389,-2.0214,-19.7866,-0.0609756,-42.7439,-8.51429,0.162861,3.62606,-54.6341,351.067,-26.8902
527.918,18.4689,39.1523,0,2.24413,9.00527,-1.7771,-18.4451,2.56098,-40.2439,-8.66758,0.0287402,3.64761,-61.2805,344.634,-28.4146
527.928,17.9991,38.4043,0,2.24413,9.12502,-1.57832,-18.3537,9.81707,-38.4451,-8.77056,-0.0886157,3.53265,-66.8598,338.445,-31.7988
527.939,17.5419,37.6371,0,2.11959,9.24238,-1.92799,-18.2927,11.6463,-36.2805,-8.77056,-0.136516,3.31231,-71.4939,335.244,-34.3598
527.949,17.1252,36.8913,0,2.28006,9.14897,-1.77471,-17.6524,7.22561,-35.2744,-8.81607,-0.158071,3.28597,-75.1219,330.793,-34.6951
527.958,16.7074,36.1355,0,2.213,9.24717,-1.70525,-16.9817,4.57317,-35.1524,-8.90708,-0.289797,3.13987,-76.7378,325.976,-34.7866
527.968,16.2848,35.3976,0,2.04056,9.21125,-1.55916,-16.2195,5.15244,-34.5122,-9.01964,-0.344883,3.12071,-76.0366,319.787,-34.5122
527.978,15.9206,34.6689,0,2.43334,9.20646,-1.60466,-15.7317,11.1585,-34.1463,-9.12263,-0.320933,3.06083,-76.7683,313.476,-33.5976
527.988,15.5206,33.9649,0,2.03577,9.19209,-1.46336,-16.8293,10.3659,-33.811,-9.20166,-0.292192,3.06323,-79.6341,307.348,-33.4756
527.998,15.1372,33.2569,0,2.08606,9.05317,-1.22864,-14.8171,10.061,-33.9329,-9.31902,-0.368833,2.95066,-81.1281,299.97,-33.872
528.009,14.7558,32.5417,0,1.91123,9.137,-1.2526,-11.9817,10.6707,-32.1341,-9.3789,-0.371228,2.80217,-77.8354,290.274,-33.8415
528.019,14.398,31.852,0,1.84656,9.08431,-1.09213,-10.4573,14.7256,-29.8476,-9.41961,-0.409548,2.79259,-76.4939,280.732,-35.3659
528.028,14.0767,31.1788,0,1.88967,9.24238,-0.950823,-9.26829,15.8232,-26.9817,-9.51541,-0.462239,2.76385,-74.2683,271.555,-35.5793
528.038,13.7797,30.5183,0,1.88488,9.35734,-1.04902,-8.41463,14.3598,-24.8171,-9.60642,-0.538879,2.71835,-75.4878,262.683,-37.1646
528.049,13.4903,29.8401,0,1.67172,9.40285,-1.32924,-6.34146,13.2622,-21.9817,-9.63995,-0.589175,2.52196,-74.6951,256.524,-38.0488
528.058,13.198,29.1593,0,1.42743,9.57289,-1.43462,-4.7561,12.1341,-19.6037,-9.72617,-0.65384,2.4046,-72.8963,249.909,-39.5122
528.068,12.9042,28.4979,0,1.2502,9.59205,-1.45378,-4.57317,9.96951,-18.2012,-9.71659,-0.701741,2.36149,-70.8841,243.506,-39.1463
528.078,12.6206,27.8388,0,1.23344,9.67348,-1.53521,-6.58537,3.68902,-17.439,-9.75252,-0.771196,2.25611,-69.3293,236.524,-40.061
528.089,12.3832,27.1542,0,1.59508,9.55613,-1.36037,-9.32927,-1.28049,-17.8049,-9.80521,-0.917292,2.02619,-67.6829,227.165,-39.0244
528.099,12.1622,26.4895,0,1.74357,9.49865,-1.23823,-9.66463,-5.06098,-18.5061,-9.83635,-0.924478,1.99266,-66.2805,218.628,-37.8659
528.108,11.9593,25.8463,0,1.80824,9.52978,-1.45617,-8.62805,-3.23171,-17.8049,-9.87227,-0.967588,1.9711,-64.2378,211.311,-36.372
528.119,11.7913,25.1793,0,1.95194,9.51302,-1.02507,-8.90244,-2.37805,-16.4024,-9.87706,-0.922083,1.74357,-61.7073,203.293,-33.811
528.129,11.6156,24.533,0,1.70765,9.55852,-1.07536,-10.2744,-2.31707,-14.5427,-9.94173,-0.840652,1.72202,-60.6402,195.823,-32.3476
528.138,11.4794,23.892,0,1.85375,9.61121,-1.26936,-9.7561,-1.85976,-12.4695,-9.99442,-0.888552,1.6334,-58.628,189.329,-28.2317
528.148,11.4159,23.2471,0,2.28245,9.4268,-1.17116,-7.04268,1.43293,-10.8232,-10.1381,-0.924478,1.51605,-56.6463,181.28,-27.4695
528.159,11.3403,22.5967,0,2.12199,9.4747,-1.19032,-3.9939,4.45122,-10.1829,-10.174,-1.0586,1.37235,-52.6829,173.506,-27.5915
528.168,11.2587,21.9152,0,1.95434,9.49146,-1.23583,-1.25,9.02439,-8.93293,-10.1525,-1.11608,1.10889,-50.7927,171.128,-28.2317
528.178,11.1735,21.2466,0,1.8753,9.48428,-1.3484,-0.701219,11.2805,-8.53659,-10.1309,-1.10171,1.03944,-45.4573,167.165,-28.4146
528.188,11.1003,20.6079,0,1.89446,9.57768,-1.36995,0.121951,12.8963,-7.5,-10.0998,-1.08973,1.04662,-41.6768,160.945,-26.4634
528.199,11.0399,20.0117,0,1.91841,9.62079,-1.36995,-0.213415,13.3841,-6.52439,-10.0926,-1.09213,1.11608,-38.689,153.415,-24.0244
528.208,10.985,19.4304,0,1.90165,9.69025,-1.152,-1.09756,14.3902,-5.73171,-10.0902,-1.18793,1.07057,-37.8354,146.128,-22.5305
528.218,10.91,18.8469,0,1.70765,9.60882,-0.785566,-0.640244,15.9451,-5.79268,-10.0782,-1.23344,0.953218,-38.5976,142.896,-22.9268
528.228,10.8249,18.2457,0,1.55916,9.67348,-0.64426,-0.304878,17.0122,-5.06098,-9.92975,-1.18074,0.756826,-37.439,140.427,-22.622
528.238,10.7373,17.6438,0,1.42504,9.74294,-0.881367,-0.396341,16.7988,-3.56707,-9.79323,-0.931663,0.637075,-34.7561,136.555,-18.9024
528.248,10.6604,17.0945,0,1.45138,9.72378,-1.09213,-1.0061,15.1829,-2.68293,-9.78366,-0.828677,0.754431,-34.0549,128.628,-12.439
528.259,10.602,16.5711,0,1.54239,9.5705,-1.06578,-1.25,13.0793,-2.13415,-9.80521,-0.819097,0.768801,-33.628,122.439,-6.28049
528.268,10.5314,16.0615,0,1.45378,9.54176,-1.06339,-1.03659,11.372,-2.62195,-9.8076,-0.771196,0.735271,-34.0854,118.11,-1.89024
528.278,10.4565,15.5325,0,1.40109,9.46751,-1.11608,-0.914634,11.0061,-2.43902,-9.8555,-0.725691,0.565225,-36.0366,116.921,2.95732
528.288,10.3859,14.9954,0,1.41546,9.46751,-1.25499,0.0304878,10.5488,-2.28659,-9.88904,-0.682581,0.440684,-35.3354,117.835,7.07317
528.298,10.3384,14.4449,0,1.54,9.35734,-1.34361,1.52439,10.4878,-2.04268,-9.90341,-0.682581,0.289797,-33.0183,117.287,9.5122
528.308,10.335,13.8787,0,1.80824,9.26873,-1.48012,3.53659,12.2561,-2.19512,-9.89383,-0.670605,0.126936,-29.0549,119.024,12.1037
528.318,10.2711,13.3179,0,1.46096,9.63037,-1.03465,5,12.5305,-2.40854,-9.8603,-0.732876,0.0526904,-24.5427,119.024,14.7256
528.328,10.2319,12.7612,0,1.7292,9.62798,-0.809517,1.95122,12.9573,-3.81098,-9.80521,-0.775986,-0.0263452,-19.878,118.628,15.0305
528.339,10.1835,12.2058,0,1.74597,9.80521,-0.280217,-0.609756,13.5366,-4.66463,-9.8076,-0.811912,-0.112566,-18.4451,122.591,15.1524
528.349,10.1122,11.6905,0,1.66214,9.75491,-0.00239502,-1.0061,12.8049,-6.21951,-9.83874,-0.859812,-0.0359253,-14.939,120.427,14.6951
528.359,10.0222,11.2258,0,1.57832,9.81,-0.208367,1.58537,12.8963,-7.19512,-9.8603,-0.699346,0.0910107,-15.3659,115.884,16.25
528.368,9.92912,10.7811,0,1.56634,9.89143,-0.696951,3.5061,10.2134,-7.40854,-9.87467,-0.570015,0.0958008,-16.0061,112.927,19.5732
528.378,9.86325,10.3539,0,1.81542,9.83395,-1.10889,2.34756,7.92683,-7.80488,-9.96328,-0.514929,0.0910107,-16.7073,107.5,23.2317
528.389,9.80619,9.92976,0,1.92081,9.68067,-1.18314,0.640244,7.2561,-8.59756,-10.0495,-0.510139,0.0263452,-18.75,102.226,25.7927
528.398,9.73925,9.48485,0,1.79866,9.51781,-1.1041,1.12805,7.07317,-8.65854,-10.107,-0.613125,-0.143701,-19.2378,99.1463,28.9939
528.409,9.66705,9.0328,0,1.69807,9.38848,-1.13284,3.68902,7.71341,-8.41463,-10.1309,-0.742456,-0.256267,-19.6646,97.2866,29.6951
528.418,9.58277,8.58885,0,1.54718,9.45554,-1.19272,5.06098,8.20122,-7.83537,-10.1525,-0.816702,-0.301772,-18.9634,96.0976,28.9634
528.428,9.48731,8.15908,0,1.39151,9.4268,-1.16637,6.21951,7.59146,-7.31707,-10.0399,-0.828677,-0.316143,-16.9817,92.9878,28.811
528.438,9.4043,7.73587,0,1.38911,9.46991,-1.27655,7.7439,9.14634,-6.12805,-9.97526,-0.771196,-0.361648,-16.2805,91.25,28.6585
528.448,9.30478,7.32628,0,1.30768,9.70462,-1.08973,5.57927,6.67683,-6.61585,-9.89862,-0.790356,-0.373623,-15.1524,90.0915,28.4451
528.459,9.21766,6.93358,0,1.41546,9.7597,-1.10889,3.07927,4.2378,-6.7378,-9.90341,-0.811912,-0.373623,-13.2317,86.8293,26.4634
528.468,9.13418,6.55585,0,1.41067,9.79084,-1.08015,1.12805,2.56098,-6.43293,-9.86269,-0.819097,-0.378413,-11.189,82.3781,24.7866
528.478,9.07173,6.20158,0,1.53042,9.7118,-1.07057,0.426829,1.85976,-6.0061,-9.91778,-0.807122,-0.347278,-10.122,77.7744,24.0244
528.488,9.01448,5.83846,0,1.55916,9.67827,-1.16398,0.731707,1.95122,-6.0061,-9.98963,-0.821492,-0.452659,-10.5183,75.4878,22.8659
528.499,8.96453,5.48071,0,1.56395,9.65193,-1.346,1.18902,1.79878,-5.4878,-10.0902,-0.855022,-0.500559,-10,71.8598,21.4634
528.508,8.90785,5.11154,0,1.55437,9.75012,-1.4418,1.58537,1.92073,-5.97561,-10.1022,-0.850232,-0.617915,-10,68.9939,20.6707
528.519,8.84106,4.76365,0,1.43701,9.66869,-1.54718,1.52439,1.46341,-5.88415,-10.1453,-0.787961,-0.59157,-8.53659,67.9878,21.4634
528.528,8.76975,4.44343,0,1.37235,9.62079,-1.44899,0.762195,0.884146,-5.79268,-10.1477,-0.831072,-0.531694,-8.62805,65.3659,21.8293
528.538,8.69052,4.14067,0,1.30529,9.62079,-1.45857,0.335366,0.243902,-5.94512,-10.0974,-0.833467,-0.512534,-10.0305,59.8171,21.3415
528.548,8.60191,3.84829,0,1.18074,9.73096,-1.47294,-0.365854,0.945122,-5.39634,-10.0854,-0.814307,-0.522114,-12.439,56.4329,20.6098
528.559,8.53299,3.56219,0,1.37235,9.51781,-1.3963,-0.0304878,1.76829,-6.21951,-10.0711,-0.802332,-0.548459,-13.5061,52.3476,19.8171
528.568,8.46091,3.28398,0,1.33403,9.55373,-1.27894,0.0609756,0.97561,-6.15854,-10.0878,-0.737666,-0.570015,-14.6951,46.3415,17.1037
528.578,8.39544,3.01323,0,1.3963,9.64714,-1.21906,-0.670732,1.03659,-6.21951,-10.1142,-0.775986,-0.593965,-15.7012,38.8415,15.5488
528.589,8.34481,2.75114,0,1.47294,9.64235,-1.19751,-0.579268,2.40854,-5.7622,-10.2028,-0.768801,-0.613125,-14.9695,33.5671,11.9817
528.598,8.30359,2.48783,0,1.52563,9.63516,-1.17835,-1.06707,3.75,-5.54878,-10.2459,-0.775986,-0.673001,-15.8841,28.3232,11.0671
528.608,8.26254,2.21526,0,1.52084,9.67348,-1.31487,-1.52439,4.72561,-5.4878,-10.2674,-0.797541,-0.766406,-16.2195,25.4878,9.32927
528.618,8.21516,1.9499,0,1.44899,9.58726,-1.35798,-1.89024,5.51829,-5.51829,-10.3297,-0.828677,-0.790356,-17.561,22.3476,9.20732
528.629,8.15099,1.70007,0,1.3484,9.54655,-1.42504,-2.56098,5.4878,-6.18902,-10.3968,-0.792751,-0.775986,-17.7744,18.2622,7.22561
528.638,8.05824,1.46289,0,1.1999,9.53218,-1.4897,-2.71341,6.40244,-7.46951,-10.3273,-0.752036,-0.761616,-17.9878,14.4512,6.61585
528.649,7.94118,1.24362,0,1.06099,9.56571,-1.4418,-2.89634,7.28659,-8.41463,-10.2627,-0.744851,-0.723296,-19.0854,8.32317,5.91463
528.659,7.80209,1.02014,0,0.914897,9.66151,-1.42025,-2.89634,8.38415,-9.02439,-10.2052,-0.706531,-0.706531,-22.1646,2.7439,4.2378
528.668,7.64789,0.743543,0,0.797541,9.68306,-1.35079,-3.04878,7.9878,-9.42073,-10.083,-0.701741,-0.637075,-24.6951,-1.03659,4.57317
528.678,7.4874,0.555828,0,0.759221,9.79084,-1.37953,-3.20122,7.34756,-9.81707,-9.99442,-0.768801,-0.694556,-28.689,-5.06098,4.90854
528.689,7.33319,0.376737,0,0.807122,9.74054,-1.38432,-4.60366,6.43293,-10.122,-9.99681,-0.809517,-0.699346,-29.9695,-7.71341,3.68902
528.698,7.17485,0.18055,0,0.792751,9.63277,-1.44899,-5.54878,4.60366,-10.7927,-10.0399,-0.888552,-0.811912,-31.6159,-9.39024,2.34756
528.708,7.02826,-0.0266671,0,0.890947,9.58008,-1.37235,-6.37195,2.37805,-11.1585,-10.1405,-0.929268,-0.907712,-30.2744,-12.7134,0.701219
528.719,6.90168,-0.250139,0,0.984353,9.60163,-1.43941,-6.95122,0.548781,-10.5183,-10.2459,-0.955613,-1.02986,-29.2378,-14.1159,-1.52439
528.728,6.77833,-0.444992,0,0.984353,9.66869,-1.42743,-7.83537,-1.03659,-10.3659,-10.3824,-0.929268,-0.953218,-28.5061,-15.1524,-2.68293
528.739,6.66668,-0.642231,0,1.04902,9.79803,-1.5376,-9.14634,-2.16463,-10.0305,-10.404,-0.883762,-1.00591,-29.6646,-19.5427,-1.09756
528.749,6.56575,-0.80318,0,1.13524,9.81958,-1.62143,-10.1524,-2.31707,-10.1524,-10.3058,-0.910107,-0.869392,-33.6585,-23.3232,-1.15854
528.759,6.45621,-0.955126,0,1.06099,9.81719,-1.53281,-11.0671,-3.2622,-10.3659,-10.1669,-1.03225,-0.850232,-36.7073,-28.3232,-0.365854
528.768,6.3528,-1.11617,0,1.09931,9.8555,-1.4418,-12.0427,-3.5061,-10.3659,-10.0543,-1.14482,-0.910107,-39.8476,-30.3963,-1.34146
528.779,6.25079,-1.28412,0,1.13045,9.83635,-1.36037,-12.1951,-3.04878,-10.8232,-9.87946,-1.19032,-0.953218,-41.5549,-31.0671,-2.7439
528.788,6.14811,-1.45148,0,1.08255,9.7118,-1.38672,-10.7012,-3.84146,-10.7012,-9.76928,-1.16398,-0.969983,-41.189,-32.2866,-2.65244
528.798,6.07265,-1.63754,0,1.17595,9.58966,-1.4897,-10.8232,-4.87805,-9.42073,-9.73575,-1.29092,-1.07536,-40.5488,-30.9451,-4.11585
528.808,6.0267,-1.81776,0,1.39869,9.60403,-1.6358,-11.128,-4.69512,-9.20732,-9.76928,-1.41546,-1.08734,-37.9573,-32.8354,-4.35976
528.818,5.98385,-1.97257,0,1.47773,9.56331,-1.65017,-11.128,-1.4939,-10,-9.86748,-1.4897,-1.02028,-35.4878,-35.5793,-6.09756
528.828,5.96364,-2.12433,0,1.55676,9.4244,-1.59748,-11.25,-0.213415,-8.9939,-9.82916,-1.48491,-1.03225,-33.4756,-38.4451,-7.59146
528.839,5.96772,-2.26853,0,1.66214,9.30944,-1.66214,-9.5122,2.0122,-8.07927,-9.77407,-1.43222,-1.02028,-34.3902,-39.0854,-9.63415
528.849,5.97655,-2.42532,0,1.68849,9.49865,-1.63101,-8.04878,4.69512,-7.5,-9.69983,-1.47533,-1.09213,-35,-39.6646,-10.3963
528.859,5.98516,-2.5682,0,1.66933,9.62798,-1.62143,-7.43902,5.57927,-7.0122,-9.51781,-1.51844,-1.03944,-37.439,-40.2134,-13.0183
528.868,5.98256,-2.69577,0,1.62143,9.69264,-1.61903,-7.16463,5.27439,-7.43902,-9.33818,-1.6334,-0.979563,-38.3841,-40.1524,-15.1524
528.879,5.97574,-2.79642,0,1.58071,9.76689,-1.71962,-7.13415,4.20732,-7.2561,-9.21364,-1.5855,-0.876577,-37.0122,-39.878,-14.4817
528.888,5.97814,-2.90952,0,1.64777,9.70941,-1.68849,-7.53049,3.62805,-7.22561,-9.11784,-1.42504,-0.934058,-36.0061,-39.7256,-10.7927
528.898,5.99164,-3.04208,0,1.6837,9.60163,-1.65496,-7.5,2.80488,-6.7378,-9.0412,-1.24062,-1.02267,-37.5915,-39.6646,-4.48171
528.908,6.0114,-3.13118,0,1.69088,9.54894,-1.56634,-8.38415,1.98171,-6.28049,-9.08431,-1.0107,-0.871787,-40.5793,-38.3232,3.62805
528.918,6.05353,-3.21568,0,1.8274,9.62079,-1.48491,-8.84146,2.10366,-5.45732,-9.21603,-0.795146,-0.878972,-46.372,-36.9817,11.128
528.928,6.1365,-3.3221,0,2.019,9.65911,-1.38672,-10.1829,4.26829,-3.75,-9.37171,-0.742456,-0.996328,-49.7866,-33.4146,19.5427
528.939,6.29383,-3.41588,0,2.28006,9.65911,-1.25739,-12.8354,8.47561,-1.95122,-9.59445,-0.723296,-0.979563,-56.0061,-28.1402,23.7195
528.948,6.69095,-3.52192,0,2.4549,9.56571,-0.996328,-14.4207,13.0183,0.213415,-9.74054,-0.661025,-1.0586,-59.6951,-22.0122,26.2195
528.959,6.93593,-3.59307,0,2.62015,9.39087,-0.888552,-14.2683,15.9756,2.04268,-9.80042,-0.728086,-0.926873,-62.3171,-16.9817,25.9146
528.968,7.16208,-3.62721,0,2.66566,9.33579,-0.826282,-12.1951,17.9573,3.38415,-9.84593,-0.843047,-0.780776,-65.6098,-15.9146,24.1159
528.978,7.38877,-3.63611,0,2.6944,9.34058,-0.946033,-9.11585,18.872,4.48171,-9.82677,-0.989143,-0.675395,-68.7195,-16.0976,20.6707
528.988,7.63542,-3.62467,0,2.83091,9.42201,-1.1544,-6.15854,20.0915,6.03659,-9.78366,-1.08015,-0.58678,-72.5915,-17.1951,18.9939
528.998,7.89433,-3.61746,0,2.7878,9.44835,-1.23583,-6.12805,21.8293,8.44512,-9.69743,-1.05381,-0.598755,-74.3293,-18.2927,17.561
529.008,8.18029,-3.64388,0,2.68003,9.31423,-1.2981,-7.28659,22.1646,12.5305,-9.72138,-1.14242,-0.742456,-74.7256,-16.7073,22.7744
529.019,8.52025,-3.67171,0,2.61297,9.05557,-1.42743,-6.25,20.5183,18.5366,-9.91059,-1.24062,-0.768801,-71.4024,-18.0183,25.1829
529.028,8.9447,-3.68365,0,2.6441,8.72985,-1.4921,-5.06098,16.8293,26.311,-10.0399,-1.27655,-0.716111,-63.3232,-21.5244,29.2073
529.038,9.49485,-3.68999,0,2.77822,8.22689,-1.38911,-2.86585,10.9451,36.311,-10.1453,-1.13284,-0.706531,-50.6402,-28.2927,36.6463
529.048,10.2027,-3.64803,0,2.97461,7.49641,-1.20948,0.823171,4.20732,47.439,-10.1453,-1.04902,-0.498164,-34.6646,-36.4939,47.561
529.059,11.1436,-3.59986,0,3.47996,6.73958,-1.14003,6.31098,-2.62195,61.0976,-10.1214,-0.979563,-0.471819,-12.1037,-47.9573,56.8293
529.068,12.3608,-3.53245,0,4.12422,6.02587,-0.981958,13.628,-8.2622,76.7683,-9.92736,-0.938848,-0.378413,11.9817,-57.6829,61.372
529.078,13.8732,-3.4433,0,5.11576,5.79116,-0.986748,22.7744,-11.5549,94.939,-9.73096,-0.864602,-0.275427,39.878,-68.689,61.7988
529.088,15.6385,-3.3312,0,6.27016,5.97078,-1.37235,35.2134,-8.93293,113.75,-9.60882,-0.735271,-0.170046,66.4939,-81.0976,60.4573
529.098,17.5248,-3.20929,0,7.21619,6.99346,-1.71483,49.2683,4.48171,130.732,-9.6663,-0.273032,-0.114961,90.5183,-86.6159,58.9024
529.108,19.3642,-3.12261,0,7.39103,9.40524,-2.10043,59.6341,29.7256,145.579,-9.77886,-0.414338,-0.251477,106.951,-91.4939,55.2134
529.118,21.0951,-3.10956,0,7.34073,12.4278,-2.40699,67.8049,56.311,153.75,-10.3034,-0.00239502,-0.58199,122.835,-88.8719,48.9634
529.128,22.6593,-3.20589,0,6.13604,14.1378,-2.39741,77.5,70.0305,154.787,-10.6219,-0.0143701,-1.10171,134.573,-76.6463,45.122
529.138,24.071,-3.34831,0,4.90261,13.2564,-1.78429,82.1037,75.9756,148.872,-10.6818,0.0862207,-1.33642,133.811,-66.4634,45.4878
529.148,25.3141,-3.49377,0,3.86077,12.1092,-0.682581,87.8963,75.9451,139.878,-10.507,0.306563,-1.35079,127.134,-61.4634,51.6159
529.159,26.3044,-3.65393,0,1.76513,11.8314,0.414338,82.9878,46.8293,135.396,-10.2052,0.6251,-1.3963,117.652,-51.0976,60.122
529.169,27.1135,-3.82077,0,0.277822,12.1308,1.10889,67.9268,4.39024,133.567,-9.92257,1.01788,-1.41306,99.1768,-48.0488,67.0427
529.178,27.8599,-3.97852,0,-0.301772,12.5882,1.13284,54.2683,-23.5061,134.299,-9.94173,1.35079,-1.40827,76.9817,-52.1646,70.6402
529.188,28.7399,-4.11483,0,1.94955,11.8937,0.720901,42.3476,-30.5793,127.652,-10.1453,1.75315,-1.37714,61.4024,-62.5,73.1707
529.198,29.7665,-4.2096,0,4.76848,10.7991,-0.222737,37.5305,-17.5,114.787,-10.4399,1.94715,-1.25739,54.3293,-72.6829,74.7561
529.208,30.8198,-4.2694,0,6.64618,9.57529,-1.67412,37.622,11.4939,97.2866,-10.8686,1.85854,-1.16637,51.6768,-81.9207,73.75
529.219,31.7735,-4.29533,0,6.75156,8.54303,-2.56028,37.0732,37.3476,82.0122,-11.0698,1.51605,-1.03944,52.622,-88.9329,68.811
529.228,32.5666,-4.31377,0,6.25579,8.05206,-1.7316,34.939,44.939,68.5366,-10.9285,1.05381,-0.998723,57.0122,-93.0793,64.8476
529.238,33.0464,-4.33619,0,3.85359,9.14897,-0.720901,36.311,37.1951,68.811,-10.5477,0.677791,-0.986748,61.0061,-93.8415,61.4024
529.248,33.4396,-4.35515,0,3.1758,9.09868,-0.268242,31.7988,38.75,68.2927,-10.0279,0.304167,-0.924478,63.9634,-91.3719,58.0793
529.259,33.7549,-4.37074,0,2.97461,8.80409,-0.162861,29.2378,45.7622,62.3171,-9.63516,0.0814307,-0.874182,69.1463,-87.9573,55.061
529.268,33.9842,-4.39337,0,3.08479,8.57177,-0.378413,28.3232,59.7256,51.8902,-9.36692,-0.0215552,-0.881367,71.3415,-87.5305,52.6524
529.278,34.1548,-4.42322,0,3.38895,8.27479,-0.61552,27.7744,68.3537,41.311,-9.11305,0.00718506,-0.888552,74.9695,-85.2134,48.0793
529.289,34.2881,-4.49411,0,3.88233,7.95386,-0.701741,24.8476,68.2317,30.2134,-9.07473,0.0862207,-1.05381,78.9024,-82.8963,46.8293
529.298,34.385,-4.58542,0,4.38768,7.64011,-0.826282,20.1829,64.4512,18.9024,-9.13939,0.189207,-1.152,80.9451,-77.6524,42.8659
529.308,34.4332,-4.67661,0,4.57928,7.26409,-1.09931,16.25,55.8841,9.32927,-9.39566,0.433499,-1.19751,85.1219,-75.7927,38.4756
529.318,34.4021,-4.73818,0,4.45713,6.91921,-1.38432,14.7866,43.5671,2.53049,-9.70701,0.637075,-1.12326,85.5488,-74.6341,34.9085
529.328,34.2577,-4.78193,0,4.02124,6.8761,-1.70525,12.7134,26.1585,-3.35366,-10.1094,0.852627,-1.09931,85.8232,-73.3537,31.7378
529.338,33.998,-4.80916,0,3.26202,6.94077,-1.95434,9.7561,4.26829,-7.86585,-10.313,1.08255,-1.05141,82.3781,-71.0366,27.6524
529.349,33.597,-4.84439,0,2.57704,7.03417,-1.94715,5.60976,-23.872,-12.5915,-10.4303,1.30289,-1.10171,74.6951,-66.8598,25.9756
529.359,33.0528,-4.89816,0,2.019,7.17308,-1.94715,0.152439,-53.7195,-19.0549,-10.3992,1.4418,-1.18553,66.8293,-60.8841,22.5
529.368,32.3476,-4.97184,0,1.42025,7.21619,-1.85375,-5.06098,-84.9085,-27.2256,-10.2555,1.56874,-1.26457,54.7866,-54.6951,17.7439
529.378,31.5239,-5.01743,0,1.27415,7.25691,-2.05014,-9.42073,-113.018,-38.3537,-10.198,1.60706,-1.13763,43.5976,-48.9329,9.7561
529.388,30.5892,-5.05325,0,1.35079,7.38864,-1.99505,-13.689,-138.049,-52.1951,-10.0447,1.62382,-1.08015,31.8293,-43.628,0.518293
529.398,29.6532,-5.0874,0,2.22258,7.79818,-1.7771,-22.8659,-159.634,-65.5488,-9.84832,1.73878,-1.05141,18.2622,-36.0061,-8.93293
529.409,28.8364,-5.09894,0,3.82964,7.75986,-1.4418,-35.5793,-172.652,-76.4329,-9.70462,1.5879,-0.936453,6.7378,-26.8293,-18.2317
529.419,28.1815,-5.14512,0,5.68578,7.27846,-0.984353,-46.3415,-171.128,-85.5183,-9.5705,1.47773,-1.06339,-5.97561,-15.1524,-29.9695
529.428,27.6817,-5.27253,0,7.31918,6.62941,-1.0562,-54.3293,-159.238,-91.0976,-9.41482,1.34121,-1.18553,-17.8659,-1.43293,-39.5732
529.438,27.3159,-5.378,0,8.86876,6.23424,-1.55916,-57.8354,-143.75,-92.8659,-9.31902,1.2502,-1.28852,-27.5305,12.8659,-47.8354
529.448,27.08,-5.4962,0,10.3058,6.03784,-2.32317,-59.4207,-123.811,-90.0305,-9.24478,1.24781,-1.33642,-37.2561,27.7439,-54.4512
529.458,26.9791,-5.62229,0,11.4602,5.772,-3.31471,-55.122,-98.1707,-84.1463,-9.13939,1.17116,-1.36277,-48.1098,40.2744,-57.0122
529.469,26.958,-5.74034,0,11.9511,5.81271,-4.14817,-47.7744,-66.311,-77.8354,-9.05796,1.03225,-1.32924,-55.0305,51.5244,-58.872
529.478,26.9573,-5.85702,0,11.453,6.19352,-4.93134,-35.0305,-35.3049,-70.7622,-9.04599,0.866997,-1.33403,-58.872,60.122,-60.5488
529.488,26.9311,-5.91855,0,10.5405,7.03657,-5.41274,-22.1951,-4.11585,-62.5,-9.06754,0.761616,-1.12566,-60.4878,67.5305,-60.9756
529.498,26.8666,-5.98997,0,9.07712,7.597,-5.25228,-8.56707,21.4329,-53.811,-9.16574,0.694556,-1.18314,-57.3171,74.1463,-59.5122
529.508,26.7608,-6.09068,0,7.33355,7.75507,-4.96009,0.823171,36.7988,-44.5427,-9.3789,0.541274,-1.33642,-56.6159,85.5488,-56.8598
529.519,26.5979,-6.14996,0,6.01629,7.99458,-4.35654,5.15244,44.2683,-37.439,-9.616,0.469424,-1.2023,-57.1646,93.1098,-55.3354
529.528,26.3252,-6.12878,0,5.16606,8.72266,-3.39853,6.18902,56.3415,-36.0671,-9.99681,0.59636,-0.902922,-58.9329,91.7683,-51.5854
529.539,25.927,-6.11195,0,4.62718,9.81,-2.79259,12.8354,74.9695,-38.4451,-10.5692,0.706531,-0.972378,-54.3598,90.3659,-44.6341
529.548,25.4406,-6.09099,0,3.9422,9.91299,-3.01772,21.2805,82.0122,-40.9756,-11.1464,0.62989,-0.993933,-47.2561,98.4146,-37.0732
529.558,24.8334,-6.02669,0,3.47517,10.9117,-2.51956,21.0671,81.7378,-46.0976,-11.6326,0.490979,-0.799937,-46.0061,107.744,-28.872
529.569,24.078,-5.87375,0,3.16622,13.3211,-1.24302,14.9695,70.3049,-53.689,-12.3128,0.119751,-0.347278,-45.7622,110.915,-23.7805
529.578,23.3314,-5.60231,0,3.49194,14.7749,-0.833467,1.85976,49.6037,-54.1768,-13.0169,-0.268242,0.337698,-38.5366,102.134,-22.6524
529.588,22.7719,-5.32682,0,4.11225,14.7006,-0.965193,-15.8232,23.2317,-41.372,-13.5989,-0.766406,0.431104,-28.8415,93.1402,-21.7073
529.599,22.4186,-5.08857,0,4.06674,13.072,-0.850232,-23.3537,-2.43902,-24.8476,-13.9893,-1.41785,0.273032,-27.3171,86.5854,-23.4756
529.608,22.0936,-4.89941,0,3.20933,10.6267,-0.687371,-16.0061,-17.5305,-21.7073,-13.5271,-1.42264,0.0287402,-29.2683,87.5915,-25.9146
529.619,21.561,-4.67554,0,1.66454,8.96216,0.0383203,-6.09756,-18.0488,-30.7317,-12.4709,-0.479004,0.251477,-26.4634,81.0976,-16.9512
529.629,20.7556,-4.33099,0,0.426313,8.658,-0.349673,-4.87805,-8.9939,-43.9329,-11.1392,0.186812,0.857417,-31.8598,76.0366,-2.65244
529.638,19.6581,-3.88884,0,-1.07536,8.62207,-0.316143,-4.84756,-17.378,-55.122,-10.0567,0.60115,1.26697,-51.0671,69.9085,2.62195
529.648,18.488,-3.39866,0,-1.14721,8.35622,-0.584385,-8.68902,-34.7866,-63.3232,-9.0867,1.05141,1.40827,-75.0915,64.7256,5.97561
529.659,17.4043,-2.89803,0,-0.301772,8.47118,-1.03465,-17.9878,-47.561,-68.689,-8.35862,1.30768,1.40588,-96.3415,61.4024,6.18902
529.669,16.4332,-2.26575,0,0.443079,8.62446,-1.58311,-32.5915,-49.939,-69.5732,-7.98979,1.21188,1.88967,-115.366,48.0488,2.56098
529.678,15.6154,-1.62734,0,1.01788,8.67716,-1.47773,-46.189,-47.622,-63.5671,-7.68083,0.847837,1.91362,-129.756,27.1341,-6.37195
529.688,15.0429,-1.06888,0,1.93997,8.26761,-1.15679,-52.8354,-43.5671,-53.5061,-7.51318,0.256267,1.66933,-139.116,11.128,-20.0305
529.699,14.6594,-0.530808,0,2.39023,8.22689,-1.3963,-48.2012,-40.2744,-41.4939,-7.63053,-0.447869,1.65256,-143.994,-6.58537,-35.4878
529.708,14.3854,-0.138273,0,2.51956,8.35622,-2.0214,-36.5244,-35.4573,-32.2866,-7.8365,-0.943638,1.27894,-146.494,-22.7439,-49.1463
529.719,14.1314,0.059804,0,2.3088,8.28677,-2.57225,-20.5183,-25.4268,-28.3232,-8.20534,-1.50647,0.677791,-139.817,-28.5976,-53.2622
529.728,13.8599,0.154012,0,2.37586,8.49274,-3.3171,-4.93902,-5.85366,-30.7622,-8.74182,-1.91362,0.349673,-127.439,-29.939,-50.7317
529.738,13.4779,0.183152,0,1.95194,8.90947,-3.57097,3.75,14.2073,-35.9146,-9.55613,-2.4501,0.124541,-110.427,-28.9329,-44.0244
529.748,13.0089,0.124259,0,1.53281,9.27112,-3.38895,5.09146,25.0305,-39.5122,-10.2028,-2.88839,-0.251477,-91.6463,-21.7988,-35.2134
529.758,12.5286,0.0198516,0,1.56634,9.2352,-2.82612,2.16463,33.9024,-42.1037,-10.6746,-3.10395,-0.479004,-72.1951,-11.5244,-23.5976
529.769,12.069,-0.107692,0,1.6358,9.26633,-2.13157,-0.884146,32.9268,-41.7683,-10.7129,-3.08718,-0.59636,-53.3841,-3.87195,-13.2622
529.778,11.6243,-0.232168,0,1.43462,9.25915,-1.63819,-2.04268,27.8354,-38.7195,-10.3585,-2.7423,-0.517324,-40.4878,1.7378,-7.13415
529.788,11.1604,-0.339031,0,0.941243,9.30944,-1.56395,-0.426829,16.6768,-35.3963,-9.99442,-2.37346,-0.502954,-33.0488,4.84756,-7.68293
529.799,10.6771,-0.413768,0,0.395178,9.44117,-1.59269,-0.0304878,3.04878,-31.4329,-9.92017,-1.91123,-0.373623,-29.9695,3.9939,-13.1402
529.808,10.2155,-0.478785,0,0.356858,9.64235,-1.82021,-1.28049,-8.17073,-29.6341,-10.0303,-1.35079,-0.294587,-28.9024,1.61585,-19.3598
529.818,9.76786,-0.546396,0,0.447869,9.82916,-1.99984,-4.45122,-17.9268,-30.1524,-10.1046,-0.934058,-0.308958,-28.1402,1.43293,-23.5366
529.828,9.34803,-0.615601,0,0.723296,9.93694,-2.09085,-9.39024,-23.1402,-31.4024,-10.1046,-0.670605,-0.347278,-33.2012,-1.79878,-25.7317
529.839,8.94817,-0.661714,0,0.922083,9.86509,-1.95434,-13.5061,-25.7012,-32.622,-10.1716,-0.205972,-0.318538,-41.7683,-4.96951,-25.7622
529.849,8.56716,-0.708956,0,1.02267,9.63037,-1.80584,-16.2805,-26.4329,-32.9878,-9.88904,-0.512534,-0.328118,-43.1402,-9.26829,-27.4085
529.858,8.17996,-0.759026,0,0.852627,9.46512,-1.71962,-16.7073,-26.0366,-32.5305,-9.58247,-0.725691,-0.340093,-43.4146,-11.9817,-28.1707
529.869,7.7971,-0.792173,0,0.651445,9.44356,-1.66454,-15.3963,-24.2378,-30.4268,-9.37411,-0.984353,-0.273032,-41.2805,-14.6037,-28.7805
529.879,7.42686,-0.843433,0,0.538879,9.35255,-1.83698,-15.7927,-26.8598,-28.5976,-9.21603,-1.29331,-0.347278,-37.1037,-14.4207,-27.4085
529.889,7.09679,-0.915034,0,0.622705,9.41003,-1.95913,-16.4939,-27.6524,-26.25,-9.17532,-1.54479,-0.438289,-34.1159,-16.8293,-28.689
529.898,6.82146,-0.993343,0,0.855022,9.5202,-2.02858,-18.628,-27.9573,-24.0854,-9.2304,-1.50407,-0.481399,-27.561,-18.7805,-31.6159
529.909,6.58141,-1.09638,0,1.02746,9.5705,-2.00942,-21.0366,-26.7988,-23.0793,-9.07952,-1.71483,-0.58678,-21.4024,-20.7012,-32.2561
529.918,6.37098,-1.19073,0,1.26936,9.5226,-2.13875,-21.8902,-24.2988,-23.5366,-9.04838,-1.73878,-0.565225,-14.7561,-19.2988,-28.689
529.929,6.15616,-1.32238,0,1.38193,9.35495,-2.12438,-21.8293,-22.0732,-26.0671,-9.16574,-1.67891,-0.740061,-10.6098,-20.3659,-24.5427
529.938,5.92816,-1.45438,0,1.45378,9.2328,-2.09085,-21.7378,-19.7866,-28.9634,-9.26154,-1.57353,-0.771196,-7.5,-21.0671,-18.5976
529.949,5.67513,-1.59037,0,1.51126,9.19209,-1.85854,-19.9695,-15.9756,-32.7744,-9.40045,-1.39151,-0.823887,-5.70122,-24.2988,-11.128
529.959,5.38413,-1.73522,0,1.36995,9.15137,-1.73639,-17.8963,-13.5671,-35.4878,-9.56331,-1.27894,-0.900527,-5.64024,-26.5244,-6.06707
529.969,5.06127,-1.85433,0,1.34121,9.39566,-1.76034,-16.4024,-8.81098,-38.5366,-9.63037,-1.18553,-0.821492,-7.46951,-26.7683,-1.7378
529.979,4.7019,-1.96193,0,1.22625,9.64474,-1.83698,-15.6402,-5.51829,-41.128,-9.67588,-1.13763,-0.797541,-9.02439,-28.3841,-1.31098
529.988,4.30039,-2.12022,0,0.943638,9.83395,-1.80105,-15.6098,-3.90244,-42.561,-9.5226,-1.09931,-1.01549,-8.90244,-25.8537,1.12805
529.998,3.86695,-2.33467,0,0.759221,9.87946,-1.70765,-15.9146,-4.02439,-44.4207,-9.29028,-1.12805,-1.24541,-5.42683,-20.1524,3.2622
530.008,3.42867,-2.61759,0,0.787961,9.88904,-1.63101,-17.378,-5.15244,-46.128,-9.11544,-1.19032,-1.53281,-0.945122,-13.3537,6.4939
530.019,2.96468,-2.96464,0,0.56762,9.72617,-1.64059,-17.5915,-8.62805,-47.1646,-8.97174,-1.40827,-1.80584,7.92683,-6.76829,9.05488
530.029,2.53496,-3.4002,0,0.764011,9.54894,-1.92799,-17.378,-9.7561,-47.1341,-8.95019,-1.60227,-1.89207,17.5,-2.68293,13.6585
530.038,2.13216,-3.71586,0,0.852627,9.49386,-1.89446,-18.1707,-12.4695,-46.4024,-8.95977,-1.76273,-1.78668,25.9146,-5.36585,15.9451
530.048,1.788,-3.95688,0,1.13045,9.76928,-1.97829,-21.128,-14.5122,-44.2378,-9.03162,-1.86572,-1.56634,32.5915,-8.32317,21.7073
530.058,1.48729,-4.18422,0,1.32445,9.9561,-1.95434,-24.0549,-15.4573,-42.5,-8.95019,-1.86093,-1.5376,36.0671,-10.2744,28.3841
530.068,1.21344,-4.40199,0,1.41306,10.0447,-1.75794,-28.2317,-16.372,-41.25,-8.85199,-1.83938,-1.51365,40.1524,-7.19512,35.4573
530.078,0.980129,-4.68498,0,1.6813,10.1214,-1.85375,-31.7683,-14.7866,-40.5793,-8.67716,-1.79147,-1.55437,42.8659,2.92683,42.2256
530.089,0.780235,-4.88775,0,1.94236,9.97526,-1.91841,-34.4207,-13.2622,-40.8841,-8.5574,-1.79387,-1.46815,45.5488,14.2073,45.5488
530.099,0.624187,-5.12988,0,2.18186,9.75491,-1.94955,-35.6402,-13.7805,-40.061,-8.49513,-1.75076,-1.63101,46.7683,27.0732,47.6524
530.108,0.537478,-5.41788,0,2.57944,9.60163,-2.22737,-35.5183,-12.622,-38.2622,-8.56938,-1.64059,-1.85135,51.4939,42.7439,48.689
530.119,0.499075,-5.68056,0,2.73272,9.47949,-2.47166,-35.8841,-11.2195,-35.6402,-8.90947,-1.40588,-1.85854,52.378,54.1768,48.7805
530.128,0.533403,-5.84688,0,3.0776,9.41003,-2.83091,-35.4878,-9.87805,-32.439,-9.52978,-1.22386,-1.60706,47.1951,62.3476,47.1951
530.138,0.663918,-5.92541,0,3.54463,9.44835,-3.19975,-34.0244,-7.19512,-27.561,-10.3058,-1.10171,-1.35798,36.5244,65.3659,44.2683
530.148,0.877563,-6.05127,0,3.73384,9.24957,-3.25004,-31.6463,-5.94512,-21.7073,-10.986,-0.936453,-1.68849,24.4512,73.9024,38.872
530.159,1.15516,-6.29312,0,3.55421,9.137,-3.28597,-29.2073,-5.91463,-13.2622,-11.2111,-0.749641,-2.32556,14.6951,88.8719,35
530.168,1.47869,-6.61101,0,3.19256,9.0388,-3.25483,-28.3232,-6.52439,-4.78659,-11.1273,-0.689766,-2.73272,12.3171,105.549,33.0488
530.179,1.84965,-6.96136,0,2.95545,9.27352,-3.11592,-26.4024,-6.85976,3.96341,-10.9213,-0.946033,-2.89797,13.75,120.701,33.5061
530.188,2.29408,-7.24832,0,2.86444,9.43638,-2.95066,-24.4817,-9.26829,14.6646,-10.9452,-1.24541,-2.64171,20.9756,128.994,34.1463
530.198,2.82928,-7.34964,0,2.7902,9.62798,-2.99377,-23.7805,-11.1585,26.311,-11.4769,-1.1999,-1.85614,28.5976,125.274,36.7073
530.208,3.51076,-7.38791,0,3.11592,9.7597,-2.95545,-22.1341,-11.8598,39.1768,-12.2529,-1.10889,-1.65256,37.0122,128.293,39.8476
530.219,4.37101,-7.24353,0,3.58055,9.8579,-2.7878,-20.122,-13.2012,54.2073,-13.1008,-0.946033,-0.713716,39.0854,125.976,39.7561
530.228,5.43385,-6.81659,0,3.99968,9.35974,-2.69679,-17.8354,-14.7256,70.1524,-14.0133,-0.840652,1.00112,26.6159,110.823,33.3841
530.238,6.70472,-6.20804,0,4.30864,8.72506,-2.80936,-12.1037,-16.25,87.1341,-15.2922,-0.136516,2.41418,1.46341,84.9695,24.1768
530.248,8.17955,-5.80408,0,4.49066,8.01853,-2.72314,-0.396341,-15.7012,104.482,-15.8598,0.565225,1.21427,-7.5,77.8354,22.1646
530.259,9.78248,-5.70317,0,4.36133,7.91075,-2.03098,12.2561,-11.7073,121.341,-14.8491,1.54718,-0.723296,-19.2378,94.3598,27.8963
530.268,11.4294,-5.51045,0,4.23439,8.74182,-1.71004,16.5244,1.52439,135.274,-13.0529,1.06339,-0.0718506,-7.22561,105.305,34.3902
530.278,13.0487,-5.23766,0,3.30273,9.08191,-1.24781,14.7561,10.2744,147.774,-11.0099,-0.0215552,0.347278,-8.17073,86.5854,29.6951
530.288,14.7502,-4.86626,0,3.21172,8.29156,0.0550855,15.122,-0.97561,157.043,-9.11305,-0.768801,0.711321,-1.98171,65.0305,22.6829
530.298,16.454,-4.41159,0,2.62973,7.68322,0.845442,19.2378,-6.89024,165.396,-7.78381,-1.12087,0.936453,14.3598,49.5122,19.1159
530.309,17.9719,-3.9134,0,0.969983,7.9323,1.1041,30.9756,-4.11585,174.238,-7.24733,-1.22386,1.06099,33.9024,32.2561,22.5915
530.318,19.2799,-3.36158,0,-0.455054,8.30353,1.88249,45.3659,-12.561,176.555,-7.15632,-1.04423,1.26936,55.9756,10.122,25.1524
530.328,20.5559,-2.85633,0,-0.56762,10.1669,1.82021,60.4878,-27.6829,176.067,-7.39343,-0.866997,1.19272,65.6098,-7.10366,27.5915
530.338,21.8059,-2.42113,0,-0.538879,11.5224,-0.136516,75.3963,-38.1402,174.97,-8.04008,-0.740061,1.13763,67.1646,-16.189,26.9207
530.348,23.0158,-2.03434,0,-0.0838257,12.9499,-1.16158,85.2134,-47.561,168.72,-8.83283,-0.268242,1.12087,63.1707,-23.0793,22.9268
530.359,24.2346,-1.76878,0,1.94236,14.5234,-2.19144,87.4695,-50.3354,155.793,-9.49625,0.155676,0.752036,58.5061,-28.9939,21.7988
530.368,25.4274,-1.62395,0,4.08111,14.4563,-3.00575,87.439,-43.1402,138.994,-10.0711,0.749641,0.308958,55.1829,-26.5854,25.9451
530.378,26.5915,-1.54269,0,5.84145,13.1223,-2.54351,85.6098,-29.6646,121.707,-10.4519,1.30529,0.0574805,44.5122,-22.8049,35.3354
530.388,27.6408,-1.51905,0,5.60914,11.2566,-1.20948,88.689,-18.3537,107.287,-10.5213,1.54718,-0.191602,33.0793,-19.6951,46.189
530.398,28.6308,-1.51373,0,5.02715,10.2722,-0.407153,92.8049,1.09756,104.207,-10.277,1.32924,-0.265847,21.9207,-19.6341,53.9024
530.408,29.6025,-1.50929,0,4.78285,10.0758,0.0958008,103.476,22.7134,105.762,-9.8555,0.931663,-0.258662,8.35366,-20.5488,56.3415
530.419,30.6542,-1.54072,0,5.25946,10.3944,0.0143701,115.732,51.1585,112.957,-9.44835,0.656235,-0.397573,-1.85976,-21.5244,57.2256
530.429,31.6556,-1.58718,0,4.86907,11.2422,-0.529299,112.165,81.6768,116.951,-9.18729,0.457449,-0.455054,-6.85976,-24.5732,55.6098
530.439,32.6229,-1.68213,0,4.83315,11.2973,-0.555645,102.957,107.805,116.037,-9.20406,0.395178,-0.66342,-8.87195,-27.8659,56.1585
530.448,33.498,-1.79985,0,4.19368,11.0195,-0.435894,96.8293,121.86,113.354,-9.35016,0.294587,-0.785566,-9.48171,-29.8171,55.122
530.459,34.2548,-1.94058,0,3.24765,10.7704,-0.282612,88.1402,127.287,111.341,-9.59205,0.256267,-0.926873,-10.1829,-33.5061,52.0427
530.468,34.9453,-2.09232,0,2.93869,10.0088,-0.287402,80.2134,125.213,106.982,-9.64953,0.208367,-1.00351,-9.17683,-33.2622,47.3476
530.478,35.5292,-2.22785,0,2.44531,9.68785,-0.342488,73.0793,117.683,101.982,-9.60163,0.285007,-0.955613,-9.54268,-34.1463,43.872
530.488,36.0213,-2.36971,0,2.18905,9.31184,-0.536484,66.6768,107.47,95.7317,-9.4244,0.392783,-0.986748,-13.9329,-33.75,41.0061
530.499,36.4157,-2.48671,0,2.07409,8.99569,-0.816702,58.9939,94.1463,87.2561,-9.31902,0.522114,-0.898132,-16.372,-36.4939,40.122
530.508,36.7102,-2.5816,0,2.06451,8.86876,-0.938848,50.7317,77.9573,77.6219,-9.1346,0.524509,-0.811912,-16.4329,-39.6646,39.3598
530.519,36.8907,-2.67817,0,2.00703,8.45921,-0.991538,44.1159,59.6341,66.0976,-9.13221,0.347278,-0.835862,-17.561,-42.3171,38.4756
530.528,36.9456,-2.79201,0,1.88488,8.04727,-1.16398,38.9939,41.9207,53.9939,-9.05078,0.186812,-0.914897,-20.6098,-44.2988,36.128
530.538,36.8545,-2.94744,0,1.69807,7.75268,-1.21188,34.4512,24.5122,40.8841,-8.97174,0.134121,-1.09213,-20.3963,-45.1524,33.5061
530.548,36.5871,-3.14463,0,1.38672,7.63532,-1.19751,27.439,9.45122,26.9207,-8.92384,0.205972,-1.28134,-20.5793,-49.2988,30.122
530.559,36.159,-3.35571,0,1.17595,7.33834,-0.960403,19.4512,-5.33537,12.4085,-8.92384,0.313748,-1.36995,-21.4939,-51.0671,29.4512
530.568,36.1535,-3.52389,0,0.673001,6.95035,-0.706531,13.7195,-22.1037,-0.548781,-9.06036,0.479004,-1.2526,-17.561,-54.2683,28.9634
530.578,35.3771,-3.7049,0,0.447869,6.50727,-0.728086,8.29268,-43.872,-13.4756,-9.25675,0.565225,-1.36277,-15.4268,-56.5244,26.5549
530.588,34.4585,-3.90463,0,0.268242,6.40189,-1.31008,1.03659,-65.7927,-26.4329,-9.3765,0.603545,-1.48491,-17.2256,-50.6098,20.3659
530.599,33.3755,-4.1559,0,-0.0431104,6.12167,-1.29331,-2.31707,-89.1159,-39.3598,-9.35734,0.617915,-1.72441,-20.4878,-38.7195,12.8963
530.608,32.2723,-4.46399,0,0.804727,6.74198,-1.88009,-0.792683,-116.86,-58.3537,-9.18969,0.687371,-1.96392,-26.25,-25.7012,3.56707
530.619,31.1693,-4.7927,0,2.43573,7.77184,-2.16989,-13.8415,-124.055,-82.1951,-9.01485,0.859812,-2.05493,-32.3476,-15.4268,-3.41463
530.629,30.1004,-5.10198,0,4.36852,8.1263,-1.40348,-35.7012,-110.945,-103.14,-8.97174,0.998723,-2.00942,-37.4085,-7.46951,-10.9146
530.639,29.1525,-5.36096,0,5.97557,7.56347,-0.548459,-52.8963,-94.0244,-113.476,-8.96216,1.14482,-1.81542,-41.9207,-4.66463,-14.6341
530.648,28.3405,-5.61464,0,6.97909,6.90245,-0.467029,-59.7561,-83.9939,-115.854,-9.03162,1.1999,-1.64777,-45.1524,-2.46951,-17.7439
530.658,27.646,-5.84319,0,7.96584,6.55517,-1.65735,-58.2927,-80.3354,-116.189,-9.02683,1.18074,-1.80824,-47.4085,6.61585,-20.6707
530.668,27.0204,-6.07334,0,8.32988,6.48332,-3.2213,-55.2439,-75.3659,-113.75,-9.07712,1.16398,-1.85614,-50.8537,19.8476,-21.7073
530.679,26.4687,-6.28454,0,8.19576,6.56475,-4.76369,-46.311,-65.6707,-105.854,-9.23759,1.1041,-1.83698,-52.9878,32.2256,-21.7073
530.688,25.9704,-6.45534,0,8.31311,6.94316,-5.78158,-35.6402,-54.0244,-99.1463,-9.60403,0.967588,-1.76513,-54.5732,37.0732,-22.8354
530.698,25.5196,-6.58283,0,8.83283,7.71915,-6.06898,-26.128,-33.1707,-92.6829,-10.1309,0.809517,-1.69088,-53.7195,40.2744,-25.4573
530.708,25.1504,-6.66652,0,8.95977,8.30114,-6.25819,-15.7317,-8.75,-81.8902,-10.6698,0.56283,-1.59269,-50.2744,41.6768,-30.1829
530.719,24.9791,-6.71705,0,8.9454,8.14307,-5.89654,-1.98171,4.48171,-63.4756,-11.2326,0.167651,-1.52802,-37.4085,39.5732,-33.5671
530.728,25.0627,-6.78022,0,9.25196,7.99697,-5.18043,12.2561,2.83537,-40.8232,-11.7955,-0.397573,-1.6813,-20.122,40.4573,-38.2012
530.738,25.4795,-6.92171,0,10.3489,7.48204,-4.96727,23.2012,7.19512,-16.7988,-12.0853,-1.06578,-2.15791,-5.33537,46.311,-45
530.748,26.0714,-7.1554,0,10.1261,7.42696,-4.23679,27.2866,21.6463,2.37805,-11.8051,-1.34121,-2.62255,1.37195,60.1524,-54.4207
530.758,26.593,-7.47181,0,8.52866,8.06643,-3.55421,29.0244,35.1829,11.3415,-11.0386,-1.11368,-2.90995,1.95122,76.2805,-57.622
530.768,26.9452,-7.76687,0,7.08686,8.38736,-3.22849,27.6524,48.9024,8.17073,-10.4926,-0.337698,-2.71116,-4.72561,87.9268,-58.5671
530.778,26.9945,-8.03005,0,5.52052,9.13221,-2.52914,23.3232,53.9024,-3.68902,-10.2938,0.452659,-2.55788,-20.2134,92.561,-55.1524
530.788,26.6859,-8.17696,0,4.04519,10.1237,-2.28724,17.0732,52.622,-20.8537,-10.5405,1.0586,-2.10043,-39.6037,95,-54.3598
530.798,26.0313,-8.24431,0,2.89797,11.2566,-2.60339,9.84756,37.5915,-41.7988,-10.9907,1.43941,-1.81782,-58.2622,98.2012,-54.6951
530.808,25.1567,-8.21917,0,3.49433,13.8145,-2.73272,-5.94512,22.7439,-65.0915,-11.6709,1.58311,-1.45617,-76.189,100.518,-55.6707
530.819,24.2202,-8.08884,0,4.86189,15.3617,-1.76992,-35.8537,19.8476,-80.061,-12.7535,1.36995,-0.989143,-87.3171,99.6341,-57.6524
530.828,23.4835,-7.82152,0,6.93358,15.8814,0.299377,-66.5244,23.872,-73.8719,-13.5702,0.866997,-0.208367,-90.2744,92.6829,-59.7256
530.839,23.0487,-7.443,0,8.49274,15.8981,-0.160466,-73.0793,33.3841,-53.811,-14.9162,0.124541,0.538879,-80.8232,67.0427,-62.0122
530.849,22.7925,-7.08286,0,6.74438,13.9294,-0.622705,-58.0488,12.1646,-31.8293,-15.6538,-1.28134,0.519719,-73.0183,50.5488,-67.9878
530.859,22.5735,-6.85829,0,4.88105,9.87467,-0.972378,-32.8049,0.914634,-29.5122,-14.6408,-2.13396,-0.304167,-77.6829,44.8171,-68.6585
530.868,22.0083,-6.6615,0,2.03816,7.01741,-1.13045,-6.28049,12.3476,-44.6646,-12.7655,-1.01309,-0.390388,-82.0122,27.6829,-42.5305
530.879,20.8078,-6.27471,0,-0.797541,6.94077,-1.71483,14.0854,32.9878,-64.2073,-10.3609,-0.246687,0.574805,-69.4512,14.0549,0.0914634
530.889,19.2419,-5.61845,0,-2.35191,7.52994,-2.26329,20.9146,40.5793,-81.9207,-9.16095,0.196392,1.65496,-80.8537,-11.4634,31.4634
530.898,17.5822,-4.87907,0,-2.71356,8.11433,-2.24653,13.1098,37.3171,-92.3476,-8.29395,0.146096,1.90165,-101.372,-28.0793,40.9756
530.908,16.0326,-4.05655,0,-1.70286,8.04008,-1.83458,-4.5122,36.0061,-97.8354,-8.01613,0.749641,2.24892,-126.098,-44.4817,39.8171
530.918,14.6642,-3.21749,0,-0.570015,8.09038,-1.02746,-23.5061,35.8537,-98.689,-7.33355,0.189207,2.22258,-143.232,-54.8476,30.4878
530.929,13.4539,-2.50814,0,-0.0910107,8.26282,0.0143701,-35.4573,28.811,-92.2866,-7.19224,0.785566,1.84417,-160.915,-63.4451,19.939
530.938,12.4044,-2.06983,0,-0.00239502,8.45202,0.598755,-40.8232,13.0793,-79.6037,-7.49402,0.258662,1.08494,-157.683,-65.1524,8.14024
530.949,11.585,-1.75883,0,0.361648,8.72985,0.174836,-36.3415,-6.52439,-63.1402,-8.16223,-0.313748,0.778381,-147.5,-67.9573,-2.53049
530.959,10.9758,-1.58255,0,0.711321,8.81846,-1.09213,-26.128,-25.2439,-47.9268,-8.97893,-1.01788,0.371228,-137.774,-65.7012,-12.9878
530.969,10.5401,-1.56136,0,1.21906,8.42089,-2.86684,-17.4695,-29.939,-38.872,-9.58487,-1.66933,-0.225132,-123.445,-60.2134,-20.2439
530.978,10.1903,-1.65813,0,1.7292,8.30114,-3.81287,-11.9817,-20.9146,-38.2012,-10.0687,-2.2585,-0.752036,-105.122,-53.8415,-24.878
530.988,9.83359,-1.7999,0,2.09325,8.56459,-4.45953,-9.96951,-5.36585,-43.628,-10.4255,-2.61776,-1.00112,-83.4146,-49.878,-30.1829
530.999,9.36474,-1.955,0,1.74118,8.74182,-3.95897,-9.54268,4.2378,-50.7622,-10.1812,-2.84528,-1.06099,-61.6768,-47.0122,-33.4451
531.008,8.82218,-2.11991,0,1.53042,8.8472,-3.12071,-9.69512,5.94512,-56.2805,-9.56571,-2.55549,-1.06339,-45.4268,-45.2439,-34.4512
531.019,8.25299,-2.28609,0,1.41067,9.01246,-2.21779,-11.128,3.90244,-58.2317,-9.15137,-2.35909,-1.04902,-32.9268,-45.061,-38.3841
531.028,7.71613,-2.46675,0,1.30529,9.09628,-1.13045,-13.0488,3.01829,-54.6037,-8.96695,-2.08367,-1.10889,-22.0427,-40.6707,-44.2378
531.038,7.29986,-2.62262,0,1.72441,9.0867,-0.754431,-15.3963,3.75,-48.6585,-9.01725,-1.7795,-1.03944,-14.9695,-34.939,-48.5061
531.048,6.98031,-2.76008,0,1.88009,9.10347,-0.62031,-16.7073,-0.853659,-41.5244,-9.22801,-1.51126,-1.01549,-13.7805,-37.561,-51.7378
531.058,6.71899,-2.8755,0,1.87291,9.14658,-1.02267,-17.2561,-9.45122,-36.0366,-9.46751,-1.32445,-0.974773,-12.7744,-41.128,-50.7012
531.068,6.49745,-2.99685,0,1.94236,9.1849,-1.45857,-19.9695,-18.811,-33.2622,-9.52978,-1.17595,-1.02746,-11.7988,-43.2317,-50.1524
531.079,6.24928,-3.15425,0,1.71723,9.19209,-1.91362,-21.7988,-26.25,-33.6585,-9.31902,-1.0083,-1.17356,-11.0061,-41.6159,-43.9634
531.088,5.9612,-3.31435,0,1.43222,9.06275,-2.20102,-22.1037,-31.9817,-34.9695,-9.01246,-0.819097,-1.16877,-6.85976,-38.75,-34.6646
531.099,5.64459,-3.49546,0,1.27176,8.95019,-2.33754,-22.1037,-35.7622,-36.6463,-8.81846,-0.723296,-1.2502,-2.56098,-36.6159,-22.8659
531.108,5.30397,-3.69257,0,1.12805,8.98851,-2.24892,-22.561,-36.8293,-37.8354,-8.68434,-0.656235,-1.31966,3.20122,-33.8415,-11.128
531.118,4.9464,-3.85963,0,1.06339,9.13939,-1.98068,-22.9268,-34.4512,-39.2073,-8.66039,-0.613125,-1.22864,6.64634,-33.0183,-5
531.128,4.58603,-4.0075,0,1.04183,9.14658,-1.71723,-23.3232,-31.128,-39.939,-8.72985,-0.598755,-1.19032,8.65854,-34.5122,-0.701219
531.138,4.25999,-4.11677,0,1.22625,9.15376,-1.45617,-23.75,-27.439,-39.4817,-8.73943,-0.617915,-1.06578,10.2134,-37.561,1.0061
531.149,4.002,-4.23287,0,1.7771,9.31902,-1.27415,-24.6951,-23.9939,-39.6646,-8.83044,-0.718506,-1.12326,10.122,-40.5793,1.09756
531.159,3.81415,-4.36252,0,2.3088,9.16813,-1.19032,-24.6341,-17.439,-39.8476,-8.89031,-0.948428,-1.20469,11.4024,-42.439,0.426829
531.169,3.65313,-4.51973,0,2.63692,9.12981,-1.1999,-22.6524,-11.25,-41.5244,-8.94779,-1.16398,-1.34361,10.5793,-41.8598,1.03659
531.178,3.46277,-4.6625,0,2.62255,9.19687,-1.3963,-19.6951,-7.80488,-44.4512,-9.05078,-1.37235,-1.32445,10,-40.4573,2.31707
531.188,3.18803,-4.84299,0,2.28006,9.43638,-1.51605,-17.8049,-4.29878,-48.689,-9.04838,-1.47533,-1.49928,7.28659,-37.9878,6.61585
531.198,2.80103,-5.09164,0,1.80105,9.69983,-1.80824,-17.622,0.0609756,-54.4512,-9.04599,-1.48731,-1.80345,6.61585,-30.8841,12.5
531.209,2.31525,-5.36353,0,1.33403,9.80521,-2.00942,-18.4146,3.93293,-59.6646,-8.96216,-1.44659,-1.91841,5.12195,-25.1829,20.2744
531.219,1.72267,-5.69692,0,0.802332,10.1118,-2.07888,-20.3659,5.06098,-65,-8.83523,-1.43701,-2.18186,8.01829,-18.0488,28.2012
531.228,1.03301,-6.04559,0,0.296982,10.2555,-2.10283,-22.2256,3.59756,-70.2439,-8.658,-1.36277,-2.24892,11.7683,-11.9512,34.2073
531.238,0.319433,-6.39215,0,0.134121,10.3153,-2.13396,-24.3902,2.31707,-72.2256,-8.55022,-1.36995,-2.26569,14.878,-9.57317,38.9024
531.248,-0.338288,-6.70868,0,0.505349,10.1908,-2.26808,-28.0183,-1.70732,-72.2561,-8.49513,-1.50647,-2.18426,22.2256,-8.5061,41.7683
531.259,-0.878929,-6.97015,0,1.18074,9.77886,-2.26569,-31.4024,-6.89024,-69.9085,-8.49034,-1.61185,-2.00942,29.6341,-6.98171,43.872
531.268,-1.27778,-7.15243,0,1.87051,9.45314,-2.28964,-33.4146,-12.3476,-65.3354,-8.63405,-1.82021,-1.73878,35.0305,-4.54268,43.9024
531.278,-1.50956,-7.40843,0,2.5962,9.25675,-2.41418,-33.628,-16.8598,-58.2317,-8.93821,-2.14833,-1.69807,42.2866,1.37195,42.622
531.288,-1.59726,-7.52212,0,3.05365,9.18969,-2.53872,-31.6463,-18.2927,-49.5427,-9.30944,-2.41418,-1.67891,47.1037,11.372,38.3841
531.298,-1.60877,-7.62075,0,3.06083,9.24238,-2.50998,-30.0305,-21.4939,-41.8293,-9.83156,-2.48603,-1.71723,51.7073,21.25,34.0854
531.308,-1.52985,-7.6544,0,3.31471,9.45314,-2.50759,-29.8171,-19.878,-34.6646,-10.3752,-2.28006,-1.51844,51.372,29.1159,32.1646
531.318,-1.3865,-7.62058,0,3.18777,9.7118,-2.54591,-32.5,-19.2073,-25.5793,-10.9165,-1.62143,-1.26936,44.7256,33.9024,34.3293
531.328,-1.16162,-7.55657,0,3.23807,9.67348,-2.78301,-34.6037,-17.8659,-17.6524,-11.3907,-1.02028,-1.16158,27.2866,36.6768,37.561
531.339,-0.87297,-7.69914,0,3.13748,9.5681,-2.91953,-35.4878,-16.4634,-9.96951,-11.3907,-0.378413,-2.19384,15.1829,51.5854,38.3841
531.348,-0.282616,-8.07647,0,2.85726,9.2807,-2.96743,-34.6341,-16.7988,-0.762195,-10.8327,0.0287402,-3.28357,13.4146,73.6585,42.1646
531.359,0.154246,-8.58912,0,2.73751,8.92863,-3.0297,-31.8902,-14.6341,9.20732,-10.004,0.0263452,-3.74581,17.7439,99.939,46.5854
531.369,0.709572,-9.00669,0,2.85486,8.83283,-2.87881,-27.1341,-20.8232,20.4268,-9.69983,-0.852627,-3.26441,30.3354,107.835,46.4634
531.378,1.42012,-9.20676,0,3.2716,9.05557,-2.83091,-21.0976,-25.4268,33.4146,-10.0735,-1.21427,-2.42855,41.2195,101.921,43.5671
531.388,2.28181,-9.30648,0,3.73863,9.44117,-2.93629,-16.0976,-25.4573,46.7378,-10.7991,-1.22146,-2.14115,52.7439,103.079,46.2805
531.398,3.32069,-9.29889,0,4.48827,9.72857,-2.68242,-13.75,-20.5793,60.122,-11.8673,-0.912502,-1.78908,57.1037,109.451,53.628
531.408,4.53139,-9.19428,0,5.23072,9.82437,-2.20821,-12.7744,-16.4634,73.1098,-12.8493,-0.780776,-1.36756,53.3537,117.622,57.0122
531.418,5.90699,-8.72327,0,5.63548,9.2352,-2.28006,-8.41463,-16.25,85.5488,-13.8791,-0.383203,0.780776,39.3598,105.03,54.3293
531.428,7.40601,-7.98829,0,5.53729,8.52387,-2.52914,-1.7378,-16.7683,97.6524,-15.4622,-0.0694556,2.77583,9.39024,68.8415,47.0122
531.438,8.92172,-7.51653,0,4.78764,8.42089,-2.74709,3.56707,-9.39024,109.329,-16.4729,0.704136,1.21427,-19.939,58.7805,33.75
531.448,10.4077,-7.32085,0,3.35063,8.93103,-2.19384,6.31098,-3.62805,127.866,-16.4873,1.79147,-0.64426,-20.1524,68.1402,28.5976
531.459,11.9411,-7.05579,0,2.37825,8.86876,-1.31487,8.23171,-11.6463,147.073,-14.5905,1.59269,-0.0886157,-8.9939,56.4634,33.1707
531.469,13.6077,-6.66435,0,2.41178,8.35862,-0.835862,14.2073,-16.4939,161.585,-11.8553,-0.117356,0.61552,14.7561,28.9024,22.4085
531.478,15.362,-6.21733,0,2.24174,8.54064,0.61552,21.372,-24.6037,176.768,-9.46751,-1.30529,0.775986,38.5366,12.4695,1.4939
531.488,17.0495,-5.77045,0,1.20469,8.64123,1.2526,30.4573,-30.1524,187.348,-7.90356,-1.83458,0.708926,64.3598,11.8902,-13.3537
531.499,18.5449,-5.20829,0,-0.308958,9.49386,0.699346,41.128,-30.9146,191.189,-7.28325,-2.18665,1.03465,90.6402,6.43293,-18.9939
531.508,19.9835,-4.37739,0,-0.843047,12.581,0.675395,51.6159,-49.6646,192.47,-7.15392,-1.95434,0.926873,104.787,3.41463,-18.4756
531.518,21.4383,-0.379542,0,0.126936,14.4013,-1.41785,57.561,-56.4634,188.201,-7.37427,-1.70286,0.847837,111.067,0.670732,-12.8659
531.528,22.8207,-0.0855501,0,1.25978,14.3534,-2.64171,62.2866,-58.689,174.573,-7.92991,-1.38432,0.972378,103.232,-10.3049,-4.2378
531.538,24.1437,0.135662,0,2.9315,13.8743,-3.00575,71.7378,-63.2622,157.226,-8.81128,-0.517324,0.833467,87.439,-19.6037,9.35976
531.548,25.3682,0.238776,0,4.11225,12.5283,-2.4525,79.4512,-63.0488,137.134,-9.56092,0.268242,0.435894,67.8049,-26.0976,23.1402
531.559,26.5734,0.264346,0,5.0487,11.2877,-1.38911,83.9634,-58.3537,125.579,-9.84114,0.756826,0.134121,57.1341,-20.9451,41.7683
531.568,27.8318,0.224863,0,6.28214,9.94652,-0.632285,88.75,-43.4146,116.768,-10.4974,1.81303,-0.167651,44.2378,-36.8293,59.0244
531.578,29.0315,0.161968,0,5.99713,9.43159,0.361648,95.7012,-20.0915,112.988,-10.4207,2.17707,-0.285007,33.0488,-41.0671,67.4085
531.589,30.176,0.0931927,0,5.45585,9.11784,1.09452,108.11,10.3659,112.988,-9.96328,2.15552,-0.316143,20.2134,-49.0244,70.1829
531.598,31.2955,0.0147352,0,5.06786,9.32142,1.3484,119.909,50.7317,117.591,-9.20885,1.92799,-0.347278,12.6829,-54.878,67.5915
531.608,32.3584,-0.0724471,0,4.74453,9.93933,0.65384,112.165,86.8598,120.244,-8.54543,1.69328,-0.368833,3.2622,-57.5,62.3171
531.618,33.3969,-0.145488,0,4.44276,9.88425,0.282612,105.549,111.86,122.622,-8.18618,1.47054,-0.316143,-4.84756,-59.5427,57.8963
531.628,34.3767,-0.194649,0,4.04279,9.35974,-0.0335303,97.7439,125.64,120.457,-8.19815,1.33403,-0.241897,-15.2744,-61.25,52.8963
531.638,35.2512,-0.207749,0,3.49673,9.06515,-0.0598755,90.3659,129.146,116.341,-8.54782,1.20948,-0.126936,-26.1585,-65.7317,49.6951
531.648,35.9834,-0.237168,0,2.84049,9.07473,-0.325723,82.5915,125.793,111.189,-9.01725,1.16158,-0.201182,-38.0793,-66.1585,46.0061
531.659,36.6219,-0.329581,0,2.50759,9.07712,-0.613125,77.5,119.665,107.073,-9.43159,1.152,-0.474214,-47.7744,-62.1341,40.6098
531.668,37.1756,-0.48392,0,2.56746,8.93342,-0.984353,70.1829,108.628,98.5061,-9.78366,1.0083,-0.768801,-56.3415,-53.75,34.5122
531.678,37.5759,-0.692519,0,2.32556,9.08191,-1.29571,62.0122,95.7927,87.4085,-9.86509,0.725691,-1.03225,-61.4329,-44.8476,28.1707
531.688,37.8053,-0.94609,0,2.03577,9.11305,-1.17356,53.4451,80.4573,74.3902,-9.75491,0.280217,-1.24781,-62.5,-39.1159,21.0061
531.699,37.865,-1.23695,0,1.75555,8.89271,-1.14721,47.3171,64.2988,60.4573,-9.62319,-0.273032,-1.43222,-59.4207,-35.2134,10.6098
531.709,37.7443,-1.54737,0,1.45617,8.6101,-1.15679,42.6524,46.6159,45.3659,-9.37411,-0.65863,-1.52323,-51.7073,-31.0366,-1.03659
531.719,37.4126,-1.8749,0,0.950823,8.45681,-1.17356,37.7134,27.9268,30.0915,-9.17292,-0.831072,-1.61185,-40.4573,-29.8476,-7.2561
531.728,36.8762,-2.20459,0,0.517324,8.11912,-1.08494,29.4817,9.20732,14.1768,-9.14418,-0.804727,-1.66933,-27.6524,-29.3598,-12.0122
531.738,33.7771,-2.54391,0,0.0311353,7.70238,-0.874182,19.6037,-10.7317,-1.58537,-9.15616,-0.661025,-1.76513,-18.0793,-27.9878,-13.0183
531.748,32.9154,-2.84484,0,-0.208367,7.14434,-0.661025,12.0732,-29.4207,-15.5793,-9.16813,-0.450264,-1.66214,-9.60366,-26.7988,-15.4573
531.759,31.8913,-3.15054,0,-0.409548,6.71803,-0.61073,6.21951,-51.7073,-30.2134,-9.12502,-0.270637,-1.72202,-5.06098,-24.7256,-19.6646
531.768,30.7599,-3.48154,0,-0.316143,6.74198,-1.06578,1.18902,-75.7317,-44.878,-8.91905,0.0191602,-1.82979,-2.9878,-17.0732,-24.1159
531.779,29.5524,-3.85488,0,-0.119751,6.69887,-1.35319,-6.58537,-93.7805,-58.3537,-8.64602,0.344883,-1.9735,-4.72561,-6.34146,-25.9756
531.788,28.3658,-4.22907,0,0.862207,6.90005,-1.96871,-7.68293,-120.305,-75.3049,-8.54064,0.58199,-1.99505,-12.1341,6.0061,-29.4512
531.798,27.2388,-4.59419,0,2.72314,7.80297,-2.4549,-18.75,-125.579,-96.3719,-8.55262,0.862207,-2.03577,-20.7012,12.1341,-30.2134
531.808,26.1444,-4.9524,0,4.48348,8.24845,-2.09564,-41.5549,-110.335,-114.299,-8.66997,1.18074,-2.08846,-29.6341,19.4512,-32.5305
531.818,25.1813,-5.23025,0,6.10251,7.68322,-1.28613,-62.1037,-89.8781,-123.415,-8.80649,1.43941,-1.84896,-40.3963,22.561,-33.0183
531.828,24.3797,-5.47245,0,7.1659,6.8282,-0.476609,-72.8659,-74.0244,-125.061,-8.90468,1.67891,-1.76752,-49.3598,24.1159,-33.5366
531.839,23.7002,-5.72227,0,8.48555,6.66534,-1.03944,-71.7683,-79.5122,-125.396,-9.02204,1.84896,-1.85854,-53.689,28.4756,-33.9634
531.849,23.0938,-5.94126,0,9.8124,7.12518,-2.77343,-64.9085,-90.9146,-123.75,-9.1346,1.83698,-1.78908,-56.7988,34.5122,-32.1037
531.859,22.5716,-6.14454,0,10.095,7.37666,-5.13732,-53.2317,-95.2744,-116.037,-9.45793,1.51844,-1.81782,-59.5122,39.3902,-33.5061
531.868,22.1354,-6.34635,0,10.0902,7.44372,-6.81623,-41.5244,-80.6402,-107.805,-9.80281,1.00591,-1.90644,-61.0671,47.5915,-37.4695
531.879,21.7668,-6.52573,0,10.3393,8.1766,-6.79228,-30.5488,-49.2073,-97.8659,-10.1477,0.493374,-1.89925,-64.3598,55.6098,-44.0549
531.889,21.5418,-6.70492,0,10.6866,8.4161,-6.057,-13.4451,-15.6402,-84.2073,-10.4806,0.0574805,-1.99266,-62.0427,57.6829,-47.4695
531.898,21.5546,-6.87957,0,10.507,7.8868,-5.66901,7.13415,-1.4939,-63.1098,-10.871,-0.371228,-2.07888,-50.8841,58.4451,-44.8476
531.909,21.8927,-7.10205,0,11.2805,7.31439,-5.94204,26.4634,1.21951,-37.9268,-11.4051,-1.06578,-2.46687,-34.6341,59.2073,-38.2622
531.918,22.4143,-7.40529,0,11.065,7.34792,-5.27623,30.3963,8.84146,-17.2256,-11.6206,-1.76752,-2.98898,-19.0854,67.6829,-31.5854
531.928,22.9543,-7.78323,0,9.57289,7.78381,-4.48587,27.1646,20.8841,-3.17073,-11.3165,-1.64538,-3.36021,-9.81707,83.1098,-26.4024
531.938,23.5043,-8.12463,0,7.7431,7.95625,-3.58055,25.6402,34.8171,-0.0609756,-10.9428,-0.950823,-3.1255,-8.62805,93.75,-14.9695
531.949,23.6975,-8.42432,0,6.18155,8.59573,-2.62734,26.9512,49.5427,-5.30488,-10.962,-0.301772,-2.97701,-16.7988,100.793,-7.53049
531.958,23.5764,-8.64739,0,4.91698,9.85311,-1.88728,26.7378,69.7256,-18.1098,-11.3045,0.402363,-2.72793,-35.4573,99.1159,-8.01829
531.968,23.0578,-8.79519,0,3.16861,10.8446,-1.95434,23.811,66.8293,-38.0488,-11.6278,0.934058,-2.44771,-56.7683,99.4512,-17.2256
531.978,22.235,-8.81048,0,3.10634,12.8349,-2.47645,10.6707,44.6646,-64.6646,-11.8721,1.52802,-1.81782,-75.5793,96.189,-28.4146
531.988,21.3066,-8.72429,0,5.07505,15.3185,-2.0693,-22.378,35.2439,-86.7683,-12.2433,1.83219,-1.32445,-90.8232,92.8963,-37.1341
531.998,20.5537,-8.42392,0,7.60179,16.0514,-0.0598755,-61.6768,41.7378,-85.061,-13.0385,1.69088,-0.174836,-98.8415,74.9695,-42.7439
532.008,20.1417,-7.99114,0,9.13221,16.0131,0.651445,-74.3902,56.4329,-60.7012,-13.666,1.11847,0.65384,-98.5671,47.3171,-44.5732
532.019,19.9728,-7.5964,0,7.48683,14.6599,0.361648,-55.8232,38.0183,-31.3415,-14.5378,-0.440684,0.55325,-88.811,40.8841,-46.128
532.028,19.9311,-7.32731,0,6.251,11.5799,-0.579595,-25.3659,37.8049,-21.372,-14.3581,-2.41897,-0.138911,-93.0183,49.9085,-48.7805
532.038,19.4932,-6.98572,0,1.76273,7.12997,-1.18553,5.27439,48.2927,-32.3476,-12.89,-2.49801,0.323328,-106.799,27.8963,-35.3049
532.048,18.2784,-6.41324,0,-1.78908,6.14323,-1.79866,29.4207,60.9451,-51.0366,-10.7776,-1.46096,1.40827,-100.152,5.15244,-0.579268
532.058,16.6625,-5.7452,0,-3.88951,7.03178,-2.18426,39.0244,66.3719,-68.5061,-8.97893,-1.14961,1.64298,-109.787,-17.561,37.7134
532.069,14.932,-4.94329,0,-4.1817,7.5012,-2.72074,30.0915,59.8171,-83.1098,-8.1287,-0.637075,2.07648,-125.884,-35.4268,61.2195
532.078,13.2172,-4.17625,0,-3.73623,7.97781,-2.54351,9.17683,48.5976,-93.2927,-7.63532,-0.237107,1.92799,-144.421,-51.4939,66.4939
532.089,11.5701,-3.70196,0,-3.19017,8.25084,-2.00463,-13.5061,37.7744,-97.9573,-6.43542,-1.24302,0.857417,-153.872,-42.8049,64.9695
532.099,9.98608,-3.10878,0,-3.27639,8.57896,-0.943638,-28.7195,19.5427,-95.3659,-8.09038,0.617915,1.55676,-164.421,-77.8659,51.4939
532.108,8.58544,-2.86392,0,-3.18298,9.27112,-0.354463,-37.9573,-12.7134,-83.8719,-8.62926,0.409548,0.414338,-159.695,-65.7927,32.5305
532.118,7.48257,-2.81274,0,-2.54351,9.69983,-0.474214,-42.1646,-46.128,-65.0305,-9.58247,-0.0814307,-0.308958,-141.951,-55.6098,6.85976
532.128,6.78645,-2.87346,0,-0.981958,9.80042,-1.42025,-38.628,-66.1281,-44.0854,-10.5381,-0.835862,-0.843047,-123.902,-46.0366,-22.378
532.138,6.42928,-2.98177,0,0.64426,8.97414,-2.71595,-30,-69.5427,-30.9756,-11.1129,-1.59508,-1.13045,-100.579,-40.3354,-44.3293
532.148,6.29707,-3.10217,0,1.99266,8.48316,-4.09788,-23.689,-58.5061,-27.3476,-11.0219,-2.41178,-1.2023,-74.1463,-41.0976,-56.5549
532.159,6.20639,-3.21432,0,2.75427,8.66758,-4.88344,-20.3049,-41.6463,-32.378,-10.6914,-2.91474,-1.14961,-49.6646,-41.0061,-59.9085
532.169,6.10245,-3.33719,0,3.5111,8.93821,-4.53138,-18.3537,-24.939,-41.7073,-9.8603,-3.30273,-1.12805,-32.1341,-42.2866,-61.9817
532.178,5.91074,-3.45434,0,3.30513,8.71787,-3.40093,-15.3963,-14.2073,-49.4817,-8.91666,-3.22849,-1.01549,-16.5549,-40.7622,-59.3598
532.188,5.64915,-3.59084,0,2.96743,8.91666,-2.34472,-13.3537,-4.08537,-52.1951,-8.49992,-2.90995,-1.05381,-0.396341,-33.5366,-57.3476
532.198,5.27326,-3.70959,0,1.72202,9.07712,-0.926873,-12.378,-7.31707,-48.75,-8.35622,-2.53154,-0.986748,14.0549,-29.2988,-61.0976
532.208,4.89975,-3.83106,0,1.32445,9.48907,-0.296982,-14.8476,-7.59146,-43.5671,-8.19815,-2.34233,-0.996328,17.9573,-30.7622,-56.5549
532.219,4.56557,-3.94527,0,1.27894,9.82437,0.0239502,-18.2622,-7.9878,-39.2378,-8.47837,-2.02858,-1.02267,26.128,-32.8963,-53.7195
532.229,4.27306,-4.06103,0,1.47054,10.0615,-0.150886,-22.1341,-7.71341,-37.5,-8.72745,-1.80345,-1.07536,33.1402,-31.4634,-48.872
532.238,4.00942,-4.16898,0,1.65496,10.1046,-0.560435,-25.2134,-10.3049,-37.1646,-8.9454,-1.54239,-1.08734,36.8902,-28.9939,-44.5732
532.248,3.74445,-4.2865,0,1.60945,9.94173,-1.0107,-27.5915,-19.4512,-37.622,-9.08191,-1.23583,-1.15679,44.5732,-24.6951,-36.7988
532.258,3.46876,-4.43753,0,1.54958,9.56571,-1.47533,-27.0732,-29.1768,-39.2683,-9.05317,-0.785566,-1.30529,51.5549,-21.0061,-23.0793
532.269,3.16603,-4.60577,0,1.40348,9.06754,-1.91362,-24.0244,-34.8171,-41.7683,-8.82325,-0.332908,-1.36277,58.2927,-18.9939,-2.62195
532.278,2.81262,-4.76533,0,1.10889,8.68434,-2.33035,-19.1768,-36.311,-44.4512,-8.7059,-0.114961,-1.33642,61.7683,-18.5976,16.2195
532.289,2.43577,-4.89144,0,1.0562,8.63165,-2.62015,-14.6646,-33.5061,-46.9512,-8.57656,-0.0239502,-1.21427,59.0549,-21.9512,33.0793
532.299,2.05601,-5.00314,0,1.1041,8.72027,-2.56986,-11.4939,-28.9329,-48.5061,-8.66279,-0.00718506,-1.19511,54.4817,-28.8415,39.4817
532.308,1.68417,-5.1308,0,1.19751,8.82804,-2.17228,-12.1341,-25.5793,-49.5122,-8.69392,-0.136516,-1.28134,49.2073,-31.7378,39.3293
532.318,1.36146,-5.24079,0,1.56634,9.15856,-1.76752,-16.2805,-22.7134,-49.2988,-8.8496,-0.289797,-1.25499,42.6829,-32.9573,37.6829
532.328,1.12083,-5.42674,0,2.1651,9.31663,-1.30768,-21.25,-16.6768,-48.4756,-8.77775,-1.00112,-1.56874,38.2012,-39.6951,35.7317
532.338,0.926761,-5.52851,0,2.52675,9.26154,-1.1065,-24.9085,-11.372,-48.6585,-9.34297,-0.711321,-1.34361,32.1646,-37.7439,31.6768
532.349,0.710412,-5.6953,0,2.43573,9.12981,-1.152,-26.5854,-6.79878,-50.6707,-9.21843,-0.881367,-1.60706,30.9756,-30.0305,30.3049
532.36,0.441222,-5.91803,0,2.18905,9.16095,-1.40588,-25.7622,-3.10976,-53.4451,-9.03162,-1.13763,-1.8274,28.3232,-23.9939,30.3354
532.369,0.0888543,-6.20886,0,1.73399,9.20406,-1.78189,-23.0183,1.0061,-56.8293,-8.97414,-1.27894,-2.12678,28.5671,-14.2073,34.0854
532.379,-0.370418,-6.5591,0,1.11129,9.49625,-2.10522,-21.9512,1.89024,-60.3049,-8.68434,-1.43941,-2.34233,30.9451,-9.11585,38.3232
532.389,-0.860482,-7.45882,0,0.998723,9.68785,-2.4501,-21.5244,2.37805,-62.7744,-8.464,-1.46815,-2.54591,34.4512,-1.31098,43.1707
532.399,-1.35647,-7.87971,0,0.924478,9.81,-2.65847,-23.7805,-0.0914634,-63.3537,-8.21731,-1.48731,-2.66566,39.7866,6.58537,48.628
532.409,-1.83219,-8.31201,0,0.938848,9.70222,-2.67763,-27.7439,-4.78659,-62.5915,-8.0784,-1.51844,-2.73751,45.7622,15.4573,54.8476
532.419,-2.23256,-8.63509,0,1.30768,9.45075,-2.54351,-32.0122,-10.5793,-60.6707,-8.02332,-1.50647,-2.3567,49.8171,20.4878,57.9573
532.429,-2.49436,-8.85526,0,1.99984,9.39566,-2.50759,-35.8232,-14.9085,-55.7927,-8.15265,-1.54958,-2.04774,55.4268,19.2683,61.0976
532.439,-2.65675,-9.04355,0,2.33275,9.20885,-2.20102,-37.561,-19.6646,-50.6707,-8.35622,-1.79626,-2.00703,58.4451,21.0671,62.4085
532.449,-2.69752,-9.21251,0,2.75427,8.95258,-2.09325,-36.6463,-20.8841,-44.4817,-8.68913,-1.9711,-2.03337,66.8902,28.1402,60.8232
532.458,-2.65678,-9.31928,0,2.86444,8.74661,-1.96152,-34.2683,-24.0854,-38.3537,-9.05557,-1.86812,-1.88009,71.0671,36.311,59.0549
532.469,-2.50677,-9.32302,0,3.23088,8.64842,-2.28245,-32.0732,-25.1829,-31.9207,-9.616,-1.61903,-1.55916,73.8719,41.189,60.061
532.479,-2.24913,-9.1576,0,3.50152,8.66758,-2.67763,-30.8232,-24.7866,-23.7195,-10.4279,-1.25978,-0.902922,64.2988,39.8171,60.4878
532.488,-1.91571,-8.87185,0,3.48715,8.60052,-2.80457,-28.9024,-19.4207,-15.6098,-11.2877,-0.807122,-0.352068,39.9695,31.3415,56.1585
532.499,-1.45217,-8.86719,0,3.72426,8.5574,-3.06802,-28.9024,-10.3354,-5.18293,-11.0865,-0.294587,-1.66693,14.9085,41.128,57.6829
532.508,-0.910588,-9.08257,0,3.52786,8.44244,-2.94348,-27.0732,-0.457317,4.17683,-11.0339,1.12326,-2.74469,-1.06707,68.1098,64.0244
532.518,-0.373785,-9.37722,0,3.01533,8.54064,-2.31838,-22.9573,6.0061,13.2317,-10.7488,1.08494,-3.09676,-9.72561,91.2195,71.189
532.528,0.204901,-9.6034,0,2.9794,9.31902,-2.08846,-16.8902,6.85976,22.1037,-10.7944,0.62031,-2.81175,-6.89024,98.7195,69.0854
532.538,0.812009,-9.79046,0,2.85007,10.1932,-2.29682,-12.9268,0.121951,30.4878,-11.2015,0.292192,-2.75667,-4.60366,101.311,61.6768
532.548,1.47549,-9.85481,0,3.03209,10.8734,-2.94108,-10.3354,-7.65244,37.561,-12.1044,0.143701,-2.33275,-0.792683,102.5,53.9329
532.558,2.21819,-9.71192,0,3.17101,10.6435,-3.27878,-6.92073,-12.9268,44.939,-13.4696,-0.0862207,-1.36037,-2.37805,96.8293,44.2073
532.569,3.09481,-9.32436,0,3.51589,9.65432,-3.33147,-1.76829,-14.5122,53.1402,-15.3808,-0.227527,0.126936,-17.1341,80.3963,26.7378
532.578,4.15109,-8.86562,0,3.90149,8.80649,-3.55421,5.73171,-12.5915,65.3354,-17.6178,-0.136516,0.778381,-33.3537,54.5427,6.70732
532.588,5.35799,-8.63736,0,3.8943,8.72985,-3.2716,15.2439,-8.5061,82.561,-18.2836,0.711321,-0.900527,-35.7622,56.9207,-7.13415
532.598,6.71206,-8.60027,0,3.93262,9.81479,-3.2237,21.25,2.19512,104.543,-16.0634,0.969983,-2.05253,-28.4451,84.6646,-4.35976
532.609,8.19441,-8.46161,0,3.55181,10.5668,-2.95785,15.122,11.2805,127.043,-13.2109,-0.457449,-1.08494,-18.0183,81.6159,-1.15854
532.618,9.81962,-8.22718,0,3.37219,9.83395,-1.62143,5.82317,2.40854,143.933,-10.8135,-1.81782,-0.421523,0.884146,62.4695,-13.7195
532.628,11.5836,-7.84593,0,3.32668,8.71069,-0.862207,5.06098,-11.9207,157.378,-8.9454,-2.5962,0.249082,21.372,39.3293,-26.7378
532.638,13.3225,-7.41095,0,2.43094,8.55022,0.227527,7.71341,-21.4024,168.689,-7.48923,-2.52435,0.426313,42.0427,24.1768,-30.3659
532.648,14.88,-6.90121,0,0.704136,8.2245,0.946033,11.5549,-22.7439,176.128,-6.924,-2.12199,0.60115,62.0122,6.37195,-21.8293
532.659,16.1988,-6.47412,0,-0.895737,8.28916,1.30529,27.7439,-22.8659,177.53,-6.7803,-1.64059,0.452659,84.7866,-10.122,-8.35366
532.668,17.4964,-6.05166,0,-0.941243,9.92017,1.09692,44.878,-30.1524,176.524,-6.98388,-1.09692,0.498164,97.5,-23.0183,3.87195
532.678,18.8149,-5.63183,0,-0.893342,11.5248,-0.198787,55.5793,-45.061,179.299,-7.42935,-0.55325,0.574805,97.4085,-25.4268,16.189
532.688,20.0998,-5.19884,0,-0.359253,13.3427,-0.941243,51.0366,-68.2317,172.652,-8.4137,0.239502,0.759221,83.1707,-29.5122,19.2683
532.698,21.3569,-4.93469,0,1.346,14.1809,-1.35798,46.7683,-89.4512,158.232,-8.33227,-1.49689,0.189207,71.4939,-34.5122,28.3841
532.708,22.6566,-4.82021,0,3.94939,13.4313,-2.44531,59.4512,-86.3719,142.774,-9.46272,0.172441,-0.354463,55.6098,-20.4878,26.311
532.718,23.9823,-4.64528,0,5.95162,11.8625,-2.41178,71.4329,-69.5122,127.134,-10.8997,2.6441,-0.107776,42.8354,-33.1098,21.3415
532.728,25.2894,-4.47515,0,6.72761,10.3944,-1.43222,75.9146,-47.561,115.152,-11.1464,2.26808,-0.105381,32.622,-38.9024,19.1463
532.739,26.4926,-4.32005,0,6.14562,10.2603,-0.270637,77.9268,-25.0915,111.28,-10.6842,1.9735,-0.138911,13.3537,-37.6524,20.2744
532.748,27.5984,-4.18594,0,5.37682,10.2124,0.543669,86.1585,0.0914634,110.244,-9.85072,1.3484,-0.191602,2.62195,-36.5549,19.2378
532.759,28.5979,-4.08978,0,4.49306,10.7632,0.895737,93.689,31.5244,112.073,-9.12263,0.811912,-0.308958,-10.9451,-36.7683,21.4024
532.769,29.6042,-4.03154,0,4.55533,10.3585,0.680186,102.256,70,112.591,-8.87355,0.57241,-0.433499,-22.2256,-35.9146,25.1524
532.779,30.5465,-4.00256,0,4.15536,10.6578,-0.296982,95.7622,99.8781,113.11,-9.04838,0.361648,-0.55325,-31.2805,-40.2744,31.7378
532.788,31.4454,-3.9633,0,4.07153,10.4878,-0.526904,87.8659,116.463,110.762,-9.45554,0.153281,-0.534089,-37.439,-44.7866,35.0305
532.798,32.2367,-3.9359,0,3.73623,10.1716,-0.61073,76.8902,122.287,103.75,-9.82677,0.162861,-0.60594,-42.1341,-51.9512,32.9878
532.808,32.9194,-3.93999,0,3.19256,9.90341,-0.684976,69.0549,125.152,98.9939,-9.93933,0.399968,-0.747246,-43.0793,-52.5915,29.7256
532.818,33.4782,-4.00369,0,2.76385,9.67827,-0.507744,60.3963,119.36,91.6768,-9.8555,0.692161,-0.998723,-42.4085,-48.0488,28.5366
532.828,33.9204,-4.06969,0,2.24892,9.57289,-0.579595,57.2561,109.299,86.4634,-9.74054,0.728086,-1.00591,-42.2866,-45.5793,25.1524
532.838,34.2452,-4.1357,0,1.79147,9.36932,-0.802332,52.0427,97.8963,80.2744,-9.61121,0.682581,-1.00112,-42.4085,-42.439,20.5183
532.848,34.487,-4.20192,0,1.80584,9.09389,-0.926873,45.7622,83.8719,71.6463,-9.41482,0.56762,-0.991538,-40.4878,-41.2195,15.6707
532.858,34.6243,-4.26759,0,1.79387,8.69871,-1.12087,41.9512,67.0427,60.6098,-9.35734,0.383203,-0.993933,-42.3171,-41.0061,7.83537
532.869,34.5956,-4.36243,0,1.57592,8.40891,-1.32205,41.0976,50.7622,46.0671,-9.30226,0.193997,-1.12087,-43.1402,-42.0427,1.25
532.878,34.3276,-4.49609,0,0.989143,8.35862,-1.45857,39.0244,35.4878,29.4817,-9.32621,-0.0119751,-1.3005,-42.9268,-40.5793,-6.4939
532.888,33.832,-4.65086,0,0.488584,8.30593,-1.54718,32.9268,18.689,12.622,-9.4268,-0.0958008,-1.42504,-41.372,-38.75,-13.5061
532.899,32.6107,-4.79586,0,-0.177231,7.91554,-1.30529,25.4878,-2.95732,-2.83537,-9.55852,-0.0263452,-1.42983,-36.3415,-39.4207,-19.8476
532.909,31.627,-4.97213,0,-1.0107,7.56347,-1.18314,17.5915,-29.0244,-18.2927,-9.6663,-0.00479004,-1.60706,-33.6585,-38.8415,-24.0854
532.918,30.4268,-5.15701,0,-1.4921,7.28325,-1.19272,11.311,-61.128,-34.2988,-9.59445,0.158071,-1.65735,-31.7378,-32.2866,-28.5976
532.929,29.0653,-5.33206,0,-1.74836,7.33834,-1.36277,-0.518293,-88.8719,-49.4817,-9.39566,0.411943,-1.60706,-37.0427,-25.9756,-32.4695
532.938,27.6284,-5.52356,0,-1.37714,8.06403,-1.74597,-5.82317,-120.823,-67.5305,-9.15616,0.60594,-1.65735,-44.2988,-18.5976,-37.1646
532.948,26.2636,-5.72705,0,0.541274,9.10586,-2.22976,-23.0183,-126.189,-89.8171,-8.84481,0.843047,-1.67172,-53.3841,-8.87195,-41.6463
532.958,25.093,-6.01607,0,3.365,9.08191,-1.45617,-47.3171,-101.646,-107.348,-8.57177,1.10171,-1.70046,-66.4024,2.80488,-45.9756
532.969,24.1088,-6.23744,0,5.33371,8.1766,-0.00718506,-67.6829,-69.0244,-116.799,-8.54303,1.346,-1.74357,-80.5793,14.2988,-51.7988
532.979,23.3526,-6.4015,0,7.18027,7.24972,1.18314,-76.0061,-47.5,-119.238,-8.59093,1.65735,-1.55676,-92.9573,22.1037,-56.0976
532.988,22.7628,-6.51661,0,8.79451,6.98148,0.455054,-71.0976,-50.8232,-117.744,-8.71308,1.78189,-1.40827,-101.189,25.6707,-57.9573
532.999,22.2632,-6.67046,0,9.6639,7.16829,-1.85854,-63.1098,-67.1646,-113.567,-8.69632,1.74836,-1.57113,-105.793,32.5,-58.6585
533.008,21.8558,-6.85217,0,9.49625,7.14434,-4.30385,-54.9085,-73.9329,-104.39,-8.76817,1.45617,-1.71483,-108.018,39.0244,-59.2073
533.019,21.5598,-6.99414,0,9.41961,6.96232,-5.84385,-41.5549,-51.128,-94.8476,-9.04838,0.938848,-1.63101,-107.622,44.2683,-59.8476
533.028,21.321,-7.05145,0,9.00048,7.30002,-6.07856,-24.2683,-13.75,-84.3598,-9.5226,0.426313,-1.37714,-107.409,42.9268,-61.7683
533.038,21.1392,-7.07461,0,8.36101,7.63293,-5.73847,-8.87195,16.5549,-72.1951,-10.0136,-0.162861,-1.30768,-104.939,39.6341,-68.5366
533.048,21.027,-7.10516,0,7.86524,7.66167,-5.45585,0.121951,27.9268,-61.6768,-10.313,-0.6251,-1.38432,-100.945,40.5793,-74.3293
533.058,21.0464,-7.18337,0,7.76705,7.23775,-5.06068,3.5061,18.75,-51.0671,-10.3944,-0.773591,-1.61664,-96.4634,48.4146,-77.5915
533.069,21.1792,-7.33734,0,7.29283,6.50727,-3.84401,4.57317,9.96951,-41.9817,-10.301,-0.876577,-1.96152,-91.7073,58.6585,-79.7561
533.079,21.3686,-7.51657,0,6.46176,6.14802,-2.51956,5.03049,13.2317,-32.1951,-10.1166,-0.862207,-2.06451,-91.8598,66.5549,-81.9207
533.088,21.5339,-7.64658,0,5.85822,7.00783,-2.0669,4.05488,20.8841,-20.9451,-9.86509,-0.65863,-1.81782,-91.4939,72.5,-85.7317
533.098,21.5881,-7.55884,0,5.50376,9.11305,-0.914897,-3.44512,32.2561,-14.0549,-9.81719,-0.373623,-0.876577,-104.268,66.4024,-91.7378
533.108,21.479,-7.31147,0,5.02715,11.4793,0.253872,-9.11585,46.189,-15.3354,-9.95131,-0.0958008,-0.182021,-122.835,53.3841,-100.152
533.118,21.1484,-6.98011,0,3.89909,12.4158,0.201182,-8.07927,38.75,-25.4878,-10.1525,0.00479004,0.227527,-142.622,45.9756,-105.122
533.129,20.6572,-6.85611,0,3.70749,13.0337,-0.435894,-4.26829,20.3354,-39.3598,-10.2243,0.0502954,-0.646655,-153.933,46.4329,-103.628
533.138,20.1588,-6.81817,0,5.25946,14.4396,-0.907712,-5.27439,20.9146,-49.5427,-10.6051,-0.00239502,-1.04902,-147.927,50.3049,-91.6159
533.149,19.8287,-6.76585,0,7.43175,15.491,-0.483794,-18.6585,45.0915,-44.8476,-11.7284,-0.270637,-1.08255,-130.579,45.1524,-72.4085
533.158,19.7324,-6.74,0,7.64011,14.7605,-0.435894,-26.9512,58.1098,-25.2134,-13.4959,-1.52084,-1.38672,-98.1098,49.7561,-47.4695
533.168,19.7459,-6.7164,0,6.00671,13.0888,-0.378413,-21.6463,38.0183,-8.65854,-16.0873,-3.32429,-1.65256,-71.5549,56.4024,-34.8171
