time,angle1,angle2,intgangle,accX1,accY1,accZ1,gyroX1,gyroY1,gyroZ1,accX2,accY2,accZ2,gyroX2,gyroY2,gyroZ2
489.107,83.8459,4.46131,0,9.51062,0.955613,-1.81542,-0.27439,-1.37195,-1.09756,-9.87706,-0.452659,0.673001,-15.2439,-4.90854,4.69512
489.117,83.8498,4.45028,0,9.60882,0.938848,-1.82979,-0.426829,-1.34146,-1.37195,-9.87946,-0.510139,0.718506,-14.0244,-5.21341,6.46341
489.127,83.8521,4.43184,0,9.59924,0.943638,-1.85614,-0.609756,-1.25,-1.40244,-9.9082,-0.495769,0.689766,-13.9024,-3.84146,6.7378
489.137,83.8592,4.42773,0,9.58726,0.912502,-1.8777,-0.335366,-1.06707,-1.43293,-9.89143,-0.519719,0.744851,-15.2134,-4.72561,6.40244
489.147,83.8644,4.42744,0,9.5705,0.926873,-1.86333,-0.27439,-0.731707,-1.37195,-9.86269,-0.469424,0.759221,-14.5427,-3.78049,6.79878
489.157,83.8697,4.41996,0,9.56092,0.893342,-1.81303,-0.792683,-0.365854,-1.70732,-9.86269,-0.390388,0.730481,-13.6585,-3.20122,6.92073
489.167,83.8742,4.41447,0,9.55373,0.922083,-1.89446,-0.548781,-0.27439,-1.43293,-9.86748,-0.411943,0.737666,-14.4512,-3.17073,6.95122
489.177,83.8812,4.40768,0,9.58247,0.902922,-1.91123,-0.182927,0.152439,-1.4939,-9.85072,-0.431104,0.730481,-15.1829,-3.07927,6.85976
489.187,83.8832,4.40849,0,9.5705,0.919688,-1.87051,-0.304878,0.304878,-1.61585,-9.86748,-0.445474,0.761616,-15.0915,-2.34756,6.61585
489.197,83.8867,4.40376,0,9.55852,0.895737,-1.8274,0.0304878,0.335366,-1.76829,-9.85311,-0.447869,0.737666,-14.6951,-3.20122,7.28659
489.207,83.8836,4.40298,0,9.54655,0.905317,-1.86093,-0.121951,0.579268,-2.10366,-9.84114,-0.431104,0.752036,-14.2988,-3.14024,7.37805
489.217,83.877,4.39813,0,9.53457,0.941243,-1.85375,-0.121951,0.792683,-1.95122,-9.84114,-0.416733,0.737666,-14.0244,-2.37805,7.37805
489.228,83.8712,4.39193,0,9.50823,0.917292,-1.85614,-0.0609756,0.762195,-2.16463,-9.83156,-0.404758,0.735271,-14.7256,-1.58537,7.92683
489.237,83.8612,4.38614,0,9.49865,0.958008,-1.79626,-0.152439,0.884146,-2.0122,-9.84114,-0.402363,0.735271,-14.2073,-1.7378,7.5
489.247,83.8457,4.38507,0,9.5202,0.974773,-1.84177,-0.243902,0.701219,-2.31707,-9.81719,-0.392783,0.747246,-14.4207,-2.22561,6.43293
489.257,83.8379,4.39243,0,9.53936,0.946033,-1.81542,-0.518293,0.487805,-2.07317,-9.8076,-0.399968,0.773591,-14.6037,-1.55488,6.52439
489.267,83.835,4.40343,0,9.55852,0.924478,-1.84417,0.0609756,0.518293,-1.98171,-9.86748,-0.402363,0.799937,-14.5427,-3.14024,6.15854
489.277,83.8289,4.41212,0,9.52739,0.960403,-1.81303,0,0.670732,-1.76829,-9.85072,-0.404758,0.787961,-15.5183,-2.13415,6.58537
489.288,83.8264,4.42068,0,9.55134,0.938848,-1.82979,-0.0609756,0.518293,-1.79878,-9.84832,-0.399968,0.790356,-14.8171,-2.53049,5.91463
489.297,83.821,4.43295,0,9.52978,0.962798,-1.84896,-0.121951,0.304878,-1.70732,-9.86269,-0.421523,0.807122,-16.7988,-2.5,6.52439
489.307,83.815,4.43828,0,9.54415,0.946033,-1.81303,-0.243902,0.426829,-1.98171,-9.89143,-0.423918,0.785566,-16.189,-2.83537,7.34756
489.317,83.8133,4.43957,0,9.5681,0.953218,-1.81782,-0.0304878,0.579268,-1.61585,-9.86988,-0.421523,0.768801,-15.5183,-2.80488,7.2561
489.327,83.8097,4.44718,0,9.55613,0.948428,-1.81542,0,0.518293,-1.79878,-9.90101,-0.402363,0.797541,-16.128,-3.65854,6.55488
489.338,83.8065,4.44511,0,9.53936,0.979563,-1.81782,0.0609756,0.762195,-1.37195,-9.86748,-0.399968,0.756826,-15.4878,-2.83537,6.95122
489.347,83.8084,4.44145,0,9.57289,0.941243,-1.81542,-0.152439,0.548781,-1.52439,-9.8579,-0.380808,0.749641,-14.8171,-2.7439,7.04268
489.357,83.8036,4.4451,0,9.54415,0.965193,-1.86093,-0.121951,0.731707,-1.67683,-9.86509,-0.385598,0.778381,-16.372,-3.78049,6.06707
489.367,83.8008,4.44728,0,9.54894,0.969983,-1.79626,0.0304878,0.640244,-1.4939,-9.87706,-0.419128,0.773591,-15.4268,-4.02439,7.2561
489.377,83.8023,4.44226,0,9.55613,0.948428,-1.82261,0,0.792683,-1.46341,-9.8555,-0.438289,0.742456,-16.372,-3.65854,6.21951
489.388,83.8054,4.44455,0,9.53457,0.946033,-1.76992,0.243902,0.762195,-1.37195,-9.84353,-0.445474,0.771196,-15.5488,-3.5061,6.55488
489.397,83.817,4.43977,0,9.54894,0.905317,-1.85375,0.182927,0.579268,-1.31098,-9.86509,-0.407153,0.744851,-15.4573,-3.07927,6.06707
489.407,83.8253,4.43472,0,9.53218,0.890947,-1.80584,0.121951,0.243902,-1.61585,-9.86509,-0.426313,0.742456,-14.4512,-3.29268,5.94512
489.417,83.8228,4.43105,0,9.53218,0.953218,-1.82979,-0.0304878,0.701219,-1.61585,-9.85311,-0.402363,0.744851,-15.2134,-4.26829,6.0061
489.427,83.8185,4.42377,0,9.54894,0.950823,-1.86093,0.152439,0.914634,-1.79878,-9.87227,-0.404758,0.730481,-16.0366,-4.14634,5.73171
489.437,83.8167,4.41835,0,9.55373,0.934058,-1.74118,0.27439,0.823171,-1.82927,-9.83395,-0.380808,0.737666,-14.7866,-2.65244,5.67073
489.447,83.8189,4.4107,0,9.55373,0.917292,-1.80824,0.0914634,0.701219,-1.7378,-9.82677,-0.404758,0.725691,-15.6402,-3.17073,6.18902
489.457,83.8151,4.4018,0,9.53936,0.958008,-1.78908,0.0914634,0.426829,-1.67683,-9.84114,-0.383203,0.720901,-16.372,-3.01829,6.37195
489.467,83.8186,4.38896,0,9.52978,0.919688,-1.76992,-0.121951,0.121951,-1.61585,-9.87467,-0.397573,0.706531,-15.5793,-2.89634,6.46341
489.478,83.8169,4.37648,0,9.54894,0.924478,-1.83458,0,0.304878,-1.92073,-9.8579,-0.407153,0.704136,-15.1524,-2.9878,6.34146
489.488,83.8119,4.37203,0,9.52739,0.936453,-1.83458,-0.152439,0.396341,-2.0122,-9.90101,-0.414338,0.737666,-15.5793,-2.80488,5.97561
489.497,83.8076,4.37168,0,9.53218,0.941243,-1.79387,-0.152439,0.27439,-1.92073,-9.87706,-0.399968,0.749641,-15.122,-4.63415,6.43293
489.507,83.8003,4.361,0,9.54894,0.962798,-1.78429,-0.182927,0.121951,-1.92073,-9.89143,-0.411943,0.708926,-15.7622,-3.44512,5.2439
489.517,83.7971,4.36063,0,9.54894,0.929268,-1.79626,-0.0609756,0.0609756,-2.0122,-9.88185,-0.440684,0.749641,-16.189,-2.89634,7.0122
489.527,83.7886,4.35525,0,9.55613,0.962798,-1.81782,-0.152439,0.152439,-2.04268,-9.89383,-0.395178,0.728086,-15.8841,-4.05488,6.46341
489.537,83.788,4.36007,0,9.56571,0.950823,-1.79626,-0.27439,0.335366,-1.61585,-9.84593,-0.378413,0.766406,-14.3902,-2.83537,5.60976
489.547,83.7774,4.35715,0,9.54894,0.984353,-1.85854,-0.0914634,0.182927,-1.95122,-9.88185,-0.421523,0.737666,-14.6341,-3.96341,5.60976
489.557,83.7769,4.36964,0,9.56331,0.938848,-1.82261,0.0914634,0.213415,-1.76829,-9.84832,-0.426313,0.799937,-15.8537,-4.26829,6.18902
489.567,83.7769,4.37982,0,9.54894,0.931663,-1.82021,-0.0304878,0.518293,-1.79878,-9.8555,-0.443079,0.792751,-14.5122,-5,6.34146
489.577,83.7722,4.38764,0,9.57289,0.965193,-1.84177,0,0.365854,-1.76829,-9.83874,-0.390388,0.783171,-15.2439,-4.39024,6.79878
489.588,83.7708,4.38626,0,9.5681,0.929268,-1.79626,0,0.365854,-1.95122,-9.87467,-0.385598,0.747246,-14.878,-5.18293,7.0122
489.597,83.7697,4.38514,0,9.54655,0.965193,-1.78908,-0.0914634,0.426829,-1.4939,-9.88904,-0.411943,0.749641,-14.8476,-4.72561,6.21951
489.607,83.7607,4.38641,0,9.51541,0.984353,-1.81063,-0.182927,0.121951,-1.82927,-9.87467,-0.402363,0.759221,-14.4207,-3.93293,6.67683
489.617,83.7571,4.39056,0,9.52739,0.972378,-1.83219,-0.0914634,0.670732,-1.58537,-9.87227,-0.380808,0.771196,-15.061,-4.54268,6.12805
489.627,83.7594,4.37714,0,9.53697,0.919688,-1.83938,-0.121951,0.304878,-1.79878,-9.88185,-0.371228,0.696951,-14.7866,-4.66463,6.06707
489.637,83.7605,4.3652,0,9.56331,0.934058,-1.85614,0.152439,0.335366,-1.7378,-9.8555,-0.397573,0.699346,-14.6341,-4.54268,4.63415
489.647,83.7593,4.35561,0,9.54415,0.967588,-1.79866,-0.0304878,0.365854,-1.4939,-9.83156,-0.407153,0.704136,-14.2988,-5.67073,5.60976
489.658,83.7548,4.34892,0,9.58247,0.969983,-1.81782,-0.0914634,0.579268,-1.7378,-9.82437,-0.399968,0.716111,-14.0549,-4.35976,5.94512
489.668,83.752,4.34253,0,9.60403,0.993933,-1.84177,-0.0914634,0.731707,-1.34146,-9.83874,-0.390388,0.718506,-15.122,-3.65854,5.82317
489.677,83.7548,4.34452,0,9.5226,0.974773,-1.83219,0.365854,1.7378,-1.12805,-9.84114,-0.364043,0.752036,-15.1524,-4.39024,6.21951
489.687,83.779,4.35505,0,9.49865,0.900527,-1.70286,0.792683,1.28049,-0.853659,-9.8603,-0.359253,0.790356,-16.5244,-4.2378,5.88415
489.697,83.7933,4.3666,0,9.4747,0.864602,-1.69328,0.487805,-0.487805,-1.58537,-9.87227,-0.390388,0.797541,-16.7073,-4.54268,4.81707
489.707,83.7965,4.37636,0,9.56331,0.943638,-1.79387,0.152439,-0.579268,-1.43293,-9.88425,-0.383203,0.792751,-16.8598,-5.03049,4.93902
489.717,83.7919,4.37631,0,9.5226,0.958008,-1.77471,-0.487805,-0.823171,-1.76829,-9.87467,-0.411943,0.752036,-16.0976,-4.05488,4.26829
489.727,83.7799,4.37996,0,9.49865,0.969983,-1.71723,-0.792683,-1.37195,-2.19512,-9.8579,-0.409548,0.766406,-15.1524,-4.02439,5.12195
489.737,83.7754,4.37708,0,9.51781,0.934058,-1.68609,-0.823171,-1.85976,-2.07317,-9.83635,-0.356858,0.737666,-15.3963,-4.14634,4.84756
489.747,83.7693,4.37323,0,9.54894,0.979563,-1.76273,-0.823171,-1.98171,-1.67683,-9.8124,-0.366438,0.730481,-14.4817,-4.81707,6.64634
489.757,83.7697,4.37006,0,9.59684,0.955613,-1.8274,-0.640244,-1.61585,-1.55488,-9.83156,-0.364043,0.735271,-13.9024,-3.87195,6.98171
489.767,83.7706,4.36909,0,9.58247,0.993933,-1.88967,-0.243902,-1.0061,-1.0061,-9.80281,-0.337698,0.742456,-14.4512,-3.23171,6.21951
489.777,83.7805,4.37955,0,9.58008,0.960403,-1.91123,0,-0.0914634,-0.884146,-9.82916,-0.373623,0.790356,-14.1159,-3.07927,5
489.787,83.7914,4.38673,0,9.58966,0.941243,-1.88967,0.152439,0.487805,-1.03659,-9.84593,-0.359253,0.780776,-15.2744,-3.5061,5.54878
489.797,83.7988,4.39369,0,9.52739,0.953218,-1.81542,0.335366,0.792683,-1.03659,-9.86988,-0.361648,0.783171,-14.2988,-4.42073,4.42073
489.807,83.8004,4.40424,0,9.51781,0.950823,-1.76992,0.396341,0.457317,-1.40244,-9.87467,-0.378413,0.799937,-14.5732,-3.84146,1.67683
489.817,83.7984,4.40949,0,9.51302,0.948428,-1.73399,0,-0.213415,-1.67683,-9.86748,-0.435894,0.778381,-15.5793,-5,2.9878
489.827,83.8028,4.41906,0,9.5226,0.941243,-1.74836,-0.0304878,-0.670732,-1.34146,-9.90101,-0.411943,0.799937,-16.1585,-6.31098,3.56707
489.837,83.7975,4.41661,0,9.56571,0.960403,-1.68849,-0.304878,-1.43293,-1.82927,-9.93215,-0.462239,0.752036,-17.8963,-5.60976,5
489.847,83.7937,4.4164,0,9.59205,0.984353,-1.80105,-0.335366,-1.4939,-1.43293,-9.86988,-0.440684,0.756826,-17.5,-5.30488,5.88415
489.857,83.7952,4.42605,0,9.63037,0.962798,-1.83219,-0.182927,-1.34146,-1.37195,-9.88664,-0.395178,0.799937,-16.5549,-6.89024,6.76829
489.867,83.7935,4.4378,0,9.616,0.969983,-1.79147,-0.213415,-0.731707,-1.4939,-9.86269,-0.380808,0.809517,-16.6159,-5.79268,6.28049
489.877,83.7968,4.43276,0,9.56331,0.960403,-1.88488,0.0609756,-0.670732,-1.21951,-9.86988,-0.349673,0.740061,-16.5244,-4.90854,6.92073
489.887,83.8005,4.4149,0,9.56571,0.955613,-1.84896,0.0304878,-0.609756,-1.25,-9.87946,-0.347278,0.687371,-15.9451,-3.81098,5.57927
489.897,83.8133,4.41377,0,9.5226,0.919688,-1.80584,-0.0304878,-0.640244,-1.09756,-9.84832,-0.354463,0.752036,-16.0671,-4.14634,5.06098
489.907,83.8215,4.41571,0,9.5226,0.948428,-1.79147,0,-0.396341,-1.0061,-9.83874,-0.407153,0.764011,-15.7317,-4.29878,5.2439
489.917,83.8379,4.40536,0,9.54415,0.926873,-1.80345,0.121951,-0.579268,-0.823171,-9.83874,-0.433499,0.713716,-14.939,-3.59756,4.26829
489.928,83.8501,4.41027,0,9.51062,0.910107,-1.85135,0.335366,-0.335366,-1.15854,-9.87946,-0.433499,0.778381,-16.0061,-3.07927,3.59756
489.937,83.8536,4.40693,0,9.53457,0.924478,-1.83458,0.0914634,-0.609756,-1.4939,-9.8579,-0.421523,0.742456,-15.6707,-4.20732,4.54268
489.947,83.8529,4.41227,0,9.54176,0.943638,-1.84417,-0.152439,-0.670732,-1.55488,-9.85311,-0.447869,0.775986,-15.3963,-1.85976,5.09146
489.957,83.8475,4.41998,0,9.55373,0.969983,-1.76752,-0.152439,-0.731707,-1.58537,-9.8076,-0.431104,0.785566,-15.5793,-3.62805,4.78659
489.967,83.8435,4.4228,0,9.5681,0.950823,-1.88728,-0.335366,-0.670732,-1.7378,-9.80521,-0.411943,0.766406,-17.0427,-3.90244,4.87805
489.977,83.8396,4.42728,0,9.55613,0.962798,-1.88249,-0.27439,-0.213415,-1.58537,-9.80281,-0.407153,0.773591,-15.7622,-4.08537,5.30488
489.987,83.8352,4.42795,0,9.51781,0.958008,-1.86572,-0.304878,0.0914634,-1.64634,-9.8124,-0.416733,0.759221,-16.372,-3.90244,3.9939
489.997,83.8296,4.41931,0,9.54415,0.981958,-1.81542,-0.243902,-0.0609756,-1.46341,-9.82916,-0.411943,0.720901,-16.4634,-4.20732,5.36585
490.007,83.832,4.42349,0,9.52739,0.934058,-1.83938,-0.152439,0.335366,-1.4939,-9.8555,-0.387993,0.775986,-15.8537,-3.5061,5.15244
490.017,83.8371,4.44488,0,9.55373,0.919688,-1.85614,-0.243902,0.0304878,-1.4939,-9.88664,-0.364043,0.850232,-15.3049,-3.32317,5.82317
490.027,83.8365,4.44793,0,9.55613,0.936453,-1.84417,0.0304878,0.304878,-1.67683,-9.89143,-0.407153,0.778381,-16.8598,-4.08537,5.64024
490.037,83.8368,4.45871,0,9.56092,0.934058,-1.8753,0.0609756,0.579268,-1.64634,-9.92017,-0.385598,0.814307,-16.5244,-4.39024,5.06098
490.047,83.8332,4.46774,0,9.57289,0.953218,-1.85135,0.182927,0.762195,-1.70732,-9.87227,-0.356858,0.804727,-16.7073,-4.39024,4.93902
490.057,83.8351,4.47958,0,9.56331,0.938848,-1.8274,0.213415,0.853659,-1.4939,-9.91059,-0.399968,0.821492,-15.061,-5.09146,3.93293
490.067,83.8308,4.48237,0,9.54655,0.979563,-1.81303,0.0609756,0.487805,-1.40244,-9.9082,-0.402363,0.783171,-16.6159,-6.12805,5.21341
490.077,83.8364,4.49305,0,9.5705,0.926873,-1.79147,-0.0914634,0.243902,-1.40244,-9.88904,-0.395178,0.816702,-17.4695,-6.03659,5.79268
490.087,83.8406,4.49101,0,9.52499,0.943638,-1.79147,0.121951,0.27439,-1.25,-9.84114,-0.414338,0.759221,-16.4329,-6.12805,6.92073
490.097,83.8512,4.48171,0,9.53457,0.948428,-1.82021,-0.152439,0.0304878,-0.823171,-9.87467,-0.411943,0.730481,-17.0732,-5.45732,5.36585
490.108,83.859,4.47061,0,9.52978,0.936453,-1.81063,-0.0609756,0.152439,-1.09756,-9.84593,-0.404758,0.718506,-16.2195,-5.88415,5.94512
490.117,83.8689,4.47199,0,9.51541,0.931663,-1.825,0,-0.0304878,-1.0061,-9.85311,-0.376018,0.771196,-16.2195,-6.03659,6.25
490.127,83.8715,4.48267,0,9.55134,0.953218,-1.86333,0.335366,0.0304878,-1.18902,-9.88664,-0.395178,0.814307,-15.9146,-6.58537,5.64024
490.137,83.8857,4.492,0,9.55852,0.893342,-1.84177,-0.0914634,0.457317,-1.18902,-9.9082,-0.419128,0.811912,-16.7378,-6.7378,6.12805
490.147,83.893,4.4864,0,9.5705,0.907712,-1.85135,-0.0609756,0.640244,-1.40244,-9.86509,-0.404758,0.744851,-15.7012,-6.64634,5.36585
490.157,83.897,4.47226,0,9.53936,0.943638,-1.81303,0.152439,0.823171,-1.15854,-9.86748,-0.376018,0.706531,-15.8841,-6.95122,6.12805
490.167,83.8724,4.47833,0,9.50823,1.08015,-1.82979,-0.0609756,0.579268,-1.31098,-9.86988,-0.399968,0.792751,-16.6463,-6.67683,6.40244
490.177,83.8931,4.4713,0,9.59205,0.871787,-1.81542,-0.243902,1.37195,-1.09756,-9.8603,-0.426313,0.735271,-15.4268,-7.37805,5.7622
490.187,83.9,4.47313,0,9.5705,0.917292,-1.83458,0.0304878,0.640244,-1.31098,-9.86269,-0.402363,0.773591,-16.1585,-6.58537,5.51829
490.197,83.9092,4.46393,0,9.53936,0.893342,-1.80105,-0.0304878,0,-1.40244,-9.88904,-0.411943,0.728086,-15.5793,-6.18902,5.85366
490.207,83.9127,4.46242,0,9.5202,0.919688,-1.77231,-0.579268,0.0609756,-1.43293,-9.87467,-0.428708,0.759221,-15.6098,-5.97561,5.94512
490.217,83.9171,4.45526,0,9.54894,0.910107,-1.82261,-0.365854,0.213415,-1.4939,-9.89383,-0.385598,0.735271,-16.372,-6.43293,6.37195
490.227,83.9291,4.44931,0,9.5226,0.871787,-1.78908,-0.396341,0.0304878,-1.43293,-9.89862,-0.380808,0.740061,-16.6159,-6.06707,6.52439
490.237,83.9364,4.44047,0,9.54655,0.907712,-1.82261,-0.243902,-0.152439,-1.31098,-9.9058,-0.380808,0.725691,-15.2134,-7.34756,4.72561
490.247,83.9389,4.42756,0,9.55613,0.881367,-1.8274,-0.0304878,0,-1.89024,-9.86988,-0.390388,0.704136,-15.122,-6.92073,5.2439
490.257,83.9432,4.41495,0,9.55852,0.893342,-1.78668,0,-0.0304878,-1.64634,-9.88664,-0.368833,0.704136,-15.6402,-7.22561,4.96951
490.267,83.9389,4.40168,0,9.54176,0.922083,-1.79626,-0.0914634,0.0609756,-1.89024,-9.86988,-0.397573,0.696951,-14.4817,-8.2622,5.2439
490.278,83.9388,4.40106,0,9.57529,0.895737,-1.84417,-0.0609756,0.213415,-1.92073,-9.89622,-0.407153,0.752036,-15.122,-8.14024,4.48171
490.288,83.9301,4.40049,0,9.54655,0.919688,-1.76513,-0.0914634,0.213415,-2.28659,-9.88904,-0.411943,0.752036,-15.3354,-7.65244,5.85366
490.297,83.9197,4.39131,0,9.53457,0.941243,-1.83938,0.182927,0.121951,-2.16463,-9.88185,-0.404758,0.713716,-14.939,-7.62195,4.5122
490.307,83.9115,4.39141,0,9.53457,0.938848,-1.83698,-0.0914634,0,-2.04268,-9.88425,-0.416733,0.752036,-16.0366,-8.68902,6.15854
490.317,83.9035,4.41117,0,9.5705,0.958008,-1.82979,0.27439,0.335366,-1.82927,-9.88425,-0.407153,0.838257,-14.878,-8.62805,5.15244
490.327,83.9058,4.42316,0,9.53697,0.910107,-1.77231,0.182927,0,-1.64634,-9.88185,-0.414338,0.807122,-15.7317,-8.9939,5.67073
490.337,83.9051,4.43477,0,9.53697,0.924478,-1.74597,0.213415,-0.213415,-1.67683,-9.87946,-0.361648,0.807122,-15.5488,-9.26829,4.93902
490.347,83.9014,4.45012,0,9.52978,0.902922,-1.78189,0.152439,-0.0609756,-2.13415,-9.87227,-0.376018,0.823887,-15.061,-10.4573,5.06098
490.357,83.8952,4.46082,0,9.54415,0.926873,-1.77231,0,0.426829,-2.07317,-9.85311,-0.359253,0.804727,-14.939,-10.3354,5.51829
490.367,83.8866,4.4656,0,9.57289,0.953218,-1.78429,0.0304878,0.457317,-1.98171,-9.84593,-0.371228,0.778381,-16.1585,-12.378,4.78659
490.377,83.8785,4.4888,0,9.53697,0.965193,-1.7795,0.0304878,-0.121951,-1.76829,-9.83635,-0.361648,0.859812,-14.6037,-11.2805,4.5122
490.388,83.874,4.50429,0,9.55613,0.950823,-1.80584,-0.243902,-0.243902,-1.70732,-9.84353,-0.395178,0.831072,-15.5183,-10.9451,4.57317
490.397,83.8759,4.5284,0,9.54894,0.934058,-1.77231,0.0609756,-0.518293,-1.46341,-9.83635,-0.421523,0.869392,-14.0244,-12.5305,4.60366
490.407,83.8749,4.55127,0,9.54176,0.938848,-1.77231,-0.0609756,-0.365854,-1.58537,-9.85311,-0.409548,0.869392,-15.1524,-12.8049,5.39634
490.417,83.8708,4.55931,0,9.55134,0.936453,-1.80345,0.152439,-0.304878,-1.85976,-9.84353,-0.423918,0.807122,-14.3902,-13.5061,4.11585
490.427,83.8745,4.58408,0,9.5681,0.924478,-1.85135,-0.0914634,-0.396341,-1.46341,-9.86509,-0.385598,0.883762,-13.75,-13.2927,4.57317
490.437,83.8716,4.60489,0,9.53936,0.953218,-1.77471,0.152439,-0.426829,-1.55488,-9.83395,-0.409548,0.866997,-14.6037,-14.3902,5.12195
490.447,83.8649,4.63605,0,9.55373,0.989143,-1.8274,0.213415,-0.243902,-1.37195,-9.8579,-0.378413,0.917292,-15.3963,-15.2744,4.87805
490.457,83.8672,4.65601,0,9.55613,0.955613,-1.82979,0.152439,-0.243902,-1.18902,-9.84832,-0.364043,0.871787,-15.0305,-16.4024,5.18293
490.467,83.8674,4.67681,0,9.54415,0.934058,-1.825,0.365854,-0.213415,-1.58537,-9.8603,-0.373623,0.881367,-16.311,-14.8476,3.71951
490.477,83.8682,4.70186,0,9.55134,0.946033,-1.79866,0.731707,-0.152439,-1.40244,-9.8579,-0.399968,0.900527,-15.7622,-18.1707,5.03049
490.487,83.861,4.73559,0,9.54894,0.996328,-1.86333,0.640244,-0.304878,-1.31098,-9.85072,-0.421523,0.941243,-14.8476,-19.2988,5.42683
490.497,83.863,4.75128,0,9.55852,0.950823,-1.8274,0.853659,-0.0304878,-1.28049,-9.8603,-0.404758,0.869392,-16.0061,-18.811,6.12805
490.507,83.8666,4.76756,0,9.57529,0.962798,-1.82261,1.09756,0.365854,-1.03659,-9.83635,-0.395178,0.871787,-15.5183,-19.6646,6.89024
490.517,83.88,4.79105,0,9.53697,0.914897,-1.85375,0.97561,0.487805,-1.0061,-9.83635,-0.428708,0.905317,-15.3963,-20.6402,7.5
490.527,83.8916,4.82599,0,9.52499,0.929268,-1.80824,1.28049,0.487805,-0.914634,-9.86509,-0.385598,0.960403,-14.6646,-22.8354,7.37805
490.537,83.9047,4.87425,0,9.54655,0.922083,-1.74597,1.55488,0.396341,-0.914634,-9.90341,-0.359253,1.02746,-14.878,-24.5732,8.17073
490.547,83.9101,4.91106,0,9.48188,0.977168,-1.78908,1.82927,-0.426829,-0.487805,-9.90341,-0.352068,0.984353,-15.9451,-25.7317,9.11585
490.557,83.9288,4.94556,0,9.58726,0.912502,-1.82261,1.7378,0.579268,-0.731707,-9.92257,-0.373623,0.981958,-14.6341,-26.372,11.2195
490.568,83.9436,4.96056,0,9.54415,0.934058,-1.81063,1.58537,0.152439,-0.609756,-9.91059,-0.387993,0.900527,-14.7866,-26.7683,10.9146
490.577,83.9567,4.98589,0,9.55373,0.934058,-1.76752,1.43293,-0.152439,-0.670732,-9.89383,-0.395178,0.946033,-13.75,-27.9573,11.7073
490.587,83.9682,5.0179,0,9.5681,0.922083,-1.78908,1.46341,-0.0609756,-0.884146,-9.93215,-0.419128,0.979563,-14.2378,-32.6524,11.3415
490.597,83.9708,5.05517,0,9.58247,0.943638,-1.83458,1.4939,0.0609756,-1.12805,-9.95849,-0.397573,1.0083,-13.9634,-35.8537,12.3171
490.607,83.9818,5.09301,0,9.59205,0.922083,-1.87051,1.15854,-0.182927,-0.884146,-9.9561,-0.433499,1.01549,-14.5427,-37.7439,12.2561
490.617,83.9875,5.11785,0,9.58487,0.958008,-1.86093,1.40244,0.27439,-0.701219,-9.96089,-0.457449,0.965193,-14.0854,-37.5305,13.3537
490.627,84.0007,5.15491,0,9.5202,0.917292,-1.7771,1.34146,-0.121951,-0.762195,-9.87706,-0.526904,1.01309,-12.5,-39.878,13.2317
490.637,84.0283,5.18358,0,9.51062,0.840652,-1.80824,1.21951,-0.0609756,-0.884146,-9.8579,-0.514929,0.979563,-12.4695,-41.2195,13.7195
490.647,84.0444,5.20764,0,9.56571,0.876577,-1.85135,0.945122,0.365854,-1.0061,-9.83635,-0.493374,0.960403,-11.6159,-43.3841,13.4451
490.657,84.0572,5.23459,0,9.54655,0.910107,-1.85135,0.884146,0.670732,-0.762195,-9.85072,-0.455054,0.977168,-12.0427,-45.061,13.75
490.667,84.0628,5.26612,0,9.58008,0.902922,-1.80824,0.853659,0.304878,-1.25,-9.90341,-0.411943,1.00591,-10.122,-46.7073,13.4451
490.677,84.0757,5.30034,0,9.54176,0.876577,-1.78429,0.609756,0.243902,-1.09756,-9.93454,-0.414338,1.02507,-9.35976,-48.3232,14.0549
490.687,84.0913,5.34686,0,9.55613,0.852627,-1.78668,0.518293,0.243902,-1.18902,-9.96807,-0.385598,1.08734,-9.42073,-50.4573,15.6402
490.697,84.1057,5.38958,0,9.58487,0.859812,-1.83219,0.670732,1.03659,-1.15854,-9.98963,-0.426313,1.08015,-9.66463,-51.4024,15.6098
490.707,84.114,5.40366,0,9.63516,0.874182,-1.86093,0.457317,1.0061,-1.34146,-9.91778,-0.395178,0.953218,-11.3415,-51.5244,13.6585
490.717,84.1179,5.43006,0,9.58966,0.878972,-1.86812,0.0304878,1.4939,-1.52439,-9.85311,-0.399968,1.00351,-12.1646,-51.5244,16.128
490.727,84.1188,5.47613,0,9.54415,0.878972,-1.85614,0.335366,1.64634,-1.67683,-9.91778,-0.383203,1.09931,-10.061,-54.2378,16.0061
490.737,84.12,5.53489,0,9.6184,0.874182,-1.81303,0.182927,2.16463,-1.76829,-9.97286,-0.409548,1.16637,-10.8841,-58.4451,16.0061
490.747,84.1178,5.57239,0,9.53697,0.855022,-1.75315,0.243902,1.85976,-2.16463,-9.99202,-0.385598,1.08255,-10.5488,-60.3049,16.4329
490.757,84.1135,5.6192,0,9.54655,0.866997,-1.79147,0.0914634,1.85976,-2.19512,-9.97765,-0.347278,1.12805,-12.1037,-61.4634,15.8841
490.767,84.0974,5.6752,0,9.54415,0.874182,-1.72202,-0.182927,1.52439,-3.10976,-9.98963,-0.366438,1.17595,-10.0915,-64.5122,15.6098
490.777,84.0812,5.72345,0,9.55852,0.883762,-1.75794,-0.243902,1.4939,-3.04878,-10.004,-0.368833,1.152,-8.96341,-65.6098,16.2805
490.787,84.0654,5.7801,0,9.59924,0.900527,-1.74357,-0.365854,1.12805,-2.89634,-9.99202,-0.347278,1.19511,-7.5,-67.3781,16.372
490.797,84.0492,5.83534,0,9.58487,0.886157,-1.71244,-0.823171,0.670732,-3.10976,-9.98244,-0.390388,1.19751,-7.83537,-67.561,17.6524
490.807,84.0324,5.87948,0,9.5681,0.905317,-1.77471,-0.731707,-0.0914634,-2.95732,-9.98484,-0.416733,1.15679,-6.89024,-68.9939,18.0793
490.817,84.0146,5.91781,0,9.50583,0.912502,-1.77471,-1.09756,-0.945122,-2.92683,-9.92975,-0.371228,1.13045,-5.79268,-71.2195,18.628
490.827,83.9984,5.98861,0,9.50823,0.890947,-1.72202,-1.18902,-1.31098,-3.07927,-9.89383,-0.354463,1.27415,-3.84146,-74.2378,18.5976
490.837,83.9882,6.07089,0,9.51541,0.881367,-1.74836,-1.61585,-1.40244,-2.71341,-9.97047,-0.311353,1.34361,-4.02439,-79.1159,20.4878
490.848,83.9651,6.14106,0,9.51781,0.934058,-1.71483,-1.98171,-1.98171,-3.2622,-10.0639,-0.304167,1.31008,-2.59146,-86.0671,19.4817
490.857,83.9405,6.21834,0,9.50823,0.948428,-1.78908,-1.85976,-2.0122,-3.2622,-10.1022,-0.239502,1.35558,-2.62195,-90.9146,17.7439
490.867,83.9234,6.30802,0,9.6663,0.931663,-1.8753,-2.89634,-1.58537,-2.9878,-10.1597,-0.217947,1.42743,-2.65244,-98.0183,16.1585
490.877,83.8947,6.39941,0,9.52739,0.986748,-1.76034,-2.34756,-2.7439,-3.29268,-10.1597,-0.222737,1.44659,-3.78049,-103.506,14.9695
490.887,83.8661,6.48885,0,9.53697,0.967588,-1.79866,-2.59146,-2.80488,-3.59756,-10.1285,-0.210762,1.4442,-4.35976,-109.695,13.3232
490.897,83.8405,6.58703,0,9.56331,0.948428,-1.84177,-2.62195,-2.40854,-3.62805,-10.095,-0.160466,1.4897,-4.57317,-115.915,12.3171
490.907,83.8159,6.68555,0,9.57529,0.958008,-1.8777,-2.53049,-1.7378,-3.47561,-10.1094,-0.191602,1.50647,-4.39024,-121.098,10.5183
490.917,83.7933,6.75208,0,9.55852,0.958008,-1.86333,-2.34756,-1.12805,-3.32317,-10.0926,-0.126936,1.37235,-4.42073,-125.701,10.1524
490.927,83.7765,6.83844,0,9.5681,0.919688,-1.83938,-1.95122,-1.03659,-3.29268,-10.0471,-0.136516,1.46336,-4.78659,-130.518,10.5183
490.937,83.758,6.9436,0,9.5681,0.914897,-1.83698,-1.98171,-1.12805,-3.53659,-10.0878,-0.170046,1.56395,-5.73171,-137.683,10.4268
490.948,83.739,7.0685,0,9.57529,0.907712,-1.84896,-1.21951,-0.701219,-3.71951,-10.1118,-0.162861,1.67172,-7.53049,-143.506,9.96951
490.957,83.7121,7.18146,0,9.57289,0.917292,-1.87291,-1.12805,-0.609756,-4.39024,-10.107,-0.189207,1.6334,-8.32317,-149.665,9.90854
490.967,83.6914,7.3037,0,9.62319,0.855022,-1.86572,-0.640244,0.426829,-4.63415,-10.083,-0.100591,1.68849,-8.96341,-153.902,8.9939
490.977,83.661,7.44371,0,9.5705,0.864602,-1.89686,-0.426829,1.37195,-5.45732,-10.0758,-0.0287402,1.78668,-10.3049,-158.384,8.9939
490.987,83.621,7.60267,0,9.43159,0.855022,-1.76513,-0.579268,0.853659,-6.46341,-10.0279,-0.0167651,1.88488,-12.0732,-164.207,9.57317
490.997,83.5786,7.76082,0,9.50104,0.864602,-1.71483,-0.609756,1.03659,-6.7378,-10.0184,0.0287402,1.90404,-14.2378,-168.75,9.84756
491.007,83.5378,7.93169,0,9.55852,0.835862,-1.83219,-0.365854,1.95122,-7.07317,-9.98244,0.0694556,1.98068,-14.6951,-172.378,11.128
491.017,83.497,8.10826,0,9.60403,0.814307,-1.86333,0.426829,3.07927,-7.46951,-9.92975,0.0646655,2.02379,-16.6159,-175.915,12.2866
491.027,83.4425,8.26772,0,9.55613,0.878972,-1.73639,0.823171,2.53049,-8.10976,-9.90341,0.0335303,1.9711,-17.378,-177.47,12.6524
491.037,83.3833,8.45071,0,9.57289,0.883762,-1.80345,0.914634,2.53049,-8.65854,-9.82916,-0.0215552,2.08846,-18.0488,-180.427,14.5732
491.047,83.3239,8.6516,0,9.53457,0.878972,-1.74118,1.89024,2.16463,-8.81098,-9.8603,-0.126936,2.20342,-16.3415,-187.317,13.9329
491.057,83.2513,8.84565,0,9.5705,0.946033,-1.78429,2.68293,2.19512,-9.5122,-9.8579,-0.287402,2.20342,-15.7012,-192.439,15.4573
491.067,83.1696,9.05715,0,9.6184,0.981958,-1.86812,2.62195,2.92683,-10.2134,-9.84114,-0.330513,2.3088,-14.0549,-198.689,15.8841
491.077,83.093,9.27053,0,9.66151,0.926873,-1.99984,3.23171,4.66463,-10.5793,-9.86269,-0.361648,2.3567,-14.1463,-203.384,15.122
491.087,83.0046,9.50764,0,9.64953,1.01549,-2.02858,3.56707,6.37195,-10.8537,-9.75491,-0.356858,2.47166,-14.2988,-210.091,14.8476
491.097,82.9088,9.72274,0,9.616,1.04183,-1.93997,3.65854,7.7439,-11.4329,-9.78126,-0.395178,2.41657,-8.68902,-214.512,12.6829
491.107,82.809,9.98417,0,9.65672,1.10171,-1.76273,3.14024,7.2561,-11.372,-9.74533,-0.232317,2.65608,-9.39024,-218.018,11.6463
491.117,82.6964,10.2446,0,9.65672,1.19751,-1.84656,1.76829,8.20122,-11.7378,-9.77647,-0.253872,2.70398,-10.4878,-222.317,9.63415
491.127,82.5919,10.4804,0,9.8124,1.11129,-2.10522,0.640244,12.2866,-12.378,-9.80042,-0.246687,2.63931,-10.9146,-227.5,6.15854
491.137,82.4768,10.7062,0,9.7142,1.16637,-2.01182,-0.518293,13.3232,-12.8963,-9.77168,-0.241897,2.62494,-9.20732,-231.799,5.60976
491.148,82.3626,10.9962,0,9.73815,1.18074,-1.9256,-0.731707,13.9024,-12.8963,-9.73336,-0.182021,2.94827,-10.4268,-237.805,2.10366
491.157,82.2569,11.3175,0,9.78366,1.10171,-1.81542,0.609756,14.6037,-13.2622,-9.73575,-0.165256,3.14227,-10.8841,-246.707,2.7439
491.167,82.1313,11.6341,0,9.74773,1.20469,-1.80345,-0.0609756,14.5732,-14.2378,-9.77168,-0.289797,3.18538,-9.69512,-254.238,-0.426829
491.177,81.997,11.9436,0,9.70941,1.20709,-1.69567,-0.396341,13.4146,-15.3049,-9.78366,-0.265847,3.20933,-7.89634,-260.183,0.701219
491.187,81.8521,12.2477,0,9.78366,1.27415,-1.58071,-2.07317,12.1951,-15.9756,-9.69983,-0.270637,3.21172,-6.98171,-263.323,0.518293
491.198,81.7263,12.5691,0,9.95131,1.14242,-1.89686,-1.18902,11.6463,-16.0976,-9.63756,-0.280217,3.32429,-3.81098,-269.177,0.762195
491.207,81.607,12.8998,0,9.88185,1.03944,-1.78908,-0.0914634,11.3415,-16.7988,-9.53457,-0.285007,3.38895,-2.80488,-273.78,0.609756
491.217,81.4831,13.2391,0,9.55852,0.986748,-1.51605,-0.304878,12.0732,-17.7439,-9.41961,-0.261057,3.44404,-1.61585,-279.329,-0.0304878
491.227,81.3506,13.5802,0,9.81958,0.965193,-1.72202,-1.18902,16.2805,-19.4512,-9.3765,-0.253872,3.49673,0.213415,-283.018,-1.89024
491.237,81.1964,13.9237,0,9.73096,1.00591,-1.29571,-0.914634,11.6768,-21.3415,-9.25196,-0.217947,3.52307,5.79268,-284.817,-0.304878
491.247,81.0417,14.2629,0,10.3034,1.11129,-1.47533,0.426829,8.20122,-21.189,-9.17532,-0.158071,3.53505,11.0976,-286.28,2.07317
491.257,80.8767,14.6044,0,10.1525,1.16637,-1.5879,1.79878,2.80488,-21.7378,-9.20166,-0.222737,3.61887,14.6646,-286.89,3.71951
491.267,80.6906,14.9507,0,9.77168,1.23344,-1.4418,0.945122,0.335366,-22.9268,-9.30944,-0.407153,3.74581,19.4817,-288.841,4.17683
491.277,80.4904,15.2821,0,9.74773,1.20948,-1.33642,0.27439,-0.0304878,-25,-9.40285,-0.589175,3.77934,26.7988,-287.5,1.43293
491.287,80.2873,15.6164,0,9.7621,1.13045,-1.18074,0.518293,-2.86585,-26.6463,-9.29747,-0.529299,3.81527,36.0061,-285.457,-0.335366
491.297,80.0758,15.9636,0,9.95131,1.04423,-1.43462,1.15854,-0.853659,-29.1768,-9.1825,-0.6251,3.8943,48.2622,-283.384,-0.0914634
491.307,79.8472,16.367,0,9.91538,1.04423,-1.33403,-0.121951,-2.77439,-31.311,-9.01964,-0.58678,4.15775,58.7195,-283.476,1.40244
491.317,79.5907,16.8618,0,9.88664,1.17595,-1.43701,-0.731707,-5.51829,-33.0488,-8.74661,-0.435894,4.54335,62.4085,-285.427,4.90854
491.327,79.3271,17.4361,0,9.94891,1.17595,-1.52802,-2.22561,-6.98171,-34.3902,-8.56699,-0.301772,4.93374,61.7988,-287.957,8.68902
491.338,79.0301,18.0476,0,9.75491,1.39151,-1.47773,-4.93902,-8.44512,-35.5183,-8.5095,-0.129331,5.20438,54.2378,-288.72,11.311
491.347,78.7293,18.6976,0,9.52739,1.31726,-1.21427,-6.21951,-13.2927,-37.0122,-8.49992,0.0263452,5.52531,42.8049,-289.909,13.75
491.357,78.4209,19.3573,0,9.69983,1.4442,-1.13763,-6.21951,-18.3537,-37.1951,-8.53106,0.268242,5.73847,29.0244,-289.024,11.25
491.367,78.1004,20.0141,0,9.92496,1.65256,-1.71004,-8.38415,-17.5915,-37.0427,-8.64602,0.445474,5.94444,15.7317,-289.39,10.3049
491.377,77.7591,20.6407,0,10.1357,1.81782,-1.7316,-11.8598,-15.5488,-38.3537,-8.73703,0.522114,5.98276,3.9939,-290.244,5.70122
491.387,77.4036,21.2536,0,10.3297,1.88249,-1.72681,-13.6585,-14.5122,-40.1829,-8.70111,0.538879,6.02108,-1.28049,-289.848,2.62195
491.398,77.0229,21.8426,0,10.6171,2.20821,-1.84417,-13.872,-13.1707,-40.5793,-8.6053,0.462239,5.95641,1.46341,-290.274,-0.609756
491.407,76.6109,22.4501,0,10.2986,2.5004,-1.90883,-15.122,-16.0976,-40.6707,-8.40173,0.383203,6.04982,8.44512,-288.262,-0.365854
491.417,76.2053,23.0938,0,9.98963,2.48364,-1.7771,-13.4451,-20.4268,-40.2134,-8.1766,0.215552,6.22466,14.0854,-288.018,1.46341
491.427,75.7849,23.7688,0,9.65911,2.60818,-1.63819,-12.5915,-21.25,-40.2134,-7.93709,0.0215552,6.36596,15.6098,-284.329,2.59146
491.437,75.3715,24.4643,0,9.44117,2.5986,-1.59987,-12.439,-19.7866,-39.7866,-7.60419,-0.0862207,6.37075,16.9207,-277.957,1.06707
491.447,74.984,25.2103,0,9.41961,2.49801,-1.60945,-11.8293,-19.1159,-39.0854,-7.25451,-0.112566,6.51924,13.2317,-274.299,0.27439
491.457,74.6175,25.999,0,9.46272,2.47166,-1.59987,-8.9939,-20.5793,-38.1707,-6.94556,-0.134121,6.65815,9.42073,-270.274,-2.40854
491.467,74.2625,26.8244,0,9.45554,2.44052,-1.67651,-8.23171,-17.378,-38.0793,-6.56475,-0.00239502,6.6845,7.31707,-267.47,-1.0061
491.477,73.9167,27.6607,0,9.4747,2.41657,-1.75315,-6.58537,-14.878,-38.2012,-6.32285,0.0766406,6.69647,6.82927,-262.713,-0.182927
491.488,73.5645,28.5197,0,9.60403,2.50519,-1.75315,-4.42073,-15.6098,-38.9329,-6.03305,0.177231,6.71803,5.73171,-257.988,2.31707
491.497,73.1871,29.3801,0,9.58247,2.81894,-1.82021,-4.11585,-13.2622,-38.5976,-5.88456,0.172441,6.76833,5.60976,-253.11,6.79878
491.507,72.8142,30.2262,0,9.52739,2.88121,-1.80345,-4.54268,-12.9268,-38.0183,-5.85582,0.107776,6.85934,8.81098,-249.177,9.02439
491.518,72.4216,31.0422,0,9.67588,3.2213,-1.82979,-3.68902,-9.35976,-37.561,-5.87498,0.00479004,6.90724,10.8232,-245.366,10.4878
491.527,72.0288,31.8198,0,9.01485,3.1734,-1.35558,-4.29878,-8.01829,-36.372,-5.82469,-0.0934058,6.81623,13.1707,-241.067,8.68902
491.537,71.7212,32.5995,0,9.55134,2.84049,-1.70765,-2.89634,-2.77439,-34.2683,-5.72889,-0.172441,6.91442,15.9146,-233.262,8.2622
491.547,71.4355,33.4011,0,9.11544,2.74709,-1.57592,-3.81098,-0.97561,-32.2256,-5.59956,-0.208367,7.09405,13.3232,-227.409,4.60366
491.557,71.1418,34.1924,0,8.21252,2.69679,-1.33882,-5.70122,-1.67683,-30.7622,-5.44627,-0.0455054,7.04615,9.84756,-219.268,5.09146
491.567,70.8661,34.9487,0,7.91554,2.61297,-1.06818,-7.0122,-0.762195,-29.3293,-5.31215,0.0886157,6.86173,6.0061,-209.817,6.37195
491.577,70.6339,35.7106,0,8.19815,2.48603,-1.49928,-7.43902,-0.731707,-28.3232,-5.21396,0.215552,6.96951,0.335366,-199.421,9.29878
491.587,70.4135,36.4943,0,8.64602,2.66805,-1.61424,-8.44512,-4.26829,-27.0122,-5.12774,0.364043,7.19943,-4.17683,-194.451,12.5305
491.597,70.1912,37.2753,0,8.7059,2.87163,-1.57113,-12.0427,-4.60366,-25.3963,-5.06547,0.471819,7.3096,-5.7622,-189.299,15.9756
491.607,69.9566,38.0235,0,8.72745,3.12071,-1.44659,-11.0366,-3.87195,-24.2073,-5.15169,0.421523,7.42696,-4.17683,-185.366,16.9207
491.617,69.6933,38.6943,0,8.70829,3.48236,-1.71962,-9.87805,-3.84146,-23.2927,-5.26186,0.256267,7.2593,-3.23171,-181.494,15.3659
491.627,69.4141,39.3068,0,8.78493,3.63803,-1.79866,-8.75,-5.94512,-24.0244,-5.37442,0.0526904,7.20661,2.40854,-176.921,11.6159
491.637,69.1592,39.8992,0,8.98611,3.49673,-1.85135,-6.58537,-3.29268,-24.6341,-5.47262,-0.0287402,7.36947,6.40244,-174.909,7.56098
491.647,68.897,40.5129,0,8.87594,3.559,-1.80105,-5.67073,-0.762195,-24.6951,-5.48699,0.0670605,7.69999,8.5061,-175.366,7.0122
491.657,68.6361,41.1251,0,8.92624,3.61169,-1.93278,-4.48171,3.68902,-24.7256,-5.46543,0.182021,7.8389,5.2439,-173.323,9.14634
491.667,68.3728,41.6991,0,8.90708,3.61169,-1.94715,-4.7561,1.79878,-25.4268,-5.45825,0.287402,7.73831,0,-165.396,11.7683
491.677,68.1161,42.283,0,8.83762,3.54702,-1.75794,-4.26829,-4.93902,-25.7012,-5.43909,0.411943,7.96104,-5.27439,-158.689,15.8232
491.687,67.8642,42.8654,0,9.07473,3.71947,-1.94476,-2.19512,-3.93293,-24.878,-5.38161,0.55804,8.04487,-9.42073,-155.579,19.6646
491.697,67.592,43.4014,0,8.84481,3.81766,-1.81542,-1.7378,-5.30488,-25.3049,-5.47501,0.529299,8.00895,-11.3415,-153.018,23.811
491.707,67.2841,43.9377,0,8.5119,3.91586,-1.61664,-0.213415,-11.6159,-26.7378,-5.42711,0.440684,8.10475,-10.7622,-152.165,24.4817
491.717,66.9717,44.4674,0,8.56219,3.99968,-1.47054,-0.243902,-8.87195,-27.1341,-5.40077,0.373623,8.1742,-7.80488,-154.726,24.939
491.727,66.6864,45.023,0,9.23759,4.09548,-2.07169,-0.792683,0.121951,-27.3171,-5.23551,0.376018,8.29156,-8.23171,-154.878,26.4634
491.737,66.3827,45.5698,0,9.17532,4.25116,-1.9735,-2.28659,2.77439,-27.8354,-5.19959,0.285007,8.34185,-10.061,-155.213,26.2805
491.747,66.1019,46.105,0,9.08191,4.14338,-2.1172,-2.89634,3.23171,-26.7988,-5.2427,0.304167,8.49513,-11.2805,-154.512,26.1585
491.757,65.7686,46.6388,0,9.05796,4.51461,-2.42376,-2.62195,2.56098,-28.7195,-5.11337,0.395178,8.45202,-13.1402,-153.354,27.7439
491.767,65.4183,47.1548,0,8.6556,4.53856,-1.70046,-2.65244,-6.06707,-28.7195,-5.13013,0.390388,8.51429,-11.9207,-149.299,28.5671
491.777,65.0659,47.646,0,8.57417,4.49785,-1.64538,-1.25,-8.23171,-29.6341,-5.21396,0.237107,8.61728,-11.9817,-148.506,29.2378
491.787,64.7109,48.1392,0,8.74182,4.61041,-1.92081,-0.97561,-4.54268,-30.3659,-5.16606,0.234712,8.72506,-12.2866,-147.287,28.5061
491.797,64.4125,48.6499,0,9.27591,4.31104,-2.21539,-0.579268,1.92073,-31.189,-5.08942,0.282612,8.92384,-14.9695,-148.293,26.3415
491.807,64.0958,49.1677,0,9.15376,4.45713,-2.27048,0.27439,1.4939,-31.5549,-4.97206,0.397573,8.96695,-18.0793,-147.988,28.0183
491.817,63.7587,49.7057,0,8.93582,4.5697,-2.17707,-1.06707,-3.71951,-31.9817,-4.82117,0.500559,9.07473,-20.9146,-148.354,30.061
491.827,63.4072,50.2069,0,8.9454,4.72298,-2.18426,-1.89024,-3.10976,-32.622,-4.84991,0.483794,8.98372,-24.878,-146.768,33.5671
491.837,63.0153,50.6812,0,8.85199,4.96009,-1.99026,-2.13415,-4.11585,-34.5427,-4.89302,0.462239,8.99569,-22.8354,-146.555,33.9024
491.847,62.631,51.1466,0,9.0891,5.01757,-2.22258,-1.25,-0.335366,-35.3049,-4.92656,0.332908,9.15376,-21.0671,-146.433,33.9939
491.857,62.2284,51.593,0,8.92145,5.11097,-2.02379,-0.243902,-4.32927,-36.0976,-4.94093,0.225132,9.17532,-17.9573,-145.793,33.628
491.867,61.8407,52.0462,0,8.79691,4.92895,-1.78189,0.213415,-4.66463,-36.5244,-4.82596,0.241897,9.20406,-18.1707,-142.561,33.0488
491.878,61.4633,52.5139,0,8.95977,4.95051,-2.15552,-0.0304878,-1.15854,-36.9512,-4.65592,0.328118,9.20166,-19.3902,-140.488,33.7805
491.887,61.0982,52.9795,0,8.85439,4.82357,-2.2585,-0.121951,0.182927,-37.1646,-4.50743,0.435894,9.07712,-18.9329,-137.439,34.6341
491.897,60.7087,53.4542,0,8.40412,4.85231,-1.99266,0.914634,-4.39024,-37.5,-4.44516,0.426313,9.2328,-20.5488,-136.402,35.7927
491.907,60.308,53.9459,0,8.33946,4.98643,-2.07169,1.64634,-5.27439,-37.6524,-4.34457,0.455054,9.40285,-21.7988,-135.427,35.6402
491.917,59.8919,54.4204,0,8.23647,5.05828,-1.96392,2.80488,-2.89634,-38.6585,-4.29187,0.450264,9.32142,-24.5732,-131.707,35.0305
491.927,59.5108,54.9017,0,8.8017,5.0966,-2.3088,1.37195,-1.85976,-38.9634,-4.23918,0.376018,9.49386,-25.0915,-128.171,34.4512
491.937,59.1198,55.362,0,8.91905,5.30976,-2.31838,-0.243902,-6.03659,-39.3293,-4.25355,0.349673,9.51302,-25.3354,-124.817,32.8354
491.948,58.7167,55.8079,0,8.61489,5.26904,-2.17707,0,-8.90244,-39.9695,-4.24158,0.361648,9.53457,-25.3354,-121.799,32.2866
491.957,58.3017,56.2381,0,8.57417,5.38879,-2.38304,0.548781,-8.38415,-40.5793,-4.232,0.320933,9.54415,-26.3415,-118.171,31.6159
491.967,57.8657,56.6272,0,8.45442,5.50376,-2.22497,0.304878,-8.81098,-41.7073,-4.25595,0.328118,9.33579,-26.5854,-115.671,30.8537
491.977,57.4153,57.0045,0,8.40173,5.67859,-2.13396,0.365854,-10.6098,-42.0427,-4.21763,0.313748,9.29986,-23.7195,-111.006,31.4329
491.987,56.9612,57.3982,0,8.20055,5.67859,-2.03816,0.884146,-11.9207,-42.0122,-4.07153,0.205972,9.32381,-23.1707,-108.14,32.1951
491.997,56.5035,57.8028,0,7.99937,5.65943,-1.99505,-0.731707,-12.5,-42.1341,-3.96376,0.155676,9.38369,-22.2561,-104.177,32.4085
492.007,56.0624,58.2566,0,8.00176,5.58279,-2.21539,-1.67683,-14.878,-42.1341,-3.77216,0.182021,9.70222,-25.4573,-102.622,33.2927
492.017,55.6208,58.7234,0,7.88919,5.63788,-2.33993,-2.07317,-19.0549,-41.7683,-3.6548,0.229922,9.80042,-30.122,-100.091,32.5915
492.027,55.189,59.1813,0,8.09756,5.82469,-2.23455,-1.31098,-25.6707,-41.311,-3.62127,0.232317,9.85072,-31.5854,-95.5183,32.622
492.037,54.7533,59.6061,0,8.28677,6.04263,-2.15552,-3.01829,-27.5305,-41.8293,-3.64282,0.148491,9.73096,-28.3537,-87.3476,33.0793
492.047,54.2981,59.9938,0,8.45921,6.33722,-2.18905,-5.54878,-23.6585,-43.2012,-3.75539,0.0479004,9.77168,-23.4451,-84.3598,31.8293
492.057,53.8241,60.3447,0,8.40412,6.4426,-2.25611,-7.62195,-18.6585,-44.7561,-3.86556,-0.0407153,9.79084,-20.5488,-80.6402,30.0915
492.067,53.3226,60.6774,0,8.09996,6.48332,-2.28724,-8.2622,-13.7805,-46.0671,-3.8464,-0.0574805,9.69983,-16.4329,-76.0671,29.2683
492.077,52.8091,61.0156,0,7.6928,6.36117,-2.41418,-9.42073,-12.8049,-46.4634,-3.74821,0.00479004,9.69743,-15.8841,-71.0976,29.6037
492.087,52.261,61.355,0,7.42935,6.60067,-2.05493,-14.3902,-19.0549,-46.8902,-3.68594,0.0862207,9.72857,-14.6037,-67.6829,31.0671
492.097,51.7576,61.7062,0,7.46528,6.37315,-2.72314,-12.2866,-12.439,-45.7622,-3.53265,0.203577,9.65911,-13.0488,-63.4451,33.5061
492.107,51.2648,62.061,0,7.24254,6.19592,-2.61297,-13.3841,-20.061,-45.5793,-3.43925,0.215552,9.65672,-12.9878,-54.4207,34.1463
492.117,50.7811,62.4353,0,7.03657,6.09532,-2.64171,-11.6463,-24.2683,-44.939,-3.3195,0.289797,9.78844,-14.7866,-49.6951,34.4207
492.127,50.3211,62.8081,0,7.1635,6.18873,-2.77822,-10.7317,-24.0244,-43.6585,-3.19975,0.277822,9.64235,-15.0915,-41.7378,32.6524
492.137,49.8523,63.1844,0,7.1156,6.3492,-2.54112,-12.6829,-23.7195,-43.628,-3.10155,0.285007,9.62798,-18.0793,-33.689,30.5183
492.147,49.4397,63.5553,0,7.69041,6.36117,-2.61057,-12.0427,-20.4573,-43.2317,-3.03209,0.258662,9.5705,-16.5854,-26.311,30.1524
492.157,48.9918,63.9031,0,7.51318,6.66534,-2.68721,-14.0854,-23.75,-43.628,-3.01772,0.184417,9.42201,-12.378,-19.7866,28.5976
492.167,48.4872,64.2397,0,6.91921,6.84976,-2.41657,-14.2073,-29.7561,-43.9329,-2.9794,0.102986,9.35495,-8.20122,-13.689,27.3171
492.177,47.9541,64.5659,0,6.67492,7.06052,-2.32077,-15.9451,-28.628,-43.9939,-3.02491,0.0718506,9.55373,-6.70732,-9.42073,26.9207
492.187,47.4613,64.8868,0,6.74438,6.84976,-2.71116,-17.2866,-22.5915,-43.3537,-3.09916,0.0790356,9.48907,-7.95732,-2.80488,25.8537
492.197,46.9518,65.1552,0,6.30369,6.75156,-2.53393,-18.1402,-25.3049,-42.9573,-3.14466,0.177231,9.45793,-8.01829,4.93902,24.0244
492.207,46.4427,65.4093,0,6.01629,6.62702,-2.58662,-18.2317,-28.2012,-42.3171,-3.13029,0.280217,9.4244,-11.25,10.8232,21.4634
492.217,45.9875,65.6362,0,6.29172,6.50487,-2.61536,-17.561,-29.3598,-41.5549,-3.16382,0.323328,9.30465,-11.9817,16.5854,22.0732
492.227,45.5287,65.8547,0,6.22705,6.64857,-2.82373,-17.6829,-33.9939,-40.9756,-3.15424,0.399968,9.29986,-11.4939,22.622,20.5488
492.237,45.0921,66.0675,0,6.38991,6.72521,-2.87402,-16.4024,-32.7744,-40.4878,-3.15664,0.395178,9.36453,-13.2927,28.872,20.2134
492.247,44.6523,66.276,0,6.32764,6.80665,-2.86684,-17.378,-34.6037,-40.4268,-3.15424,0.404758,9.4268,-14.6646,33.689,19.4512
492.257,44.2063,66.4739,0,6.15281,6.85934,-2.70877,-18.689,-37.5915,-39.878,-3.06083,0.376018,9.137,-17.1341,41.8598,18.9634
492.267,43.7524,66.6543,0,5.94204,6.82341,-2.65368,-20.5793,-37.2866,-39.878,-3.05604,0.330513,9.01725,-19.5427,50.0915,18.3841
492.277,43.3076,66.8254,0,6.05221,6.89766,-2.89558,-20.5793,-36.1585,-40.3049,-3.0273,0.349673,8.92624,-22.3171,58.4451,17.0122
492.287,42.8892,66.9955,0,6.08574,6.81862,-2.79978,-21.189,-37.7439,-39.5122,-3.01533,0.289797,8.98132,-22.5,64.7866,17.439
492.297,42.481,67.1616,0,6.03305,6.81623,-2.95785,-20.7622,-37.4695,-38.8415,-2.97222,0.320933,8.91187,-24.6646,74.3293,16.9207
492.307,42.0684,67.3115,0,5.83906,6.80665,-2.76385,-22.7134,-37.8659,-38.3232,-2.96503,0.256267,8.79691,-25.4268,85.8232,17.6524
492.317,41.6245,67.4511,0,5.2427,6.7324,-2.48843,-23.3537,-43.7195,-36.7988,-2.97222,0.215552,8.78014,-25.3963,93.2317,16.9207
492.327,41.2352,67.5487,0,5.55166,6.72042,-2.56986,-23.9634,-44.2378,-35.5183,-3.02491,0.153281,8.50232,-23.75,100.945,17.6829
492.338,40.8456,67.6216,0,5.53968,6.94795,-2.60818,-25.4878,-42.0122,-34.2988,-3.10874,0.0622705,8.50471,-24.4512,107.561,16.4024
492.347,40.4967,67.6761,0,5.77439,6.94077,-2.58902,-26.2805,-41.8598,-33.3841,-3.15664,0.0335303,8.47358,-22.8659,115.335,15.4268
492.357,40.1826,67.7097,0,5.89654,6.88808,-2.6465,-27.4695,-40.9146,-32.1951,-3.23328,0.00479004,8.48316,-20.8232,123.476,15.122
492.367,39.8498,67.712,0,5.64985,6.93837,-2.62734,-28.9634,-38.5061,-31.8598,-3.32908,0.0239502,8.41849,-20.7622,132.53,15.2744
492.377,39.5063,67.6866,0,5.38161,6.89526,-2.62973,-29.7256,-39.0854,-31.2195,-3.40811,0.0359253,8.34425,-20.7927,143.689,13.4451
492.387,39.1846,67.6238,0,5.44867,6.85455,-2.62494,-29.7256,-40.3659,-30.7317,-3.54942,0.0143701,8.29874,-20.5793,150.152,11.7073
492.397,38.8923,67.5286,0,5.6738,6.85215,-2.73511,-30.4573,-40.7317,-30.7317,-3.68354,0.0910107,8.2724,-19.2988,157.134,9.63415
492.407,38.6205,67.4332,0,5.63788,6.73958,-2.96264,-30.5183,-37.5305,-29.8171,-3.72905,0.237107,8.34904,-19.2073,164.238,9.11585
492.417,38.3702,67.3156,0,5.6738,6.71563,-2.88121,-29.7866,-37.5915,-28.75,-3.79132,0.368833,8.24845,-19.1768,172.134,7.59146
492.427,38.1388,67.1927,0,5.76002,6.65576,-2.99377,-30.2134,-34.3293,-28.7195,-3.82964,0.445474,8.25324,-22.0122,181.006,8.71951
492.437,37.9014,67.0339,0,5.77439,6.8282,-3.03449,-30.5183,-28.9939,-28.4756,-3.88951,0.56762,8.01853,-22.8963,189.878,9.81707
492.447,37.631,66.8217,0,5.48938,7.03178,-2.85007,-29.7256,-27.3171,-27.7439,-4.02842,0.490979,7.79579,-22.1951,201.585,9.17683
492.457,37.353,66.6042,0,5.51573,7.26888,-2.85007,-29.2683,-27.0122,-27.4695,-4.18649,0.476609,7.99218,-22.9268,206.799,7.83537
492.467,37.0673,66.3627,0,5.52771,7.47965,-2.7902,-29.3598,-25.8841,-27.3476,-4.3278,0.416733,7.98499,-24.1768,209.817,5.33537
492.477,36.757,66.0958,0,5.41035,7.79579,-2.72314,-29.939,-25.8537,-26.9512,-4.41163,0.318538,7.86285,-26.0671,218.293,2.07317
492.488,36.4213,65.822,0,5.02954,7.81734,-2.23934,-30.8537,-29.0549,-26.0976,-4.52419,0.273032,7.9323,-28.7805,226.646,-0.518293
492.497,36.1233,65.5055,0,5.3385,7.80537,-2.4549,-32.1341,-24.7561,-26.2195,-4.6631,0.148491,7.75747,-29.2073,234.085,-1.21951
492.507,35.8307,65.1405,0,5.35766,7.77663,-2.38544,-33.1098,-24.6341,-26.6768,-4.72777,0.110171,7.41977,-28.1098,244.024,-3.2622
492.517,35.5801,64.7602,0,5.64746,7.64251,-2.38783,-32.8354,-21.7683,-26.8598,-4.77327,0.0526904,7.29044,-24.6646,252.317,-5.45732
492.527,35.3128,64.3877,0,5.42472,7.49881,-2.46448,-33.3232,-18.9024,-27.8963,-4.87386,0.0646655,7.39582,-22.439,254.909,-6.43293
492.537,35.0311,63.9957,0,5.28581,7.43654,-2.44531,-32.7134,-18.811,-28.9329,-4.94332,0.0383203,7.2617,-20.9146,255.793,-7.89634
492.547,34.7108,63.5905,0,4.99362,7.43175,-2.38304,-31.6463,-22.3476,-30.3659,-4.94332,0.122146,7.07728,-20.6402,263.171,-9.90854
492.557,34.3722,63.1882,0,4.78764,7.38864,-2.38304,-30.122,-23.811,-30.9451,-4.96967,0.155676,7.03657,-17.4085,270.03,-11.8598
492.567,34.0165,62.7653,0,4.60802,7.32636,-2.60099,-28.1707,-23.9024,-31.7988,-5.04631,0.201182,6.91442,-15.6098,276.311,-11.5549
492.577,33.6601,62.3275,0,4.66071,7.48444,-2.77343,-28.75,-26.7988,-32.0732,-5.12774,0.225132,6.8306,-16.0671,281.921,-11.7988
492.587,33.2939,61.899,0,4.64873,7.51078,-2.73272,-28.628,-28.628,-33.4756,-5.2427,0.263452,6.93837,-18.0488,286.433,-12.8354
492.597,32.9434,61.4397,0,4.89063,7.63772,-2.77343,-27.8354,-28.1402,-34.4207,-5.36724,0.241897,6.80425,-17.9268,289.848,-12.8049
492.607,32.5952,60.9587,0,4.93134,7.60179,-2.44531,-27.0122,-27.3171,-35.5793,-5.46304,0.294587,6.68929,-22.439,296.646,-13.1098
492.617,32.2447,60.414,0,5.08702,7.80297,-2.4501,-28.3232,-24.1463,-36.7988,-5.59716,0.340093,6.37075,-22.6829,302.104,-11.7073
492.627,31.8901,59.8857,0,5.08463,7.75268,-2.08127,-28.872,-25.0915,-38.2622,-5.70015,0.347278,6.46416,-23.0793,307.226,-9.20732
492.637,31.5251,59.3395,0,5.04391,7.60419,-2.09804,-26.5854,-25.8841,-40.6402,-5.75284,0.294587,6.30609,-22.4085,309.878,-7.5
492.647,31.1254,58.7689,0,4.68226,7.66885,-2.19144,-26.372,-24.1159,-40.5488,-5.83187,0.280217,6.14323,-18.6585,314.939,-6.61585
492.657,30.7252,58.2149,0,4.55533,7.58503,-2.21539,-26.128,-22.3476,-40.5488,-5.90612,0.191602,6.19113,-18.0793,317.226,-6.4939
492.667,30.3347,57.6958,0,4.48348,7.57545,-2.13396,-25.2134,-25.0305,-39.6341,-5.96599,0.232317,6.32764,-16.6463,318.841,-5.54878
492.677,29.9809,57.1556,0,4.60802,7.58263,-2.20342,-24.1463,-26.9512,-38.0488,-6.01629,0.294587,6.1552,-16.4329,323.506,-5.82317
492.688,29.6769,56.645,0,5.10858,7.42456,-2.54112,-22.561,-19.0549,-40.3049,-6.10011,0.371228,6.29172,-19.6646,327.896,-7.31707
492.698,29.3053,56.126,0,4.67747,8.00176,-2.37346,-27.0732,-23.4451,-39.2073,-6.20789,0.450264,6.24621,-22.8659,330.945,-7.19512
492.708,28.907,55.5715,0,4.45234,7.87482,-2.02379,-26.2195,-28.0488,-41.0061,-6.29411,0.459844,6.03545,-27.2866,338.445,-8.59756
492.717,28.4906,54.989,0,4.36373,7.90117,-2.06211,-25.122,-27.7134,-42.5,-6.38273,0.479004,5.86301,-30.3659,344.909,-8.65854
492.727,28.0977,54.3371,0,4.53856,8.0784,-2.42376,-25.4268,-25.3354,-41.7988,-6.50008,0.371228,5.50615,-31.0976,351.646,-7.40854
492.737,27.7191,53.6423,0,4.69663,8.11193,-2.33035,-25.0305,-26.2195,-42.6524,-6.62702,0.265847,5.28102,-31.7378,355.457,-5.91463
492.747,27.3119,52.9052,0,4.49066,8.23168,-2.58662,-24.0549,-22.5305,-43.3841,-6.77551,0.141306,5.07265,-32.8354,362.165,-5.4878
492.757,26.921,52.142,0,4.50024,8.00655,-2.5507,-20.5793,-15.3963,-44.0244,-6.94077,0.112566,4.93853,-29.4207,363.811,-4.84756
492.767,26.5373,51.3423,0,4.3781,7.96344,-2.46208,-15.8841,-8.38415,-42.9878,-7.12758,0.110171,4.76369,-29.5732,365.457,-2.43902
492.777,26.1994,50.5237,0,4.62239,8.08319,-2.44052,-14.8476,-0.701219,-41.0671,-7.3551,0.143701,4.68226,-27.3476,365.579,-3.47561
492.787,25.9147,49.7296,0,4.77327,7.98739,-2.31359,-14.6341,6.61585,-38.5671,-7.52515,0.253872,4.74932,-29.9085,361.372,-4.90854
492.797,25.6346,48.9725,0,4.58407,7.8868,-2.57704,-10.1829,13.5671,-37.2561,-7.71915,0.301772,4.89542,-35.8841,357.927,-8.44512
492.807,25.3171,48.2194,0,4.20565,8.16462,-2.3064,-6.28049,16.7988,-35.7012,-7.75747,0.467029,4.79722,-46.5244,359.055,-13.9024
492.817,24.9539,47.4458,0,3.8967,8.72985,-2.18186,-5.7622,15.7317,-34.4817,-7.75986,0.593965,4.5673,-55.061,362.805,-15.9756
492.827,24.5345,46.6496,0,3.45601,8.96935,-2.18905,-6.7378,15.8232,-34.878,-7.8389,0.696951,4.37331,-61.4939,367.195,-14.6037
492.837,24.0597,45.79,0,3.13987,9.23999,-2.19384,-6.55488,15.3659,-36.6768,-7.98739,0.608335,4.02842,-64.7866,367.988,-13.0488
492.847,23.5333,44.929,0,2.73272,9.32381,-1.9232,-7.65244,15.7317,-37.9573,-8.23168,0.467029,3.98771,-66.6159,363.72,-9.63415
492.857,22.9864,44.0734,0,2.47645,9.137,-1.40827,-9.02439,15.9146,-38.7195,-8.45921,0.277822,3.95897,-63.9634,354.695,-7.77439
492.867,22.3969,43.2244,0,2.13396,9.0891,-1.62143,-9.02439,15.7927,-40.2134,-8.66039,0.0550855,3.91586,-60.8232,342.866,-8.14024
492.877,21.7651,42.3557,0,1.73639,9.331,-1.67651,-11.0976,9.57317,-40.2744,-8.75619,-0.114961,3.70989,-57.622,338.11,-10.6402
492.887,21.1863,41.5061,0,1.9711,9.41243,-1.88728,-14.5732,4.69512,-38.7805,-8.74661,-0.203577,3.63564,-58.5671,337.622,-12.8049
492.897,20.6687,40.6785,0,2.23455,9.40285,-1.7316,-17.1951,1.0061,-36.8598,-8.76577,-0.165256,3.58774,-58.7805,333.659,-15.9146
492.907,20.198,39.8696,0,2.32317,9.35974,-1.74597,-18.9024,-0.213415,-34.2988,-8.81128,-0.0814307,3.53744,-57.3476,327.622,-18.2927
492.917,19.7655,39.0717,0,2.29203,9.18729,-1.56874,-17.8963,-0.853659,-31.4939,-8.88073,-0.0407153,3.46559,-55.5793,322.591,-19.939
492.927,19.362,38.2222,0,2.38304,9.27591,-1.65017,-15.6098,0.640244,-30.2439,-9.01485,-0.0550855,3.13987,-52.8354,319.97,-20.8232
492.937,18.9541,37.3636,0,2.31359,9.3765,-1.3963,-15.0305,1.85976,-30.3963,-9.09389,-0.155676,2.97222,-45.8841,315.213,-23.628
492.947,18.513,36.5502,0,1.90404,9.5681,-1.346,-16.372,3.23171,-29.2988,-9.26394,-0.318538,3.07281,-43.0183,308.415,-26.6159
492.957,18.0605,35.7362,0,1.7292,9.66869,-1.38432,-20.061,1.98171,-29.0854,-9.28549,-0.383203,2.92432,-42.0427,300.427,-30.6707
492.967,17.622,34.9208,0,1.75555,9.54655,-1.43222,-20.9756,-3.78049,-29.1463,-9.24478,-0.438289,2.75906,-42.7744,297.348,-34.1463
492.977,17.2191,34.1334,0,1.86093,9.43398,-1.68849,-21.9207,-6.70732,-27.9268,-9.1849,-0.335303,2.72074,-45.0305,295.61,-35.061
492.987,16.8448,33.3585,0,2.019,9.14897,-1.6358,-20.6098,-8.10976,-28.4451,-9.20646,-0.332908,2.64171,-45.2744,291.86,-36.0366
492.997,16.4799,32.6033,0,2.10522,9.23999,-1.50168,-18.872,-6.43293,-29.0549,-9.22562,-0.292192,2.59381,-42.9878,286.25,-35.0305
493.007,16.1287,31.8525,0,2.20821,9.40285,-1.23344,-18.628,-3.10976,-29.1768,-9.19927,-0.229922,2.46927,-42.9268,278.872,-31.8293
493.017,15.8191,31.1212,0,2.53154,9.44356,-0.871787,-18.689,-0.731707,-29.2988,-9.26154,-0.153281,2.43334,-41.6463,270.152,-29.0549
493.027,15.5117,30.422,0,2.50759,9.40764,-0.862207,-18.2622,1.12805,-29.5427,-9.34297,-0.201182,2.46208,-40.5183,262.409,-26.7378
493.037,15.207,29.7259,0,2.43334,9.31902,-1.10171,-16.6463,2.28659,-29.2988,-9.43398,-0.232317,2.37107,-41.128,255.183,-27.3171
493.047,14.9102,29.066,0,2.4549,9.29507,-0.912502,-16.128,1.85976,-29.4512,-9.49625,-0.220342,2.41897,-40.122,248.628,-27.1341
493.057,14.5955,28.4043,0,2.2106,9.34297,-0.953218,-15.3354,2.43902,-28.8415,-9.56571,-0.256267,2.3064,-37.9573,241.982,-27.439
493.067,14.3065,27.7357,0,2.28485,9.29507,-0.790356,-16.372,4.66463,-27.8963,-9.57289,-0.217947,2.15791,-35.1524,238.994,-26.372
493.077,13.9822,27.093,0,1.84656,9.40764,-0.924478,-16.9817,6.64634,-26.5549,-9.60163,-0.249082,2.15552,-31.0976,231.921,-24.7561
493.087,13.6712,26.4224,0,1.72202,9.39806,-1.08494,-16.0366,4.48171,-24.3902,-9.6663,-0.253872,1.92799,-27.8963,226.402,-22.561
493.097,13.3941,25.7426,0,1.8753,9.31663,-1.17835,-13.9329,0.701219,-23.5976,-9.68306,-0.304167,1.76992,-25.3049,222.957,-18.5976
493.107,13.1362,25.0676,0,1.98308,9.4747,-1.08255,-13.1707,-2.16463,-23.1098,-9.74773,-0.371228,1.67891,-19.8171,217.226,-16.7378
493.117,12.879,24.4233,0,1.91362,9.41003,-0.804727,-13.0183,-3.9939,-22.8963,-9.81719,-0.402363,1.70286,-14.3598,210.488,-15.6098
493.128,12.6378,23.7922,0,1.86572,9.2807,-0.718506,-11.8598,-2.28659,-21.5244,-9.92496,-0.407153,1.65975,-9.45122,203.872,-14.6951
493.137,12.4291,23.147,0,1.98068,9.32621,-0.910107,-10.061,-1.89024,-19.9695,-9.95131,-0.479004,1.48731,-5.60976,201.951,-12.3171
493.147,12.2467,22.5065,0,2.00463,9.38369,-1.05141,-8.44512,-2.56098,-17.8659,-9.98723,-0.507744,1.3963,-1.46341,199.268,-12.8354
493.157,12.0754,21.8965,0,1.98068,9.67348,-1.13763,-10.5488,-4.14634,-16.0976,-10.0112,-0.57241,1.42025,4.17683,196.646,-10.4573
493.167,11.8973,21.2849,0,1.70046,9.77886,-1.40348,-12.9878,-5,-13.6585,-9.91538,-0.55804,1.28852,7.16463,192.104,-10.122
493.177,11.7257,20.6445,0,1.53521,9.73336,-1.37474,-15.9146,-10.6707,-11.5244,-9.81958,-0.526904,1.04183,9.2378,190.732,-8.14024
493.187,11.5769,20.0303,0,1.56155,9.63995,-1.26457,-16.8902,-20.0915,-10.0305,-9.76449,-0.505349,1.04183,10.7622,193.049,-7.7439
493.197,11.4712,19.4143,0,1.74118,9.616,-1.2023,-17.6524,-24.5427,-8.10976,-9.81,-0.481399,0.929268,11.5549,189.451,-6.70732
493.207,11.3978,18.8114,0,1.96871,9.73336,-1.03465,-18.6585,-25.0305,-7.40854,-9.85311,-0.431104,0.881367,12.9268,186.098,-5.18293
493.217,11.326,18.2224,0,1.94236,9.49865,-0.785566,-17.2561,-24.939,-7.65244,-9.9537,-0.371228,0.843047,12.0427,182.287,-2.68293
493.227,11.2706,17.6332,0,2.03577,9.41482,-0.917292,-15.5793,-24.3293,-7.43902,-9.94652,-0.335303,0.737666,9.84756,181.799,-2.2561
493.237,11.2535,17.0316,0,2.34951,9.2304,-0.761616,-13.5976,-23.0793,-7.89634,-9.97526,-0.332908,0.58199,7.56098,181.311,-1.28049
493.247,11.2421,16.4583,0,2.52914,9.19927,-0.65863,-11.5854,-18.2622,-9.57317,-9.95131,-0.320933,0.598755,7.46951,179.36,-1.89024
493.258,11.2323,15.8887,0,2.51717,9.31902,-0.744851,-9.39024,-11.1585,-8.90244,-9.9537,-0.289797,0.512534,7.56098,176.402,-1.34146
493.267,11.2097,15.3362,0,2.43573,9.53697,-0.713716,-8.84146,-6.85976,-8.62805,-9.94652,-0.244292,0.486189,5.64024,174.024,-1.37195
493.277,11.1819,14.792,0,2.43573,9.57768,-0.979563,-7.68293,-5.2439,-9.08537,-9.94412,-0.213157,0.426313,2.2561,173.994,-1.34146
493.287,11.1447,14.2572,0,2.4501,9.5705,-1.08015,-8.17073,-2.65244,-10.2744,-9.93454,-0.186812,0.371228,-1.52439,172.5,-0.853659
493.297,11.0835,13.7333,0,2.33275,9.49386,-0.986748,-6.85976,0.731707,-11.6768,-9.93933,-0.189207,0.325723,-4.17683,171.494,0.0609756
493.307,11.0102,13.2133,0,2.22258,9.29986,-0.981958,-5,5.21341,-12.2866,-9.93454,-0.251477,0.249082,-7.92683,168.689,2.83537
493.317,10.9335,12.722,0,2.14833,9.19687,-0.926873,-2.92683,9.81707,-12.1951,-9.94652,-0.296982,0.282612,-10.4878,165.945,1.85976
493.327,10.8304,12.2558,0,1.96631,9.32621,-0.728086,-1.52439,12.622,-12.5,-9.89862,-0.335303,0.304167,-14.1463,163.933,3.87195
493.337,10.7235,11.8106,0,1.93757,9.44356,-0.728086,-0.518293,16.9817,-12.4695,-9.84353,-0.416733,0.311353,-17.6829,161.037,4.96951
493.347,10.5949,11.3897,0,1.79626,9.46512,-0.699346,0.670732,22.5,-13.1707,-9.92975,-0.486189,0.340093,-22.9878,157.53,5.60976
493.357,10.4549,10.9959,0,1.71004,9.5202,-0.627495,2.43902,26.4329,-13.4451,-10.0399,-0.546064,0.385598,-25.4268,152.409,4.2378
493.367,10.3296,10.6011,0,1.75555,9.60403,-0.66342,3.81098,27.6829,-12.5915,-10.107,-0.60115,0.308958,-30.9451,146.372,2.86585
493.377,10.2108,10.1969,0,1.70765,9.58726,-0.665815,6.34146,28.75,-11.6463,-10.2435,-0.555645,0.196392,-32.8354,142.591,0.335366
493.387,10.0744,9.81291,0,1.49928,9.53936,-0.687371,7.46951,29.5427,-11.311,-10.3106,-0.476609,0.210762,-34.0244,135.366,-0.487805
493.397,9.93536,9.43743,0,1.38911,9.44596,-0.6251,8.87195,28.7195,-10.7012,-10.4375,-0.440684,0.177231,-33.7805,129.634,-1.64634
493.407,9.78558,9.06882,0,1.22625,9.45314,-0.687371,10.2439,28.0183,-10.0915,-10.4782,-0.507744,0.134121,-35.4573,122.104,-2.40854
493.417,9.62519,8.71039,0,1.08015,9.47709,-0.828677,12.0122,28.1402,-9.66463,-10.495,-0.58678,0.107776,-35.7622,115.305,-2.13415
493.427,9.4359,8.34131,0,0.725691,9.75012,-0.756826,14.5732,28.6585,-8.35366,-10.4303,-0.675395,-0.0143701,-35.3354,107.287,-4.63415
493.437,9.24419,7.97846,0,0.684976,9.74533,-0.608335,12.7744,25.4573,-8.5061,-10.3585,-0.764011,-0.0598755,-32.8963,99.0854,-6.06707
493.447,9.04231,7.63855,0,0.548459,9.85072,-0.445474,11.3415,23.1707,-8.23171,-10.2866,-0.857417,-0.0263452,-31.2195,92.5915,-6.09756
493.457,8.83429,7.28164,0,0.469424,9.92736,-0.342488,10.2744,21.4939,-8.29268,-10.2004,-0.965193,-0.170046,-27.9268,84.7256,-8.68902
493.467,8.62998,6.94483,0,0.397573,10.0279,-0.347278,10.2744,19.1768,-7.43902,-10.0782,-1.02267,-0.146096,-24.5122,79.4207,-9.08537
493.477,8.41894,6.58883,0,0.287402,10.0327,-0.58678,11.189,16.6463,-7.2561,-9.96807,-0.943638,-0.292192,-21.5244,73.9634,-10.5793
493.487,8.21044,6.25998,0,0.282612,10.0184,-0.910107,10.5488,14.6951,-7.37805,-9.91538,-0.864602,-0.237107,-20.1524,69.8171,-8.17073
493.497,7.99768,5.92257,0,0.253872,9.95849,-1.09692,9.48171,11.6768,-7.92683,-9.96328,-0.790356,-0.337698,-20.1829,64.4817,-5.42683
493.507,7.78032,5.5769,0,0.210762,9.97526,-1.26936,7.77439,9.05488,-8.32317,-10.0351,-0.713716,-0.440684,-18.3537,58.9939,-2.77439
493.517,7.55534,5.2353,0,0.160466,9.93694,-1.22146,6.43293,7.13415,-8.96341,-10.1309,-0.608335,-0.490979,-20.0305,55.5488,-0.548781
493.527,7.32945,4.9094,0,0.110171,9.86748,-1.15919,6.58537,6.52439,-8.93293,-10.2291,-0.546064,-0.488584,-21.0061,52.5,1.61585
493.537,7.08566,4.59353,0,-0.0502954,10.0016,-1.06578,4.7561,5.82317,-9.32927,-10.3153,-0.524509,-0.510139,-21.0061,47.6524,3.35366
493.547,6.87088,4.29549,0,0.126936,10.0303,-1.0562,1.61585,4.54268,-8.93293,-10.4207,-0.548459,-0.495769,-23.2012,42.2256,3.32317
493.557,6.67627,4.02004,0,0.215552,10.1166,-1.02507,-1.98171,3.04878,-8.32317,-10.3944,-0.617915,-0.452659,-25.9451,33.6585,1.98171
493.567,6.51762,3.759,0,0.435894,10.119,-0.910107,-5.67073,2.46951,-7.59146,-10.3704,-0.694556,-0.443079,-26.7988,25.3659,-0.884146
493.577,6.39892,3.49445,0,0.66821,9.90341,-0.852627,-8.07927,2.83537,-6.67683,-10.3273,-0.684976,-0.510139,-26.9817,18.9024,-3.23171
493.587,6.31141,3.22292,0,0.886157,9.80521,-0.797541,-9.42073,2.40854,-6.40244,-10.3345,-0.64905,-0.59636,-27.7439,12.0427,-4.66463
493.598,6.24705,2.95211,0,1.04423,9.68067,-0.843047,-9.08537,2.65244,-6.25,-10.2794,-0.65863,-0.641865,-28.75,8.17073,-5.54878
493.607,6.19367,2.67212,0,1.09931,9.53218,-0.814307,-8.14024,1.7378,-6.12805,-10.2603,-0.60594,-0.730481,-28.4146,6.37195,-6.25
493.617,6.14369,2.39738,0,1.11129,9.51062,-0.881367,-6.95122,0.945122,-6.06707,-10.3153,-0.55325,-0.725691,-28.4756,3.53659,-5.88415
493.627,6.09279,1.81396,0,1.13045,9.57529,-0.910107,-5.67073,0.792683,-6.40244,-10.3082,-0.476609,-0.809517,-30.9146,0,-2.65244
493.637,6.0255,1.51908,0,1.0107,9.616,-0.876577,-5.21341,0.487805,-6.67683,-10.3034,-0.447869,-0.979563,-30.061,-3.62805,-0.640244
493.647,5.94598,1.26188,0,0.938848,9.72138,-0.840652,-4.96951,0.121951,-7.07317,-10.2267,-0.510139,-0.898132,-28.8415,-8.90244,-0.365854
493.658,5.86044,1.02657,0,0.905317,9.81479,-0.773591,-5.54878,0.579268,-7.34756,-10.083,-0.507744,-0.838257,-27.0427,-14.5732,2.2561
493.667,5.77905,0.776029,0,0.893342,9.9058,-0.807122,-6.09756,1.28049,-6.85976,-9.98005,-0.56762,-0.941243,-27.3476,-17.6829,4.32927
493.677,5.70098,0.532309,0,0.835862,9.87706,-0.843047,-6.82927,0.243902,-6.03659,-9.93933,-0.65384,-0.953218,-28.2012,-20.122,5.12195
493.687,5.63659,0.314706,0,0.898132,9.83395,-0.850232,-7.65244,-0.640244,-5.57927,-9.87467,-0.60594,-0.876577,-29.6037,-22.2561,2.59146
493.697,5.59516,0.0769403,0,1.07057,9.82437,-0.996328,-8.81098,-1.67683,-5.42683,-9.96089,-0.613125,-1.01549,-31.5549,-26.5854,5.82317
493.707,5.58162,-0.154948,0,1.24541,9.72378,-1.1065,-10.1829,-1.98171,-4.90854,-9.9561,-0.646655,-1.03225,-33.7805,-28.3841,5.88415
493.717,5.5936,-0.376008,0,1.41785,9.66151,-1.24541,-10.8232,-2.0122,-4.54268,-10.0782,-0.792751,-1.03944,-40.1524,-30.5488,4.08537
493.727,5.61641,-0.595498,0,1.52802,9.67348,-1.31487,-11.25,-1.82927,-4.69512,-10.0136,-0.859812,-1.06818,-45.9756,-34.3902,1.0061
493.737,5.65496,-0.804869,0,1.61664,9.64714,-1.2981,-10.5793,-1.12805,-4.2378,-9.93215,-0.857417,-1.05381,-50.7012,-35.122,-0.487805
493.747,5.68845,-1.01893,0,1.54718,9.79084,-1.36037,-9.05488,2.34756,-3.65854,-9.90101,-0.890947,-1.1065,-53.4756,-33.5976,-1.34146
493.757,5.74179,-1.23041,0,1.67651,9.68067,-1.31008,-9.54268,-0.304878,-3.47561,-9.82916,-0.898132,-1.12326,-53.4146,-32.3171,-0.365854
493.767,5.81416,-1.42755,0,1.71962,9.68067,-1.24781,-10.0915,-0.945122,-2.62195,-9.69743,-0.850232,-1.08255,-55.9451,-32.561,0.823171
493.777,5.90758,-1.61597,0,1.81542,9.60642,-1.29571,-10,0.426829,-2.31707,-9.67109,-0.826282,-1.07536,-57.8354,-32.1646,2.53049
493.787,6.04099,-1.80158,0,1.90883,9.53697,-1.36995,-9.48171,1.89024,-1.64634,-9.63995,-0.819097,-1.09213,-58.1402,-32.439,5.18293
493.797,6.24138,-1.97389,0,1.98787,9.5202,-1.37953,-9.72561,3.14024,-0.884146,-9.61361,-0.816702,-1.06578,-61.6463,-35,6.79878
493.807,6.59591,-2.15077,0,2.07409,9.44835,-1.39151,-9.32927,3.9939,-0.0914634,-9.5226,-0.857417,-1.1041,-63.4451,-34.9695,9.96951
493.817,6.84675,-2.30994,0,2.10522,9.45075,-1.40588,-8.44512,5.06098,0.670732,-9.48907,-0.833467,-1.0562,-67.0732,-36.5854,12.5
493.827,7.02048,-2.44982,0,2.09804,9.44835,-1.36516,-7.07317,6.03659,1.67683,-9.47949,-0.850232,-1.00112,-68.5671,-37.622,15.7317
493.837,7.16907,-2.58086,0,2.07888,9.50583,-1.28373,-6.40244,7.71341,2.43902,-9.53218,-0.917292,-0.993933,-72.2561,-39.1768,18.1707
493.847,7.31324,-2.72625,0,2.10283,9.55613,-1.18793,-5.94512,10.3354,3.10976,-9.56331,-0.900527,-1.08015,-75.061,-38.75,19.2683
493.857,7.46194,-2.88912,0,2.13157,9.52978,-1.02267,-5,12.8659,3.96341,-9.58726,-0.871787,-1.18314,-75.2439,-39.6037,21.25
493.867,7.61658,-3.04983,0,2.13875,9.5202,-0.946033,-5,15.3049,5.03049,-9.5681,-0.802332,-1.19751,-76.3719,-37.6829,25.3354
493.877,7.78271,-3.19417,0,2.15312,9.50104,-0.900527,-3.75,17.1646,6.40244,-9.59205,-0.744851,-1.15679,-75.9146,-36.7378,27.8659
493.888,7.95807,-3.3678,0,2.16989,9.4747,-0.866997,-3.2622,18.689,7.43902,-9.73336,-0.785566,-1.32445,-75.2439,-34.3598,29.6646
493.898,8.1443,-3.4995,0,2.17468,9.3789,-0.917292,-3.01829,18.9329,8.59756,-9.9561,-0.828677,-1.19751,-75.3049,-33.3232,29.5732
493.907,8.36145,-3.60318,0,2.28724,9.51302,-0.924478,-2.7439,18.9634,11.189,-10.1214,-0.855022,-1.11368,-76.311,-32.622,28.4451
493.917,8.61725,-3.70053,0,2.37107,9.51302,-0.998723,-2.80488,17.7134,14.6037,-10.1788,-0.862207,-1.11129,-75.8841,-34.1768,26.5854
493.927,8.92483,-3.79747,0,2.46448,9.48188,-1.02267,-3.62805,15.6402,19.2378,-10.2076,-0.905317,-1.13045,-74.4817,-34.5427,26.8902
493.937,9.30823,-3.87937,0,2.61776,9.28789,-1.03465,-4.84756,13.3232,25.2134,-10.2435,-0.948428,-1.08255,-68.4146,-33.75,29.9695
493.947,9.78797,-3.94026,0,2.77583,8.93103,-0.840652,-6.18902,10.4573,32.7134,-10.1405,-0.998723,-0.993933,-59.5732,-36.5854,33.6585
493.957,10.4042,-3.9925,0,3.0273,8.27719,-0.704136,-5.4878,6.55488,41.8598,-9.97286,-1.0083,-0.953218,-44.5732,-40.4878,41.0061
493.967,11.1959,-4.06097,0,3.36261,7.52755,-0.60115,-2.19512,2.59146,52.8963,-9.7142,-0.926873,-1.0107,-23.9329,-44.0854,48.689
493.977,12.2163,-4.15001,0,3.90628,6.79228,-0.560435,4.20732,-0.670732,65.9451,-9.43638,-0.941243,-1.08255,3.20122,-47.4695,57.5915
493.987,13.5156,-4.23898,0,4.73974,6.21987,-0.584385,13.8415,-1.25,81.3719,-9.36932,-1.06818,-1.08973,31.8598,-47.9878,63.7805
493.997,15.0637,-4.27763,0,5.65943,6.11209,-0.814307,27.439,0.762195,98.2012,-9.41482,-1.16158,-0.902922,57.9573,-53.2012,63.2927
494.007,16.8004,-4.2857,0,6.75875,6.70605,-1.12805,42.0732,8.07927,115.671,-9.59205,-1.06339,-0.799937,84.939,-57.7439,59.4207
494.017,18.5915,-4.26744,0,7.54671,8.4137,-1.74836,52.0732,23.8415,131.555,-9.79803,-1.21906,-0.711321,111.22,-66.189,52.2561
494.027,20.3146,-4.21982,0,7.38385,10.9357,-2.14354,58.3841,42.7134,144.329,-10.186,-1.04183,-0.608335,134.39,-71.311,45.2439
494.037,21.9101,-4.2271,0,6.33243,13.5319,-2.57704,59.878,58.7805,153.079,-10.483,-0.804727,-0.871787,150.335,-70.7622,41.7073
494.047,23.3915,-4.27771,0,5.34808,14.1618,-2.47166,57.1646,64.7561,153.659,-10.4926,-0.603545,-1.07057,157.744,-64.7561,43.0793
494.058,24.7226,-4.39194,0,3.81048,13.3163,-1.64059,52.4695,58.3537,150.976,-10.3441,-0.177231,-1.35079,157.195,-56.0976,48.9939
494.067,25.936,-4.5173,0,3.01054,11.8506,-0.845442,49.8171,50.9146,145.183,-10.0782,0.392783,-1.37714,150.03,-45.122,57.9878
494.077,27.0491,-4.63494,0,2.30161,10.2722,-0.455054,54.939,42.6524,140.732,-9.82437,1.06578,-1.32445,135.793,-38.3841,67.6219
494.087,27.989,-4.7545,0,1.26457,9.81479,0.308958,59.4817,19.9085,136.128,-9.63037,1.60706,-1.32684,119.573,-38.4756,75
494.098,28.7671,-4.92656,0,0.560435,9.80521,1.17595,52.7439,-25.9756,129.848,-9.55852,1.99984,-1.56395,104.329,-38.9939,77.7744
494.107,29.4596,-5.08541,0,0.119751,10.5788,1.37474,40.8841,-65,128.049,-9.616,2.25611,-1.54479,91.5549,-38.0793,74.9695
494.117,30.2227,-5.22989,0,1.47054,10.5716,0.256267,31.189,-78.9634,121.829,-9.86748,2.3567,-1.54958,82.0122,-38.5671,71.4024
494.127,31.1385,-5.30087,0,4.19128,9.9561,-1.17116,28.0793,-69.7561,108.537,-10.186,2.18665,-1.29092,75.8232,-40.5183,61.189
494.137,32.0866,-5.34466,0,6.00431,9.20166,-2.24413,26.2805,-48.1402,92.6829,-10.5141,1.8274,-1.22146,72.9573,-44.3902,52.0732
494.147,32.9941,-5.3682,0,6.99106,8.54303,-2.52196,23.0793,-24.5427,77.8963,-10.5572,1.45138,-1.14003,68.9939,-45.3049,44.878
494.157,33.8123,-5.40187,0,7.24733,8.15744,-1.82261,20.9146,-2.37805,65.8841,-10.4064,0.989143,-1.17595,66.9512,-46.2195,43.2012
494.167,34.5074,-5.40896,0,6.62702,7.84608,-0.687371,23.1707,12.3171,57.9268,-10.1309,0.622705,-1.02986,68.1707,-45.1829,45
494.177,35.0629,-5.44363,0,5.65704,7.65927,0.148491,26.7988,20,52.7134,-9.77886,0.347278,-1.11608,70.2744,-45.7622,46.7988
494.187,35.4597,-5.51193,0,4.70861,7.90596,0.471819,31.4634,30.1829,49.2378,-9.46033,0.182021,-1.22625,73.9634,-43.9024,49.0244
494.197,35.7705,-5.60631,0,4.35654,8.03769,-0.0239502,30.3659,47.2866,46.0061,-9.26873,0.131726,-1.31966,81.0671,-41.9817,48.9634
494.207,36.0094,-5.71738,0,4.31104,7.86524,-0.0718506,30.1524,57.8659,38.75,-9.2328,0.114961,-1.39869,86.0061,-41.0366,46.9817
494.217,36.2039,-5.81339,0,4.68705,7.89159,-0.58678,27.622,65.0305,30.6707,-9.29268,0.148491,-1.36277,91.0671,-40.6402,44.5122
494.227,36.3434,-5.88916,0,4.93853,7.64251,-1.21188,23.4146,66.0366,21.0366,-9.37411,0.292192,-1.30768,93.5366,-43.3537,41.1585
494.237,36.4225,-5.95929,0,4.97446,7.47246,-1.84417,20.6098,63.5976,13.5671,-9.5226,0.474214,-1.31726,94.9085,-43.5976,38.8415
494.247,36.4603,-6.00187,0,4.8547,7.08207,-2.01661,17.7134,55.9146,7.92683,-9.73575,0.699346,-1.23823,94.7256,-43.1402,37.5305
494.257,36.4187,-6.01121,0,4.48587,6.61744,-1.90404,17.1646,43.6585,2.95732,-9.87467,0.900527,-1.11608,91.0671,-42.561,34.878
494.267,36.4491,-6.01413,0,4.7613,6.3971,-2.20821,19.939,41.9817,-0.426829,-9.91059,1.17356,-1.09213,85.3963,-41.1585,32.1951
494.277,36.2934,-6.03172,0,4.07872,6.5887,-1.9735,16.7988,18.7805,-6.03659,-9.89862,1.38911,-1.15679,78.6281,-41.8598,28.872
494.288,36.0306,-6.05132,0,3.70031,6.70605,-1.74597,14.7866,-1.92073,-11.7073,-9.8603,1.44899,-1.16398,70.3963,-41.5854,24.1463
494.298,35.6765,-6.06279,0,3.48715,6.89526,-1.72441,10.6402,-23.3232,-17.3476,-9.78605,1.54479,-1.12326,62.1341,-41.7988,18.3537
494.308,35.2593,-6.07023,0,3.51349,7.01022,-1.7795,4.39024,-44.9085,-24.0854,-9.74773,1.52802,-1.10171,53.2927,-39.939,12.2866
494.318,34.8033,-6.06617,0,3.59971,6.99825,-1.79866,-2.31707,-66.0366,-30.122,-9.73815,1.43222,-1.05141,42.3476,-39.3293,6.70732
494.328,34.3241,-6.06319,0,3.71707,6.78749,-1.68609,-7.07317,-84.5427,-36.4634,-9.70462,1.35079,-1.04902,32.4695,-36.0366,2.9878
494.337,33.8472,-6.06513,0,4.07393,6.5863,-1.53281,-10.3049,-97.2561,-43.3841,-9.63277,1.28613,-1.06099,23.2622,-35,-2.28659
494.348,33.3885,-6.09031,0,4.67508,6.53601,-1.28613,-12.2866,-103.78,-50.3354,-9.52499,1.22625,-1.14482,11.2805,-30.8537,-7.53049
494.358,32.946,-6.12126,0,5.51333,6.74198,-1.16398,-18.0793,-105.701,-57.1646,-9.46272,1.29092,-1.16158,-0.487805,-25.5488,-14.878
494.368,32.5249,-6.17588,0,6.61504,6.8761,-1.17835,-25.2439,-101.616,-65.3049,-9.46991,1.37953,-1.26457,-13.3232,-21.2805,-21.4024
494.377,32.0926,-6.22313,0,7.52994,6.98148,-1.23104,-30.5488,-89.1768,-73.9939,-9.49146,1.45378,-1.24062,-24.5732,-15.7317,-27.1951
494.387,31.6393,-6.25391,0,7.95625,6.91921,-1.46815,-34.1159,-70.6098,-80.7317,-9.63756,1.50647,-1.19272,-36.7683,-11.0061,-32.5305
494.397,31.2071,-6.28008,0,8.19576,6.61744,-1.90644,-35.5183,-53.4451,-83.7805,-9.65672,1.50886,-1.17595,-50.1524,-6.21951,-37.2866
494.407,30.8293,-6.32949,0,8.59573,6.40189,-2.13636,-33.2317,-38.0793,-83.689,-9.62079,1.5879,-1.2526,-60.0305,-2.86585,-39.0549
494.417,30.4931,-6.41227,0,8.81607,6.37794,-2.22018,-29.2988,-18.2317,-81.8293,-9.60882,1.65017,-1.41546,-70.7622,5.88415,-39.9085
494.427,30.1509,-6.51738,0,8.8017,6.93119,-2.24413,-25.0305,3.41463,-78.3537,-9.68067,1.65496,-1.53042,-80.3659,16.7683,-38.2317
494.438,29.7552,-6.64205,0,8.35622,7.597,-2.48124,-22.9573,16.7988,-76.25,-9.88185,1.60227,-1.65735,-87.439,29.2378,-38.2317
494.447,29.3242,-6.75338,0,7.49402,8.02811,-2.91474,-20.7012,15.0915,-71.0671,-10.0974,1.59029,-1.64777,-90.8537,37.4085,-37.5305
494.457,28.9179,-6.83008,0,6.74677,8.34664,-3.0776,-20.061,1.28049,-61.0976,-10.3992,1.50168,-1.54958,-91.6768,43.4451,-40.1829
494.467,28.622,-6.93264,0,6.52882,8.29156,-3.02012,-18.7195,-12.2866,-49.1768,-10.5644,1.32684,-1.70765,-93.7195,48.1098,-41.6768
494.477,28.4558,-7.08356,0,6.70845,7.96104,-2.81175,-14.2378,-12.8659,-40.4268,-10.5764,1.19272,-1.95434,-94.1463,55.4268,-43.5671
494.487,28.3095,-7.19071,0,6.6342,8.21971,-2.17707,-8.01829,-2.65244,-36.25,-10.5884,1.17595,-1.76992,-95.1524,60.5793,-43.3537
494.497,28.104,-7.30987,0,6.48571,8.96456,-2.14354,1.85976,11.2195,-36.4329,-10.8662,1.0586,-1.89207,-93.5366,65.1219,-42.622
494.507,27.7494,-7.37431,0,5.92288,9.98484,-2.15552,10.2439,19.8171,-41.4329,-11.1512,0.917292,-1.68609,-91.9512,68.4756,-42.7744
494.517,27.2613,-7.46027,0,5.31694,10.6363,-2.48603,13.9634,26.9207,-47.378,-11.3907,0.855022,-1.84177,-90.061,72.8049,-41.5854
494.527,26.6809,-7.53863,0,4.49306,10.5788,-3.03449,11.6463,27.3171,-50.5488,-11.4266,0.857417,-1.81782,-86.2195,80.7927,-35.3049
494.537,26.0351,-7.58877,0,4.28948,11.2925,-2.79978,2.2561,25,-53.9024,-11.6015,0.699346,-1.70765,-79.1159,87.1341,-28.0793
494.547,25.3964,-7.59329,0,4.82117,12.5547,-2.03098,-7.68293,20.2439,-54.9085,-11.9248,0.258662,-1.51844,-70.5488,90.1829,-25.2744
494.557,24.9521,-7.54593,0,6.37315,12.969,-1.38193,-20.122,11.5854,-46.9207,-12.2625,-0.0598755,-1.27894,-55.2439,89.5122,-25.7012
494.567,24.7304,-7.47562,0,7.00064,12.4134,-1.15919,-27.8659,0.792683,-31.7378,-12.617,-0.443079,-1.17835,-37.0732,87.8354,-26.5549
494.577,24.6989,-7.41009,0,7.15392,11.4099,-1.16398,-22.5,-4.54268,-18.2317,-12.8852,-0.893342,-1.21188,-21.189,90.4878,-27.4695
494.587,24.6556,-7.38419,0,5.78637,9.87706,-0.795146,-7.0122,-5.54878,-15.9756,-12.6673,-1.19272,-1.39151,-7.80488,98.4451,-27.9878
494.598,24.4379,-7.34665,0,3.86796,8.24845,-0.958008,6.79878,6.67683,-23.1707,-11.8841,-0.838257,-1.23583,2.80488,100.915,-24.8476
494.607,23.8624,-7.25055,0,1.70765,7.85806,-1.23344,15.5793,14.1768,-33.872,-11.0171,-0.237107,-0.855022,5.33537,97.3781,-16.372
494.617,22.9929,-7.00964,0,0.292192,7.92751,-1.36756,16.0061,14.4817,-44.3293,-10.2483,0.189207,-0.129331,-2.16463,89.7256,-14.5732
494.627,21.9471,-6.59337,0,-0.376018,7.82692,-1.43462,11.0366,8.23171,-54.1768,-9.62558,0.754431,0.656235,-20.1524,80.3659,-21.7378
494.637,20.8651,-6.0855,0,-0.356858,7.93949,-1.41546,0.396341,-1.25,-60.3659,-9.01485,1.21906,1.04183,-43.689,72.8659,-29.9085
494.647,19.8401,-5.57811,0,0.0383203,8.27,-1.11368,-14.1768,-10.9146,-62.561,-8.56938,1.60466,1.0586,-63.5976,63.6585,-36.8902
494.657,18.9187,-4.98871,0,0.534089,8.29874,-0.773591,-25.6098,-20,-61.0366,-8.33467,1.64777,1.40109,-85.3354,47.7744,-42.0732
494.667,18.116,-4.23645,0,0.835862,8.15983,-0.63468,-32.561,-29.9085,-55.2439,-8.31072,1.22146,2.08846,-105.732,19.878,-49.1768
494.677,17.4446,-3.51187,0,1.03704,8.42568,-0.570015,-34.0244,-39.6037,-45.8537,-8.30593,0.438289,2.07169,-130.03,-10.7012,-60.8537
494.687,16.9344,-2.93115,0,1.7771,8.93342,-0.864602,-28.7805,-40.4878,-39.4207,-8.36101,-0.368833,1.62861,-146.677,-26.3415,-74.9085
494.697,16.5256,-2.4565,0,2.37107,9.43398,-1.76992,-22.2561,-30.9146,-35.9451,-8.53345,-1.00591,1.33163,-161.738,-37.4695,-85.7622
494.707,16.1407,-2.1174,0,2.56267,9.54415,-2.47885,-14.939,-11.5854,-36.2195,-8.76577,-1.40588,0.902922,-168.171,-45.6098,-86.5549
494.717,15.7154,-1.83042,0,2.37346,9.28549,-2.95785,-10.3659,8.10976,-39.7256,-8.9933,-1.95673,0.766406,-168.079,-52.2256,-79.6341
494.727,15.2019,-1.73511,0,1.81782,9.11065,-3.21651,-7.07317,26.4634,-43.3537,-9.72857,-1.9711,0.0598755,-160.213,-45.2439,-68.1402
494.737,14.5965,-1.71495,0,1.28852,8.91666,-2.96264,-5.15244,37.622,-47.5305,-10.0567,-2.41657,-0.246687,-136.098,-36.189,-54.3902
494.747,13.9414,-1.75533,0,1.01788,8.88792,-2.54351,-0.579268,40.6098,-50.3963,-10.2674,-2.63213,-0.514929,-117.073,-27.5305,-40.122
494.757,13.2551,-1.83778,0,0.725691,9.09628,-2.17707,3.2622,36.9817,-50.8841,-10.2555,-2.79978,-0.704136,-96.8902,-18.2622,-30.7317
494.767,12.586,-1.95561,0,0.56762,9.29986,-1.84177,4.54268,32.1646,-48.3537,-10.0687,-2.81175,-0.857417,-75.6098,-10.9451,-30.5793
494.777,11.9412,-2.06353,0,0.304167,9.53697,-1.82021,4.20732,25.061,-43.8415,-9.92257,-2.76146,-0.816702,-56.8902,-6.21951,-34.1159
494.787,11.3319,-2.17572,0,0.100591,9.616,-1.78908,2.7439,14.5122,-39.0244,-9.90101,-2.54112,-0.778381,-43.5366,-2.0122,-43.6585
494.798,10.7741,-2.29162,0,0.0981958,9.70462,-1.91602,1.21951,1.67683,-34.9695,-9.89143,-2.23695,-0.785566,-33.1098,-1.7378,-54.9695
494.807,10.2573,-2.3513,0,0.210762,9.79563,-2.09564,-0.731707,-10.9451,-33.2622,-9.89143,-1.88488,-0.656235,-26.1585,-4.48171,-59.5427
494.817,9.79213,-2.41811,0,0.490979,9.92257,-2.12438,-3.23171,-21.6463,-32.3171,-9.89383,-1.57353,-0.701741,-19.4207,-5.64024,-61.0671
494.827,9.3628,-2.44157,0,0.778381,9.94652,-2.10762,-6.21951,-28.5061,-32.9573,-9.81719,-1.35798,-0.526904,-20.3659,-12.4695,-58.5061
494.837,8.95146,-2.43271,0,0.871787,9.89622,-1.80824,-10.5488,-33.5061,-33.1402,-9.73575,-1.21906,-0.395178,-24.3902,-21.5244,-54.4512
494.847,8.56661,-2.40428,0,1.01549,9.74773,-1.61664,-15.3354,-36.6463,-33.1402,-9.50823,-1.14242,-0.308958,-27.561,-29.5427,-50.6707
494.857,8.20915,-2.38634,0,1.06339,9.51062,-1.4418,-18.6585,-37.8049,-32.0122,-9.30705,-1.11368,-0.344883,-33.5671,-34.5427,-46.8293
494.867,7.88024,-2.37147,0,1.06339,9.27831,-1.37953,-20.5183,-37.2561,-30.1524,-9.11305,-1.06339,-0.349673,-37.0122,-37.7134,-43.7195
494.877,7.58335,-2.37534,0,1.11129,9.20406,-1.23823,-21.372,-35.0305,-28.2622,-8.96695,-0.981958,-0.416733,-38.2622,-38.7195,-40.6402
494.887,7.32622,-2.39049,0,1.24541,9.21843,-1.36277,-21.189,-31.8598,-26.4634,-8.80649,-0.900527,-0.455054,-38.2622,-40.3963,-36.5854
494.897,7.10123,-2.47034,0,1.37953,9.34058,-1.47054,-20.8537,-28.4146,-25.1524,-8.74182,-0.890947,-0.704136,-38.3841,-40.061,-31.7073
494.907,6.90293,-2.58776,0,1.5376,9.43398,-1.53281,-21.128,-25.0305,-24.6341,-8.78014,-0.833467,-0.864602,-33.5061,-38.0488,-25.1524
494.917,6.70594,-2.68937,0,1.62861,9.27352,-1.47773,-21.6768,-22.3171,-26.3415,-8.91426,-0.883762,-0.835862,-30.8232,-41.0671,-20
494.927,6.49976,-2.78146,0,1.69807,9.00527,-1.44659,-20,-18.628,-29.1463,-9.14658,-0.986748,-0.838257,-26.5244,-44.7561,-13.5366
494.937,6.28349,-2.86937,0,1.85614,8.88073,-1.55437,-17.0427,-13.1707,-32.8963,-9.33339,-1.05381,-0.857417,-27.1646,-49.9695,-9.14634
494.947,6.03947,-2.93105,0,1.89446,8.83762,-1.63101,-13.9939,-8.10976,-36.7683,-9.52739,-1.1544,-0.780776,-26.7378,-52.1341,-4.08537
494.957,5.76879,-3.03265,0,1.92081,8.92145,-1.65735,-12.8049,-2.65244,-40.0915,-9.57529,-1.25978,-0.967588,-25.9146,-55.2439,0.609756
494.967,5.44712,-3.1365,0,1.64777,9.07952,-1.50168,-12.9268,-0.152439,-42.0427,-9.59205,-1.38193,-0.998723,-24.6037,-58.3841,3.04878
494.977,5.10278,-3.27691,0,1.43222,9.21843,-1.46096,-12.439,2.31707,-42.0427,-9.60642,-1.50647,-1.17356,-20.061,-57.1341,3.53659
494.987,4.73543,-3.42975,0,1.18074,9.44356,-1.53281,-12.4085,2.71341,-41.6159,-9.54655,-1.62861,-1.24302,-16.3415,-57.0122,3.35366
494.998,4.33596,-3.58124,0,0.811912,9.6184,-1.55676,-12.2256,1.82927,-40.9451,-9.43398,-1.64538,-1.24541,-11.311,-53.5366,4.29878
495.007,3.96309,-3.78754,0,0.969983,9.77647,-1.75794,-13.3537,0.853659,-40.7622,-9.2831,-1.66693,-1.47533,-6.0061,-48.3841,7.59146
495.017,3.56957,-4.07826,0,0.821492,9.72617,-1.65496,-14.3293,-2.0122,-41.9207,-9.12742,-1.62861,-1.8274,-0.152439,-38.9024,9.93902
495.027,3.15442,-4.43167,0,0.735271,9.79084,-1.61903,-15.1524,-4.32927,-43.8415,-8.93582,-1.51605,-2.08606,8.20122,-27.8049,13.75
495.037,2.73998,-4.75582,0,0.847837,9.79803,-1.74118,-15.5793,-6.40244,-45.9451,-8.83283,-1.48491,-1.99266,15.061,-19.2988,19.7256
495.047,2.33155,-5.02711,0,0.981958,10.0806,-1.8777,-17.1341,-8.10976,-47.439,-8.69392,-1.4921,-1.79866,19.4817,-16.6463,25.2134
495.057,1.94028,-5.31205,0,1.1544,10.3872,-2.05253,-18.3841,-8.71951,-48.1098,-8.59812,-1.5855,-1.87291,22.7439,-13.3537,30.7622
495.067,1.56595,-5.59817,0,1.31487,10.3848,-2.04774,-20.7012,-8.53659,-48.9634,-8.57656,-1.74836,-1.89686,26.6159,-5.85366,35.5183
495.077,1.21884,-5.92396,0,1.49928,10.3632,-1.96392,-22.1951,-11.372,-49.0244,-8.56459,-1.95434,-2.06211,31.7683,4.87805,38.6585
495.088,0.93608,-6.2209,0,1.825,10.4806,-2.12917,-23.6585,-13.8415,-46.5244,-8.63405,-2.05253,-2.04774,34.3293,16.189,40.8841
495.098,0.7001,-6.49008,0,2.04774,10.4255,-2.28245,-25.0305,-17.439,-44.8476,-8.75859,-2.0693,-1.99984,38.4451,31.6463,44.2073
495.107,0.534007,-6.74403,0,2.48364,10.1549,-2.48124,-26.25,-17.1646,-43.5671,-9.03401,-2.02379,-2.03337,42.561,44.0854,47.2866
495.117,0.422965,-6.94246,0,2.70398,9.82437,-2.65129,-26.0366,-16.0366,-41.6463,-9.51062,-1.75555,-1.93278,44.8171,54.0549,50.3963
495.127,0.379575,-7.03662,0,3.01533,9.78844,-2.66566,-25.8537,-14.0854,-38.5061,-10.1884,-1.346,-1.61903,40.4878,58.7805,53.1707
495.137,0.418221,-6.97222,0,3.25723,9.46033,-2.6441,-25.2134,-11.7378,-34.0549,-11.0003,-1.0107,-0.986748,28.872,57.4695,52.9573
495.147,0.550634,-6.93981,0,3.63803,9.27831,-2.56746,-24.4512,-7.07317,-29.3293,-11.5512,-0.627495,-1.18793,8.04878,57.0122,49.6341
495.157,0.756953,-7.10293,0,3.59013,9.09868,-2.46208,-22.2866,2.31707,-21.7683,-11.3979,-0.155676,-2.15791,-6.43293,68.3537,48.2622
495.167,0.97286,-7.45604,0,3.06083,8.87834,-2.33514,-19.6341,7.0122,-15.2439,-10.6674,-0.387993,-2.96982,-9.11585,93.4451,53.7195
495.177,1.19011,-7.79041,0,2.52196,8.95019,-2.3567,-16.6463,8.35366,-7.9878,-10.4375,-0.431104,-2.87163,-11.4634,104.421,52.2866
495.187,1.73926,-8.04402,0,2.20102,9.17772,-2.49561,-12.9268,4.63415,0.548781,-10.2267,-0.878972,-2.48603,-8.53659,107.409,45.0915
495.198,2.057,-8.25189,0,2.14833,9.45554,-2.886,-9.96951,-1.37195,9.84756,-10.6339,-1.77231,-2.40699,-3.2622,108.933,33.5976
495.207,2.45574,-8.342,0,2.08846,9.62798,-3.29555,-8.68902,-6.76829,19.9085,-11.1368,-1.7292,-1.95913,2.86585,111.189,27.0427
495.217,2.9982,-8.32955,0,2.42136,9.77886,-3.48715,-7.62195,-8.87195,31.9817,-11.7811,-1.57832,-1.54718,9.81707,110.274,23.7195
495.227,3.76849,-8.18744,0,3.13269,9.48188,-3.2692,-6.55488,-10.5793,47.4085,-12.4254,-1.3484,-0.912502,11.5244,109.299,23.75
495.238,4.78064,-7.86003,0,3.87035,9.15616,-3.03209,-7.04268,-13.1707,64.2073,-12.9427,-1.02028,0.134121,4.45122,103.689,22.8963
495.247,6.00928,-7.3438,0,4.41881,8.91905,-3.04646,-6.03659,-14.6037,81.3415,-13.8193,-0.534089,1.35558,-12.0427,86.0976,22.1037
495.257,7.41919,-6.91536,0,4.64873,8.5598,-3.11592,1.76829,-11.7683,97.9573,-14.4252,0.174836,0.972378,-35.2439,77.0122,21.0671
495.267,8.93152,-6.67979,0,4.40444,8.52866,-2.68961,11.0366,-8.75,113.72,-14.133,0.902922,-0.138911,-43.3841,81.4939,26.2195
495.277,10.4252,-6.48543,0,3.55421,9.1346,-1.91123,10.6098,-3.90244,127.256,-13.0289,1.17356,-0.311353,-46.0366,81.3719,33.5976
495.287,11.9151,-6.244,0,2.56507,9.26873,-1.42504,8.56707,-3.78049,141.738,-11.4051,0.134121,-0.00718506,-41.7683,71.25,32.0427
495.298,13.5283,-5.92461,0,2.52914,8.37538,-0.399968,10.122,-19.0854,154.634,-9.71899,-0.783171,0.354463,-28.8415,54.0244,22.6524
495.307,15.2807,-5.51919,0,2.91713,7.69999,0.328118,13.7805,-28.9024,164.085,-8.61968,-1.18553,0.677791,-9.69512,36.9512,16.5244
495.317,17.0234,-5.10407,0,2.37107,7.71675,1.72681,23.8415,-29.2378,174.146,-7.84608,-1.33403,0.701741,19.3902,29.7256,14.6951
495.327,18.5973,-4.76744,0,0.941243,7.47725,1.84417,41.128,-23.9024,180.701,-7.58742,-1.43701,0.462239,48.3841,18.1098,16.311
495.337,19.9313,-3.90409,0,-0.706531,8.60052,1.88967,61.6463,-22.0122,183.659,-7.84369,-1.39869,0.819097,76.311,2.43902,16.6768
495.347,21.2719,-3.52952,0,-0.795146,11.4506,1.32924,74.1768,-32.9878,185.579,-8.31551,-1.4897,0.780776,88.3537,-6.06707,13.628
495.357,22.608,-3.22007,0,-0.376018,13.848,-0.550855,78.0488,-40.8232,182.927,-8.89271,-1.37474,0.65863,88.811,-8.44512,5.45732
495.367,23.9356,-2.94333,0,1.18553,14.6048,-1.81063,78.5061,-49.3902,172.134,-9.50104,-0.855022,0.61552,86.7378,-12.439,1.18902
495.377,25.2457,-2.75218,0,3.68114,14.6479,-2.75906,79.3902,-52.9573,153.75,-9.86509,-0.162861,0.313748,83.3841,-12.5305,4.45122
495.387,26.5319,-2.60254,0,5.93725,13.7857,-3.05365,79.1768,-43.0183,135.213,-10.119,0.6251,0.170046,78.2012,-12.8963,12.9268
495.397,27.7904,-2.46108,0,6.93598,12.1835,-2.25371,82.0122,-23.689,122.043,-10.3321,1.16637,0.162861,67.7439,-13.4451,26.4329
495.407,28.962,-2.35492,0,6.07616,11.0051,-1.24302,89.8781,-5.85366,117.287,-10.4399,1.27894,0.0263452,55.0915,-15.2134,37.1341
495.417,30.0701,-2.28003,0,5.49178,11.0267,-0.486189,92.6829,12.1341,118.14,-10.2411,1.17356,-0.0981958,43.1402,-17.2866,46.8293
495.427,31.1642,-2.25433,0,5.07744,10.9452,-0.0263452,99.0549,37.0427,122.226,-9.86748,0.986748,-0.299377,31.7988,-21.5549,54.6341
495.437,32.2199,-2.25822,0,4.66789,11.0937,0.102986,100.152,68.9329,124.756,-9.53218,0.811912,-0.411943,23.2927,-24.6646,58.9329
495.447,33.1818,-2.30012,0,3.84401,11.1823,0.179626,94.9695,94.4512,125.183,-9.33818,0.627495,-0.565225,17.1646,-29.8171,61.25
495.457,34.0697,-2.38444,0,3.36261,10.8542,0.229922,87.0427,110.518,123.201,-9.27591,0.579595,-0.744851,16.189,-32.622,60.2744
495.467,34.8801,-2.44431,0,2.95066,10.404,0.184417,77.3781,112.378,119.909,-9.28549,0.59636,-0.66342,10.4268,-38.4451,55.7622
495.477,35.5988,-2.51691,0,2.74469,9.84114,-0.00479004,67.439,107.256,112.713,-9.36453,0.64905,-0.737666,4.7561,-45.7317,50.122
495.487,36.2301,-2.59064,0,2.69919,9.24957,-0.172441,60.061,99.1768,103.872,-9.41482,0.65384,-0.761616,4.32927,-49.7561,44.5122
495.497,36.7791,-2.6858,0,2.41178,9.06275,-0.651445,55.3049,89.7256,99.5427,-9.3765,0.66821,-0.859812,0.365854,-49.6037,39.6037
495.507,37.219,-2.78513,0,2.23695,8.71787,-0.780776,47.5,77.8354,90.5793,-9.25915,0.603545,-0.881367,-3.10976,-49.2073,36.7988
495.517,37.5545,-2.92604,0,2.27527,8.23168,-0.835862,39.5427,66.8293,78.6585,-9.11065,0.524509,-1.05141,-9.20732,-48.4146,33.4146
495.527,37.7879,-3.11049,0,2.40939,7.81495,-0.881367,33.628,56.0671,65.4878,-8.89989,0.380808,-1.22146,-13.7805,-46.6159,31.4634
495.537,37.8758,-3.31562,0,2.30161,7.46049,-0.974773,29.8171,43.9329,51.0976,-8.75619,0.318538,-1.31247,-18.3841,-47.3171,28.872
495.547,37.7621,-3.5771,0,1.84656,7.17787,-0.967588,27.1037,28.9939,36.25,-8.72027,0.213157,-1.56155,-21.7683,-47.2256,27.8354
495.557,37.4218,-3.88977,0,1.346,6.93837,-1.0586,24.6646,12.9268,19.939,-8.77535,0.201182,-1.81782,-24.3293,-46.5854,25.0915
495.567,36.6158,-4.20392,0,0.950823,6.82581,-1.22625,19.5732,-2.9878,4.32927,-8.93342,0.328118,-1.90644,-24.3293,-45.1524,23.1402
495.577,35.8134,-4.48206,0,0.299377,6.71324,-1.21667,12.5,-22.0122,-12.3476,-9.20885,0.435894,-1.86572,-23.5366,-45.5488,21.0366
495.587,34.7341,-4.7447,0,-0.416733,6.25819,-1.53042,7.9878,-48.5061,-29.2683,-9.4244,0.517324,-1.88967,-20.8841,-45.1829,16.8293
495.598,33.3444,-5.01204,0,-1.33642,5.71212,-1.96871,0.335366,-74.3598,-44.0549,-9.47709,0.546064,-1.96152,-19.6951,-40,9.32927
495.607,31.829,-5.28194,0,-1.23823,5.68338,-2.3543,1.92073,-115.762,-61.4939,-9.33579,0.684976,-1.98068,-22.5305,-30.4268,-1.09756
495.617,30.4593,-5.5547,0,0.694556,7.05573,-2.62015,-6.95122,-133.201,-86.2805,-9.08431,0.948428,-1.97589,-29.6341,-20.4573,-10.4573
495.628,29.2346,-5.82163,0,3.25004,7.92991,-1.73399,-34.9695,-118.689,-108.293,-8.92384,1.09692,-1.95434,-39.0854,-11.6463,-18.5671
495.637,28.2658,-6.07459,0,5.86061,7.31199,-0.225132,-60.0915,-96.5244,-118.201,-8.78014,1.2502,-1.83938,-48.0183,-4.14634,-24.9695
495.647,27.5427,-6.33548,0,7.95865,6.65336,0.273032,-72.4085,-86.0671,-118.354,-8.70111,1.41306,-1.79147,-60.3354,3.20122,-28.4146
495.657,26.9463,-6.53393,0,9.88904,6.86652,-0.924478,-71.7683,-86.1281,-117.348,-8.76817,1.4897,-1.75076,-71.189,11.0061,-27.9268
495.667,26.3889,-6.68901,0,11.168,7.79579,-3.09916,-68.689,-82.2561,-114.299,-9.00288,1.47533,-1.64538,-82.9268,18.811,-28.0488
495.677,25.914,-6.80256,0,11.647,7.93949,-5.35766,-57.561,-56.7683,-108.323,-9.34058,1.42504,-1.55197,-90.4573,24.7866,-28.5671
495.687,25.4999,-6.91226,0,12.0541,8.05685,-6.65336,-42.6829,-1.31098,-104.146,-9.70701,1.21427,-1.60945,-95,32.0427,-28.628
495.697,25.1564,-6.99813,0,11.6182,7.66646,-6.31567,-21.7988,58.75,-98.4756,-10.1573,0.840652,-1.5879,-92.7439,39.4817,-30.3659
495.707,24.9089,-7.09688,0,11.0458,7.42217,-5.82708,0.762195,95.3049,-88.4146,-10.6219,0.419128,-1.7316,-84.1463,47.0427,-31.7073
495.717,24.6864,-7.22211,0,9.39327,7.90835,-4.63436,18.5061,96.3719,-73.7195,-11.1177,-0.0622705,-1.95673,-64.2073,56.0366,-31.4634
495.727,24.592,-7.39599,0,8.08559,7.77423,-4.29187,35.1829,75.8232,-53.3841,-11.6206,-0.58678,-2.31598,-42.8963,69.0549,-29.1159
495.737,24.5538,-7.60477,0,6.9743,8.52627,-4.06674,31.8293,56.7378,-33.872,-11.9032,-1.152,-2.58662,-26.2195,82.4695,-26.1585
495.747,24.4686,-7.89363,0,5.39837,9.41722,-2.80217,19.1159,43.4756,-19.4512,-11.8793,-1.22146,-3.05604,-15.2744,95.3963,-25.5183
495.758,24.3386,-8.18477,0,4.16494,9.71899,-1.82261,7.31707,21.128,-10.6707,-11.5751,-1.03465,-3.03688,-8.65854,110.03,-25.3659
495.767,24.174,-8.35357,0,3.79132,10.4207,-0.344883,-2.5,1.70732,-7.92683,-11.4506,-0.490979,-2.41178,-12.1951,111.799,-26.4024
495.777,23.9063,-8.45232,0,3.62127,11.4961,-0.0191602,-6.28049,-5.85366,-13.6585,-11.6182,-0.134121,-2.1148,-20.5488,107.317,-32.8659
495.787,23.4503,-8.44065,0,2.95066,11.9296,-1.04183,-1.4939,-13.2622,-26.0976,-11.8817,0.148491,-1.59029,-28.872,107.896,-40.122
495.797,22.7485,-8.33549,0,3.01293,14.2935,-1.78429,-4.05488,-22.3476,-48.0488,-12.2841,0.514929,-1.12805,-36.7683,108.78,-44.2378
495.807,21.9253,-8.16882,0,4.20326,15.8598,-1.76034,-21.0976,-28.1707,-67.8659,-12.9954,0.450264,-0.814307,-41.7683,109.299,-45.4268
495.817,21.3105,-7.89108,0,6.70605,14.4755,-0.608335,-55.122,-25.5183,-68.7195,-13.6157,0.313748,-0.160466,-42.9878,97.0122,-40.8232
495.827,20.9323,-7.57012,0,6.60307,12.5571,0.320933,-71.6463,-23.7805,-51.7073,-13.8193,0.0526904,0.146096,-40.3354,79.1463,-33.0488
495.837,20.7431,-7.21214,0,5.92528,10.9189,-0.249082,-60.3354,-27.4695,-34.7256,-13.7043,-0.531694,0.426313,-37.7439,63.0183,-23.9024
495.847,20.498,-6.95638,0,3.96615,9.13939,-0.249082,-40.3963,-40.122,-30.5488,-12.7942,-0.902922,-0.105381,-38.2622,56.9207,-17.2256
495.857,20.1361,-6.66714,0,3.11832,7.6473,-0.816702,-18.0793,-19.3293,-40.3659,-11.2135,-0.706531,0.119751,-41.311,53.3537,-5.36585
495.867,19.3011,-6.21575,0,0.66342,7.68562,-1.2526,-2.40854,-0.609756,-54.1768,-10.1405,-0.457449,0.871787,-49.7561,36.7988,5
495.877,17.9965,-5.66344,0,-1.88728,8.07361,-1.87291,4.39024,14.5427,-66.8902,-9.13939,-0.419128,1.25739,-58.9329,20.6098,8.41463
495.887,16.5322,-5.0728,0,-2.6944,8.44723,-2.13396,-1.09756,18.4146,-76.5854,-8.30832,-0.285007,1.35798,-70.7927,9.05488,6.09756
495.897,15.1181,-3.49158,0,-2.02619,8.5119,-2.17228,-13.2622,18.7805,-83.2317,-7.71436,-0.102986,1.44899,-84.0854,-2.19512,3.59756
495.907,13.8898,-3.05868,0,-0.627495,8.25803,-2.00942,-23.4146,23.0488,-85.6098,-7.3599,0.0766406,0.953218,-93.4756,-11.9817,1.92073
495.917,12.8772,-2.78041,0,0.483794,8.11193,-1.70525,-26.189,27.9268,-81.9512,-7.34552,0.00718506,0.498164,-93.6281,-17.8963,1.25
495.927,12.0855,-2.58441,0,1.21427,8.11912,-1.40109,-24.7561,28.0183,-71.8598,-7.81974,-0.435894,0.277822,-86.4634,-27.1037,-1.92073
495.937,11.4275,-2.50681,0,1.26218,8.28916,-1.31008,-18.6585,16.0366,-60.1524,-8.52627,-1.03465,-0.117356,-76.1585,-33.0793,-4.96951
495.947,10.8123,-2.52939,0,0.811912,8.67237,-1.61664,-11.5549,0.823171,-50.3659,-9.31423,-1.70765,-0.526904,-63.5671,-32.5,-10.4573
495.957,10.282,-2.62811,0,0.969983,8.92863,-2.37825,-6.64634,-8.84146,-44.6951,-10.0711,-2.36388,-0.907712,-48.7195,-25.8537,-19.7561
495.967,9.80676,-2.78623,0,1.33642,8.90229,-2.86205,-3.84146,-8.38415,-44.939,-10.5764,-2.79978,-1.24541,-32.5305,-19.1463,-27.4085
495.977,9.32045,-2.94478,0,1.36037,9.02443,-2.89318,-3.96341,-5.21341,-47.1037,-10.665,-2.90995,-1.28373,-14.4512,-14.8476,-34.0854
495.987,8.8346,-3.15756,0,1.4921,9.25915,-2.66566,-6.46341,-2.28659,-49.2378,-10.3058,-2.67763,-1.51844,-0.0914634,-12.8354,-34.2683
495.997,8.34524,-3.31088,0,1.44659,9.22562,-2.14594,-9.08537,-3.9939,-50.0915,-9.83156,-2.22018,-1.22386,10.1829,-13.4451,-34.4512
496.007,7.90415,-3.4072,0,1.54958,9.15137,-1.7292,-11.7378,-7.34756,-47.5915,-9.4268,-1.81063,-0.960403,13.1707,-15,-33.0488
496.017,7.54558,-3.4549,0,1.825,9.07712,-1.43222,-13.75,-11.2195,-43.6585,-9.27831,-1.31008,-0.768801,2.53049,-25.2134,-32.5
496.027,7.288,-3.54559,0,2.16989,8.91187,-1.25739,-15.3049,-16.5244,-38.811,-9.12981,-0.936453,-0.941243,-7.80488,-28.5061,-32.9573
496.037,7.11892,-3.66685,0,2.48364,8.84481,-1.2526,-16.25,-22.1341,-34.3902,-8.99569,-0.677791,-1.06578,-12.3171,-30.122,-31.9512
496.047,6.98164,-3.79257,0,2.49082,8.84241,-1.37714,-17.8659,-25.9451,-31.5854,-8.94779,-0.60594,-1.09931,-14.6341,-32.8659,-30.3354
496.057,6.83306,-3.88247,0,2.30401,8.91426,-1.54479,-19.9085,-27.8049,-30.4878,-8.90708,-0.617915,-0.974773,-20.122,-36.9207,-27.7744
496.067,6.62616,-3.9697,0,1.94236,9.07233,-1.88728,-22.2561,-28.9024,-31.8293,-8.86397,-0.66342,-0.974773,-25.4573,-38.4451,-24.1463
496.077,6.3595,-4.08029,0,1.64538,9.23759,-2.12917,-22.4085,-29.0244,-34.2988,-8.77056,-0.603545,-1.06818,-28.7195,-36.6768,-18.0183
496.087,6.04302,-4.23196,0,1.41067,9.331,-2.36388,-21.2805,-27.5,-36.8598,-8.67716,-0.64426,-1.23104,-27.0427,-33.2317,-9.7561
496.097,5.68415,-4.3983,0,1.23583,9.26873,-2.36628,-20.6098,-24.6037,-39.7866,-8.62686,-0.795146,-1.3005,-23.811,-28.3537,-1.64634
496.107,5.29038,-4.56837,0,1.05381,9.09149,-2.20342,-18.4756,-21.8598,-42.0732,-8.66758,-0.938848,-1.346,-19.2073,-27.0427,4.48171
496.117,4.89352,-4.69746,0,1.0107,8.93821,-1.99026,-16.189,-20.2439,-42.8659,-8.71308,-1.12326,-1.21906,-15.7927,-27.5915,9.08537
496.127,4.55735,-4.81933,0,1.3484,8.96695,-1.83458,-14.2988,-17.378,-41.7683,-8.81607,-1.31247,-1.22625,-13.9024,-28.9939,11.0671
496.137,4.28123,-4.9321,0,1.66693,9.13939,-1.66454,-13.2622,-14.4207,-39.9695,-9.00048,-1.52323,-1.23583,-12.9878,-30.5793,12.3171
496.147,4.0589,-5.05873,0,1.98787,9.19687,-1.6837,-13.0488,-9.02439,-38.8415,-9.17772,-1.66454,-1.33642,-13.2622,-31.3415,12.439
496.158,3.84923,-5.24332,0,2.14354,9.25436,-1.69088,-12.2866,-3.84146,-39.7256,-9.29986,-1.74836,-1.61664,-12.378,-28.5671,12.3171
496.167,3.6014,-5.46779,0,1.96392,9.29986,-1.76752,-12.0427,0.152439,-41.7683,-9.35495,-1.7771,-1.825,-11.2805,-25.6402,12.1951
496.177,3.27027,-5.68521,0,1.47054,9.29507,-1.78908,-12.8963,2.0122,-44.7866,-9.42919,-1.73639,-1.84417,-9.60366,-21.8598,12.4695
496.187,2.88613,-5.94805,0,1.22625,9.56092,-1.88967,-13.5366,4.48171,-47.439,-9.35016,-1.62143,-2.05972,-6.18902,-20.3049,14.4512
496.197,2.44168,-6.26199,0,0.871787,9.87706,-1.94476,-15.0305,5.36585,-49.7561,-9.21843,-1.4897,-2.28964,-3.56707,-14.7256,18.4756
496.207,1.93197,-6.63575,0,0.495769,9.92257,-1.92081,-16.4329,2.56098,-52.8659,-9.03401,-1.3963,-2.5483,2.40854,-10.6707,22.0122
496.217,1.36748,-7.05258,0,0.174836,10.0064,-1.98068,-18.4756,-2.83537,-55.7012,-8.78014,-1.35319,-2.67524,6.40244,-4.96951,25.061
496.227,0.805607,-7.48841,0,0.232317,9.79084,-1.94236,-21.0976,-10.3049,-57.3171,-8.63884,-1.40109,-2.57465,12.7439,-3.23171,26.9207
496.237,0.296448,-7.88222,0,0.570015,9.75731,-2.01421,-24.5122,-17.9878,-57.1341,-8.47837,-1.33882,-2.42136,16.372,-3.29268,30.3659
496.247,-0.121942,-8.23566,0,1.11129,9.76689,-2.19144,-28.3841,-23.0793,-55.3354,-8.31072,-1.28852,-2.28485,19.2073,-3.41463,35.122
496.257,-0.456536,-9.79485,0,1.54239,9.8124,-2.12917,-31.4329,-28.6585,-52.622,-8.2221,-1.4442,-2.31598,23.7805,0.335366,38.9024
496.268,-0.704605,-10.02,0,2.05493,9.55852,-2.33754,-32.8659,-29.0244,-51.0061,-8.32988,-1.80105,-2.29922,26.6768,7.86585,38.1098
496.277,-0.839209,-10.1804,0,2.7399,9.49625,-2.57225,-33.1402,-29.4817,-48.0183,-8.51908,-2.07169,-2.12438,27.0427,13.628,33.4756
496.287,-0.895369,-10.3092,0,3.09676,9.4723,-2.54112,-33.5061,-26.8598,-44.3902,-8.98132,-2.16749,-2.13157,27.622,16.6768,31.189
496.298,-0.873198,-10.3403,0,3.44883,9.15856,-2.61536,-34.2988,-20.3354,-41.6768,-9.56571,-1.96152,-1.85854,27.0732,19.8171,32.561
496.307,-0.736269,-10.2571,0,3.88951,9.06275,-2.65847,-34.2073,-11.4329,-35.2134,-10.2866,-1.53042,-1.47533,19.8171,16.0061,38.4146
496.317,-0.524329,-10.1048,0,3.94699,8.96216,-2.55309,-33.3232,-5.12195,-28.3841,-10.9668,-1.08973,-1.21667,5.18293,16.0366,42.8049
496.327,-0.244961,-10.1206,0,3.82724,8.82804,-2.52914,-30.4878,0.426829,-20.3963,-11.3476,-0.61552,-2.07888,-9.35976,24.7561,44.6646
496.337,0.100497,-10.3356,0,3.53984,8.62446,-2.59381,-26.8293,4.7561,-10.7927,-11.1273,-0.0981958,-3.05125,-17.4085,43.689,46.311
496.347,1.67056,-10.6371,0,2.96264,8.43526,-2.62734,-23.689,5.64024,0.0609756,-10.6099,0.325723,-3.37219,-12.4085,63.9939,53.872
496.357,2.11858,-10.9378,0,2.80936,8.5598,-2.63213,-18.9024,3.84146,12.0427,-9.93933,-0.500559,-3.20693,-5.73171,70.3354,56.9817
496.367,2.69049,-11.1028,0,2.93629,8.84002,-2.72314,-12.5,0.823171,25.1829,-9.89862,-1.26936,-2.60818,6.7378,69.1159,55.3659
496.377,3.41891,-11.1968,0,3.33387,9.331,-2.95785,-8.84146,-1.55488,39.6951,-10.3177,-1.3963,-2.40699,17.8963,69.9085,55.6707
496.387,4.30993,-11.2437,0,3.85119,9.73336,-3.03928,-7.04268,-3.87195,53.8415,-11.0339,-1.19751,-2.33993,28.0488,82.5915,60.2439
496.398,5.40908,-11.1559,0,4.78285,10.1405,-2.95066,-6.34146,-4.69512,69.4207,-12.1978,-1.15919,-1.83698,32.7744,93.2927,61.7378
496.407,6.68536,-10.9463,0,5.23791,9.91059,-2.79259,-4.11585,-9.42073,84.4207,-12.9044,-1.13763,-1.22146,29.7866,92.0732,57.1341
496.417,8.11615,-10.5436,0,5.45346,9.56571,-2.6944,-0.365854,-13.6585,99.0549,-14.0252,-0.433499,-0.0958008,22.0427,77.7134,49.0854
496.427,9.61857,-10.0485,0,5.15648,9.55613,-2.97222,-0.182927,-11.8598,112.012,-15.2251,-0.0574805,0.60115,4.7561,61.0671,39.2988
496.437,11.127,-9.65523,0,4.11704,9.47949,-2.81175,-0.518293,-4.66463,125.64,-16.2119,0.526904,0.0479004,-12.7744,58.0793,23.7195
496.447,12.6594,-9.40513,0,3.21172,8.96216,-1.35319,-2.10366,-10.9451,138.841,-15.2946,1.23583,-0.816702,-15.1524,57.1646,18.4451
496.457,14.2905,-9.1372,0,2.79978,8.64363,-0.486189,0.579268,-17.1341,155.64,-12.9475,1.04902,-0.548459,-8.93293,43.1707,23.9939
496.467,15.9633,-8.83322,0,2.31838,8.25084,0.859812,8.84146,-23.5366,167.835,-10.8878,0.227527,-0.253872,4.7561,25.3049,27.5305
496.477,17.5707,-8.53188,0,1.36756,8.56459,1.61903,13.2622,-25.7012,178.079,-9.39806,-0.507744,-0.186812,24.1463,17.1341,27.0122
496.487,18.9217,-8.19469,0,-0.718506,8.84241,0.907712,22.8659,-21.6463,183.201,-8.62926,-1.04662,0.00479004,47.7744,10.2134,23.7195
496.497,20.2238,-7.78926,0,-1.13045,11.0698,1.24062,35.5488,-38.2012,183.384,-8.55262,-0.608335,0.296982,53.0793,-8.68902,18.0183
496.508,21.5674,-6.98415,0,-0.00479004,12.8708,-0.912502,51.6768,-46.8902,178.415,-7.77902,-1.31487,0.117356,81.1585,2.28659,14.6646
496.517,22.8532,-6.59007,0,0.58678,13.2037,-2.90755,70.3963,-43.689,170.03,-8.00416,-1.03225,0.390388,85.9146,-6.64634,17.0427
496.527,24.1139,-6.21607,0,2.32317,13.7881,-3.62606,78.3232,-51.5854,155.762,-8.52627,-0.6251,0.414338,76.4329,-14.5732,19.6037
496.537,25.3202,-5.95164,0,4.09309,13.7283,-3.40572,76.9817,-60.3659,138.415,-9.15376,-0.0311353,0.0598755,60.8841,-17.5,22.3171
496.547,26.4576,-5.77701,0,5.22593,12.7702,-2.1651,70.1219,-61.4939,122.317,-9.64474,0.467029,-0.273032,49.3293,-16.128,28.3841
496.557,27.5364,-5.66224,0,5.70254,11.1321,-0.66821,72.7439,-49.2683,108.72,-9.82677,0.917292,-0.505349,37.7744,-13.1707,38.5671
496.567,28.6094,-5.56017,0,6.45218,9.91538,-0.0838257,84.5122,-19.4512,98.2317,-9.93454,1.26697,-0.546064,22.5915,-12.4085,48.872
496.577,29.615,-5.49348,0,5.98515,9.55613,0.0934058,97.3171,16.7378,95.5793,-9.82677,1.29092,-0.677791,5.73171,-14.0244,55.7012
496.587,30.5766,-5.45429,0,5.46064,10.0136,0.273032,104.085,52.4085,100.183,-9.43159,1.16398,-0.756826,-8.84146,-16.9817,59.0244
496.597,31.5254,-5.45762,0,5.15408,10.0064,0.126936,101.646,84.2378,103.598,-8.91426,1.16637,-0.878972,-20.8537,-18.7805,61.3415
496.607,32.4251,-5.47908,0,4.48827,9.60403,0.227527,96.8902,106.86,105.03,-8.59333,1.09213,-0.919688,-29.9085,-22.0732,63.3841
496.617,33.2062,-5.48924,0,3.48236,9.57529,0.124541,93.4451,122.256,105.091,-8.57177,1.03465,-0.881367,-37.439,-27.2561,65
496.627,33.8827,-5.47606,0,2.83331,9.25915,-0.201182,87.2256,130.457,102.073,-8.66758,1.00351,-0.807122,-46.6159,-33.0793,63.628
496.637,34.4632,-5.45358,0,2.56267,8.95737,-0.462239,79.1768,130.64,95.7927,-8.90468,0.960403,-0.795146,-54.6646,-39.2683,60.2134
496.647,34.9536,-5.4333,0,2.41178,8.67955,-0.646655,70.5183,124.146,88.689,-9.1825,0.946033,-0.828677,-62.1951,-43.4756,53.872
496.657,35.3205,-5.46008,0,2.15552,8.61249,-0.807122,62.1037,109.055,80.0915,-9.45075,0.960403,-1.04662,-70.3049,-42.378,46.7073
496.667,35.5501,-5.50189,0,1.62143,9.34537,-1.04183,54.1159,95.2744,75.4268,-9.61361,0.955613,-1.13284,-77.1646,-41.372,39.4207
496.677,35.7494,-5.56277,0,1.98068,8.61489,-1.33642,47.6829,81.3415,66.4634,-9.70222,0.814307,-1.23344,-80.6707,-41.5854,31.8598
496.687,35.8214,-5.6656,0,1.81303,8.5119,-1.40348,39.6341,65.061,55.7622,-9.62319,0.55804,-1.41546,-78.0488,-42.0427,25.122
496.697,35.7844,-5.82429,0,1.79626,8.21013,-1.35319,34.1463,47.378,44.1463,-9.57768,0.158071,-1.66693,-74.7561,-40.4268,13.8415
496.707,35.5835,-6.028,0,1.45378,8.00655,-1.36277,32.1037,29.4817,31.5244,-9.51302,-0.261057,-1.8777,-68.5976,-39.8171,2.71341
496.717,35.215,-6.26381,0,1.18314,8.0784,-1.33882,27.8963,13.5976,18.0183,-9.40764,-0.340093,-2.03098,-61.8598,-40.3354,-5.94512
496.727,34.5829,-6.51274,0,0.900527,8.05206,-1.152,21.8293,-1.92073,4.11585,-9.40045,-0.373623,-2.12678,-51.5549,-40.0305,-10.5793
496.737,33.9086,-6.74702,0,0.677791,7.82692,-0.991538,16.0366,-16.7073,-8.07927,-9.48428,-0.395178,-2.12678,-38.0793,-42.5,-11.5854
496.747,33.0654,-6.93618,0,0.131726,7.58742,-0.953218,10.8537,-35.5793,-18.872,-9.58008,-0.399968,-1.99266,-25.5793,-45.6707,-12.1646
496.757,32.1194,-7.13826,0,-0.0287402,7.43414,-0.979563,7.10366,-57.1951,-28.5976,-9.51062,-0.399968,-2.0669,-14.4512,-44.878,-14.0244
496.767,31.163,-7.35345,0,0.352068,7.66885,-1.3484,-0.609756,-73.4146,-37.4085,-9.35974,-0.313748,-2.12199,-11.9512,-40.7012,-16.5854
496.777,30.1699,-7.59055,0,0.646655,7.55868,-1.33163,-3.47561,-90.5183,-47.7134,-9.14658,-0.0119751,-2.19863,-8.87195,-35.4268,-18.5976
496.787,29.2054,-7.87542,0,1.86333,8.0784,-1.88728,-2.86585,-104.116,-63.3537,-8.95019,0.263452,-2.38783,-10.0305,-31.0671,-21.2195
496.797,28.2789,-8.14798,0,3.42009,8.53345,-2.04056,-13.5976,-102.713,-79.5122,-8.90947,0.627495,-2.37107,-14.2988,-29.1768,-21.5549
496.807,27.4032,-8.33015,0,4.80201,8.32748,-1.6334,-28.628,-91.0976,-92.8049,-9.00048,1.02986,-2.06451,-18.689,-34.4817,-22.3476
496.817,26.6018,-8.42308,0,5.81511,7.77423,-1.06099,-39.0549,-77.6829,-100.945,-9.14179,1.35079,-1.75555,-25.2134,-39.1159,-23.1707
496.827,25.9322,-8.48104,0,6.84976,7.09644,-1.20469,-41.4329,-69.0549,-103.811,-9.20406,1.62622,-1.63819,-32.9268,-41.4939,-22.1037
496.837,25.3848,-8.51737,0,7.95625,6.89526,-1.76992,-40,-65.7622,-103.11,-9.28789,1.88488,-1.57113,-42.4695,-40.9756,-19.7256
496.847,24.9747,-8.57845,0,8.81846,6.67731,-2.97461,-37.5915,-64.6341,-97.9268,-9.32142,1.98547,-1.68609,-49.3902,-39.0244,-17.8049
496.857,24.6827,-8.68127,0,9.15856,6.35399,-4.04758,-27.7744,-62.0122,-91.5854,-9.4747,1.81303,-1.89925,-54.939,-32.378,-16.311
496.867,24.4422,-8.79993,0,9.24238,6.76354,-4.99841,-15.9451,-52.8354,-83.9634,-9.67348,1.47294,-2.0214,-58.75,-25.2439,-19.1159
496.877,24.2437,-8.92526,0,9.137,7.30241,-5.64027,-10.0915,-36.7073,-75.2134,-10.0016,0.955613,-2.13157,-61.7378,-13.3841,-23.9634
496.887,24.0805,-9.03572,0,8.943,7.84848,-5.6762,-6.34146,-17.0732,-66.6159,-10.4088,0.457449,-2.1627,-57.6829,-5.94512,-29.9695
496.897,23.9544,-9.11051,0,8.27479,8.09756,-4.73256,1.18902,-8.93293,-56.8293,-10.6051,0.0598755,-2.02858,-48.2317,-2.5,-34.8171
496.907,23.9402,-9.20502,0,8.0808,8.06164,-3.76018,13.9939,-12.8049,-44.5427,-10.7944,-0.459844,-2.18905,-36.0671,6.09756,-35.6707
496.917,24.1552,-9.34624,0,9.0867,7.73352,-3.91107,23.5061,-9.20732,-30.4268,-10.7752,-1.04662,-2.42376,-22.8049,19.0244,-38.1098
496.927,24.5589,-9.56505,0,9.51541,7.44851,-3.63803,24.939,6.21951,-15.5183,-10.5572,-1.44899,-2.76864,-10.2134,35.7012,-36.311
496.937,24.9733,-9.84418,0,9.01964,7.89159,-3.0776,25.2134,22.622,-7.22561,-10.2818,-1.41785,-3.01533,-2.13415,54.3902,-32.1341
496.947,25.3088,-10.1825,0,7.83171,8.21252,-3.01772,28.1402,30.6402,-4.05488,-9.97286,-0.977168,-3.25004,2.40854,68.2927,-25
496.957,25.5341,-10.4668,0,6.67252,8.15504,-3.15185,29.1463,34.0244,-5.60976,-9.94652,-0.124541,-3.03928,-1.82927,74.9695,-16.1585
496.967,25.5544,-10.6418,0,5.35526,8.58375,-3.27878,29.2988,37.0732,-11.0366,-10.1022,0.60594,-2.61536,-13.7195,74.7866,-9.66463
496.977,25.2702,-10.7059,0,3.94699,10.004,-3.57816,24.5427,34.0244,-20.7927,-10.5381,1.08255,-2.21779,-31.128,76.0061,-7.59146
496.988,24.679,-10.7325,0,3.01772,11.7045,-3.74102,14.2378,31.4939,-38.2622,-11.0578,1.31008,-2.14354,-49.3293,82.2866,-13.6585
496.997,23.8254,-10.7254,0,2.8357,13.2924,-3.04167,-0.243902,27.7134,-61.311,-11.5943,1.40588,-2.0669,-66.9207,89.8476,-22.8963
497.007,22.8077,-10.6686,0,3.3195,14.4228,-1.62861,-24.9085,28.1098,-81.6768,-11.9368,1.35079,-1.84656,-81.4939,100.579,-34.6646
497.017,21.8208,-10.4781,0,3.95178,14.121,0.912502,-54.878,19.3902,-86.0671,-12.2984,1.16398,-1.15679,-92.8963,97.8354,-41.4024
497.027,21.1564,-10.0776,0,6.18634,13.4528,1.86572,-75.3354,26.5549,-73.6585,-12.5834,0.804727,0,-98.3537,73.4451,-46.4634
497.037,20.7894,-9.62407,0,6.70845,12.5715,0.749641,-67.9878,22.3476,-51.5854,-12.7918,0.282612,0.352068,-98.3841,40.8537,-46.189
497.048,20.6164,-9.25312,0,5.97797,11.0458,-1.6813,-43.7195,6.52439,-33.2317,-13.0217,-0.677791,-0.0263452,-89.5427,28.4451,-46.4634
497.057,20.4574,-8.89805,0,4.99601,9.3286,-3.12311,-19.0244,2.56098,-31.6463,-12.8828,-1.38432,-0.0335303,-87.1646,27.8049,-43.872
497.067,19.9876,-8.41422,0,2.60578,7.73591,-3.19496,4.60366,18.9634,-44.1768,-12.2793,-1.49449,0.730481,-94.2683,17.1037,-35.2439
497.077,18.9763,-7.86723,0,-0.296982,7.6952,-3.29555,20.0305,40.061,-57.8963,-11.1632,-1.09452,1.04662,-99.8476,-6.34146,-20.5488
497.087,17.6373,-7.32877,0,-2.28485,8.27479,-3.10634,19.2988,47.1037,-66.4024,-9.92736,-0.936453,0.974773,-101.128,-24.6951,-2.2561
497.097,16.242,-6.65663,0,-2.20102,7.92272,-2.61057,9.81707,45.122,-74.6951,-9.10826,-0.821492,1.51365,-111.86,-42.2256,8.90244
497.107,14.92,-5.99313,0,-1.88488,8.53585,-1.35079,-5.36585,30.3354,-76.3415,-8.55022,-0.481399,1.48012,-128.476,-56.0671,14.3902
497.117,13.6785,-5.45483,0,-1.39151,8.45681,-0.529299,-16.6463,21.128,-77.1646,-8.33227,-0.143701,1.06818,-140.427,-59.5732,13.872
497.127,12.5157,-5.06289,0,-1.27894,8.82086,0.0958008,-21.9817,16.6768,-73.9024,-8.15744,-0.0502954,0.59157,-147.561,-59.5732,11.4329
497.137,11.4979,-4.82949,0,-1.09692,9.43877,-0.0718506,-24.5427,3.96341,-64.7866,-8.42568,-0.150886,0.0790356,-147.53,-59.2988,4.29878
497.147,10.6663,-4.73933,0,-0.775986,9.71899,-0.752036,-26.6768,-14.1463,-52.0732,-9.08431,-0.63468,-0.447869,-134.695,-54.5122,-4.72561
497.157,10.0667,-4.73026,0,0,9.27831,-1.74118,-27.378,-30.5183,-39.4207,-9.81479,-1.1544,-0.816702,-117.378,-49.8171,-16.6463
497.167,9.66653,-4.7823,0,0.967588,8.72506,-3.13987,-24.1159,-34.1768,-33.2012,-10.3848,-1.64777,-1.14003,-98.0488,-44.5122,-28.7195
497.177,9.36717,-4.8539,0,1.80105,8.48555,-4.15296,-17.622,-24.5732,-35.2744,-10.6746,-2.00224,-1.26936,-77.1951,-38.5671,-40.9451
497.187,9.01001,-4.92532,0,1.88728,8.69632,-4.28709,-13.5366,-13.9634,-42.3171,-10.6147,-2.33754,-1.27415,-56.2195,-37.8963,-50.8537
497.197,8.58329,-5.02105,0,1.83938,8.80409,-3.83203,-11.4634,-5.09146,-49.2378,-10.1693,-2.36628,-1.34361,-39.0549,-37.1037,-60.4878
497.207,8.07108,-5.09588,0,1.60227,8.95258,-3.06323,-10.1829,0.0609756,-55.4573,-9.53936,-2.19144,-1.18793,-25.4878,-37.9573,-66.6463
497.217,7.48527,-5.19165,0,1.13045,9.0891,-2.28485,-9.05488,1.7378,-57.7744,-9.07712,-1.98787,-1.22864,-14.5122,-39.2073,-69.4512
497.227,6.86431,-5.2928,0,0.696951,9.40285,-1.47054,-10.5793,-1.40244,-56.7378,-8.87594,-1.78668,-1.23823,-4.11585,-39.5732,-70.3049
497.237,6.26139,-5.35934,0,0.637075,9.69983,-0.979563,-14.5427,-5.30488,-55.1829,-8.88313,-1.67172,-1.12326,-4.2378,-47.1951,-67.1037
497.247,5.73559,-5.44075,0,1.06339,9.80521,-0.720901,-18.7805,-8.04878,-53.5061,-8.97174,-1.4897,-1.21188,-1.40244,-56.128,-64.8781
497.257,5.28862,-5.47091,0,1.51126,9.69743,-0.732876,-20.4268,-10,-51.9817,-9.17772,-1.31966,-1.04662,-0.579268,-61.2805,-60.5488
497.267,4.90042,-5.48286,0,1.7795,9.64474,-0.972378,-20.3963,-12.8963,-50.1524,-9.37411,-1.22146,-1.00112,-0.121951,-65.3049,-52.3476
497.277,4.55389,-5.5258,0,1.96392,9.55852,-1.41306,-20.0915,-17.1341,-49.0549,-9.38129,-1.1065,-1.13284,3.75,-64.2988,-46.189
497.288,4.19874,-5.60692,0,1.67891,9.20166,-1.85135,-18.5061,-23.2012,-48.0488,-9.32142,-0.922083,-1.29092,9.48171,-62.7134,-35.5488
497.297,3.83713,-5.69124,0,1.4442,9.02204,-2.29203,-16.2195,-27.2256,-46.8902,-9.19448,-0.747246,-1.2981,18.4146,-60.6098,-21.4634
497.307,3.44724,-5.74391,0,1.0586,9.00288,-2.49322,-14.3293,-31.2805,-45.6402,-9.05796,-0.675395,-1.16158,24.1159,-57.8659,-9.14634
497.317,3.05763,-5.8039,0,0.912502,9.16095,-2.7423,-13.5061,-32.0732,-44.3293,-8.92145,-0.637075,-1.18074,29.1463,-56.6159,-0.0609756
497.327,2.67981,-5.89772,0,0.869392,9.33579,-2.51956,-15.122,-32.7439,-43.1707,-8.80888,-0.677791,-1.30529,32.3171,-51.6768,7.2561
497.337,2.3418,-6.00202,0,1.04662,9.33818,-2.00942,-19.1159,-30.6098,-42.0732,-8.75859,-0.732876,-1.35319,39.4512,-50.7317,6.92073
497.347,2.0717,-6.10289,0,1.46815,9.2807,-1.3484,-23.4451,-27.2866,-41.128,-8.78014,-0.831072,-1.35798,44.939,-49.0244,6.46341
497.357,1.87252,-6.19633,0,1.93278,9.24957,-0.998723,-25.4878,-22.9878,-40.1829,-8.85678,-0.953218,-1.35558,49.7256,-48.3537,5.57927
497.367,1.72474,-6.29499,0,2.29922,9.08431,-0.931663,-24.6951,-19.6341,-40.2439,-8.99809,-1.18793,-1.41306,53.2317,-47.8963,5.73171
497.377,1.57926,-6.3789,0,2.25611,8.93582,-1.152,-22.8354,-17.8049,-40.2439,-9.13939,-1.37953,-1.38911,53.9329,-46.1585,4.60366
497.387,1.41237,-6.44528,0,2.08846,8.91905,-1.61424,-20.5183,-16.4634,-40.7012,-9.21125,-1.4921,-1.34121,52.6524,-46.311,6.89024
497.397,1.2182,-6.57212,0,1.8777,8.97893,-2.09564,-19.2683,-14.0549,-41.0366,-9.09149,-1.38193,-1.58071,50.8232,-43.4146,11.0976
497.408,0.966543,-6.77389,0,1.45378,9.02922,-2.42376,-19.2378,-12.3476,-41.8598,-8.85678,-1.27176,-1.85614,51.7073,-34.1768,19.6037
497.417,0.671005,-7.05609,0,1.11608,9.24957,-2.42136,-19.9085,-11.7683,-42.2256,-8.5598,-1.19272,-2.13875,52.0427,-25.9756,26.9207
497.427,0.345994,-7.41125,0,0.902922,9.53457,-2.34472,-22.561,-11.6159,-42.8354,-8.3203,-1.20709,-2.4022,54.4207,-16.0366,32.8354
497.437,0.0220805,-7.79423,0,0.953218,9.76928,-2.35191,-25.3963,-11.311,-43.7195,-8.11912,-1.27415,-2.49801,58.1707,-8.04878,36.7073
497.447,-0.277272,-9.647,0,1.24541,9.84593,-2.20102,-28.8415,-10.9756,-45.2134,-7.97062,-1.3005,-2.54351,60,0.670732,38.9329
497.457,-0.56364,-9.96483,0,1.46336,9.77407,-2.1172,-31.4024,-10.9146,-47.1646,-7.82213,-1.26218,-2.48364,66.25,8.41463,43.3841
497.468,-0.819589,-10.1667,0,1.72202,9.54415,-2.00224,-33.5061,-11.7378,-48.1402,-7.90835,-1.35798,-2.1172,70.5488,15.2134,47.7439
497.477,-1.03774,-10.2496,0,1.8777,9.26394,-1.94715,-32.0732,-13.4146,-47.3171,-8.25084,-1.61424,-1.7795,70.4573,17.8354,45.9451
497.487,-1.16133,-10.2236,0,2.5004,8.90468,-2.05972,-30.2439,-13.872,-46.7378,-8.72027,-1.66933,-1.46096,64.8171,16.9512,43.2927
497.498,-1.23359,-10.1687,0,2.67763,8.78733,-2.12917,-27.561,-12.3476,-44.3293,-9.24238,-1.346,-1.42264,61.8902,17.5305,43.1098
497.508,-1.21937,-10.03,0,3.13269,8.95977,-2.39502,-25.7622,-6.06707,-40.3963,-9.86988,-0.720901,-1.13763,52.1037,18.0793,46.0366
497.517,-1.15687,-9.54736,0,3.20454,9.06994,-2.25611,-24.4817,-2.10366,-35.8232,-10.9333,-0.366438,0.411943,34.2378,5.64024,47.3476
497.527,-0.955721,-9.07966,0,3.80808,8.93103,-2.01182,-22.561,8.14024,-28.9634,-10.6626,-1.05381,0.416733,2.16463,5.21341,50.7622
497.537,-0.679852,-8.93694,0,3.79132,8.97893,-2.02858,-21.9817,10.3659,-20.5183,-11.6757,1.36995,-1.14482,-27.4695,-2.10366,49.5427
497.547,-0.363105,-9.11583,0,3.25723,8.63405,-1.90644,-21.6159,15.9756,-11.25,-10.7441,1.79147,-2.5483,-34.9085,22.5,67.9878
497.557,0.240356,-9.47223,0,2.22737,8.69632,-1.52084,-19.4512,17.8659,-1.31098,-9.89862,1.18793,-3.19496,-32.2561,45.9146,84.3902
497.567,0.580274,-9.92159,0,2.01661,9.15376,-1.21906,-13.4146,13.1098,9.81707,-9.2807,0.0670605,-3.47038,-15.4878,64.1159,91.7073
497.577,0.996773,-10.2823,0,1.97829,9.7621,-1.68849,-8.32317,3.81098,20.3049,-9.47949,-1.09213,-3.20214,7.2561,73.6281,87.7439
497.588,1.51407,-10.4895,0,2.13636,10.277,-2.69679,-6.40244,-5.82317,30.8537,-10.2531,-1.7771,-2.76864,28.628,81.7378,79.6951
497.597,2.18179,-10.4903,0,2.68721,10.2411,-3.28836,-4.78659,-14.2073,41.2195,-11.6901,-1.8777,-2.07648,45.4878,88.5366,70.6707
497.608,3.05671,-10.2202,0,3.49194,9.67588,-3.40332,-3.62805,-20.7012,53.2317,-13.7474,-2.00942,-0.780776,51.7683,84.5122,54.6037
497.617,4.1598,-9.80178,0,4.3278,9.36932,-3.5566,-1.37195,-21.4024,68.2012,-15.3066,-1.93757,0.189207,49.0854,73.1707,33.4756
497.627,5.48999,-9.30068,0,4.90979,9.07233,-4.07632,4.11585,-17.622,86.2195,-16.5424,-1.41306,0.905317,41.128,56.6159,7.71341
497.637,6.99108,-8.92428,0,4.98643,8.8951,-3.95657,9.45122,-13.5061,104.634,-16.6645,-0.249082,0.138911,32.0122,55.1829,-8.84146
497.647,8.56176,-8.72529,0,4.53138,9.74773,-3.42248,10.5793,-7.19512,123.659,-15.2132,0.684976,-0.950823,29.2683,65.2439,-4.57317
497.657,10.1866,-8.60058,0,3.74581,10.4135,-2.79499,6.0061,-2.31707,142.896,-12.7631,0.275427,-1.16398,28.4756,73.811,8.90244
497.667,11.8786,-8.38004,0,3.16861,9.44835,-1.18074,-1.21951,-15.061,155.61,-10.5453,-0.682581,-0.495769,36.7683,68.6281,15.9451
497.677,13.6266,-8.04003,0,2.92911,8.26282,-0.112566,-5.15244,-28.0183,162.774,-8.82565,-1.07536,0.0694556,51.25,49.4512,21.8293
497.687,15.3076,-7.59216,0,2.03098,8.10714,1.32924,3.47561,-35.061,170.64,-7.791,-0.862207,0.469424,72.7134,36.0061,30.6098
497.697,16.7417,-7.00675,0,0.131726,8.38257,1.55197,18.9634,-38.9329,175.732,-7.53473,-0.531694,0.965193,94.6037,22.0122,41.128
497.708,17.9453,-4.84719,0,-1.90404,9.51062,1.86812,38.2317,-47.8049,180.091,-7.41019,-0.665815,1.69088,110.396,2.28659,47.8049
497.717,19.1824,-4.3885,0,-1.88488,12.0038,0.63468,50.0915,-58.5366,181.067,-7.92991,-0.419128,0.926873,111.829,-8.56707,47.7744
497.727,20.4815,-4.04312,0,-0.766406,13.7306,-1.20469,53.811,-70.0305,178.232,-8.73703,-0.450264,0.65384,118.994,-10.5793,34.0549
497.737,21.732,-3.73031,0,0.546064,13.927,-1.95673,51.372,-79.0854,164.817,-9.68785,-0.249082,0.63947,111.677,-16.0671,13.2927
497.747,22.9586,-3.50929,0,2.89318,13.4935,-2.26329,54.878,-76.4939,144.817,-10.21,0.311353,0.313748,101.646,-18.3537,-3.62805
497.757,24.1965,-3.33427,0,4.9529,12.672,-2.28006,65.4268,-60.3963,129.604,-10.3968,0.850232,0.148491,90.4878,-18.628,-7.65244
497.767,25.4001,-3.12512,0,5.82469,11.75,-1.54958,69.0244,-42.6524,118.384,-10.4471,1.12087,0.335303,76.4329,-22.0122,-1.46341
497.777,26.5687,-2.89816,0,6.00671,11.1201,-1.1544,69.8171,-22.0122,113.171,-10.2866,1.08255,0.445474,58.2012,-25.5488,9.48171
497.787,27.7333,-2.68437,0,6.41386,10.9309,-0.502954,74.3902,5.36585,111.006,-9.94652,0.902922,0.409548,35.7622,-28.872,23.811
497.797,28.8826,-2.54513,0,6.43781,10.7967,-0.471819,81.3415,41.7073,111.006,-9.66869,0.771196,0.114961,17.5305,-30.3963,39.1159
497.807,29.9598,-2.48836,0,5.78397,11.0051,-0.392783,80.7012,75.2744,112.287,-9.4723,0.66342,-0.208367,3.44512,-30.061,52.7744
497.817,30.9814,-2.4985,0,4.91219,11.0865,-0.306563,77.1341,101.89,116.616,-9.38848,0.637075,-0.474214,-5.7622,-29.6951,63.0488
497.827,31.9229,-2.53841,0,4.04279,10.7225,-0.193997,72.8659,120.488,117.134,-9.48907,0.589175,-0.608335,-11.2195,-32.7134,67.6219
497.837,32.7104,-2.61212,0,2.84768,10.4375,-0.273032,64.939,123.445,114.36,-9.54415,0.555645,-0.764011,-14.5122,-35.7317,65.7927
497.847,33.3313,-2.69654,0,1.93039,9.94891,-0.167651,56.0671,123.079,107.713,-9.61361,0.529299,-0.831072,-15.4268,-39.8171,57.2256
497.857,33.8,-2.79944,0,1.47054,9.15856,-0.196392,47.1341,114.878,97.2256,-9.56571,0.61073,-0.924478,-13.8415,-45.4878,46.0671
497.867,34.0784,-2.913,0,0.285007,9.88664,-0.289797,46.25,102.012,94.0244,-9.54415,0.627495,-0.989143,-11.0366,-50.4573,35.7012
497.877,34.3017,-3.03255,0,0.687371,9.05557,-0.816702,39.7561,87.3171,83.4756,-9.45793,0.6251,-1.02507,-8.41463,-51.25,28.3841
497.887,34.4063,-3.15069,0,0.65863,8.6053,-1.05141,32.9573,65.8537,71.7378,-9.35255,0.608335,-1.02746,-8.47561,-51.2195,23.1098
497.897,34.4099,-3.26808,0,0.859812,8.33227,-1.26697,27.1037,43.3232,58.5671,-9.25436,0.512534,-1.03225,-12.1037,-50.4268,18.3537
497.907,34.3037,-3.40086,0,0.993933,7.95386,-1.3484,21.6463,22.6524,44.8476,-9.15856,0.390388,-1.1065,-17.1037,-54.0854,15.6707
497.918,34.0476,-3.56633,0,0.902922,7.64251,-1.32205,16.128,2.59146,30.122,-9.10586,0.287402,-1.25739,-19.3293,-57.1037,12.9878
497.928,33.6725,-3.74121,0,0.981958,7.31678,-1.18553,12.1951,-17.2866,15.6098,-9.0867,0.349673,-1.32205,-20.7012,-59.6951,10.1829
497.938,26.15,-3.91603,0,0.965193,7.07968,-1.27655,8.68902,-35.3049,0.640244,-9.20885,0.428708,-1.37235,-18.4756,-64.6951,7.92683
497.948,25.5457,-4.12443,0,0.495769,6.85694,-1.34121,5.45732,-55.122,-16.7378,-9.30944,0.55804,-1.55676,-17.7134,-63.628,5.27439
497.958,24.6932,-4.38666,0,-0.150886,6.70366,-1.69088,2.89634,-80.3354,-32.2256,-9.29507,0.65863,-1.81063,-19.0854,-55.8232,3.35366
497.967,23.5297,-4.69969,0,-1.26697,6.2989,-1.825,2.53049,-105.03,-45.122,-9.0867,0.744851,-2.01421,-23.7195,-41.8293,-0.335366
497.977,22.292,-5.04185,0,-0.689766,7.23535,-2.45729,5.21341,-132.866,-67.1646,-8.81367,0.953218,-2.11241,-33.0488,-27.8659,-4.69512
497.987,21.0924,-5.34769,0,1.36995,8.96695,-2.10762,-15.6098,-122.439,-94.6341,-8.66758,1.18793,-1.97829,-43.5061,-18.5976,-7.46951
497.997,19.9811,-5.5736,0,3.39374,9.0412,-0.431104,-46.0671,-85.8841,-112.348,-8.69632,1.51126,-1.71244,-56.3415,-17.6524,-8.44512
498.007,19.1129,-5.73129,0,4.78525,7.2114,0.850232,-63.1098,-57.7439,-116.311,-8.84002,1.79147,-1.50168,-70.3049,-17.1951,-10.2439
498.017,18.4742,-5.87402,0,6.01629,6.34441,0.845442,-65.7012,-54.9695,-114.909,-8.91666,2.05732,-1.47533,-84.2073,-12.0122,-12.8354
498.027,17.9293,-6.01682,0,7.5491,6.71563,-0.486189,-64.1768,-67.439,-116.555,-8.96216,2.14833,-1.43222,-93.4451,-3.20122,-16.9817
498.037,17.4062,-6.19542,0,8.77056,7.35032,-2.43094,-60.7317,-73.2012,-118.902,-8.98611,1.98787,-1.66214,-102.348,9.35976,-19.878
498.047,16.9,-6.3869,0,9.30226,7.91793,-4.64634,-55.4878,-59.4207,-117.348,-9.01725,1.59987,-1.73878,-108.659,23.5366,-27.1037
498.057,16.4862,-6.50714,0,9.44356,7.71915,-5.87977,-47.8354,-28.0183,-111.28,-9.17292,0.998723,-1.49928,-111.159,28.3841,-34.3598
498.067,16.1805,-6.59286,0,9.50583,7.5491,-5.37442,-34.3902,13.75,-102.744,-9.41003,0.344883,-1.41067,-110.61,29.5122,-46.4634
498.077,15.9388,-6.66858,0,8.30353,7.33594,-4.5218,-10.1829,43.2927,-90.7012,-9.62558,-0.263452,-1.41306,-108.659,31.0061,-55.6402
498.087,15.7595,-6.72943,0,7.43654,7.10123,-4.6176,14.878,53.0183,-80.3049,-9.84353,-0.696951,-1.38911,-100.091,34.878,-63.0793
498.097,15.6148,-6.75751,0,6.81623,7.83171,-4.77088,24.4512,49.2988,-66.3415,-10.0758,-1.05381,-1.28373,-84.1159,35.9146,-61.5854
498.107,15.6096,-6.80745,0,7.45809,8.51908,-4.43558,18.689,42.9878,-52.7439,-10.2219,-1.2981,-1.40348,-61.3415,40.5793,-52.8049
498.117,15.8117,-6.91795,0,8.3682,8.2724,-3.46559,11.5244,49.2073,-40.0305,-10.4638,-1.4442,-1.72441,-47.7439,48.4451,-43.6585
498.127,16.1354,-6.98572,0,8.20534,8.41131,-1.89207,7.89634,56.6159,-25.0915,-10.5213,-1.39151,-1.54479,-42.0427,55.8537,-41.3415
498.137,16.3917,-6.98291,0,6.924,10.289,-0.498164,4.81707,61.4939,-10.1829,-10.6147,-1.08973,-1.22864,-40.3659,63.0793,-39.2683
498.148,16.4776,-6.93594,0,4.53138,10.9548,-0.59636,4.7561,55.0915,-3.71951,-11.1416,-0.740061,-1.06339,-42.1341,69.6951,-44.2378
498.157,16.2811,-6.7372,0,2.15791,11.0865,-0.874182,5.82317,27.1037,-8.90244,-11.5703,-0.102986,-0.325723,-55.0915,61.5244,-50.4878
498.167,15.8755,-6.43664,0,1.98068,14.0468,-1.04183,7.22561,4.78659,-24.5427,-12.0613,0.56762,0.239502,-64.939,57.561,-54.9085
498.177,15.4088,-6.12546,0,3.84401,17.51,-2.27527,1.37195,9.32927,-40.4878,-13.199,0.507744,0.392783,-74.1768,57.2256,-58.9634
498.187,15.1229,-5.85238,0,6.17915,18.1207,-1.99026,-25.7622,16.2195,-36.1585,-14.5018,-0.119751,0.273032,-81.8293,62.2561,-63.4756
498.197,15.1043,-5.70888,0,6.83778,14.8276,-0.981958,-44.1463,13.4146,-21.5549,-15.3617,-0.984353,-0.500559,-93.0488,73.1707,-72.8354
498.207,15.1063,-5.59705,0,4.68226,11.0386,0.692161,-33.6585,6.18902,-15.8841,-15.1557,-1.0562,-0.687371,-92.3476,58.2317,-64.2683
498.217,14.9546,-5.42813,0,2.65368,8.45442,0.0694556,-13.872,19.5732,-20.2134,-13.4385,-0.325723,-0.268242,-84.0244,37.9268,-27.1341
498.227,14.4622,-5.14077,0,0.622705,6.88089,-0.385598,7.40854,22.6829,-30.2744,-11.8003,0.282612,0.395178,-93.3841,18.1098,18.628
498.237,13.5765,-4.83223,0,-1.04902,6.56954,-0.785566,19.9695,13.4146,-42.3476,-10.483,0.364043,0.488584,-109.451,6.34146,45.4268
498.247,12.4226,-4.46049,0,-2.29443,7.27846,-1.47533,22.7134,1.79878,-54.3293,-9.55852,0.938848,0.742456,-117.47,5.06098,55.1829
498.257,11.1248,-3.98122,0,-3.18538,8.28916,-1.90883,14.6951,-4.69512,-64.1768,-8.63405,0.361648,1.14961,-136.86,-8.35366,47.622
498.267,9.86273,-3.54392,0,-3.18538,9.40524,-2.09085,-2.0122,-8.53659,-67.8963,-8.20055,0.289797,1.00591,-142.866,-13.811,26.6768
498.277,8.75556,-3.15347,0,-2.43094,10.0591,-1.79626,-21.0366,-15.061,-65.1219,-7.89398,-0.179626,0.857417,-148.018,-23.6585,-2.56098
498.287,7.95245,-2.87359,0,-0.771196,10.0112,-1.27655,-36.9512,-22.439,-55.0915,-7.83411,-0.737666,0.514929,-148.201,-31.0061,-32.7744
498.297,7.5557,-2.65426,0,1.30529,9.35974,-1.21427,-43.6585,-27.6524,-40.4573,-7.87482,-1.21667,0.340093,-143.018,-38.811,-54.8476
498.307,7.50669,-2.48105,0,2.75906,8.49274,-1.70286,-38.2317,-27.1341,-26.311,-8.04248,-1.75315,0.208367,-130,-47.622,-62.6829
498.317,7.66233,-2.32969,0,3.63324,7.72873,-2.62734,-23.2927,-18.5061,-20.1829,-8.57656,-2.08127,0.158071,-118.72,-57.622,-59.0854
498.327,7.82889,-2.2193,0,3.99968,7.69041,-3.54942,-5.42683,0.457317,-23.4451,-9.2831,-2.5962,0.0239502,-103.354,-62.6829,-45.9451
