time,angle1,angle2,intgangle,accX1,accY1,accZ1,gyroX1,gyroY1,gyroZ1,accX2,accY2,accZ2,gyroX2,gyroY2,gyroZ2
382.311,87.2795,6.70064,0,9.29747,0.380808,-2.90995,0.0609756,0.121951,-1.46341,-9.80521,0.0335303,1.16398,-15.9146,-2.71341,3.56707
382.322,87.2749,6.70408,0,9.2831,0.373623,-2.85486,-0.243902,-0.243902,-1.67683,-9.83156,0.0431104,1.16637,-15.9756,-3.23171,3.93293
382.332,87.269,6.71561,0,9.28789,0.395178,-2.8836,-0.152439,-0.243902,-1.4939,-9.84832,0.0383203,1.2023,-16.0671,-3.23171,5.42683
382.342,87.2662,6.71605,0,9.25436,0.368833,-2.91713,0.213415,-0.396341,-1.61585,-9.8076,0.0359253,1.1544,-14.878,-2.46951,4.69512
382.352,87.2635,6.72215,0,9.26394,0.368833,-2.95545,-0.213415,-0.426829,-1.61585,-9.82197,0.0742456,1.17835,-14.878,-2.83537,5.18293
382.362,87.2665,6.73705,0,9.28789,0.335303,-2.86923,0.152439,-0.396341,-1.64634,-9.84353,0.0502954,1.21427,-15.5183,-2.34756,5.27439
382.372,87.2661,6.73965,0,9.30944,0.354463,-2.89318,0.152439,-0.182927,-1.64634,-9.82916,0.0718506,1.16877,-15.4573,-3.90244,5
382.381,87.272,6.72756,0,9.29268,0.342488,-2.90037,-0.213415,-0.365854,-1.37195,-9.80521,0.0383203,1.11608,-14.8476,-1.85976,5.06098
382.392,87.2776,6.72156,0,9.27591,0.335303,-2.8836,-0.0304878,0.0304878,-1.46341,-9.80042,0.0526904,1.13284,-15.2134,-2.10366,4.05488
382.402,87.2818,6.70308,0,9.27831,0.323328,-2.89797,0.0914634,0.182927,-1.67683,-9.80521,0.0407153,1.08494,-15.5183,-2.34756,4.81707
382.412,87.2817,6.70832,0,9.25915,0.364043,-2.87642,-0.0914634,0,-1.46341,-9.78605,0.0383203,1.16637,-15.3963,-1.89024,4.7561
382.421,87.2829,6.7007,0,9.25436,0.344883,-2.886,0,-0.0914634,-1.61585,-9.81479,0.0407153,1.13045,-15.2439,-1.37195,5.33537
382.432,87.2811,6.68485,0,9.30226,0.352068,-2.91474,-0.0609756,-0.0304878,-1.7378,-9.81,0.0550855,1.11129,-16.0976,-0.945122,4.7561
382.442,87.2797,6.67167,0,9.27591,0.366438,-2.92432,0.121951,-0.0304878,-1.52439,-9.84593,0.0287402,1.11847,-15.8537,-0.97561,6.37195
382.452,87.2776,6.65808,0,9.29507,0.359253,-2.88839,-0.0609756,-0.213415,-1.67683,-9.83635,0.0263452,1.11368,-15.1829,-1.0061,4.29878
382.461,87.2785,6.65435,0,9.27112,0.352068,-2.89797,0.0914634,-0.27439,-1.55488,-9.79323,0.0383203,1.13045,-16.4634,-1.4939,5.33537
382.472,87.2808,6.65742,0,9.27591,0.354463,-2.90516,-0.121951,-0.304878,-1.43293,-9.82197,0.0359253,1.152,-16.6768,-0.548781,5.27439
382.481,87.2871,6.65806,0,9.28549,0.316143,-2.92192,-0.152439,-0.457317,-1.61585,-9.82197,0.0574805,1.14721,-15.061,-1.09756,5.54878
382.492,87.2938,6.64746,0,9.28789,0.318538,-2.90755,-0.0914634,-0.27439,-1.55488,-9.81,0.0263452,1.12326,-15.0305,-0.457317,4.87805
382.502,87.2969,6.62448,0,9.31663,0.342488,-2.93869,-0.182927,-0.0304878,-1.4939,-9.82677,0.0502954,1.10171,-15.061,-0.304878,5.09146
382.512,87.2968,6.61905,0,9.29028,0.352068,-2.87642,-0.182927,0.121951,-1.58537,-9.8076,0.0383203,1.12805,-15.061,-0.396341,4.5122
382.522,87.2885,6.60989,0,9.27591,0.385598,-2.90037,-0.182927,0,-1.76829,-9.83874,0.0455054,1.11847,-15.2439,-0.823171,5.42683
382.532,87.2909,6.59943,0,9.2807,0.344883,-2.90516,-0.365854,-0.27439,-1.52439,-9.8603,0.0694556,1.1065,-15.061,-1.67683,5.27439
382.542,87.2855,6.59899,0,9.27831,0.354463,-2.87881,-0.213415,-0.487805,-1.95122,-9.83635,0.0526904,1.13524,-14.3293,-1.58537,5.79268
382.552,87.2843,6.60434,0,9.27112,0.340093,-2.89558,-0.335366,-0.243902,-1.82927,-9.84832,0.0287402,1.152,-15.4573,-0.853659,5.15244
382.561,87.2787,6.61383,0,9.27591,0.361648,-2.95066,-0.243902,0,-1.89024,-9.80281,0.0335303,1.16158,-14.2378,-1.31098,5.51829
382.571,87.2749,6.62441,0,9.26873,0.361648,-2.90755,-0.182927,0.121951,-1.76829,-9.81958,0.0502954,1.17356,-15.0915,-1.92073,5.45732
382.582,87.2733,6.63217,0,9.29507,0.361648,-2.93629,-0.213415,0.121951,-1.61585,-9.81719,0.0239502,1.16877,-16.2805,-3.01829,6.15854
382.592,87.2738,6.63885,0,9.28549,0.342488,-2.91474,-0.243902,0.609756,-1.70732,-9.83395,0.0646655,1.16637,-15.6402,-2.31707,5.33537
382.602,87.2742,6.62309,0,9.24957,0.342488,-2.92192,-0.0609756,0.243902,-1.70732,-9.84114,0.0479004,1.08494,-14.5122,-2.28659,5.27439
382.612,87.2697,6.59472,0,9.27112,0.371228,-2.89079,-0.0914634,0.487805,-1.70732,-9.84593,0.0502954,1.06339,-15.2744,-1.12805,5.91463
382.621,87.2653,6.58425,0,9.2831,0.356858,-2.8836,-0.121951,0.152439,-1.89024,-9.8124,0.0359253,1.09452,-14.939,-2.19512,4.96951
382.632,87.2593,6.58356,0,9.25436,0.387993,-2.85007,0.152439,0.27439,-1.61585,-9.84832,0.0455054,1.13045,-15.3659,-3.87195,5.57927
382.642,87.2617,6.57578,0,9.26633,0.352068,-2.8836,-0.121951,0.213415,-1.4939,-9.83635,0.0502954,1.1041,-13.6585,-2.34756,5.36585
382.652,87.262,6.5629,0,9.27831,0.340093,-2.90755,0,-0.0609756,-1.76829,-9.83874,0.0502954,1.08494,-14.4512,-2.22561,5
382.662,87.2621,6.5528,0,9.27591,0.361648,-2.92192,0.0304878,-0.0304878,-1.52439,-9.79803,0.0742456,1.08973,-14.6951,-2.07317,5.7622
382.672,87.2647,6.55222,0,9.27831,0.320933,-2.86923,-0.213415,-0.0304878,-1.82927,-9.80042,0.0550855,1.12087,-14.939,-3.01829,6.34146
382.682,87.2628,6.56243,0,9.29028,0.335303,-2.91234,-0.304878,-0.27439,-1.98171,-9.79803,0.0814307,1.16158,-16.5244,-2.40854,5.88415
382.692,87.2675,6.55975,0,9.30226,0.330513,-2.91234,-0.0609756,0.0914634,-1.58537,-9.83395,0.0455054,1.12087,-14.9085,-1.7378,4.42073
382.702,87.2671,6.56086,0,9.29507,0.395178,-2.89079,0.0914634,-0.121951,-1.09756,-9.85311,0.0263452,1.13524,-13.5061,-1.37195,5.79268
382.712,87.2815,6.56074,0,9.29028,0.304167,-2.91234,-0.396341,-1.06707,-1.31098,-9.83395,0.0263452,1.12805,-13.9939,-2.89634,4.93902
382.721,87.2998,6.55804,0,9.29028,0.258662,-2.87163,-0.304878,-0.792683,-1.52439,-9.78366,0.0766406,1.11368,-13.1707,-2.16463,5.03049
382.732,87.2998,6.55351,0,9.29507,0.330513,-2.90516,-0.0304878,-0.457317,-1.82927,-9.83395,0.102986,1.11368,-13.9939,-1.79878,6.06707
382.741,87.2959,6.54621,0,9.28789,0.366438,-2.92911,0.152439,-0.0609756,-1.67683,-9.81479,0.0550855,1.10171,-15.2439,-1.76829,4.5122
382.752,87.3002,6.55432,0,9.29747,0.332908,-2.91234,-0.27439,-0.182927,-1.52439,-9.8603,0.0862207,1.1544,-14.4207,-1.28049,5.60976
382.762,87.2992,6.53196,0,9.27112,0.361648,-2.83331,-0.335366,-0.304878,-1.52439,-9.79084,0.0766406,1.07536,-15.5488,-0.640244,3.2622
382.771,87.2978,6.51272,0,9.25915,0.359253,-2.86444,-0.182927,-0.884146,-1.58537,-9.77407,0.0694556,1.08734,-15.8232,0.152439,4.39024
382.781,87.3028,6.52457,0,9.21843,0.320933,-2.87163,-0.335366,-0.762195,-1.61585,-9.76689,0.0502954,1.13284,-15.9146,0,4.05488
382.792,87.3034,6.53088,0,9.25915,0.344883,-2.90037,0.0914634,-0.548781,-1.61585,-9.7597,0.0814307,1.13284,-15.7622,-1.25,4.32927
382.802,87.3035,6.536,0,9.27831,0.361648,-2.94348,0.304878,-0.701219,-1.43293,-9.7597,0.0694556,1.13524,-16.2195,-3.20122,4.78659
382.812,87.3039,6.54179,0,9.29268,0.380808,-2.96024,0.152439,-0.457317,-1.15854,-9.80042,0.0407153,1.14242,-16.8598,-2.37805,4.2378
382.821,87.3048,6.54457,0,9.29507,0.383203,-2.89318,0.27439,0.213415,-1.09756,-9.86748,0.00958008,1.14003,-17.1341,-3.81098,6.0061
382.831,87.3032,6.53517,0,9.27831,0.364043,-2.94348,-0.152439,-0.0304878,-1.52439,-9.90341,-0.0311353,1.09692,-16.8902,-2.62195,6.34146
382.842,87.3012,6.51621,0,9.29028,0.359253,-2.89797,-0.365854,-0.27439,-1.61585,-9.89143,0.0239502,1.04902,-16.6159,-3.87195,6.18902
382.852,87.2959,6.50536,0,9.29028,0.383203,-2.96264,0.0609756,0.0914634,-1.55488,-9.91299,0.0455054,1.08015,-15.9756,-5.2439,6.52439
382.862,87.2973,6.49048,0,9.26394,0.383203,-2.94348,0.182927,0.0609756,-1.06707,-9.88425,0.0550855,1.0562,-16.3415,-6.34146,6.67683
382.872,87.3104,6.47047,0,9.28549,0.328118,-2.98898,-0.0609756,0.609756,-1.06707,-9.87706,0.0862207,1.02986,-16.3415,-6.79878,5.73171
382.882,87.3212,6.46082,0,9.27352,0.335303,-2.90755,0.213415,0.548781,-1.09756,-9.86509,0.0550855,1.07057,-15.5183,-6.79878,5.70122
382.892,87.3306,6.44787,0,9.29986,0.342488,-2.92192,0.27439,0.487805,-1.06707,-9.8579,0.0287402,1.05381,-15.061,-6.61585,5.60976
382.902,87.3461,6.43195,0,9.29028,0.306563,-2.89079,0.152439,0.335366,-1.12805,-9.81,0.0215552,1.03225,-15.5793,-7.95732,5.03049
382.912,87.3617,6.42045,0,9.2807,0.282612,-2.88121,0.0609756,0.396341,-1.34146,-9.8076,-0.00958008,1.04902,-14.3293,-7.43902,4.57317
382.922,87.3683,6.40671,0,9.26873,0.318538,-2.86684,0.121951,0.426829,-1.43293,-9.79803,0.0383203,1.03704,-15.6402,-6.58537,6.28049
382.932,87.3763,6.39519,0,9.25675,0.304167,-2.88839,0.0609756,0.182927,-1.4939,-9.81,0.0479004,1.04662,-15.6098,-5.64024,5.7622
382.942,87.3825,6.38537,0,9.2831,0.318538,-2.85965,-0.0304878,0.152439,-1.43293,-9.79803,0.0479004,1.05141,-14.5732,-5.09146,5.64024
382.952,87.387,6.36296,0,9.25675,0.304167,-2.87402,0.152439,0.0914634,-1.67683,-9.84832,0.0694556,1.00112,-15.6402,-4.7561,6.31098
382.962,87.3847,6.34248,0,9.29028,0.325723,-2.91474,0.0304878,-0.152439,-1.89024,-9.83395,0.0718506,1.00591,-16.25,-4.11585,6.03659
382.972,87.3821,6.33696,0,9.28549,0.337698,-2.86684,-0.182927,-0.152439,-1.76829,-9.82916,0.0622705,1.06578,-16.25,-3.93293,4.90854
382.982,87.3801,6.33873,0,9.26154,0.318538,-2.86923,-0.121951,-0.182927,-1.95122,-9.84114,0.0694556,1.09692,-16.0366,-4.14634,4.7561
382.992,87.3802,6.33099,0,9.26154,0.308958,-2.89797,-0.0914634,-0.579268,-1.92073,-9.85311,0.0646655,1.0586,-15.4573,-3.78049,6.03659
383.001,87.3718,6.33813,0,9.28789,0.344883,-2.89797,-0.213415,-0.213415,-2.13415,-9.83874,0.0790356,1.11847,-16.3415,-4.29878,5.09146
383.011,87.3725,6.34688,0,9.36213,0.256267,-2.86205,-0.457317,-0.121951,-2.46951,-9.82197,0.0646655,1.12326,-16.372,-2.86585,4.69512
383.022,87.3482,6.35864,0,9.25915,0.474214,-3.01293,0.335366,1.18902,-1.61585,-9.83156,0.0287402,1.14003,-15.7317,-3.93293,4.29878
383.031,87.322,6.38469,0,9.21125,0.498164,-2.79738,0.365854,0.335366,-0.97561,-9.85072,0.0119751,1.2023,-14.2073,-3.2622,5.18293
383.041,87.3534,6.39377,0,9.331,0.265847,-2.692,-0.487805,-2.2561,-0.884146,-9.8579,-0.00239502,1.13763,-13.872,-3.23171,4.66463
383.051,87.3622,6.39219,0,9.24478,0.313748,-2.87163,-0.640244,-2.77439,-1.37195,-9.79323,0.0766406,1.08734,-14.2378,-3.96341,5.18293
383.062,87.3668,6.40866,0,9.21603,0.292192,-2.97222,-0.243902,-1.37195,-1.82927,-9.77407,0.110171,1.16158,-14.6646,-4.60366,6.40244
383.072,87.3478,6.42098,0,9.35016,0.426313,-3.04646,-0.0304878,-0.365854,-2.0122,-9.77886,0.0838257,1.14721,-15.8232,-5.03049,7.0122
383.082,87.3367,6.43248,0,9.36692,0.404758,-2.96264,-0.152439,0.121951,-1.64634,-9.81479,0.0694556,1.14961,-15.8841,-5.91463,6.0061
383.092,87.3382,6.43248,0,9.26633,0.325723,-2.92192,-0.518293,0.0304878,-1.70732,-9.83395,0.0407153,1.1041,-16.2805,-5.36585,6.15854
383.102,87.3297,6.44838,0,9.22801,0.378413,-2.92432,0.152439,0.670732,-1.76829,-9.79803,0.0479004,1.16877,-15.4573,-6.0061,6.7378
383.112,87.3189,6.44867,0,9.22322,0.407153,-2.85486,-0.0304878,0.121951,-1.55488,-9.84114,0.0359253,1.10889,-15.2744,-5.36585,6.92073
383.121,87.3124,6.45626,0,9.2352,0.397573,-2.85726,-0.0609756,-0.27439,-1.37195,-9.83874,0.0335303,1.14003,-14.5732,-6.12805,5.51829
383.132,87.3161,6.44968,0,9.27352,0.354463,-2.886,-0.0304878,-0.213415,-1.28049,-9.84353,0.107776,1.08015,-15.0305,-5.82317,5.91463
383.141,87.321,6.4572,0,9.29028,0.356858,-2.94348,0.304878,-0.0304878,-1.15854,-9.84114,0.0886157,1.14003,-15.9451,-6.28049,5.57927
383.151,87.3287,6.45597,0,9.33579,0.335303,-2.89318,0.304878,-0.0914634,-1.25,-9.82197,0.0862207,1.10171,-15.3049,-5.33537,5.70122
383.162,87.3359,6.46798,0,9.28549,0.352068,-2.8836,0.182927,0.0304878,-1.06707,-9.8076,0.0694556,1.15679,-16.189,-6.31098,4.57317
383.172,87.343,6.46742,0,9.29028,0.337698,-2.9339,0.0914634,-0.0609756,-1.21951,-9.81,0.0383203,1.1041,-15.122,-6.55488,5.33537
383.182,87.3554,6.46758,0,9.28789,0.328118,-2.89079,0.0914634,-0.213415,-1.03659,-9.8076,-0.00958008,1.1065,-15.9146,-6.98171,4.7561
383.192,87.3647,6.47421,0,9.27352,0.318538,-2.92911,0.213415,0.0914634,-1.28049,-9.78366,0.0215552,1.13284,-15.0305,-5.88415,5.7622
383.202,87.3694,6.47372,0,9.26394,0.337698,-2.92671,0.243902,0.0914634,-1.31098,-9.85072,0.0191602,1.11129,-15.3659,-5.15244,6.98171
383.211,87.3783,6.46519,0,9.29268,0.323328,-2.96024,0.213415,0.731707,-1.21951,-9.85311,0.0670605,1.07536,-16.0366,-6.15854,6.40244
383.222,87.3828,6.4679,0,9.2831,0.318538,-2.94587,0.152439,0.609756,-1.52439,-9.88904,0.0670605,1.12805,-14.939,-5.09146,6.25
383.232,87.3907,6.46732,0,9.27112,0.301772,-2.90755,0.121951,0.548781,-1.4939,-9.86748,0.0981958,1.11129,-15.9756,-5.64024,6.92073
383.242,87.394,6.45963,0,9.29747,0.318538,-2.85247,0,0.487805,-1.58537,-9.87706,0.102986,1.08255,-15.9146,-4.45122,5.94512
383.251,87.3988,6.45887,0,9.29028,0.308958,-2.91474,0.182927,0.731707,-1.58537,-9.82916,0.0910107,1.1041,-15.3963,-6.37195,5.54878
383.262,87.3934,6.46564,0,9.30465,0.342488,-2.86205,0.0609756,0.548781,-1.89024,-9.84832,0.0359253,1.14003,-15.0915,-4.93902,4.63415
383.271,87.3995,6.4632,0,9.2831,0.320933,-2.90995,0,0.670732,-1.37195,-9.81719,0.0239502,1.09692,-15.4268,-5.82317,5.33537
383.281,87.4019,6.46044,0,9.27831,0.311353,-2.89797,0.0914634,0.457317,-1.70732,-9.84114,0.0239502,1.09931,-16.372,-4.32927,5.7622
383.293,87.3988,6.45983,0,9.30705,0.337698,-2.91234,-0.213415,0.548781,-1.76829,-9.85072,0.0431104,1.10889,-15.8232,-4.57317,6.52439
383.302,87.3958,6.43881,0,9.25436,0.340093,-2.87642,-0.213415,0.304878,-1.7378,-9.81958,0.0455054,1.02507,-15.3659,-2.9878,5.91463
383.312,87.3967,6.43715,0,9.26873,0.304167,-2.85247,-0.304878,0.426829,-1.89024,-9.84593,0.0670605,1.10171,-14.878,-3.10976,5.88415
383.322,87.3983,6.43937,0,9.28549,0.316143,-2.8836,-0.365854,0.182927,-1.70732,-9.84353,0.0431104,1.11608,-15.1524,-4.81707,5.7622
383.331,87.3942,6.43909,0,9.29028,0.352068,-2.88121,0.121951,0.121951,-1.67683,-9.85072,0.0862207,1.1065,-14.0549,-4.72561,5.94512
383.342,87.39,6.42976,0,9.25675,0.342488,-2.87402,-0.0914634,0.27439,-1.79878,-9.84832,0.0550855,1.06818,-15.4573,-4.08537,6.18902
383.352,87.3914,6.4386,0,9.25915,0.320933,-2.89079,-0.304878,0.213415,-1.67683,-9.83395,0.107776,1.14242,-14.6037,-4.39024,5.39634
383.362,87.3914,6.44525,0,9.29028,0.318538,-2.85965,-0.426829,0.243902,-1.79878,-9.81958,0.0934058,1.13284,-14.6646,-3.75,5.18293
383.372,87.3884,6.44794,0,9.27352,0.313748,-2.87881,-0.335366,0.121951,-2.07317,-9.8076,0.0670605,1.11608,-16.2805,-2.62195,6.12805
383.381,87.3779,6.45824,0,9.2807,0.354463,-2.82852,-0.304878,0.0914634,-2.16463,-9.83635,0.0479004,1.152,-16.9207,-3.96341,5.03049
383.392,87.3661,6.45541,0,9.26154,0.371228,-2.85965,-0.152439,0.243902,-2.07317,-9.83874,0.0694556,1.09931,-16.7073,-3.23171,5.94512
383.402,87.3584,6.45917,0,9.26873,0.356858,-2.85486,-0.304878,0.182927,-1.95122,-9.83874,0.0455054,1.12566,-15.1524,-4.32927,4.84756
383.412,87.3619,6.47547,0,9.25915,0.313748,-2.886,-0.0609756,-0.0304878,-1.67683,-9.84353,0.0862207,1.18074,-15.9756,-4.39024,4.7561
383.422,87.3636,6.47728,0,9.26873,0.320933,-2.91234,-0.152439,-0.213415,-1.70732,-9.81958,0.0958008,1.11847,-14.5427,-4.48171,5.21341
383.432,87.3647,6.47646,0,9.28549,0.347278,-2.87402,-0.121951,-0.548781,-1.43293,-9.82677,0.0718506,1.10889,-16.2195,-3.84146,5.73171
383.442,87.3662,6.47831,0,9.33818,0.311353,-2.90516,-0.0304878,-0.0304878,-1.82927,-9.8124,0.0790356,1.11847,-16.189,-3.68902,4.29878
383.452,87.3612,6.48897,0,9.2831,0.347278,-2.92192,0.121951,-0.182927,-1.85976,-9.82197,0.0886157,1.15679,-15.4878,-3.62805,5
383.462,87.3564,6.49058,0,9.31902,0.340093,-2.96024,0.152439,0.365854,-1.95122,-9.80281,0.0910107,1.11847,-14.6341,-3.81098,5.73171
383.472,87.3537,6.50073,0,9.27112,0.340093,-2.92192,0.243902,0.426829,-1.79878,-9.81958,0.0502954,1.15679,-15.9756,-5.15244,4.14634
383.481,87.3511,6.51225,0,9.26154,0.349673,-2.886,0.152439,0.27439,-1.67683,-9.79563,0.0359253,1.16158,-16.3415,-4.08537,4.96951
383.492,87.346,6.52341,0,9.24957,0.359253,-2.88121,0.182927,0.487805,-1.7378,-9.77407,0.0886157,1.15919,-15.5488,-3.78049,3.90244
383.501,87.3514,6.52775,0,9.22083,0.332908,-2.83091,0,-0.304878,-1.37195,-9.77647,0.107776,1.13284,-15.7622,-3.84146,3.75
383.511,87.3486,6.53093,0,9.28789,0.364043,-2.85007,0.0304878,-0.487805,-1.52439,-9.77168,0.110171,1.12805,-16.0671,-2.59146,5.06098
383.522,87.3509,6.5348,0,9.2807,0.371228,-2.88121,0,-0.518293,-1.06707,-9.80281,0.0431104,1.13524,-16.3415,-3.75,4.93902
383.532,87.3515,6.53616,0,9.29507,0.364043,-2.86205,0.121951,-0.426829,-1.28049,-9.82677,0,1.12805,-15.6402,-3.90244,4.02439
383.542,87.3522,6.54413,0,9.27352,0.376018,-2.90755,0,-0.518293,-1.09756,-9.81479,-0.0167651,1.1544,-16.4329,-3.2622,4.17683
383.552,87.3545,6.56628,0,9.30226,0.361648,-2.92911,-0.213415,-0.487805,-1.18902,-9.83156,0.0167651,1.21906,-14.5122,-4.2378,5.33537
383.561,87.3668,6.57425,0,9.27112,0.340093,-2.89079,0.121951,-0.426829,-0.884146,-9.80281,0.0407153,1.15679,-15.1829,-2.59146,5.09146
383.571,87.3797,6.57407,0,9.2807,0.318538,-2.94108,0.182927,-0.487805,-1.06707,-9.85311,0.110171,1.13284,-14.939,-2.34756,5.91463
383.582,87.3964,6.57786,0,9.2831,0.332908,-2.90995,-0.243902,-0.579268,-0.701219,-9.84353,0.0958008,1.14721,-14.1463,-3.32317,4.66463
383.592,87.4082,6.57612,0,9.30944,0.337698,-2.87881,0.0914634,-0.487805,-0.853659,-9.8579,0.129331,1.12566,-15,-4.20732,4.14634
383.602,87.4273,6.56579,0,9.31902,0.304167,-2.90276,0.182927,-0.518293,-0.853659,-9.84593,0.0886157,1.08734,-15.8537,-4.14634,4.26829
383.611,87.4548,6.56495,0,9.30226,0.308958,-2.8357,0,-0.579268,-0.457317,-9.84114,0.0455054,1.12566,-15.7012,-4.02439,3.68902
383.622,87.4751,6.55524,0,9.28789,0.294587,-2.93629,0.121951,-0.640244,-0.823171,-9.84593,0.0191602,1.08734,-14.4817,-4.54268,3.5061
383.632,87.492,6.55448,0,9.30944,0.296982,-2.91713,-0.182927,0.0304878,-0.914634,-9.84353,0.0263452,1.12326,-14.7866,-5.30488,3.5061
383.642,87.5048,6.54212,0,9.27352,0.301772,-2.90516,-0.0304878,-0.182927,-1.03659,-9.82197,0.0431104,1.07057,-14.6646,-5.09146,4.96951
383.651,87.5126,6.55242,0,9.30705,0.296982,-2.87402,0.121951,-0.27439,-1.34146,-9.83874,0.0622705,1.16877,-14.9085,-4.87805,4.48171
383.662,87.5197,6.55583,0,9.30465,0.296982,-2.88121,0.0609756,0,-1.37195,-9.82916,0.0742456,1.14003,-15.122,-4.05488,4.87805
383.672,87.526,6.54767,0,9.29986,0.301772,-2.88839,0.152439,-0.457317,-1.34146,-9.86269,0.100591,1.09452,-14.7256,-4.39024,4.42073
383.682,87.5344,6.53203,0,9.31184,0.287402,-2.89797,0.213415,-0.27439,-1.37195,-9.8603,0.122146,1.0586,-15.7622,-5.54878,5.18293
383.692,87.5335,6.52356,0,9.27352,0.318538,-2.90037,0.0609756,-0.213415,-1.58537,-9.8603,0.0455054,1.08973,-16.5244,-3.87195,4.17683
383.702,87.5413,6.50546,0,9.27831,0.289797,-2.87642,0.213415,-0.243902,-1.37195,-9.84114,0.0598755,1.04423,-16.0366,-4.26829,3.23171
383.712,87.5423,6.50519,0,9.27352,0.318538,-2.8836,0.0914634,-0.182927,-1.43293,-9.81479,0.0287402,1.11368,-14.6037,-5.03049,3.2622
383.722,87.542,6.50452,0,9.27591,0.316143,-2.90516,0.152439,-0.487805,-1.55488,-9.8555,0.0263452,1.11608,-15.7622,-5.54878,4.11585
383.732,87.5378,6.51557,0,9.27591,0.337698,-2.87881,0.0304878,-0.335366,-1.55488,-9.84832,0.0287402,1.16637,-15,-5.51829,3.68902
383.741,87.5371,6.52927,0,9.30705,0.306563,-2.91713,0.0914634,-0.0609756,-1.70732,-9.84353,0.0215552,1.17835,-14.8476,-7.0122,4.05488
383.752,87.5348,6.51983,0,9.26633,0.323328,-2.90755,0.335366,-0.182927,-1.61585,-9.84353,0.0167651,1.08015,-15.3049,-6.03659,4.72561
383.762,87.5379,6.52403,0,9.26633,0.313748,-2.87881,0.243902,-0.0609756,-1.37195,-9.84593,0.0479004,1.13763,-15.2134,-7.0122,5.12195
383.771,87.5454,6.52403,0,9.27352,0.287402,-2.91953,0.152439,0.0609756,-1.40244,-9.85311,0.0502954,1.12087,-16.2195,-6.89024,4.60366
383.782,87.5465,6.52818,0,9.27831,0.289797,-2.88121,0.27439,0.0609756,-1.76829,-9.84114,0.0383203,1.13763,-15.4878,-6.98171,5.91463
383.792,87.5463,6.52655,0,9.26873,0.299377,-2.90276,0.243902,-0.0304878,-1.7378,-9.85311,0.0455054,1.11368,-15.2744,-7.7439,4.78659
383.802,87.5381,6.52167,0,9.30465,0.347278,-2.91234,-0.0609756,-0.152439,-1.7378,-9.83156,0.0502954,1.09692,-15.0305,-7.53049,5.60976
383.811,87.5321,6.54014,0,9.2831,0.316143,-2.85486,-0.0914634,-0.0609756,-1.98171,-9.80281,0.0383203,1.19511,-14.4207,-7.37805,5.18293
383.822,87.5266,6.53805,0,9.29028,0.342488,-2.91234,-0.182927,-0.27439,-1.61585,-9.85072,0.0407153,1.11368,-14.0854,-7.5,4.29878
383.832,87.5296,6.54331,0,9.30944,0.292192,-2.92671,0.0304878,0.0304878,-1.64634,-9.84114,0.0239502,1.14482,-14.3293,-7.13415,4.20732
383.842,87.5273,6.54561,0,9.29986,0.301772,-2.91953,-0.0304878,0.0304878,-1.89024,-9.81479,0.0718506,1.13045,-13.1402,-6.28049,5.36585
383.851,87.527,6.54514,0,9.27831,0.328118,-2.91713,-0.182927,-0.152439,-1.43293,-9.8124,0.0383203,1.11847,-13.2622,-6.25,4.78659
383.862,87.5271,6.53439,0,9.29268,0.308958,-2.90037,-0.0304878,-0.365854,-1.64634,-9.81958,0.0311353,1.07536,-13.7195,-5.30488,5.79268
383.872,87.5275,6.54388,0,9.26633,0.304167,-2.89558,-0.152439,-0.304878,-1.67683,-9.80042,0.0383203,1.15919,-13.872,-5.33537,4.29878
383.882,87.5275,6.52957,0,9.25915,0.301772,-2.87642,-0.0304878,-0.609756,-1.7378,-9.82197,0.0119751,1.06099,-14.2073,-4.69512,3.9939
383.892,87.5167,6.5187,0,9.26154,0.342488,-2.90037,-0.121951,-0.487805,-2.04268,-9.82437,0.0311353,1.07297,-15.3049,-5.09146,3.90244
383.902,87.5096,6.52115,0,9.26633,0.313748,-2.90755,-0.365854,-0.27439,-2.13415,-9.82677,0.0311353,1.12805,-14.9695,-6.46341,5.33537
383.911,87.5019,6.52668,0,9.29028,0.304167,-2.92911,-0.579268,-0.27439,-2.31707,-9.84832,0.0455054,1.14482,-15.5183,-5.94512,4.57317
383.922,87.4973,6.54412,0,9.29028,0.318538,-2.88839,-0.579268,-0.335366,-1.92073,-9.86509,0.0455054,1.1999,-15.1524,-6.18902,3.62805
383.932,87.4884,6.54315,0,9.29268,0.313748,-2.93629,-0.304878,-0.121951,-2.31707,-9.84593,0.0790356,1.12087,-15,-5.12195,4.69512
383.942,87.4823,6.52818,0,9.30226,0.294587,-2.88121,0.0304878,0.335366,-2.34756,-9.84353,0.0646655,1.0586,-14.3902,-5.85366,3.68902
383.952,87.4838,6.53026,0,9.26394,0.277822,-2.92911,-0.182927,0.243902,-1.98171,-9.81,0.0574805,1.12805,-15.3354,-3.84146,3.44512
383.961,87.4761,6.52246,0,9.2831,0.318538,-2.86205,-0.365854,0.0914634,-2.19512,-9.82437,0.0526904,1.08973,-15.9756,-3.29268,3.23171
383.972,87.4709,6.52903,0,9.26154,0.289797,-2.95785,-0.396341,0.487805,-2.34756,-9.82197,0.00958008,1.14721,-15.1524,-3.38415,2.80488
383.982,87.4629,6.52987,0,9.29747,0.299377,-2.92911,-0.426829,0.640244,-2.46951,-9.78366,-0.0119751,1.12087,-13.872,-2.2561,3.2622
383.992,87.4525,6.5417,0,9.32142,0.318538,-2.91234,-0.487805,0.396341,-2.46951,-9.78126,0.0215552,1.14242,-14.6951,-0.426829,2.80488
384.002,87.444,6.55612,0,9.30944,0.313748,-2.92192,-0.396341,0.823171,-2.37805,-9.80281,0.0383203,1.152,-15,-0.396341,2.7439
384.012,87.439,6.55474,0,9.28549,0.301772,-2.90516,-0.213415,0.823171,-2.2561,-9.80042,0.0574805,1.12326,-14.2683,2.68293,1.98171
384.022,87.4272,6.56956,0,9.25196,0.335303,-2.85007,-0.396341,0.914634,-2.40854,-9.81,0.0670605,1.18074,-15.5488,1.98171,1.61585
384.032,87.4138,6.58281,0,9.26394,0.364043,-2.8836,-0.396341,0.335366,-2.19512,-9.82677,0.0910107,1.17835,-15.3659,1.82927,0.914634
384.042,87.3994,6.61198,0,9.2807,0.392783,-2.8357,0.0609756,0.457317,-1.92073,-9.82437,0.0934058,1.19511,-14.7256,0.487805,1.0061
384.052,87.3846,6.63938,0,9.2352,0.399968,-2.88839,-0.243902,-0.121951,-1.85976,-9.76928,0.124541,1.20469,-16.7683,-1.09756,0.762195
384.062,87.3636,6.67673,0,9.26154,0.450264,-2.84528,0.0304878,-0.213415,-1.67683,-9.80281,0.0838257,1.28134,-15.8232,-2.5,1.34146
384.072,87.3498,6.70394,0,9.22322,0.428708,-2.84528,-0.396341,-0.792683,-1.34146,-9.79084,0.0790356,1.2502,-15.1829,-2.7439,2.68293
384.082,87.3367,6.7237,0,9.2328,0.443079,-2.82612,0.182927,-0.945122,-0.97561,-9.7597,0.0742456,1.22625,-14.7561,-3.65854,2.59146
384.092,87.3391,6.73879,0,9.23999,0.380808,-2.84049,0.396341,-1.09756,-0.945122,-9.76449,0.0526904,1.21188,-15.3963,-4.69512,3.29268
384.102,87.3417,6.77271,0,9.21843,0.407153,-2.82373,0.487805,-1.64634,-0.426829,-9.74773,0.0479004,1.29331,-15.7927,-4.7561,3.32317
384.112,87.3685,6.80562,0,9.20646,0.361648,-2.83091,0.823171,-1.95122,0.0914634,-9.78366,0.0359253,1.2981,-17.1341,-9.2378,4.39024
384.121,87.3851,6.82282,0,9.27591,0.383203,-2.92671,0.823171,-2.2561,0.0914634,-9.80521,0.0622705,1.23583,-15.4268,-11.4024,5.33537
384.131,87.4015,6.82274,0,9.25196,0.380808,-2.92192,0.945122,-2.07317,0.182927,-9.86988,0.0455054,1.16877,-17.2256,-13.628,6.37195
384.142,87.4173,6.81971,0,9.26154,0.380808,-2.92192,0.945122,-1.70732,0.365854,-9.87467,0.0311353,1.1544,-16.6159,-15.8232,5.45732
384.151,87.4374,6.79548,0,9.26873,0.364043,-2.95066,0.792683,-1.98171,0.365854,-9.92257,0.0311353,1.06339,-13.9329,-18.3537,5.88415
384.162,87.4575,6.77084,0,9.25436,0.361648,-3.01772,0.731707,-1.64634,0.701219,-9.92496,0.0239502,1.0562,-14.6341,-19.939,4.48171
384.172,87.4799,6.73775,0,9.25915,0.349673,-2.96503,0.731707,-1.15854,0.457317,-9.95131,0.00958008,1.01549,-15.9451,-21.9512,4.48171
384.182,87.5128,6.70559,0,9.29986,0.308958,-2.99617,0.823171,-0.792683,0.457317,-9.98005,-0.0311353,1.01309,-14.8476,-26.1585,4.5122
384.192,87.55,6.69095,0,9.29268,0.294587,-2.96264,0.823171,-0.670732,0.304878,-10.0184,-0.0574805,1.08494,-14.2988,-31.311,5.39634
384.202,87.5881,6.7075,0,9.29268,0.289797,-3.04167,1.25,0.0304878,0.152439,-10.0687,-0.0167651,1.22386,-13.9329,-36.0671,6.15854
384.211,87.62,6.69026,0,9.29747,0.282612,-3.01293,1.03659,1.0061,-0.27439,-10.095,0.00479004,1.07536,-13.2317,-38.75,8.10976
384.222,87.6563,6.67361,0,9.35495,0.237107,-3.00575,1.37195,1.85976,-0.487805,-10.1142,0.0263452,1.07536,-14.4817,-40.5488,8.90244
384.231,87.6881,6.67555,0,9.35495,0.201182,-2.99138,1.34146,2.2561,-0.884146,-10.0758,0.00239502,1.14961,-14.2683,-43.1707,9.96951
384.242,87.7193,6.68863,0,9.36213,0.162861,-3.02012,1.76829,2.40854,-1.15854,-10.0351,0.0550855,1.19032,-14.5427,-48.75,11.4939
384.251,87.7425,6.71174,0,9.40285,0.203577,-2.99377,1.82927,3.20122,-1.09756,-10.0327,0.0694556,1.23344,-12.7439,-53.2012,11.7378
384.262,87.7593,6.75685,0,9.38608,0.184417,-2.95545,2.07317,3.65854,-1.55488,-10.0711,0.0287402,1.33642,-13.0488,-58.9939,13.1707
384.272,87.7774,6.78342,0,9.33818,0.150886,-2.99617,1.85976,4.96951,-1.76829,-10.107,0.0215552,1.26218,-12.4695,-62.5305,14.3293
384.281,87.7949,6.8145,0,9.35495,0.148491,-2.91234,1.7378,4.81707,-1.79878,-10.0878,-0.0119751,1.28134,-12.7439,-66.5244,16.5854
384.292,87.8056,6.82304,0,9.331,0.122146,-2.85007,1.7378,4.35976,-2.43902,-10.1309,-0.0790356,1.18553,-12.8659,-71.8598,18.5061
384.302,87.8043,6.79246,0,9.29986,0.162861,-2.86205,1.43293,3.93293,-2.86585,-10.1525,-0.0934058,1.0083,-12.3171,-76.6159,18.5366
384.311,87.7937,6.77318,0,9.2831,0.189207,-2.86205,1.06707,3.71951,-3.35366,-10.1166,-0.158071,1.04662,-12.7134,-80.5793,18.9939
384.322,87.7789,6.7518,0,9.31663,0.162861,-2.81654,0.365854,3.78049,-4.05488,-10.0902,-0.107776,1.02746,-13.2012,-84.6646,18.3537
384.332,87.7553,6.74516,0,9.30705,0.162861,-2.77104,-0.0609756,3.29268,-4.93902,-10.0663,-0.0958008,1.08494,-12.4695,-87.3781,16.3415
384.341,87.7232,6.74103,0,9.2831,0.170046,-2.77583,-1.06707,2.46951,-5.73171,-9.98484,-0.0766406,1.08494,-12.5,-88.811,16.5854
384.352,87.6865,6.73893,0,9.22322,0.158071,-2.76625,-1.58537,1.40244,-6.40244,-9.92736,-0.0407153,1.08734,-13.0793,-88.3537,16.2195
384.362,87.64,6.75848,0,9.33579,0.189207,-2.81654,-2.31707,1.15854,-7.10366,-9.88664,-0.0263452,1.17835,-13.9634,-88.0488,15.0915
384.372,87.5874,6.81883,0,9.30944,0.196392,-2.8357,-2.9878,0.548781,-7.71341,-9.9537,0.0143701,1.36995,-14.2378,-90.1219,14.5427
384.381,87.5292,6.87534,0,9.34297,0.227527,-2.94587,-3.47561,0.640244,-8.01829,-9.96328,0.0311353,1.36277,-14.1768,-92.4085,14.8476
384.392,87.4656,6.93899,0,9.31423,0.256267,-2.86444,-3.65854,0.579268,-8.32317,-10.0088,0.110171,1.40827,-15,-95.6402,13.9634
384.402,87.3918,7.01078,0,9.28549,0.311353,-2.88121,-3.81098,0.457317,-8.78049,-10.0735,0.155676,1.46336,-15.9756,-98.2927,12.8354
384.411,87.3131,7.09022,0,9.30705,0.332908,-2.81175,-4.48171,0.884146,-9.17683,-10.0782,0.170046,1.50886,-16.6159,-101.433,13.628
384.422,87.2282,7.17463,0,9.30226,0.366438,-2.80696,-4.78659,0.243902,-9.54268,-10.1333,0.205972,1.54958,-15.9451,-106.585,11.6768
384.432,87.1317,7.28683,0,9.36213,0.431104,-2.86205,-5.18293,0.762195,-10.122,-10.1166,0.191602,1.6837,-17.1646,-112.896,10.9756
384.441,87.0333,7.43383,0,9.31184,0.469424,-2.90995,-4.81707,0.365854,-10,-10.0902,0.174836,1.85375,-16.4634,-118.963,10.9756
384.452,86.9366,7.55958,0,9.35734,0.452659,-2.90516,-4.90854,0.853659,-10.2744,-10.083,0.182021,1.7771,-17.9573,-124.024,11.372
384.462,86.8405,7.68336,0,9.35974,0.433499,-2.9339,-4.93902,1.12805,-10.6402,-10.016,0.170046,1.7771,-17.3476,-126.128,11.8598
384.472,86.7403,7.80163,0,9.28549,0.450264,-2.83091,-4.54268,0.945122,-11.0061,-10.0064,0.146096,1.76752,-17.5915,-131.829,13.8415
384.482,86.6378,7.9704,0,9.26633,0.438289,-2.7878,-4.48171,0.609756,-11.5854,-9.93933,0.150886,2.00224,-18.5671,-136.159,15.8841
384.492,86.5331,8.14413,0,9.29268,0.450264,-2.80936,-3.93293,0.792683,-11.8902,-9.84114,0.141306,2.02858,-19.939,-143.506,15.7622
384.502,86.4213,8.34709,0,9.30465,0.502954,-2.86444,-3.47561,1.89024,-12.1646,-9.8124,0.205972,2.18186,-19.2683,-148.11,17.3476
384.512,86.3061,8.56061,0,9.34776,0.512534,-2.91234,-2.86585,3.07927,-12.6524,-9.75012,0.234712,2.24653,-18.5061,-154.329,19.7256
384.522,86.1932,8.73988,0,9.34297,0.507744,-2.92192,-2.28659,4.32927,-12.7134,-9.74054,0.229922,2.12438,-19.6341,-158.476,21.6768
384.531,86.0743,8.87485,0,9.30705,0.546064,-2.85726,-2.37805,5.42683,-13.0488,-9.70701,0.261057,1.94955,-20.8841,-160,21.4329
384.542,85.9468,9.04453,0,9.26633,0.57241,-2.886,-2.83537,6.37195,-13.811,-9.77407,0.205972,2.14115,-21.7073,-162.348,20.1829
384.552,85.8178,9.26985,0,9.38369,0.538879,-2.85247,-3.10976,7.68293,-14.7256,-9.87227,0.189207,2.44292,-22.8354,-168.811,19.5732
384.562,85.6816,9.49906,0,9.38848,0.56283,-2.8381,-3.78049,7.59146,-15.4268,-9.99681,0.189207,2.52675,-23.689,-176.433,16.9512
384.572,85.5363,9.72624,0,9.34297,0.589175,-2.90037,-4.26829,8.47561,-16.2805,-9.99921,0.198787,2.55549,-24.1768,-181.829,15.0915
384.581,85.3885,9.94552,0,9.39566,0.574805,-2.8836,-4.20732,9.02439,-17.0427,-10.0088,0.177231,2.56028,-24.9695,-184.848,14.1768
384.592,85.2455,10.156,0,9.44356,0.546064,-2.83091,-3.93293,9.35976,-17.2561,-9.92496,0.179626,2.53393,-24.0854,-189.36,14.4207
384.602,85.0933,10.3605,0,9.44596,0.608335,-2.86444,-4.14634,10.1524,-17.7134,-9.84114,0.141306,2.52196,-25.0915,-191.341,14.8171
384.611,84.9345,10.5803,0,9.41961,0.65863,-2.81894,-4.11585,11.5549,-18.0488,-9.76449,0.0862207,2.60818,-25.8232,-193.262,13.9024
384.621,84.7675,10.8066,0,9.40285,0.656235,-2.77822,-5.21341,11.8902,-19.2378,-9.70941,0.0886157,2.66087,-27.378,-195.762,12.9268
384.632,84.5935,11.0536,0,9.29507,0.62989,-2.77822,-5.7622,13.5061,-20.5183,-9.71659,0.0502954,2.79978,-27.8659,-196.128,11.7988
384.642,84.3937,11.304,0,9.40045,0.701741,-2.78062,-5.79268,16.2805,-22.7134,-9.72617,0.107776,2.85965,-29.0244,-200.518,10.6707
384.652,84.1798,11.521,0,9.38848,0.797541,-2.64889,-5.88415,17.0427,-23.3537,-9.77168,0.215552,2.76146,-28.5976,-202.774,9.63415
384.661,83.9649,11.749,0,9.5705,0.802332,-2.68242,-6.15854,19.2378,-24.0244,-9.7597,0.273032,2.84528,-30.6098,-206.982,9.14634
384.672,83.7337,11.9952,0,9.52978,0.919688,-2.62494,-6.58537,18.3841,-24.6646,-9.8076,0.301772,2.98419,-31.0366,-210.518,8.59756
384.682,83.5065,12.261,0,9.44356,0.888552,-2.57225,-7.10366,17.1646,-25,-9.84593,0.316143,3.13269,-31.1585,-213.75,8.78049
384.692,83.2724,12.5384,0,9.37171,0.910107,-2.47645,-7.83537,15.9451,-25.8232,-9.83395,0.311353,3.23088,-31.0061,-218.11,5.51829
384.702,83.0378,12.8285,0,9.43638,0.864602,-2.49561,-8.38415,16.4939,-26.9817,-9.80042,0.227527,3.33147,-31.7988,-220.122,3.44512
384.711,82.7952,13.1117,0,9.57529,0.876577,-2.63692,-7.31707,18.0793,-28.2927,-9.80042,0.167651,3.35063,-30.8841,-223.354,2.04268
384.722,82.5374,13.3803,0,9.78605,1.00351,-2.71595,-8.07927,19.6037,-29.0549,-9.77647,0.124541,3.32668,-30.8841,-222.744,-0.335366
384.732,82.2603,13.6692,0,9.67827,1.08973,-2.56746,-10.5488,20,-30.3963,-9.68785,0.155676,3.44164,-31.25,-225.671,-0.457317
384.742,81.9683,13.9764,0,9.48188,1.11129,-2.33754,-12.6829,19.6037,-31.9512,-9.59924,0.126936,3.54702,-31.7073,-231.768,-0.243902
384.752,81.6914,14.3055,0,9.43638,0.943638,-2.33035,-12.622,19.8476,-32.9878,-9.4747,0.191602,3.65719,-33.628,-238.415,0.609756
384.761,81.4,14.6362,0,9.59684,1.0586,-2.39741,-11.8598,21.0671,-33.8415,-9.48188,0.105381,3.72665,-32.6524,-242.652,-0.121951
384.772,81.0886,14.9886,0,9.67588,1.17356,-2.56267,-11.3415,20.8232,-35.2134,-9.28789,0.143701,3.81527,-31.7378,-243.293,0.518293
384.782,80.7758,15.3532,0,9.81719,1.25739,-2.53393,-9.96951,21.9817,-35.2134,-9.16574,0.0407153,3.88951,-29.9695,-242.805,1.31098
384.792,80.4593,15.7384,0,9.74294,1.26936,-2.39023,-9.69512,22.4695,-35.9756,-9.10107,-0.0263452,4.02842,-27.0732,-243.049,-0.121951
384.802,80.1263,16.1309,0,9.65672,1.34361,-2.5483,-8.84146,24.7256,-37.2866,-9.03401,-0.0838257,4.10746,-25.2439,-242.835,-2.95732
384.811,79.7703,16.5143,0,9.73336,1.52323,-2.39981,-9.78659,24.6951,-38.3232,-8.94061,-0.00718506,4.09788,-24.0854,-240,-4.54268
384.821,79.4119,16.9244,0,9.46512,1.50647,-2.20821,-9.69512,22.8963,-38.9939,-8.8472,0.0622705,4.25595,-24.4512,-238.75,-5.42683
384.832,79.0503,17.3691,0,9.53697,1.54,-2.19144,-9.08537,23.9634,-39.7866,-8.87355,0.0958008,4.51461,-26.4634,-240.03,-5.60976
384.842,78.693,17.8057,0,9.616,1.54718,-2.18665,-6.92073,23.7805,-40.1524,-8.86636,0.126936,4.55533,-23.689,-242.805,-6.55488
384.851,78.3015,18.269,0,9.40524,1.8274,-1.8777,-6.95122,20,-40.5793,-8.72745,0.129331,4.69903,-21.5244,-243.476,-9.63415
384.862,77.9315,18.7446,0,9.60642,1.80824,-1.9232,-6.70732,21.5854,-39.878,-8.58854,0.119751,4.77806,-19.5427,-240.823,-11.0366
384.872,77.5629,19.2471,0,9.77168,1.89207,-2.07169,-5.7622,21.0061,-39.878,-8.43047,0.102986,4.91698,-17.1951,-238.506,-11.7988
384.882,77.2,19.7743,0,9.51781,1.8777,-1.87051,-4.39024,19.6951,-39.6341,-8.28198,0.0622705,5.0511,-19.2988,-238.537,-11.4329
384.892,76.8052,20.3268,0,9.51302,2.13396,-1.76992,-3.59756,18.8415,-40.6098,-8.14786,-0.00958008,5.20438,-20.9146,-234.177,-10.2439
384.902,76.4175,20.8968,0,9.59684,2.17707,-1.73639,-4.29878,17.9878,-40.3963,-8.03769,0,5.33371,-20.3659,-232.805,-10.3963
384.912,76.0359,21.4948,0,9.50104,2.18426,-1.65017,-3.90244,15.4573,-40.2439,-7.9347,-0.00239502,5.52531,-21.311,-231.677,-10.7622
384.921,75.6525,22.0823,0,9.47709,2.35909,-1.49689,-3.41463,13.2012,-39.0854,-7.84848,0.0934058,5.53489,-19.4817,-230.183,-11.5549
384.931,75.2563,22.6806,0,9.48188,2.53633,-1.44659,-2.40854,10.4268,-39.1463,-7.80537,0.100591,5.68338,-19.5427,-228.689,-10.8232
384.942,74.8547,23.2716,0,9.52739,2.6944,-1.65496,0.243902,11.0061,-38.8415,-7.78621,0.107776,5.75523,-18.0488,-228.841,-11.7073
384.952,74.447,23.8623,0,9.4244,2.91474,-1.49689,1.61585,7.16463,-37.439,-7.6928,0.134121,5.81032,-17.9573,-227.378,-11.4939
384.962,74.0487,24.4871,0,9.12502,2.90516,-1.28134,0.396341,1.95122,-36.3415,-7.64251,0.0838257,6.08095,-16.7988,-228.75,-12.8354
384.972,73.6639,25.1348,0,9.06036,2.91474,-1.28134,-0.457317,0.27439,-35.4268,-7.5491,0.0718506,6.27016,-16.311,-228.262,-13.9939
384.982,73.3007,25.782,0,9.13939,2.93629,-1.52563,-0.121951,2.31707,-34.0549,-7.45809,0.105381,6.33483,-18.3841,-229.299,-14.5427
384.992,72.9378,26.4499,0,9.17772,3.06802,-1.69088,0.0914634,0.853659,-33.3841,-7.32157,0.0550855,6.48092,-19.6951,-229.024,-14.7256
385.002,72.5795,27.1081,0,9.52978,3.19975,-1.85854,0.27439,0.518293,-33.5061,-7.28804,0.0359253,6.54798,-21.7683,-228.872,-14.7561
385.012,72.2298,27.757,0,9.41243,3.20454,-1.7316,1.09756,-0.701219,-32.8659,-7.28565,-0.0119751,6.64139,-21.8902,-231.006,-15.6707
385.022,71.8839,28.4076,0,9.32142,3.24286,-1.58071,1.52439,-2.89634,-32.4085,-7.22338,0.0383203,6.74677,-22.6524,-230.549,-13.811
385.032,71.5208,29.0277,0,9.27352,3.45601,-1.55916,1.61585,-4.11585,-32.3171,-7.24972,-0.0335303,6.73958,-23.5976,-233.018,-13.689
385.042,71.1661,29.6373,0,9.33579,3.52068,-1.56395,0.731707,-4.93902,-31.7378,-7.19703,-0.0526904,6.77551,-24.0854,-232.561,-13.2012
385.051,70.8315,30.2598,0,9.19687,3.45841,-1.54,1.31098,-7.80488,-30.5183,-7.15153,-0.0407153,6.95514,-26.2805,-233.14,-11.25
385.062,70.5241,30.8647,0,9.29028,3.34345,-1.5879,4.08537,-9.2378,-30.0915,-7.06291,-0.0838257,6.91203,-25.2439,-232.957,-9.96951
385.072,70.2076,31.466,0,9.06754,3.44643,-1.41306,4.20732,-11.1585,-29.5732,-6.924,-0.107776,6.90005,-22.5,-231.951,-8.07927
385.082,69.8995,32.0919,0,9.07233,3.39135,-1.6358,4.45122,-10.4268,-30,-6.79228,-0.0550855,7.06291,-18.0488,-232.957,-4.17683
385.092,69.5923,32.6922,0,9.14897,3.52547,-1.58311,5.30488,-10.6402,-29.3598,-6.69887,-0.0886157,6.95993,-16.7683,-233.75,-1.28049
385.102,69.2919,33.2434,0,8.95977,3.4608,-1.56155,4.87805,-12.439,-29.2073,-6.53361,-0.107776,6.64378,-13.7195,-228.841,-1.61585
385.112,68.9887,33.8281,0,9.11305,3.54223,-1.67651,4.5122,-11.4329,-29.8476,-6.47613,-0.205972,6.91921,-14.3293,-224.909,-0.213415
385.121,68.7055,34.4133,0,9.46751,3.58774,-1.59508,4.69512,-9.78659,-29.4207,-6.40668,-0.225132,6.99106,-15.122,-224.085,-0.609756
385.132,68.428,35.0063,0,9.1825,3.47996,-1.50647,4.81707,-11.6463,-29.4207,-6.24142,-0.198787,7.00064,-14.6341,-223.598,0.426829
385.142,68.1614,35.6135,0,9.10347,3.42248,-1.71723,5.12195,-12.7439,-29.1768,-6.14323,-0.172441,7.12758,-17.1341,-221.738,2.71341
385.152,67.8831,36.2014,0,8.98851,3.53265,-1.71004,3.9939,-12.9268,-29.1768,-6.03784,-0.172441,7.04136,-18.3537,-216.585,5.70122
385.162,67.6019,36.8035,0,8.76817,3.53984,-1.72681,2.43902,-10.7927,-28.9634,-5.9157,-0.131726,7.13716,-19.6037,-214.085,7.95732
385.172,67.3271,37.392,0,8.90229,3.61408,-1.65017,1.89024,-11.7988,-28.6585,-5.98755,-0.138911,7.29044,-20.1524,-214.024,10.3659
385.181,67.0548,37.9467,0,8.82086,3.66438,-1.80584,1.70732,-12.0122,-28.0183,-5.91809,-0.0622705,7.13955,-19.1768,-213.476,11.4939
385.192,66.7903,38.503,0,8.76338,3.59013,-1.86333,1.55488,-10.9451,-28.3537,-5.88696,-0.0718506,7.25451,-18.8415,-212.561,9.96951
385.202,66.5219,39.0654,0,8.64363,3.68354,-1.71483,-1.15854,-10.3963,-27.6524,-5.79834,-0.0239502,7.32876,-18.1707,-213.598,7.95732
385.212,66.2581,39.6285,0,8.63644,3.72905,-1.86333,-2.22561,-7.16463,-27.1646,-5.67141,0.0646655,7.32157,-19.5122,-211.22,8.38415
385.221,66.0165,40.2027,0,8.8472,3.7051,-1.98068,-1.95122,-3.96341,-26.7378,-5.51573,0.0718506,7.34552,-20.6402,-208.354,9.48171
385.231,65.7804,40.7991,0,8.78014,3.74342,-2.00703,-3.07927,-2.19512,-25.9146,-5.45585,-0.0526904,7.57784,-23.4146,-205.701,8.01829
385.242,65.5397,41.3852,0,8.66279,3.78174,-1.67651,-4.08537,-3.65854,-25.8537,-5.35526,-0.153281,7.53473,-26.7683,-202.104,7.04268
385.252,65.332,41.9792,0,8.86397,3.7027,-1.86812,-2.46951,-5.73171,-24.8476,-5.23551,-0.201182,7.58982,-27.3171,-198.75,7.04268
385.262,65.1168,42.5394,0,8.77775,3.83682,-2.05493,-2.07317,-7.07317,-24.1159,-5.18761,-0.205972,7.45091,-26.4634,-196.585,6.92073
385.272,64.8901,43.1222,0,8.66039,3.93981,-1.81063,-2.9878,-6.28049,-23.9939,-4.96488,-0.136516,7.44612,-23.4146,-192.104,9.14634
385.282,64.6416,43.7133,0,8.61728,4.09788,-1.9735,-1.03659,-4.11585,-24.6951,-4.98883,-0.304167,7.71196,-21.25,-191.829,10.9146
385.292,64.3598,44.3048,0,8.52866,4.38289,-2.09564,-1.76829,-0.762195,-25,-4.97446,-0.383203,7.86764,-17.3171,-192.378,10.3659
385.302,64.1045,44.905,0,8.72985,4.29906,-2.22258,-1.92073,2.10366,-24.878,-4.93134,-0.397573,8.04966,-15.6707,-192.835,11.0366
385.312,63.866,45.4996,0,8.78014,4.232,-2.213,-1.64634,3.35366,-24.6646,-4.89781,-0.337698,8.13828,-14.3598,-194.116,10.3963
385.322,63.6221,46.082,0,8.44723,4.24158,-1.89925,-2.86585,-0.731707,-23.811,-4.82836,-0.184417,8.11672,-18.3841,-192.805,13.2927
385.331,63.3918,46.6578,0,8.40891,4.15536,-1.92799,-2.80488,0.0304878,-23.6585,-4.76369,-0.110171,8.15025,-21.5854,-187.348,14.4207
385.341,63.1456,47.2079,0,8.20055,4.29427,-1.7795,-5,-0.213415,-23.0183,-4.68945,-0.105381,8.00895,-23.628,-181.646,17.2866
385.352,62.9002,47.745,0,8.20055,4.33499,-1.56155,-5.64024,-0.304878,-22.9878,-4.64155,-0.122146,8.01134,-23.75,-173.201,18.0183
385.362,62.6478,48.3094,0,8.34904,4.4739,-1.7795,-4.45122,4.5122,-23.5366,-4.55293,-0.119751,8.27,-22.2256,-168.476,18.9329
385.372,62.4192,48.8827,0,8.78972,4.55054,-2.07888,-1.70732,3.32317,-23.2927,-4.52659,-0.146096,8.49753,-18.3841,-167.591,19.4207
385.381,62.1439,49.4463,0,8.63405,4.91698,-1.99984,-2.07317,2.83537,-23.8415,-4.54335,-0.205972,8.64842,-14.0244,-167.591,18.5976
385.392,61.8832,49.9941,0,8.50711,4.78525,-1.84656,-4.2378,0.365854,-23.5366,-4.5218,-0.282612,8.66997,-10.8841,-166.28,16.8902
385.401,61.6253,50.5121,0,8.30114,4.81399,-1.5855,-5.64024,2.28659,-22.2561,-4.4715,-0.289797,8.50232,-10.2744,-164.756,16.311
385.411,61.4429,51.0031,0,8.86876,4.63676,-1.69567,-7.59146,7.31707,-20.1829,-4.42121,-0.241897,8.35622,-8.04878,-160.671,14.6646
385.422,61.2642,51.4962,0,8.87355,4.62239,-2.22018,-7.10366,9.66463,-20.3659,-4.40684,-0.213157,8.53585,-9.48171,-153.78,15.122
385.432,61.1298,52.0137,0,9.67348,4.69903,-2.17947,-8.35366,14.4512,-19.4817,-4.42121,-0.117356,8.9909,-12.6524,-151.433,15.8841
385.441,60.9528,52.5387,0,8.94061,4.77327,-1.9256,-6.7378,6.98171,-19.6341,-4.45474,-0.0670605,9.35255,-15.122,-149.421,16.9512
385.452,60.7362,53.0715,0,8.8472,4.97446,-2.04295,-7.53049,8.93293,-21.4939,-4.38049,0.0598755,9.50583,-17.5,-148.445,19.6037
385.462,60.5192,53.5679,0,8.95258,5.04152,-1.80584,-8.01829,5.67073,-21.8902,-4.45474,0.0886157,9.50344,-18.2927,-145.793,22.5915
385.472,60.2439,54.0222,0,8.19336,5.11097,-1.45617,-8.56707,-1.46341,-23.0488,-4.4739,0.0910107,9.30944,-19.1463,-143.262,25.122
385.482,59.9755,54.4561,0,8.52866,5.2403,-1.70525,-8.32317,1.85976,-23.689,-4.43797,0.170046,9.22083,-17.8963,-137.591,26.6159
385.492,59.7204,54.8769,0,8.83523,5.03433,-2.21539,-6.21951,1.98171,-26.7378,-4.38768,0.158071,9.17532,-17.0732,-129.146,26.6159
385.502,59.4797,55.3412,0,9.12981,5.02475,-2.40699,-2.43902,2.34756,-27.5305,-4.32301,0.0958008,9.69983,-17.3171,-125.732,26.1585
385.511,59.1897,55.8105,0,8.90947,5.29778,-2.29203,-2.77439,1.52439,-29.1463,-4.38049,0.0383203,10.1094,-18.6585,-125.549,24.2683
385.522,58.8683,56.2561,0,8.70829,5.38879,-2.19384,-1.25,-2.13415,-30.8841,-4.426,0.0287402,10.1501,-17.9878,-125.427,21.9817
385.532,58.5238,56.6838,0,8.74422,5.56842,-2.27287,-1.25,-2.95732,-32.378,-4.43797,-0.0407153,10.1836,-21.25,-122.287,21.0671
385.542,58.1662,57.0794,0,8.73703,5.65464,-2.1627,-1.95122,-3.47561,-33.5671,-4.44755,0.0239502,10.0256,-23.5976,-120.518,18.9634
385.552,57.7914,57.435,0,8.66758,5.69057,-2.04056,-2.59146,-5.45732,-35.2744,-4.49306,0.00958008,9.84832,-24.2683,-117.927,18.1402
385.561,57.4315,57.7754,0,8.8496,5.58998,-2.31598,-0.945122,-5.64024,-36.5854,-4.53138,0.0359253,9.92017,-23.9024,-117.195,17.3476
385.571,57.0587,58.1181,0,8.90229,5.69536,-2.41657,2.46951,-5.94512,-37.9573,-4.57928,0.00718506,10.2124,-23.689,-117.226,17.1037
385.582,56.6481,58.461,0,8.64602,5.88217,-2.0214,2.16463,-8.71951,-39.2683,-4.44755,-0.0215552,10.0926,-19.6037,-113.323,15.8537
385.591,56.2446,58.8189,0,8.77535,5.9157,-2.07409,2.16463,-8.84146,-39.878,-4.3278,-0.0838257,10.1764,-17.4695,-108.384,15.122
385.602,55.844,59.1925,0,8.79451,5.87019,-2.1148,1.15854,-9.66463,-40.9451,-4.23918,-0.134121,10.3465,-17.4695,-107.652,12.8659
385.611,55.4479,59.5654,0,8.83044,5.87977,-1.99026,0.121951,-11.0061,-41.4329,-4.10267,-0.160466,10.2028,-20.8537,-103.994,12.1341
385.622,55.0314,59.9157,0,8.55501,5.91091,-1.84896,-2.10366,-12.3476,-42.3171,-3.98531,-0.143701,9.83395,-21.7988,-95.5183,11.0671
385.632,54.6041,60.2475,0,8.49274,5.93725,-2.01182,-3.44512,-12.7439,-43.628,-3.96615,-0.150886,9.74054,-21.128,-90.7012,9.66463
385.641,54.1626,60.5589,0,8.32748,5.9133,-2.16031,-4.32927,-12.1646,-45.0915,-4.00687,-0.179626,9.7621,-18.3537,-86.4634,9.14634
385.652,53.7058,60.871,0,8.17181,5.93007,-2.00703,-4.35976,-14.3902,-46.3415,-3.95897,-0.268242,9.8124,-17.3476,-83.4146,7.92683
385.662,53.2665,61.1852,0,8.30114,5.93246,-2.11241,-6.0061,-15.1829,-46.3415,-3.88951,-0.390388,9.83635,-14.3293,-76.7073,7.28659
385.672,52.8304,61.507,0,8.15025,5.85343,-1.9735,-7.53049,-16.5854,-46.6463,-3.7506,-0.443079,9.7597,-8.71951,-67.1646,6.09756
385.681,52.4002,61.8475,0,8.16702,5.91091,-1.99505,-9.02439,-17.378,-46.4939,-3.60211,-0.450264,9.80521,-2.92683,-56.4024,6.03659
385.692,51.9887,62.1935,0,8.07122,5.8175,-1.95194,-10.4573,-17.4085,-45.7012,-3.45122,-0.433499,9.6663,-2.0122,-46.7988,5.06098
385.702,51.5721,62.5391,0,7.81255,5.81032,-1.93278,-12.1951,-18.1402,-45.3049,-3.3171,-0.359253,9.49865,-1.06707,-34.6037,5.15244
385.712,51.1649,62.8961,0,7.60179,5.71452,-2.25611,-13.9329,-17.5305,-44.6037,-3.20454,-0.347278,9.54176,-2.65244,-24.2073,5.42683
385.722,50.7593,63.2406,0,7.29283,5.6259,-2.25611,-14.7256,-19.9085,-43.811,-3.13508,-0.232317,9.38608,-1.89024,-13.2012,5.97561
385.732,50.3399,63.6157,0,7.11081,5.74565,-2.01661,-15.4878,-22.8354,-43.4146,-3.02491,-0.114961,9.40285,-3.38415,-3.44512,5.27439
385.741,49.9331,63.9619,0,7.10602,5.81511,-1.99026,-16.4939,-27.4085,-42.2561,-2.95785,-0.0550855,9.31663,-4.54268,7.56098,5.39634
385.752,49.5683,64.3088,0,7.43893,5.86301,-2.27287,-16.2195,-27.9878,-40.9451,-2.95066,-0.0143701,9.53697,-5.67073,17.4085,4.48171
385.762,49.1854,64.6149,0,7.34073,6.11209,-2.15552,-18.2927,-27.439,-40.3963,-3.00575,0,9.34297,-6.64634,25.5183,2.07317
385.772,48.8057,64.894,0,7.38385,6.16478,-2.22497,-18.9024,-26.4024,-40.7012,-3.03209,-0.0383203,9.24957,-7.5,37.9878,-0.121951
385.782,48.4094,65.1427,0,7.25451,6.26777,-2.28964,-19.4512,-25.9146,-41.189,-3.10395,0.00958008,9.22083,-8.29268,45,-1.82927
385.792,47.9948,65.3442,0,7.02459,6.27256,-2.31598,-20.0305,-24.8171,-41.9512,-3.20693,-0.0407153,9.05557,-8.68902,53.9939,-3.68902
385.802,47.5696,65.5068,0,6.66773,6.25819,-2.12917,-21.25,-25.4268,-40.9756,-3.25723,-0.0239502,8.84002,-10.0305,65.061,-6.4939
385.811,47.1849,65.6695,0,6.73,6.02347,-2.21539,-20.5488,-24.2378,-40.4878,-3.19256,-0.0215552,8.76577,-10.2439,75.5793,-6.98171
385.821,46.8223,65.8275,0,6.48332,5.85343,-2.15791,-19.5427,-29.5427,-38.5061,-3.16143,0.0383203,8.72027,-12.1646,83.2317,-5.64024
385.832,46.5,65.9996,0,6.40907,5.6762,-2.24413,-20.061,-31.9817,-36.25,-2.99856,0.0838257,8.53345,-12.1341,94.1768,-3.17073
385.842,46.1994,66.1766,0,6.21029,5.66422,-2.02858,-19.8476,-34.7256,-32.9878,-2.84049,0.0981958,8.25324,-12.7134,108.72,0.0609756
385.852,45.8911,66.3489,0,5.79355,5.68099,-1.94955,-20.122,-40.6402,-30.1524,-2.79499,-0.00958008,8.18139,-14.7256,123.384,1.03659
385.862,45.6637,66.5281,0,5.83427,5.20198,-1.61903,-18.2012,-41.4329,-28.0793,-2.73751,-0.119751,8.20055,-18.0488,134.39,1.40244
385.872,45.4225,66.705,0,5.79595,5.58758,-1.74357,-20.7317,-42.7744,-25.3963,-2.63692,-0.110171,7.98499,-19.6646,147.622,1.37195
385.881,45.2586,66.8896,0,6.251,5.53489,-2.11001,-22.1341,-38.2317,-22.9573,-2.56267,-0.0502954,7.96104,-21.128,159.421,2.68293
385.891,45.1177,67.0703,0,6.28932,5.53968,-2.33275,-23.1402,-34.5732,-21.25,-2.56746,-0.0670605,8.04248,-23.0183,170.396,4.14634
385.902,45.0082,67.2258,0,6.32046,5.55645,-2.3088,-22.0122,-35.5793,-18.4451,-2.63931,-0.0550855,8.0784,-25.2439,184.024,4.78659
385.911,44.8992,67.3376,0,6.04503,5.61393,-2.2609,-20.8841,-38.2012,-15.4268,-2.78062,-0.0311353,8.0808,-27.1037,194.482,4.2378
385.921,44.7873,67.398,0,6.22945,5.97318,-2.66326,-22.8354,-35.7012,-14.0854,-2.96743,0.00718506,8.09756,-27.561,204.085,3.14024
385.932,44.6565,67.4107,0,6.15999,6.13365,-2.31359,-24.1463,-33.9329,-14.0244,-3.16861,0.0598755,8.16462,-27.4085,216.128,1.82927
385.942,44.519,67.3756,0,6.27016,6.33722,-2.34712,-23.0793,-36.5244,-14.1159,-3.45122,0.0215552,8.38257,-31.3415,221.982,0.213415
385.952,44.3368,67.2276,0,5.98994,6.56235,-2.45969,-23.1402,-38.4146,-14.2378,-3.90149,-0.153281,8.28198,-33.4146,229.939,-2.80488
385.962,44.1541,67.0092,0,6.10251,6.64857,-2.66326,-22.561,-39.5732,-15,-4.25834,-0.205972,8.31551,-36.4024,236.28,-5.54878
385.972,43.9577,66.7331,0,6.06898,6.74438,-2.76625,-22.8963,-42.0122,-15.6098,-4.57928,-0.222737,8.33946,-38.5671,241.128,-6.92073
385.982,43.7675,66.4214,0,6.21268,6.85455,-2.73751,-23.5061,-42.0427,-15.7927,-4.77806,-0.241897,8.30593,-42.0427,247.713,-7.2561
385.992,43.5797,66.0655,0,6.27016,7.06052,-2.74948,-25.3659,-41.3415,-14.7561,-4.98883,-0.213157,8.20055,-41.9207,253.262,-5.45732
386.002,43.3961,65.6801,0,6.40189,7.2138,-2.68242,-25.8537,-39.3293,-14.6646,-5.16606,-0.198787,8.14307,-41.8293,257.5,-1.85976
386.012,43.191,65.2895,0,6.22945,7.25451,-2.53872,-25.9756,-40.061,-15.3354,-5.27862,-0.217947,8.16223,-42.8049,260.854,0.548781
386.022,42.9662,64.8975,0,6.13365,7.38624,-2.62494,-25.4573,-38.1098,-15.8232,-5.41753,-0.220342,8.24605,-45.0305,263.933,2.92683
386.032,42.7433,64.4835,0,6.26058,7.31918,-2.66805,-24.7561,-38.9634,-17.8049,-5.46304,-0.201182,8.0305,-44.8476,268.78,2.7439
386.042,42.5011,64.0658,0,6.33483,7.45809,-2.64889,-25.3659,-39.3293,-19.8171,-5.46304,-0.232317,7.88919,-43.872,275.518,3.71951
386.052,42.2691,63.6407,0,6.65815,7.61137,-2.6465,-26.6463,-34.6951,-20.9756,-5.48459,-0.320933,7.75028,-40.122,279.207,2.37805
386.062,42.0445,63.253,0,6.70605,7.59221,-2.57225,-27.378,-30.6098,-21.25,-5.50854,-0.428708,7.93949,-39.2988,281.921,-0.121951
386.071,41.8245,62.8526,0,6.93358,7.67364,-2.48603,-28.628,-24.8476,-22.561,-5.57082,-0.498164,7.82213,-36.4939,283.079,-1.79878
386.082,41.5789,62.4057,0,6.79467,7.75028,-2.48364,-29.4207,-18.0183,-23.872,-5.60674,-0.55804,7.44133,-33.2622,290.213,-3.84146
386.092,41.3048,61.973,0,6.75156,7.87243,-2.46927,-30.5183,-13.0793,-26.0061,-5.69057,-0.570015,7.53473,-30.8841,294.634,-4.78659
386.102,40.9712,61.501,0,6.21029,7.92033,-2.4046,-30.8841,-10.122,-27.5,-5.75044,-0.483794,7.23775,-28.7805,299.146,-4.90854
386.112,40.5901,61.0191,0,5.87738,7.89159,-2.34951,-30.4573,-10.4878,-30.122,-5.82708,-0.419128,7.15392,-27.8049,303.78,-1.43293
386.121,40.1811,60.4894,0,5.70733,7.95386,-2.16749,-30,-12.561,-31.6768,-5.96839,-0.383203,6.90724,-24.8171,308.445,1.61585
386.132,39.7611,59.9203,0,5.57082,7.94188,-2.07409,-30.9146,-14.2378,-32.378,-6.12885,-0.352068,6.72761,-24.0854,313.232,2.83537
386.142,39.3431,59.3141,0,5.57082,7.86524,-2.05972,-31.311,-15.4573,-33.5671,-6.29651,-0.371228,6.56235,-20.6402,317.439,3.53659
386.152,38.9244,58.7118,0,5.5301,7.81016,-1.99745,-31.9207,-18.5061,-34.4817,-6.37794,-0.368833,6.53122,-16.0366,318.567,4.17683
386.162,38.494,58.0592,0,5.55166,7.8365,-2.11959,-31.0671,-19.8476,-36.5549,-6.47374,-0.387993,6.21268,-11.5854,320.915,3.9939
386.172,38.052,57.3766,0,5.65464,7.97062,-2.07888,-31.0976,-17.0427,-38.689,-6.5384,-0.404758,5.97797,-3.96341,326.189,4.2378
386.182,37.5905,56.6956,0,5.54208,7.95146,-1.94955,-31.7683,-15.4573,-40.6098,-6.61744,-0.431104,5.91809,-1.85976,328.933,2.7439
386.192,37.1379,56.0498,0,5.36963,7.74789,-2.0669,-31.3415,-13.4756,-40.3354,-6.61744,-0.416733,5.9636,0.0609756,330.732,3.29268
386.201,36.6912,55.4013,0,5.32892,7.70717,-2.11001,-31.128,-14.1463,-40.5183,-6.55517,-0.371228,5.76481,-0.243902,334.634,3.17073
386.212,36.236,54.7597,0,5.31215,7.75986,-2.08606,-32.5915,-20.1829,-41.7683,-6.43302,-0.285007,5.57321,0.548781,344.39,2.16463
386.222,35.775,54.1303,0,5.3361,7.62574,-1.94476,-33.5671,-25.7317,-44.4817,-6.35878,-0.282612,5.45106,2.53049,351.128,1.64634
386.232,35.3353,53.5107,0,5.20198,7.37427,-1.73639,-33.811,-25.2134,-43.689,-6.33243,-0.129331,5.36005,2.19512,356.037,1.67683
386.242,34.9189,52.8783,0,5.20677,7.12518,-1.64059,-34.2683,-23.3537,-44.1768,-6.38033,-0.0670605,5.22354,1.0061,356.616,2.16463
386.252,34.5504,52.2442,0,5.34089,6.9264,-1.81063,-33.7805,-19.8476,-43.1402,-6.51924,-0.0934058,5.20917,0.426829,356.189,1.4939
386.262,34.1694,51.6002,0,5.35526,7.08447,-2.02858,-32.0732,-17.1951,-44.0549,-6.71084,-0.0455054,5.1948,-5.39634,355.488,0.487805
386.271,33.7563,50.9235,0,5.11576,7.21859,-2.13636,-29.7866,-12.378,-44.5122,-6.7827,-0.0335303,4.97925,-9.69512,358.171,-1.64634
386.282,33.2861,50.2145,0,4.82117,7.58263,-2.06451,-29.6951,-14.3293,-45.3049,-6.92161,0.0215552,4.81399,-17.9268,363.171,-2.83537
386.292,32.7929,49.5035,0,4.68705,7.86524,-2.13396,-31.4939,-18.2012,-45.2439,-7.06052,0.0215552,4.77567,-20.6098,366.738,-2.59146
386.301,32.2827,48.7583,0,4.50982,7.92272,-2.03098,-32.4085,-21.9817,-45.6402,-7.27367,0.0407153,4.63436,-20.7622,367.165,-0.396341
386.312,31.769,47.9775,0,4.43318,8.00176,-1.99745,-30.7927,-22.9573,-45.7012,-7.47725,-0.0287402,4.46671,-19.3902,366.28,0.426829
386.321,31.2448,47.1892,0,4.22721,8.02092,-2.00942,-28.9024,-20.7622,-45.3659,-7.60898,-0.0742456,4.37331,-19.2988,366.829,1.31098
386.331,30.7109,46.4617,0,4.11464,8.04248,-2.03577,-26.189,-22.1646,-46.0061,-7.78381,-0.0934058,4.60562,-23.5671,362.896,1.98171
386.342,30.1753,45.685,0,4.19368,8.19576,-2.18186,-24.2378,-25.1524,-47.2866,-7.8868,-0.124541,4.30864,-26.9817,363.811,0.213415
386.352,29.6248,44.9179,0,4.13141,8.49753,-1.98547,-25.5793,-25.7927,-47.5,-7.92512,-0.165256,4.24158,-32.7744,371.799,-0.853659
386.362,29.0933,44.1286,0,4.37091,8.92863,-1.93039,-29.7256,-27.3476,-47.0122,-8.04487,-0.249082,4.07153,-38.2927,375.671,-1.52439
386.372,28.6135,43.2918,0,4.72058,8.80409,-1.70765,-31.2195,-23.0793,-47.1341,-8.13588,-0.277822,3.77216,-39.7256,379.268,-1.61585
386.381,28.1381,42.4513,0,4.79722,8.81607,-1.58311,-29.2683,-17.7439,-48.3841,-8.24605,-0.340093,3.66198,-37.5,379.39,-0.884146
386.391,27.6279,41.6004,0,4.35175,8.73943,-1.85135,-27.1037,-8.2622,-48.6585,-8.37299,-0.280217,3.52307,-36.0976,374.97,1.67683
386.402,27.0762,40.7768,0,4.06674,8.83283,-1.8753,-25.5183,-6.37195,-50.3659,-8.38257,-0.342488,3.49912,-34.8476,374.604,5.54878
386.412,26.5059,39.9187,0,3.89191,8.90229,-2.019,-27.8049,-4.20732,-51.128,-8.43047,-0.404758,3.23088,-34.1768,376.098,6.98171
386.422,25.9439,38.9585,0,3.75779,8.74661,-1.61903,-28.0183,-5.64024,-50.7012,-8.39694,-0.462239,2.65608,-29.8476,380.152,8.5061
386.432,25.3993,38.0233,0,3.6548,8.658,-1.1999,-27.1341,-9.20732,-49.3293,-8.46639,-0.546064,2.62734,-19.5732,383.811,7.95732
386.442,24.8541,37.1636,0,3.45601,8.74661,-1.45378,-26.4939,-8.59756,-47.8049,-8.58136,-0.541274,2.81894,-13.5061,377.866,6.21951
386.451,24.3096,36.3261,0,3.28357,8.80888,-1.61424,-21.7378,-2.34756,-46.5549,-8.89031,-0.59157,2.85247,-6.7378,358.354,4.20732
386.461,23.7519,35.4625,0,3.20693,8.90468,-1.23823,-21.4634,-4.32927,-47.7134,-8.78493,-0.519719,2.57944,-3.93293,373.171,2.92683
386.472,23.1951,34.6605,0,3.22849,8.94061,-0.833467,-19.7866,0.335366,-48.872,-8.85199,-0.385598,2.71116,-2.89634,367.134,2.7439
386.482,22.6196,33.8369,0,2.9339,8.96695,-0.790356,-19.6341,4.90854,-48.3537,-8.91905,-0.299377,2.49322,-0.487805,354.939,3.01829
386.492,22.0508,33.0095,0,2.75427,8.95498,-0.790356,-18.811,7.53049,-46.7683,-8.95737,-0.306563,2.34233,3.04878,345.732,2.62195
386.501,21.4802,32.185,0,2.50759,9.01006,-1.27176,-19.1463,10.6098,-44.9695,-8.96456,-0.356858,2.213,7.46951,339.146,1.61585
386.512,20.8736,31.3402,0,2.01661,8.97414,-1.32684,-17.8354,8.10976,-43.9024,-9.08191,-0.452659,2.01661,13.3841,336.585,-0.945122
386.522,20.2744,30.5109,0,1.92081,9.03162,-0.960403,-18.689,2.13415,-43.0488,-9.16095,-0.502954,1.95434,16.9512,332.104,-5.21341
386.532,19.7005,29.7122,0,1.9232,9.00048,-0.608335,-20.7012,-3.84146,-41.7988,-9.22801,-0.443079,1.95194,19.1768,323.598,-8.5061
386.542,19.1856,28.9697,0,2.17468,8.98851,-0.816702,-21.8598,-6.92073,-40.0915,-9.34058,-0.364043,2.07409,17.2866,315.061,-12.2866
386.552,18.7124,28.2249,0,2.19623,8.81607,-0.953218,-23.628,-10.061,-37.6829,-9.43398,-0.258662,1.95194,14.3293,308.293,-14.9085
386.561,18.2867,27.5014,0,2.30161,8.80409,-0.675395,-21.5244,-15.6707,-35.1524,-9.46272,-0.126936,1.91602,14.0244,301.829,-14.9695
386.572,17.91,26.8342,0,2.53393,8.85199,-0.670605,-20.8537,-16.0976,-33.7195,-9.616,-0.0958008,2.05972,12.8963,289.939,-13.4756
386.581,17.5727,26.1813,0,2.56986,9.01485,-0.656235,-19.3598,-18.2622,-30.3354,-9.78366,-0.0742456,2.02619,14.4817,273.445,-13.5366
386.592,17.2853,25.5491,0,2.71595,8.96456,-0.866997,-17.561,-14.3902,-27.8659,-9.89622,-0.174836,2.01182,15.6098,257.896,-14.0244
386.602,17.0405,24.9075,0,2.74948,8.9933,-0.958008,-16.4329,-8.93293,-24.3902,-9.99202,-0.249082,1.86572,17.4085,248.323,-16.4939
386.611,16.8677,24.241,0,3.01533,8.88313,-0.701741,-13.2622,-4.05488,-21.128,-9.92257,-0.261057,1.62143,16.4024,243.14,-16.4024
386.621,16.712,23.5491,0,2.95066,8.97653,-0.766406,-12.5305,0.396341,-18.5976,-9.82677,-0.227527,1.37474,15.4268,241.25,-15.7622
386.631,16.5053,22.8642,0,2.38783,9.12981,-0.689766,-11.372,2.5,-16.8902,-9.75491,-0.155676,1.27176,11.7988,237.256,-14.3293
386.642,16.3013,22.1443,0,2.34233,9.46033,-0.677791,-11.8598,-2.28659,-15.5183,-9.69983,-0.170046,0.991538,11.5854,232.805,-11.0061
386.652,16.0728,21.4692,0,2.04535,9.38129,-0.500559,-12.8049,-9.57317,-15.1524,-9.82916,-0.229922,1.07297,13.2622,229.116,-8.56707
386.662,15.8405,20.8288,0,2.01421,9.49865,-0.598755,-11.8902,-14.6341,-15.3354,-9.98484,-0.244292,1.11847,13.9634,220.884,-8.35366
386.671,15.6399,20.188,0,2.24892,9.70941,-0.752036,-11.4024,-15.5793,-14.7561,-10.1573,-0.234712,1.01549,14.7561,214.909,-7.9878
386.682,15.4579,19.5102,0,2.3567,9.75731,-0.455054,-11.6463,-13.1402,-14.3598,-10.2339,-0.227527,0.735271,15.0305,209.482,-9.05488
386.692,15.2834,18.8093,0,2.33754,9.50583,-0.387993,-11.2805,-9.54268,-14.4512,-10.2962,-0.208367,0.510139,15,207.195,-9.02439
386.702,15.1351,18.1245,0,2.54112,9.35974,-0.337698,-9.66463,-3.84146,-14.939,-10.2435,-0.232317,0.450264,15.2439,202.378,-10.0915
386.711,14.983,17.4966,0,2.40939,9.29507,-0.318538,-6.92073,-2.10366,-14.2988,-10.2938,-0.244292,0.579595,15.4268,192.683,-10.061
386.722,14.8463,16.8933,0,2.49082,9.35974,-0.308958,-3.01829,2.16463,-13.7805,-10.3465,-0.299377,0.57241,15.1829,182.957,-8.59756
386.732,14.6601,16.2939,0,2.28724,9.76449,-0.584385,-5.39634,6.34146,-15.6098,-10.3273,-0.311353,0.474214,13.5366,176.006,-10.5183
386.742,14.3987,15.7305,0,1.8274,10.2076,-1.04183,-8.75,10.1524,-17.4695,-10.2651,-0.237107,0.522114,8.93293,170.884,-8.90244
386.752,14.0845,15.1697,0,1.52563,10.3656,-1.08494,-11.5244,7.22561,-19.7561,-10.1285,-0.0838257,0.423918,-0.701219,167.348,-8.87195
386.761,13.7334,14.6218,0,1.33403,10.0639,-0.66821,-14.8171,-2.59146,-22.5,-10.0327,0.0814307,0.376018,-10.1524,164.085,-5.7622
386.772,13.3592,14.1083,0,1.33882,9.73575,-0.646655,-16.8293,-9.32927,-26.128,-9.96807,0.227527,0.423918,-20.4878,157.622,-3.01829
386.782,12.9878,13.6234,0,1.47773,9.30226,-0.546064,-16.1585,-12.439,-29.0549,-10.0232,0.342488,0.455054,-29.4207,148.567,0.365854
386.792,12.637,13.1479,0,1.66454,9.01485,-0.234712,-13.3841,-12.5915,-30.6402,-10.0782,0.337698,0.404758,-36.5549,138.293,4.08537
386.802,12.3811,12.6885,0,2.34233,9.20885,-0.0981958,-10.9451,-7.9878,-29.4512,-10.1261,0.184417,0.385598,-41.8902,128.293,5.73171
386.811,12.1928,12.2473,0,2.68242,9.20406,-0.165256,-8.90244,-1.95122,-27.1037,-10.1309,-0.0263452,0.380808,-44.6341,122.043,2.7439
386.822,12.1071,11.7949,0,3.27639,9.0412,-0.148491,-5.27439,9.17683,-24.5122,-10.0926,-0.323328,0.246687,-44.0244,116.585,-0.548781
386.832,12.1215,11.3376,0,3.72905,8.90708,-0.320933,-0.27439,20.6707,-20.1829,-10.0303,-0.526904,0.138911,-40.7622,110.366,-4.66463
386.842,12.1585,10.8745,0,3.57337,8.84241,-0.476609,4.90854,30.6402,-16.4024,-10.0208,-0.661025,0.0263452,-37.4695,102.683,-7.92683
386.851,12.1804,10.4317,0,3.28836,8.88552,-0.56283,9.69512,40.0915,-14.3902,-10.0471,-0.720901,0.0263452,-30.3049,92.4085,-7.86585
386.862,12.1587,10.0296,0,2.77104,8.97414,-0.510139,13.2622,47.5915,-12.378,-10.174,-0.797541,0.122146,-27.2256,83.0488,-7.92683
386.872,12.088,9.63749,0,2.28245,9.10347,-0.60594,16.6768,53.3537,-11.128,-10.4016,-0.977168,0.0910107,-27.8354,75.3049,-10.5183
386.882,11.9759,9.19421,0,1.84656,9.22322,-0.665815,20.1829,57.7134,-9.87805,-10.4902,-0.845442,-0.217947,-25.8841,73.9939,-12.2866
386.892,11.7819,8.70617,0,1.26218,9.77168,0.0191602,17.5305,55.3354,-10.3659,-10.4519,-0.524509,-0.502954,-24.4817,75.7622,-11.7378
386.902,11.5155,8.24392,0,0.725691,9.85072,0.299377,12.9878,51.5854,-11.7378,-10.3465,-0.244292,-0.469424,-22.4695,74.5732,-5.51829
386.912,11.2105,7.80912,0,0.217947,10.198,-0.203577,11.5244,47.6829,-10.122,-10.3034,-0.0359253,-0.428708,-26.0366,71.3719,-0.884146
386.922,10.9005,7.37671,0,-0.0910107,10.6195,-0.488584,8.20122,38.6585,-7.7439,-10.1669,0.0766406,-0.490979,-30.4573,69.8171,4.32927
386.932,10.6024,6.98079,0,-0.0574805,10.6363,-0.792751,5,27.5,-7.53049,-10.1285,-0.0143701,-0.407153,-35.5793,64.5122,8.62805
386.942,10.2986,6.57473,0,-0.136516,10.3225,-0.687371,2.86585,12.4085,-7.80488,-10.119,-0.0383203,-0.529299,-39.6037,56.372,10.7622
386.952,10.0205,6.17763,0,0.0598755,9.9561,-0.675395,1.89024,1.28049,-8.04878,-10.1333,-0.0981958,-0.56762,-39.2378,49.9085,13.5671
386.961,9.7836,5.79562,0,0.445474,9.81958,-0.790356,1.12805,-5.85366,-9.02439,-10.0543,-0.193997,-0.570015,-43.872,45.2744,14.939
386.972,9.58669,5.46426,0,0.816702,9.76928,-0.919688,0.609756,-9.45122,-9.87805,-10.1836,-0.390388,-0.423918,-51.2195,38.0488,10.9146
386.982,9.43736,5.1334,0,1.14721,9.62558,-0.974773,1.34146,-9.39024,-9.54268,-10.2698,-0.524509,-0.488584,-55.9451,33.7805,5
386.992,9.32381,4.78699,0,1.38911,9.57289,-0.962798,3.20122,-6.64634,-9.17683,-10.2339,-0.543669,-0.62031,-54.8171,29.4207,2.37805
387.001,9.25233,4.41075,0,1.67891,9.58726,-0.962798,4.11585,-1.15854,-8.53659,-10.2315,-0.534089,-0.816702,-51.8902,30.3659,1.37195
387.012,9.18369,4.03662,0,1.63101,9.5681,-0.486189,3.17073,4.32927,-7.86585,-10.2818,-0.692161,-0.876577,-48.3537,33.1098,0.914634
387.022,9.12424,3.66376,0,1.82021,10.0567,0.416733,-3.07927,6.52439,-8.2622,-10.277,-0.694556,-0.936453,-44.6951,34.878,0.426829
387.031,9.06638,3.2961,0,1.89446,10.0136,0.0526904,-9.26829,14.0854,-9.14634,-10.1932,-0.706531,-0.972378,-40.9146,34.6341,0.762195
387.041,9.00521,2.9619,0,1.64538,9.76689,-0.277822,-6.40244,17.8963,-7.2561,-10.0543,-0.682581,-0.874182,-40.1524,35.1829,3.75
387.052,8.98512,2.6275,0,1.71483,9.73815,-0.603545,-1.85976,15.3049,-4.11585,-10.0232,-0.622705,-0.931663,-40.9451,34.7561,7.5
387.062,8.98031,2.31469,0,1.82021,9.78605,-0.914897,0.0914634,12.4695,-3.78049,-9.95849,-0.512534,-0.888552,-43.0793,34.9695,8.59756
387.072,8.93933,1.96877,0,1.66933,9.74533,-0.900527,-0.640244,9.29878,-5.70122,-9.9082,-0.395178,-1.08494,-45,34.6646,11.189
387.082,8.85271,1.6497,0,1.4921,9.54894,-0.929268,-0.335366,7.31707,-8.71951,-9.89862,-0.306563,-1.02746,-47.3476,32.8659,13.3537
387.092,8.74677,1.34902,0,1.42983,9.48188,-1.02507,0.884146,7.80488,-10.2439,-9.86988,-0.301772,-1.00112,-48.5976,30.5793,14.4207
387.102,8.63141,1.07992,0,1.35798,9.46751,-1.11129,1.4939,9.11585,-10.5793,-9.8555,-0.344883,-0.917292,-50.2744,26.0671,13.7805
387.112,8.5051,0.841526,0,1.23583,9.58008,-1.02507,1.52439,9.11585,-10.2744,-9.88664,-0.467029,-0.835862,-50.7927,21.7378,10.3049
387.121,8.36881,0.599311,0,1.13045,9.63037,-0.790356,1.52439,7.56098,-10.2134,-9.86509,-0.574805,-0.893342,-53.1098,20.3354,4.02439
387.132,8.22395,0.352851,0,1.06578,9.75491,-0.661025,1.31098,5.27439,-10.4268,-9.82677,-0.58199,-0.950823,-51.2195,19.7561,1.67683
387.142,8.11948,0.105649,0,1.26457,9.78605,-0.603545,0.670732,5.73171,-8.90244,-9.75252,-0.517324,-0.989143,-48.6585,19.8476,1.25
387.152,8.05033,-0.118728,0,1.40348,9.79084,-0.495769,0.365854,7.43902,-7.13415,-9.82677,-0.570015,-0.943638,-45.9451,15.2134,2.59146
387.162,8.00839,-0.319575,0,1.51126,9.7597,-0.447869,0.884146,8.59756,-5.82317,-9.81479,-0.56762,-0.881367,-43.75,11.9512,4.87805
387.172,7.9874,-0.526785,0,1.52802,9.67588,-0.361648,1.37195,8.35366,-4.17683,-9.81,-0.59636,-0.946033,-41.2805,6.92073,8.59756
387.182,7.98248,-0.734166,0,1.56395,9.6663,-0.344883,2.16463,7.89634,-3.17073,-9.75012,-0.570015,-0.955613,-38.8415,4.2378,11.7988
387.192,7.97499,-0.992179,0,1.55437,9.68546,-0.289797,2.9878,6.64634,-3.2622,-9.78366,-0.524509,-1.05141,-36.3415,2.22561,13.811
387.202,7.96531,-1.34154,0,1.54958,9.71899,-0.392783,4.02439,5.67073,-3.35366,-9.82916,-0.476609,-1.13284,-32.0427,1.12805,14.9695
387.212,7.9439,-1.59522,0,1.45617,9.74294,-0.399968,4.32927,4.02439,-3.35366,-9.94652,-0.443079,-1.18553,-28.2927,2.22561,15.3354
387.221,7.91191,-1.82033,0,1.33642,9.90341,-0.407153,3.23171,2.92683,-2.68293,-10.0064,-0.431104,-1.15919,-26.311,2.43902,14.6646
387.232,7.87439,-2.05985,0,1.27415,9.89622,-0.435894,1.98171,1.52439,-2.5,-9.98723,-0.361648,-1.09692,-23.9024,1.46341,12.8354
387.242,7.84108,-2.4234,0,1.26218,9.8076,-0.450264,0.609756,0.97561,-2.04268,-10.0327,-0.325723,-1.152,-22.1341,0.335366,11.9512
387.252,7.80779,-2.60987,0,1.24062,9.78605,-0.498164,-1.28049,-0.0304878,-1.7378,-10.0256,-0.313748,-1.16398,-20.5793,2.53049,10.3963
387.262,7.77544,-2.78411,0,1.22625,9.78605,-0.514929,-2.07317,-1.31098,-1.15854,-10.0567,-0.325723,-1.22386,-19.7561,4.87805,8.93293
387.271,7.75064,-2.95517,0,1.2526,9.74533,-0.498164,-1.89024,-2.0122,-0.884146,-10.0543,-0.294587,-1.24302,-20.3354,5.33537,8.10976
387.282,7.72699,-3.13948,0,1.24781,9.68785,-0.505349,-1.79878,-2.40854,-0.853659,-10.0423,-0.285007,-1.33403,-17.8963,6.40244,7.10366
387.292,7.70145,-3.32202,0,1.23823,9.63756,-0.560435,-1.31098,-2.62195,-1.31098,-10.0327,-0.265847,-1.35798,-16.8293,7.0122,7.19512
387.302,7.67078,-3.50821,0,1.23823,9.7118,-0.493374,-1.12805,-2.77439,-2.0122,-10.0663,-0.308958,-1.41067,-14.2988,9.2378,8.47561
387.311,7.63293,-3.68434,0,1.21427,9.84353,-0.579595,-0.945122,-3.07927,-2.34756,-10.0256,-0.383203,-1.3939,-16.372,6.95122,9.08537
387.322,7.59756,-3.83935,0,1.2981,9.82437,-0.61073,-1.52439,-3.41463,-3.38415,-9.99921,-0.378413,-1.32684,-14.2073,6.79878,10.6402
387.331,7.55071,-3.97706,0,1.28613,9.85072,-0.589175,-2.22561,-3.78049,-4.45122,-9.90341,-0.349673,-1.26457,-14.0244,6.82927,11.372
387.342,7.50769,-4.10398,0,1.36037,9.77886,-0.502954,-2.65244,-4.05488,-5.15244,-9.94891,-0.320933,-1.24541,-15.2439,9.39024,12.622
387.351,7.44985,-4.24032,0,1.31726,9.73336,-0.459844,-3.10976,-4.81707,-6.31098,-9.94173,-0.270637,-1.30768,-15.061,10.8232,12.3171
387.362,7.39813,-4.36126,0,1.42504,9.69983,-0.526904,-2.53049,-4.63415,-7.13415,-9.97286,-0.208367,-1.26697,-14.6646,10.9146,12.1037
387.371,7.35544,-4.4653,0,1.51605,9.69025,-0.57241,-2.5,-3.90244,-7.40854,-9.89622,-0.150886,-1.20469,-16.9207,9.63415,11.5549
387.381,7.32582,-4.53413,0,1.60466,9.7118,-0.517324,-3.20122,-2.56098,-7.16463,-9.88904,-0.150886,-1.06818,-16.7073,7.40854,13.9024
387.391,7.30446,-4.60146,0,1.59748,9.70941,-0.500559,-3.84146,-0.731707,-6.31098,-9.84832,-0.177231,-1.06818,-18.2012,5.06098,13.0183
387.402,7.29974,-4.6811,0,1.7795,9.70222,-0.505349,-2.77439,0.792683,-6.79878,-9.81479,-0.167651,-1.11129,-18.2927,3.23171,13.0183
387.412,7.29157,-4.77399,0,1.76752,9.69025,-0.481399,-2.04268,1.52439,-7.04268,-9.80281,-0.213157,-1.19511,-18.628,4.35976,11.7988
387.421,7.27866,-4.85349,0,1.72441,9.616,-0.471819,-1.0061,2.0122,-7.19512,-9.80281,-0.191602,-1.15919,-20.5793,6.61585,11.5549
387.432,7.27129,-4.91959,0,1.7292,9.62079,-0.495769,-0.426829,2.37805,-6.70732,-9.80042,-0.153281,-1.11368,-20.7012,7.7439,11.5549
387.442,7.26894,-4.97424,0,1.69807,9.65432,-0.58678,0.0609756,3.20122,-5.79268,-9.73815,-0.249082,-1.06818,-21.5549,7.77439,13.9939
387.452,7.27626,-5.02497,0,1.6837,9.61361,-0.579595,-0.243902,4.42073,-4.78659,-9.75731,-0.301772,-1.06339,-22.8659,6.18902,15.2134
387.462,7.29074,-5.08009,0,1.64298,9.67827,-0.555645,-0.0914634,4.66463,-3.59756,-9.76689,-0.352068,-1.09213,-22.439,6.67683,14.3293
387.472,7.30751,-5.14101,0,1.57353,9.63516,-0.56762,0.426829,4.54268,-2.83537,-9.77407,-0.392783,-1.12566,-24.1463,4.72561,13.6585
387.481,7.33407,-5.22284,0,1.54,9.64474,-0.60594,0.640244,3.62805,-1.95122,-9.79084,-0.347278,-1.21667,-23.5976,3.53659,12.7439
387.492,7.35338,-5.31637,0,1.45617,9.65432,-0.6251,1.15854,2.83537,-1.61585,-9.79803,-0.296982,-1.27176,-22.1037,3.14024,13.1707
387.502,7.38102,-5.38531,0,1.42504,9.63756,-0.651445,1.28049,2.59146,-1.0061,-9.80281,-0.287402,-1.2023,-20.122,4.26829,13.9329
387.512,7.39712,-5.46005,0,1.37474,9.72378,-0.63468,1.09756,1.52439,-0.853659,-9.80521,-0.270637,-1.22864,-19.4207,3.35366,13.2012
387.521,7.3967,-5.52637,0,1.31966,9.73575,-0.524509,1.0061,1.06707,-1.12805,-9.83874,-0.251477,-1.22146,-19.3293,4.39024,13.75
387.531,7.38423,-5.60584,0,1.26697,9.80042,-0.467029,0.762195,0.457317,-1.18902,-9.87946,-0.241897,-1.2981,-20.0915,4.96951,13.4451
387.542,7.36875,-5.68778,0,1.24781,9.81,-0.490979,0.609756,0.335366,-1.15854,-9.92736,-0.213157,-1.32684,-19.0549,4.39024,12.2256
387.552,7.34132,-5.76783,0,1.19032,9.81,-0.522114,0.579268,0,-1.52439,-9.9082,-0.217947,-1.32445,-20.3659,3.71951,12.4695
387.562,7.31683,-5.84469,0,1.22864,9.83156,-0.538879,0.0304878,-0.27439,-1.95122,-9.93454,-0.225132,-1.32684,-19.4207,3.56707,11.9207
387.571,7.30094,-5.94864,0,1.29571,9.76449,-0.548459,-0.396341,-0.0609756,-2.22561,-9.93694,-0.229922,-1.46575,-19.6341,4.2378,11.2805
387.581,7.28765,-6.02137,0,1.31966,9.75012,-0.529299,-0.701219,-0.121951,-2.34756,-9.93933,-0.232317,-1.35079,-18.9329,4.87805,10.0915
387.592,7.27851,-6.0985,0,1.35319,9.75012,-0.531694,0.0304878,0.304878,-2.40854,-9.92496,-0.258662,-1.38193,-19.8171,5.2439,9.81707
387.602,7.26733,-6.16,0,1.35798,9.73336,-0.510139,0.121951,0.152439,-2.68293,-9.92496,-0.256267,-1.32684,-19.3293,5.60976,8.84146
387.612,7.25558,-6.20834,0,1.38193,9.78844,-0.502954,0,1.03659,-2.92683,-9.91299,-0.275427,-1.27655,-19.6037,4.57317,9.05488
387.621,7.23597,-6.25709,0,1.3484,9.73096,-0.529299,0.426829,0.884146,-3.38415,-9.88425,-0.270637,-1.28373,-19.4207,4.90854,9.66463
387.632,7.2081,-6.30136,0,1.32684,9.69504,-0.517324,0.0609756,1.09756,-4.02439,-9.87227,-0.227527,-1.27176,-19.4512,5.70122,10.3659
387.641,7.17652,-6.35712,0,1.29331,9.65432,-0.464634,-0.0914634,0.823171,-4.11585,-9.89143,-0.227527,-1.33163,-21.128,4.84756,8.23171
387.651,7.14587,-6.4082,0,1.30529,9.68785,-0.498164,-0.701219,1.06707,-4.17683,-9.92975,-0.208367,-1.32684,-19.9085,5.39634,8.38415
387.662,7.12093,-6.46203,0,1.31487,9.7142,-0.541274,-0.579268,1.0061,-3.75,-9.91538,-0.196392,-1.346,-19.1768,5.33537,8.29268
387.672,7.10952,-6.49383,0,1.36995,9.76928,-0.529299,-0.579268,1.18902,-3.07927,-9.9082,-0.217947,-1.25739,-17.439,5.42683,7.86585
387.682,7.09995,-6.5322,0,1.346,9.78366,-0.598755,-0.609756,0.823171,-2.65244,-9.91538,-0.253872,-1.27894,-18.811,2.65244,6.52439
387.691,7.10157,-6.56152,0,1.38193,9.74773,-0.613125,-0.457317,0.548781,-2.22561,-9.91059,-0.263452,-1.2502,-17.7744,2.77439,6.79878
387.702,7.09607,-6.59404,0,1.36037,9.68546,-0.6251,0.243902,0.182927,-2.65244,-9.92017,-0.222737,-1.26697,-18.5061,2.56098,6.70732
387.712,7.07847,-6.62844,0,1.29092,9.6663,-0.548459,0.152439,0.396341,-2.95732,-9.86509,-0.220342,-1.27176,-17.6829,2.53049,6.92073
387.722,7.05655,-6.64695,0,1.28613,9.67588,-0.486189,0.304878,0.548781,-3.32317,-9.84832,-0.150886,-1.20469,-17.6829,1.70732,6.95122
387.732,7.02582,-6.6641,0,1.24062,9.72617,-0.443079,0.426829,0.457317,-3.59756,-9.90341,-0.131726,-1.19272,-18.5976,-0.518293,7.9878
387.741,6.99465,-6.69904,0,1.23583,9.71899,-0.428708,0.335366,-0.182927,-3.65854,-9.89862,-0.170046,-1.29092,-19.9695,-2.28659,5.42683
387.752,6.96751,-6.74231,0,1.24541,9.77407,-0.433499,-0.182927,-0.304878,-3.35366,-9.93933,-0.119751,-1.35319,-18.5061,-3.38415,5.4878
387.762,6.95631,-6.78837,0,1.32924,9.75731,-0.464634,-0.670732,-0.243902,-2.92683,-9.97047,-0.170046,-1.38432,-16.5244,-4.35976,3.5061
387.772,6.96427,-6.82279,0,1.41306,9.73336,-0.483794,-0.823171,0.0914634,-2.34756,-9.98723,-0.160466,-1.346,-17.0732,-5.15244,3.56707
387.781,6.98983,-6.85313,0,1.43701,9.68546,-0.548459,-0.853659,0.487805,-1.61585,-10.0256,-0.251477,-1.33882,-17.9268,-5,2.53049
387.792,7.02754,-6.89915,0,1.44899,9.67827,-0.560435,-0.609756,0.792683,-1.18902,-9.96328,-0.256267,-1.40588,-15.0915,-5.2439,2.62195
387.802,7.05962,-6.9316,0,1.41546,9.69264,-0.55804,0,0.945122,-1.09756,-9.92017,-0.261057,-1.3484,-14.7561,-5.4878,3.01829
387.812,7.07168,-6.96121,0,1.31966,9.69264,-0.548459,0.579268,0.731707,-1.12805,-9.89383,-0.270637,-1.33882,-14.1463,-6.06707,2.53049
387.821,7.06991,-6.98785,0,1.26457,9.73336,-0.490979,0.823171,0.121951,-1.25,-9.83635,-0.234712,-1.32445,-15,-7.16463,2.9878
387.832,7.06319,-7.0234,0,1.23823,9.77168,-0.531694,0.701219,-0.243902,-1.18902,-9.8076,-0.205972,-1.36516,-13.9939,-7.95732,3.35366
387.841,7.04754,-7.05448,0,1.21188,9.8076,-0.507744,0.243902,-0.518293,-1.55488,-9.81719,-0.189207,-1.35079,-13.5366,-6.0061,3.2622
387.852,7.03977,-7.09147,0,1.26457,9.81719,-0.490979,-0.27439,-0.701219,-1.61585,-9.87467,-0.172441,-1.38911,-14.2073,-5.33537,2.92683
387.862,7.04523,-7.13816,0,1.33642,9.81719,-0.471819,-0.609756,-0.823171,-1.4939,-9.88664,-0.220342,-1.43941,-14.1768,-5.06098,2.04268
387.872,7.05778,-7.18873,0,1.37474,9.7621,-0.502954,-1.31098,-0.853659,-1.52439,-9.9561,-0.191602,-1.47533,-13.872,-5.12195,3.04878
387.882,7.07363,-7.24138,0,1.40348,9.70222,-0.5772,-1.09756,-0.945122,-1.67683,-9.89143,-0.205972,-1.48252,-14.2988,-4.78659,3.38415
387.892,7.07895,-7.28644,0,1.37235,9.64235,-0.543669,-0.304878,-1.09756,-2.10366,-9.86988,-0.215552,-1.44899,-12.4695,-3.68902,3.62805
387.902,7.08403,-7.32442,0,1.39869,9.616,-0.531694,0.0304878,-0.396341,-2.40854,-9.85311,-0.229922,-1.42504,-11.2195,-3.81098,4.42073
387.912,7.0754,-7.34881,0,1.33882,9.68306,-0.574805,0.518293,-0.0609756,-2.71341,-9.84114,-0.201182,-1.36995,-9.87805,-3.44512,4.2378
387.922,7.05873,-7.37816,0,1.30768,9.72138,-0.488584,0.670732,-0.243902,-3.01829,-9.8603,-0.215552,-1.40109,-9.57317,-3.9939,4.29878
387.932,7.04612,-7.40876,0,1.32445,9.74773,-0.486189,0.396341,-0.579268,-2.83537,-9.86748,-0.217947,-1.40588,-8.84146,-3.04878,2.92683
387.942,7.04099,-7.43463,0,1.38193,9.75491,-0.502954,0.121951,-0.487805,-2.83537,-9.8603,-0.205972,-1.39151,-9.42073,-3.14024,3.23171
387.952,7.04598,-7.45464,0,1.43222,9.77407,-0.483794,-0.213415,-0.304878,-2.53049,-9.83635,-0.179626,-1.36756,-8.81098,-3.01829,3.23171
387.961,7.06398,-7.47189,0,1.51365,9.75012,-0.541274,-0.701219,0.0304878,-2.40854,-9.87946,-0.215552,-1.36756,-9.96951,-3.29268,3.78049
387.972,7.09049,-7.49543,0,1.5376,9.71659,-0.514929,-0.731707,0.365854,-2.13415,-9.87946,-0.186812,-1.39869,-10.3963,-3.59756,4.02439
387.982,7.11702,-7.50029,0,1.48731,9.67348,-0.505349,-0.579268,0.792683,-1.79878,-9.88904,-0.213157,-1.32445,-10.6098,-3.38415,4.63415
387.991,7.13204,-7.51467,0,1.42743,9.65432,-0.538879,-0.0609756,0.670732,-1.92073,-9.9058,-0.227527,-1.36756,-11.8598,-3.35366,5.15244
388.002,7.13604,-7.53448,0,1.36277,9.72138,-0.58199,0.335366,0.518293,-1.85976,-9.86748,-0.213157,-1.38672,-11.0671,-3.23171,4.84756
388.012,7.13673,-7.56119,0,1.33642,9.70941,-0.538879,0.609756,0.121951,-1.82927,-9.88904,-0.263452,-1.41546,-11.8902,-2.56098,4.29878
388.022,7.129,-7.58729,0,1.27176,9.70941,-0.541274,0.304878,0.304878,-1.70732,-9.89622,-0.232317,-1.40827,-10.9451,-1.89024,5.21341
388.031,7.12811,-7.61207,0,1.3005,9.75731,-0.59157,-0.121951,-0.335366,-1.46341,-9.84114,-0.239502,-1.41785,-12.0427,-3.47561,5.12195
388.041,7.13141,-7.63376,0,1.33403,9.8076,-0.546064,0.0609756,-0.670732,-1.46341,-9.84832,-0.239502,-1.41306,-12.2866,-4.11585,5.67073
388.052,7.14139,-7.66772,0,1.36037,9.77407,-0.57241,-0.487805,-0.487805,-1.37195,-9.83874,-0.244292,-1.47054,-11.9207,-4.66463,6.28049
388.062,7.15409,-7.69419,0,1.39151,9.75491,-0.641865,-0.792683,-0.304878,-1.52439,-9.86988,-0.234712,-1.4442,-12.2866,-3.59756,6.40244
388.072,7.16304,-7.71292,0,1.41785,9.69504,-0.565225,-0.640244,-0.579268,-2.07317,-9.88664,-0.268242,-1.41306,-12.8049,-2.71341,7.65244
388.082,7.1618,-7.73879,0,1.37235,9.66151,-0.56283,-0.304878,0,-2.37805,-9.84593,-0.220342,-1.45138,-11.372,-5.18293,9.63415
388.092,7.15381,-7.75513,0,1.34121,9.67109,-0.455054,0.0914634,0.335366,-2.56098,-9.89862,-0.220342,-1.42025,-11.5854,-4.39024,9.96951
388.102,7.14202,-7.76704,0,1.32684,9.71899,-0.486189,0.152439,0.762195,-2.65244,-9.8603,-0.208367,-1.40109,-12.1646,-6.4939,10.1524
388.112,7.12791,-7.76469,0,1.30289,9.74294,-0.505349,0.457317,0.518293,-2.56098,-9.86988,-0.227527,-1.34121,-12.4695,-6.18902,10.2439
388.121,7.11168,-7.77594,0,1.2981,9.73096,-0.555645,0.0609756,0.762195,-2.7439,-9.90341,-0.227527,-1.40588,-12.7439,-6.37195,8.87195
388.132,7.10036,-7.77909,0,1.32924,9.72378,-0.543669,0.182927,0.731707,-2.71341,-9.9537,-0.189207,-1.37953,-10.9756,-7.13415,8.62805
388.142,7.09797,-7.77312,0,1.36995,9.70941,-0.56762,0.0914634,1.37195,-2.46951,-9.94173,-0.222737,-1.33882,-12.0427,-8.35366,8.96341
388.151,7.10406,-7.76805,0,1.36995,9.69983,-0.541274,0.213415,1.76829,-1.89024,-9.96328,-0.220342,-1.346,-13.1707,-9.81707,8.14024
388.162,7.10731,-7.76301,0,1.346,9.73336,-0.593965,-0.243902,2.43902,-1.76829,-9.92975,-0.251477,-1.34121,-12.7134,-10.4573,9.69512
388.172,7.10405,-7.76072,0,1.31966,9.69504,-0.574805,-0.701219,2.68293,-2.0122,-9.91778,-0.280217,-1.35319,-13.0183,-12.9878,8.81098
388.182,7.0912,-7.75031,0,1.26936,9.70222,-0.6251,-0.945122,2.31707,-2.19512,-9.93215,-0.263452,-1.31966,-12.9573,-14.2683,9.05488
388.192,7.07213,-7.75133,0,1.20469,9.71899,-0.58678,-1.0061,1.92073,-1.89024,-9.94652,-0.273032,-1.37235,-13.1098,-16.0671,7.43902
388.202,7.0511,-7.75646,0,1.17835,9.75252,-0.61073,-1.09756,1.28049,-1.64634,-9.96568,-0.294587,-1.3939,-12.7134,-16.4329,7.68293
388.212,7.03533,-7.76243,0,1.1999,9.7621,-0.62031,-1.09756,0.731707,-1.4939,-9.98244,-0.301772,-1.40109,-12.4695,-16.6463,6.85976
388.221,7.02998,-7.76581,0,1.26218,9.74294,-0.584385,-1.40244,0.457317,-1.55488,-9.96568,-0.280217,-1.38911,-11.2195,-17.7134,6.7378
388.232,7.03213,-7.77068,0,1.32205,9.70941,-0.661025,-1.58537,0.365854,-1.76829,-9.92496,-0.244292,-1.39151,-11.8598,-18.5976,7.22561
388.242,7.03512,-7.76473,0,1.33642,9.67348,-0.56762,-1.79878,-0.121951,-1.92073,-9.91299,-0.241897,-1.34361,-13.1707,-19.9085,8.41463
388.251,7.03317,-7.76372,0,1.34121,9.72617,-0.560435,-2.10366,0,-2.22561,-9.89143,-0.213157,-1.36277,-13.2622,-21.25,9.54268
388.262,7.03268,-7.7532,0,1.35798,9.69504,-0.548459,-1.82927,-0.548781,-2.34756,-9.93454,-0.239502,-1.32684,-15.0305,-22.0732,11.0976
388.272,7.02135,-7.72994,0,1.31726,9.64474,-0.524509,-1.7378,-0.182927,-2.86585,-9.98005,-0.222737,-1.27655,-16.8293,-24.9085,11.3415
388.282,7.00679,-7.69345,0,1.31966,9.66151,-0.543669,-2.07317,0.426829,-3.17073,-9.99681,-0.208367,-1.21906,-18.2012,-29.1159,11.9512
388.292,6.98854,-7.67189,0,1.31247,9.74054,-0.56762,-2.46951,0.884146,-3.32317,-10.0351,-0.220342,-1.28613,-20.2439,-31.189,13.2012
388.301,6.973,-7.67325,0,1.29331,9.79323,-0.59636,-2.65244,1.12805,-2.80488,-10.0782,-0.294587,-1.3939,-21.1585,-33.9634,12.4695
388.312,6.96428,-7.68738,0,1.31726,9.79803,-0.694556,-3.20122,1.21951,-2.5,-10.0998,-0.354463,-1.45617,-22.3171,-35.2134,10.6707
388.321,6.96373,-7.69935,0,1.36277,9.74294,-0.692161,-3.38415,0.762195,-2.43902,-10.107,-0.390388,-1.45138,-24.0244,-36.8293,9.20732
388.332,6.95916,-7.71374,0,1.32684,9.65193,-0.687371,-3.68902,0.182927,-2.53049,-10.0782,-0.397573,-1.46096,-23.1098,-37.5,8.38415
388.342,6.94644,-7.72869,0,1.30768,9.57289,-0.670605,-3.53659,0.487805,-3.14024,-10.1166,-0.426313,-1.47294,-24.1159,-38.9024,6.31098
388.351,6.93182,-7.74275,0,1.28373,9.56092,-0.761616,-3.84146,0.640244,-3.07927,-10.1549,-0.380808,-1.48012,-22.8354,-42.1951,4.57317
388.362,6.8972,-7.75498,0,1.18074,9.63277,-0.783171,-4.60366,0.701219,-3.65854,-10.0998,-0.361648,-1.46815,-22.8963,-44.3293,4.5122
388.372,6.86323,-7.75228,0,1.16877,9.77886,-0.924478,-5.30488,0.304878,-3.29268,-10.1022,-0.452659,-1.40348,-23.872,-44.939,2.16463
388.382,6.81936,-7.74562,0,1.11129,9.87227,-0.929268,-5.79268,-0.731707,-3.53659,-10.0902,-0.529299,-1.38432,-25.3659,-46.0366,1.4939
388.392,6.77861,-7.73008,0,1.13284,9.87946,-0.931663,-6.79878,-1.70732,-3.56707,-9.92736,-0.555645,-1.32205,-29.2988,-46.9817,-0.457317
388.402,6.74056,-7.72325,0,1.14482,9.8076,-0.847837,-7.86585,-3.32317,-3.62805,-9.77647,-0.593965,-1.33882,-32.439,-48.4756,2.59146
388.411,6.70801,-7.72648,0,1.19272,9.75731,-0.799937,-8.29268,-3.62805,-3.81098,-9.6639,-0.613125,-1.36756,-32.378,-50.4878,5.67073
388.422,6.67884,-7.72371,0,1.19751,9.71899,-0.811912,-8.07927,-3.2622,-3.65854,-9.65193,-0.670605,-1.34361,-33.9939,-54.2073,9.39024
388.432,6.65075,-7.72764,0,1.18074,9.73575,-0.900527,-6.89024,-2.68293,-3.38415,-9.72857,-0.821492,-1.38432,-34.0549,-55.6707,12.1037
388.442,6.62524,-7.74571,0,1.1544,9.73336,-1.02986,-6.25,-3.41463,-2.86585,-9.77407,-0.960403,-1.45378,-32.1037,-55.8232,12.8354
388.451,6.60177,-7.75865,0,1.15919,9.75731,-1.07297,-6.64634,-4.42073,-2.7439,-9.7621,-1.02746,-1.43222,-31.5854,-55.3354,12.9878
388.462,6.58084,-7.77844,0,1.20948,9.7118,-1.15679,-7.43902,-5.64024,-3.23171,-9.71899,-1.03944,-1.45857,-32.3476,-55.8841,12.9573
388.472,6.57236,-7.78912,0,1.30768,9.66869,-1.04662,-8.65854,-4.7561,-3.32317,-9.64235,-0.974773,-1.41067,-33.3232,-55.5793,13.5976
388.482,6.57821,-7.81276,0,1.45857,9.70941,-1.1065,-9.14634,-4.35976,-3.62805,-9.59924,-0.912502,-1.46096,-33.9329,-54.0854,16.9207
388.492,6.58505,-7.83266,0,1.49449,9.69264,-1.11847,-9.02439,-4.39024,-3.93293,-9.64235,-0.845442,-1.45378,-31.9817,-52.2256,19.2988
388.502,6.58312,-7.84725,0,1.42504,9.74533,-1.17595,-8.2622,-6.37195,-3.87195,-9.61121,-0.881367,-1.42743,-33.872,-49.8476,20.7012
388.512,6.6034,-7.86604,0,1.59269,9.79084,-1.35558,-7.95732,-7.86585,-3.59756,-9.58966,-0.984353,-1.4418,-35.9756,-46.1585,20.5488
388.521,6.64335,-7.88703,0,1.69567,9.8076,-1.41306,-9.78659,-8.68902,-2.9878,-9.49146,-1.06578,-1.43701,-38.0183,-43.0793,18.7805
388.532,6.72135,-7.90161,0,1.84656,9.75491,-1.30768,-12.4085,-8.71951,-2.07317,-9.36213,-1.01549,-1.38911,-40.7622,-37.2561,19.1463
388.542,6.92567,-7.91187,0,1.99505,9.63277,-1.29092,-13.5366,-8.07927,-0.487805,-9.3789,-0.922083,-1.37474,-43.7805,-36.0366,18.9024
388.551,7.18253,-7.91531,0,2.22497,9.5226,-1.39151,-12.8659,-7.5,0.609756,-9.4244,-0.922083,-1.35079,-47.0732,-31.8902,20.8537
388.562,7.38294,-7.90127,0,2.42376,9.44835,-1.43222,-12.5305,-6.79878,2.0122,-9.50823,-0.869392,-1.28613,-48.811,-28.811,19.6037
388.572,7.59436,-7.88861,0,2.64171,9.38608,-1.54,-11.8598,-6.0061,3.04878,-9.54176,-0.807122,-1.29092,-51.5244,-24.9085,21.5549
388.582,7.82281,-7.87185,0,2.77343,9.29268,-1.48731,-11.6768,-5.06098,4.48171,-9.59205,-0.773591,-1.27415,-55.5793,-20.4268,21.0976
388.592,8.08575,-7.83412,0,2.90995,9.22801,-1.51126,-11.6463,-4.2378,7.04268,-9.69983,-0.730481,-1.19272,-58.75,-18.3841,20.6707
388.602,8.39175,-7.79062,0,3.01533,9.14658,-1.41785,-11.4939,-3.29268,10.4878,-9.79563,-0.696951,-1.17116,-62.3476,-16.6159,20.122
388.612,8.75511,-7.7423,0,3.15664,9.02922,-1.42743,-10.8537,-2.0122,14.878,-9.87946,-0.735271,-1.152,-63.1098,-16.2805,18.1098
388.622,9.18987,-7.66819,0,3.27878,8.86157,-1.43222,-10.9756,-0.884146,20.7927,-9.92257,-0.819097,-1.03465,-60.4573,-16.5549,16.0976
388.632,9.71918,-7.57188,0,3.4153,8.62686,-1.33642,-10.7317,-0.640244,28.689,-9.9058,-0.893342,-0.924478,-57.2561,-19.3293,16.7378
388.641,10.3763,-7.44948,0,3.55181,8.15265,-1.14482,-9.81707,-0.640244,38.8415,-9.86748,-0.960403,-0.792751,-49.9695,-22.6829,18.3537
388.652,11.2146,-7.29056,0,3.79132,7.48444,-1.0586,-7.59146,-2.04268,51.8902,-9.82677,-1.04183,-0.617915,-39.3902,-32.7134,20.9146
388.662,12.3062,-7.13382,0,4.35894,6.73719,-0.972378,-3.56707,-2.7439,67.1341,-9.78605,-1.08255,-0.60594,-24.2988,-42.5305,24.8171
388.671,13.7134,-6.9707,0,5.16366,5.9157,-1.01788,5.57927,-2.9878,84.7866,-9.62558,-0.931663,-0.55325,-6.34146,-55.5793,28.5671
388.681,15.4067,-6.79146,0,6.07616,5.38161,-1.2023,20.9756,2.80488,101.86,-9.59445,-0.747246,-0.467029,15.3659,-69.1463,33.9939
388.692,17.2683,-6.64492,0,6.95514,5.75044,-1.24062,39.939,18.5671,118.506,-9.57768,-0.488584,-0.584385,39.7256,-80.9451,36.1585
388.702,19.1648,-6.50663,0,7.49881,7.17308,-1.38193,60.1524,40.122,134.329,-9.7597,-0.270637,-0.613125,65.9756,-89.2988,38.5061
388.712,20.9931,-6.39133,0,7.65927,10.0735,-2.19863,80.5793,61.7073,149.665,-10.3106,-0.220342,-0.732876,94.8476,-95.0915,38.5976
388.721,22.706,-6.30604,0,7.46288,14.0803,-2.46687,87.5,80.0305,160.64,-10.78,-0.308958,-0.888552,117.683,-95.8841,37.8049
388.732,24.3516,-6.28874,0,6.37554,14.9545,-2.02858,94.0244,83.75,167.134,-10.8758,-0.196392,-1.2023,131.646,-88.7195,38.2317
388.742,25.9738,-6.32463,0,5.88935,14.0085,-1.95673,94.4817,77.9573,168.689,-10.6219,0.158071,-1.41306,130.854,-77.3171,48.1098
388.752,27.5178,-6.45059,0,4.65113,12.3008,-0.380808,94.6341,70.3049,168.293,-10.1022,0.819097,-1.74836,117.744,-63.3232,62.5305
388.761,28.925,-6.61433,0,3.50631,11.0482,0.402363,101.524,63.4756,163.811,-9.76689,1.56634,-1.86572,104.726,-46.311,75.9451
388.772,30.1237,-6.74616,0,0.838257,11.5679,1.54718,98.1707,35.4878,172.896,-9.57529,2.14354,-1.71962,78.8415,-48.0183,86.9207
388.782,31.2115,-6.92728,0,0.335303,11.362,1.9232,82.0732,-4.29878,169.024,-9.616,2.40699,-1.9711,52.561,-53.4146,87.7744
388.792,32.2824,-7.13113,0,1.82979,10.653,0.56762,64.8171,-16.189,153.079,-9.85311,2.46448,-2.15552,35.4573,-53.5061,82.0732
388.802,33.2858,-7.30828,0,3.45841,10.9883,0.177231,54.9695,-15.6707,132.622,-10.277,2.39981,-2.16031,27.0732,-53.8415,70.1829
388.812,34.0939,-7.4274,0,3.82245,11.2949,-0.402363,51.4024,-23.9024,112.226,-10.859,2.12678,-2.03098,23.5671,-56.0671,56.4024
388.821,34.8223,-7.48042,0,4.79483,9.94412,-1.59269,41.0671,-19.5122,91.3719,-11.2925,1.76513,-1.80345,22.9878,-62.0732,46.4939
388.832,35.4573,-7.48206,0,4.97446,8.88073,-1.75076,37.4695,-9.45122,76.1585,-11.2566,1.32205,-1.55437,26.6768,-68.7195,41.8902
388.842,36.0453,-7.46059,0,5.07744,8.63644,-1.15679,37.8049,-1.31098,70.2134,-10.8566,0.967588,-1.39151,33.4451,-73.5671,44.878
388.851,36.597,-7.44276,0,4.77806,8.19097,-0.58678,35,0.914634,68.1098,-10.2172,0.689766,-1.32445,38.3841,-75.9146,47.5305
388.861,37.1666,-7.46285,0,4.98643,7.47486,-0.193997,31.1585,10.6098,64.0244,-9.60642,0.522114,-1.40588,46.25,-75.9451,51.25
388.872,37.7026,-7.53317,0,5.25228,7.14674,0.150886,32.4695,27.8049,56.4329,-9.07233,0.416733,-1.53521,52.2256,-73.9024,51.5854
388.881,38.1685,-7.62413,0,5.46543,7.00543,0.184417,32.0427,45.0915,47.0122,-8.77775,0.402363,-1.57832,56.7378,-73.3841,49.0549
388.892,38.5784,-7.67051,0,5.77439,6.7827,-0.0311353,29.8476,57.378,37.2561,-8.68434,0.507744,-1.40348,60.3659,-77.7744,44.9085
388.901,38.9209,-7.70535,0,5.98515,6.55277,-0.443079,28.4146,66.3415,27.1341,-8.78254,0.579595,-1.38432,62.9268,-82.2561,38.9024
388.912,39.1753,-7.72782,0,6.057,6.39949,-0.984353,27.1951,72.3171,16.7683,-8.95498,0.819097,-1.36995,64.5122,-85.8841,34.1768
388.922,39.3163,-7.75287,0,5.74086,6.20071,-1.39869,26.311,72.8354,6.95122,-9.24478,1.06099,-1.42743,63.2622,-84.2378,33.8415
388.932,39.4137,-7.79202,0,5.26665,6.12885,-1.66933,25.122,66.8598,-1.15854,-9.46033,1.1544,-1.52084,58.7195,-79.0244,31.6159
388.942,39.3027,-7.83478,0,4.66789,5.88217,-1.77471,24.6646,55.5183,-9.32927,-9.69264,1.24781,-1.57353,51.8598,-70.5793,28.7195
388.952,39.0681,-7.89081,0,4.16254,5.82469,-1.93997,22.0732,39.3598,-16.2805,-9.72857,1.41546,-1.63819,45.122,-62.378,26.6159
388.962,38.7207,-7.97651,0,3.66438,5.76242,-1.92799,18.7195,18.0488,-21.9512,-9.76928,1.46815,-1.7771,37.6829,-51.4634,23.9024
388.972,38.23,-8.08095,0,2.93629,5.66662,-1.66693,16.311,-9.20732,-26.9512,-9.76449,1.61424,-1.86572,31.7378,-41.0976,20.3963
388.982,37.6131,-8.17897,0,2.56507,5.7217,-1.63101,13.5061,-40.7317,-34.2073,-9.81479,1.73639,-1.85614,23.4451,-30.8841,14.8171
388.992,36.8303,-8.27684,0,2.34233,6.04503,-1.65017,12.2866,-75.9451,-46.3415,-9.87467,1.73878,-1.88009,15.2744,-26.128,9.69512
389.002,35.884,-8.35618,0,2.51238,6.90484,-1.76992,7.7439,-105.488,-62.1951,-9.88425,1.64298,-1.81303,5.27439,-22.9878,0.0304878
389.012,34.8762,-8.43692,0,3.33866,7.58263,-1.71962,-5.54878,-121.128,-78.1098,-9.83156,1.49449,-1.82021,-4.29878,-18.9634,-11.0671
389.022,33.9069,-8.47363,0,4.65113,7.71675,-1.2502,-20.5183,-126.86,-91.1585,-9.78366,1.41306,-1.62622,-16.1585,-14.8476,-21.25
389.031,33.0305,-8.50193,0,5.92049,7.39343,-0.804727,-32.0732,-124.36,-99.1768,-9.75491,1.47533,-1.5855,-25.4573,-8.81098,-31.0061
389.042,32.3106,-8.5206,0,7.52515,6.80665,-0.876577,-37.7439,-111.311,-103.75,-9.83395,1.56155,-1.54958,-35.7012,-2.9878,-37.4085
389.052,31.6842,-8.51094,0,8.658,6.55756,-1.36277,-40.6402,-92.0122,-105.854,-9.94173,1.66693,-1.4442,-44.7866,3.78049,-44.1159
389.062,31.1598,-8.5158,0,9.67827,6.2989,-2.00703,-43.9024,-70.4268,-105.061,-9.96089,1.76992,-1.49928,-55.3963,14.9695,-48.5671
389.071,30.7573,-8.55704,0,10.6938,6.17676,-2.47166,-44.2988,-54.2073,-99.9085,-10.0088,1.71723,-1.65975,-63.4756,28.5671,-54.4512
389.081,30.4236,-8.64343,0,11.0722,6.49769,-2.95306,-38.4451,-43.0183,-92.8963,-9.9537,1.65975,-1.84896,-69.6646,43.5671,-59.878
389.092,30.1336,-8.74498,0,11.0482,7.19703,-3.51589,-29.5122,-24.9695,-83.6585,-10.0615,1.53281,-1.94236,-72.9573,56.8598,-63.75
389.102,29.869,-8.82308,0,10.3321,7.91554,-4.06435,-20.5793,-5.06098,-72.7439,-10.2842,1.35319,-1.88728,-74.1768,64.2988,-67.2561
389.112,29.6276,-8.86835,0,9.15376,8.39215,-4.26313,-11.9817,6.09756,-60.5793,-10.5453,1.19751,-1.78908,-76.0061,68.1707,-68.0183
389.121,29.3993,-8.95006,0,7.78381,8.5119,-3.97813,-5.85366,9.17683,-49.4512,-10.7177,1.08255,-1.99984,-78.1098,73.2317,-67.8963
389.132,29.1448,-9.05306,0,6.21268,8.14067,-3.37937,-1.18902,9.87805,-42.1951,-10.7632,1.0562,-2.11959,-82.5915,82.8963,-69.1463
389.142,28.8064,-9.12274,0,5.1445,8.31311,-2.76146,2.31707,7.7439,-39.8476,-10.7824,1.14721,-1.97589,-88.2012,86.5549,-70.0915
389.152,28.3764,-9.161,0,4.92656,9.16334,-2.66087,3.71951,7.31707,-42.7744,-10.792,1.13284,-1.83219,-93.0793,91.6159,-71.2195
389.162,27.8935,-9.15604,0,5.35766,10.3201,-2.26808,1.37195,10.3049,-47.3476,-10.8925,1.18314,-1.64059,-97.6524,95.0305,-71.6159
389.172,27.3301,-9.19036,0,5.35287,11.1153,-2.46448,0.213415,14.4207,-53.0488,-11.0267,0.926873,-1.84656,-99.2683,104.268,-74.8781
389.182,26.6878,-9.22892,0,4.81638,10.3489,-2.09564,-6.46341,8.90244,-60.7012,-11.0889,0.768801,-1.87291,-98.6281,116.677,-77.5
389.192,26.0119,-9.22805,0,4.96488,10.9452,-1.57832,-13.9634,3.68902,-64.2988,-11.3284,0.689766,-1.71244,-93.8415,123.445,-76.1281
389.202,25.3484,-9.1891,0,5.5301,12.0038,-1.37474,-23.2927,7.07317,-65.0915,-11.6326,0.474214,-1.55437,-84.4207,127.988,-75.9451
389.212,24.8236,-9.03901,0,6.31327,12.0637,-1.09452,-33.2927,10.122,-58.2012,-11.999,0.342488,-1.00591,-72.0427,122.652,-74.1463
389.221,24.4904,-8.82781,0,6.45937,11.7236,-1.21427,-35.1829,0.243902,-42.2256,-12.3104,0.122146,-0.673001,-57.8963,116.463,-70.7622
389.232,24.3098,-8.64923,0,6.42344,11.7476,-1.31726,-24.1463,-11.8902,-26.9512,-12.5116,-0.507744,-0.819097,-46.5549,115.671,-69.8476
389.241,24.1753,-8.49135,0,5.84385,10.7488,-1.4897,-9.29878,-10.2134,-22.3476,-12.4685,-1.35558,-0.890947,-41.7378,116.22,-74.3902
389.251,23.837,-8.29541,0,3.62606,9.16334,-1.37474,1.18902,5.03049,-29.2378,-11.7691,-1.50407,-0.613125,-40.3049,113.354,-74.2988
389.262,23.0709,-7.9918,0,0.967588,8.21971,-0.811912,8.59756,15,-43.2317,-10.4471,-0.684976,-0.0191602,-40.0915,105.762,-61.7988
389.271,21.9065,-7.64032,0,-0.902922,7.82213,-0.126936,14.9085,14.3902,-58.2927,-9.25915,0.112566,0.225132,-45.7317,102.805,-45.3659
389.282,20.5489,-7.07161,0,-1.63101,7.82213,-0.143701,15.5793,12.9268,-69.7866,-8.29156,0.275427,1.04662,-53.3232,95.6402,-24.5427
389.292,19.1699,-6.34655,0,-1.59508,8.01134,-0.505349,9.02439,10.061,-75.7927,-8.14786,0.972378,1.67172,-72.2561,72.0732,-13.9329
389.301,17.8989,-5.65149,0,-0.974773,8.32988,-0.943638,-3.90244,7.7439,-76.9512,-7.79818,0.435894,1.58071,-78.5671,51.128,-12.6524
389.312,16.7867,-5.00419,0,-0.256267,8.66518,-1.16158,-18.0793,1.92073,-73.5061,-7.82213,0.0287402,1.49928,-86.5854,31.5244,-21.7683
389.322,15.8334,-4.49474,0,0.0958008,8.92624,-0.898132,-29.2988,-9.72561,-64.2683,-8.04966,-0.364043,1.12087,-88.8719,13.4756,-34.4817
389.332,15.0592,-3.68256,0,0.440684,9.24717,-0.708926,-34.9085,-25.7012,-52.2561,-8.48795,-0.756826,1.0586,-90.7927,-2.16463,-50.6098
389.341,14.4192,-3.34625,0,0.62031,9.06994,-0.878972,-34.2988,-41.2805,-42.561,-8.8951,-1.02746,0.740061,-92.4695,-10.7927,-61.4939
389.352,13.909,-3.13501,0,1.19511,9.19687,-1.55676,-30,-43.9939,-37.7439,-9.37411,-1.47533,0.313748,-90.9756,-14.3902,-66.9512
389.362,13.4024,-3.05786,0,0.950823,8.96216,-1.96631,-20.7927,-37.1341,-35.6707,-9.87467,-1.83698,-0.215552,-83.8415,-12.8659,-65.061
389.371,12.8778,-3.05658,0,0.833467,8.96935,-2.7902,-12.5915,-20.061,-37.0122,-10.1525,-2.0214,-0.546064,-67.439,-10.7622,-60.2744
389.381,12.3315,-3.11614,0,0.821492,9.0388,-3.01533,-7.2561,-2.19512,-40.061,-10.3058,-2.2106,-0.831072,-49.4512,-10.061,-49.6646
389.392,11.7912,-3.22164,0,1.11368,9.137,-3.03449,-5.88415,10.2744,-44.1463,-10.3393,-2.37346,-1.05381,-31.128,-8.07927,-38.1707
389.401,11.2318,-3.32503,0,1.07776,9.10586,-2.50998,-6.98171,13.1402,-46.7988,-10.2866,-2.42615,-1.0562,-15.9756,-6.67683,-31.189
389.412,10.7095,-3.38206,0,1.3484,9.17292,-1.99266,-7.65244,12.0427,-47.439,-10.0615,-2.32077,-0.847837,-7.31707,-10.3963,-31.7073
389.422,10.1951,-3.42546,0,1.18553,9.20406,-1.69567,-7.59146,5.64024,-45.6098,-9.81,-1.96152,-0.778381,0.670732,-11.8293,-35
389.432,9.69793,-3.43171,0,0.950823,9.09628,-1.63819,-7.16463,-3.81098,-42.1037,-9.65193,-1.52084,-0.617915,1.40244,-16.1585,-37.7134
389.441,9.26496,-3.44614,0,1.08973,9.1825,-1.66933,-7.80488,-13.8415,-38.2012,-9.57289,-1.08494,-0.65384,-2.86585,-22.439,-37.622
389.452,8.90276,-3.4938,0,1.42025,9.30465,-1.71962,-8.87195,-21.7988,-35.7622,-9.4268,-0.838257,-0.787961,-5.97561,-25.9756,-35.1524
389.462,8.53727,-3.56169,0,1.23823,9.39327,-1.67651,-10.0305,-25.9756,-34.4512,-9.25196,-0.752036,-0.866997,-6.40244,-29.3598,-31.25
389.472,8.16218,-3.6412,0,1.02507,9.45793,-1.69807,-10.7927,-30.6402,-33.4756,-9.10826,-0.768801,-0.912502,-6.06707,-30.6098,-28.0488
389.482,7.79047,-3.72754,0,0.898132,9.50583,-1.66214,-12.5,-36.3415,-32.2866,-9.0891,-0.934058,-0.953218,-7.22561,-33.4451,-24.4207
389.492,7.44138,-3.83132,0,0.938848,9.62079,-1.75076,-15.5488,-41.5854,-31.0976,-9.06036,-1.03465,-1.03704,-6.89024,-36.6159,-20.9146
389.502,7.11004,-3.95692,0,0.972378,9.62558,-1.83219,-18.9634,-43.4756,-30.3963,-9.0891,-1.09452,-1.14961,-5.85366,-41.5244,-18.628
389.511,6.81061,-4.06464,0,1.13763,9.54894,-1.72681,-22.2256,-42.6524,-29.9085,-9.1346,-1.04423,-1.1041,-4.63415,-43.4146,-15.1524
389.522,6.5407,-4.16472,0,1.31966,9.44356,-1.54718,-24.8476,-38.9634,-29.878,-9.12981,-0.960403,-1.09452,-3.5061,-49.3902,-9.5122
389.532,6.32914,-4.29643,0,1.7771,9.43877,-1.41546,-25.3659,-32.7134,-30,-9.16095,-0.929268,-1.24541,-1.58537,-50.7012,-4.63415
389.542,6.1386,-4.41741,0,1.9232,9.31423,-1.21427,-24.8171,-27.6524,-30.3354,-9.15376,-0.881367,-1.22386,0.701219,-53.2927,2.9878
389.551,5.95171,-4.50603,0,1.96392,9.30944,-1.04662,-23.9939,-23.0183,-30.8537,-9.24238,-1.09692,-1.12566,4.72561,-58.3232,9.69512
389.562,5.77797,-4.55569,0,2.08846,9.46512,-1.13524,-23.1402,-18.4146,-30.9756,-9.35974,-1.27415,-0.996328,5.45732,-63.872,14.2073
389.572,5.59235,-4.60325,0,2.04774,9.6184,-1.18793,-22.8963,-14.5122,-31.6768,-9.39806,-1.33882,-1.00351,5.03049,-68.3232,16.5549
389.582,5.38297,-4.70518,0,1.96392,9.63037,-1.47533,-22.0732,-10.5183,-33.4756,-9.33818,-1.40588,-1.22864,4.78659,-64.2988,20.122
389.592,5.10715,-4.82041,0,1.61185,9.69025,-1.63101,-21.2805,-8.14024,-36.4329,-9.2352,-1.37714,-1.28373,6.98171,-60.3354,26.0061
389.602,4.7782,-5.02732,0,1.41785,9.67827,-1.83698,-19.9695,-4.17683,-40.1524,-9.07233,-1.2981,-1.65017,9.29878,-53.2317,31.311
389.612,4.36933,-5.35646,0,1.07297,9.61121,-2.0214,-18.4146,-1.7378,-44.9695,-8.8951,-1.22146,-2.14354,9.45122,-42.378,35.8841
389.621,3.89699,-5.72639,0,0.953218,9.4747,-2.19144,-16.9207,-1.34146,-51.0061,-8.78254,-1.16637,-2.32796,10.7927,-29.878,39.6341
389.632,3.41001,-6.11264,0,1.13763,9.63037,-2.45969,-16.8293,-0.731707,-55.4878,-8.63644,-1.18314,-2.40699,9.05488,-18.811,40.5793
389.642,2.90445,-6.40271,0,1.21427,9.75012,-2.50519,-17.7134,-0.701219,-59.1159,-8.64842,-1.12805,-2.07648,5.60976,-12.8354,41.6768
389.652,2.42338,-6.62507,0,1.57113,9.9561,-2.43813,-18.872,-1.12805,-61.4634,-8.76098,-1.13524,-1.87291,-1.21951,-10.0915,44.3293
389.661,1.95631,-7.14242,0,1.8274,10.0926,-2.46208,-19.5732,0.731707,-63.6585,-8.7993,-1.28613,-2.05014,-5.64024,-1.34146,43.872
389.672,1.45062,-7.42423,0,1.47773,10.0591,-2.18665,-20.3354,-5.51829,-64.6646,-8.92145,-1.45857,-2.2585,-7.62195,10.5183,43.0793
389.682,0.997394,-7.74758,0,1.76992,10.0256,-2.41897,-19.6951,-9.17683,-63.7195,-8.95019,-1.65496,-2.47645,-5.27439,24.9085,42.4085
389.692,0.63609,-8.05807,0,2.13396,9.93454,-2.50759,-20.7927,-11.5244,-59.5732,-9.00527,-1.89686,-2.48124,1.03659,37.1037,40.8537
389.702,0.32875,-8.25847,0,2.13396,9.64714,-2.51238,-22.1037,-15.9756,-55.5183,-9.22562,-2.05253,-2.1148,6.46341,41.9512,41.0976
389.712,0.148401,-8.40629,0,2.5507,9.55613,-2.59381,-24.8171,-15.2439,-48.2317,-9.58966,-1.93518,-1.99745,9.02439,45.5488,43.75
389.721,0.0367818,-8.4573,0,2.57465,9.45793,-2.46927,-28.5976,-11.4939,-42.1646,-10.0902,-1.71244,-1.6813,9.60366,47.3171,47.5305
389.732,0.0349683,-8.41494,0,2.89079,9.59445,-2.32556,-31.0061,-7.10366,-34.3293,-10.6818,-1.44899,-1.33882,5.70122,49.2073,50.061
389.742,0.130984,-8.46296,0,2.99138,9.45075,-2.23934,-31.4329,-1.64634,-25.9756,-10.974,-1.24541,-1.80584,-3.2622,57.1646,47.8659
389.752,0.294399,-8.70802,0,2.77343,9.14179,-2.07888,-29.1159,1.28049,-17.5,-10.8734,-0.883762,-2.76385,-8.81098,78.7195,42.561
389.762,0.493842,-9.07504,0,2.47166,8.99809,-2.13636,-25.4573,0.823171,-10.3963,-10.289,-0.641865,-3.24046,-7.71341,99.9695,38.1402
389.772,0.800598,-9.44296,0,2.13157,8.96935,-2.42136,-21.6159,-1.98171,-2.2561,-10.0447,-0.977168,-3.2237,1.61585,115.701,35.3659
389.781,1.09706,-9.6663,0,1.88009,8.83283,-2.5986,-18.1402,-9.08537,7.31707,-10.0639,-1.14721,-2.60578,14.8171,114.421,31.4329
389.792,1.51435,-9.63009,0,1.94236,8.82325,-2.89079,-15.4878,-18.4756,19.4817,-10.689,-0.993933,-1.54718,28.0488,104.238,33.9939
389.802,2.10474,-9.40911,0,2.16989,9.01006,-3.0776,-13.0793,-22.5915,35.7012,-11.8769,-0.811912,-0.744851,36.128,93.1707,40.9756
389.812,2.92613,-9.10311,0,2.6944,9.17053,-2.86205,-8.68902,-22.4085,54.6951,-13.3427,-0.476609,-0.289797,39.2073,88.4146,43.5671
389.821,3.99729,-8.74716,0,3.34584,9.31184,-2.51717,-5.09146,-21.4024,74.939,-14.5282,0.407153,0.0886157,33.689,93.75,46.0671
389.832,5.31019,-8.30044,0,4.10267,9.45075,-2.36628,-0.426829,-20.5793,94.2378,-14.6671,0.455054,0.756826,8.62805,84.9085,42.0732
389.842,6.81425,-7.69147,0,4.48587,9.02922,-2.5962,6.52439,-17.5915,110.396,-15.4359,1.1544,2.00942,-7.92683,68.5671,41.2195
389.851,8.35895,-7.27863,0,3.96136,8.86876,-1.89686,12.8963,-11.5549,122.409,-15.5437,1.31008,0.833467,-19.0244,67.7744,38.5061
389.862,9.8615,-7.08947,0,3.07042,9.72857,-1.7795,18.5976,1.34146,134.634,-14.6336,1.18074,-0.538879,-18.5976,79.3598,33.9634
389.871,11.3461,-6.79075,0,2.019,10.0806,-1.12566,18.3841,2.46951,148.506,-12.7104,0.320933,0.184417,-11.2805,76.25,27.0732
389.882,12.8834,-6.40007,0,1.93039,9.63277,-0.268242,15.8841,-7.46951,156.89,-10.6123,-0.890947,0.62031,-7.19512,54.6037,13.811
389.892,14.4549,-6.03895,0,1.93278,8.95498,1.07057,20.061,-14.1768,161.799,-8.90947,-1.58311,0.452659,7.86585,38.2927,5.21341
389.902,15.8634,-5.50983,0,0.452659,9.23999,2.02619,29.3902,-18.3841,167.5,-7.85806,-1.85614,1.02986,32.5915,29.0244,4.60366
389.912,17.0899,-5.1057,0,-1.36037,10.5884,1.90644,40.7927,-24.6037,172.47,-7.71436,-1.76992,0.64426,46.7683,15.8537,5.54878
389.922,18.3127,-4.68336,0,-1.41067,13.0289,0.768801,55.0305,-39.8171,172.256,-7.75747,-1.66214,0.682581,64.9085,5.42683,8.90244
389.932,19.5272,-4.25228,0,-0.708926,13.4935,-1.35798,61.6463,-46.7378,167.439,-8.18139,-1.27415,0.881367,77.5305,-9.60366,16.0366
389.942,20.7824,-3.82662,0,1.09931,12.9331,-2.20581,66.5854,-45.7622,158.018,-8.89989,-0.728086,0.993933,73.4146,-25.0915,23.1098
389.952,22.073,-3.47893,0,3.29794,12.6265,-2.46448,70.2134,-44.4207,144.238,-9.52978,-0.00239502,0.792751,61.9207,-40.061,31.5244
389.962,23.4,-3.22567,0,4.95769,11.944,-2.29682,76.0366,-37.0427,134.451,-9.73096,0.373623,0.462239,56.311,-39.7561,42.378
389.972,24.7344,-2.98641,0,5.83666,10.9357,-1.1065,80.9756,-28.628,126.585,-10.495,1.52563,0.467029,45.1829,-54.2073,54.2988
389.982,26.0332,-2.80856,0,6.43302,10.2076,0.0143701,81.311,-8.2622,117.256,-10.38,1.94955,0.220342,33.689,-58.3537,61.311
389.992,27.1677,-2.65357,0,4.79243,10.5405,1.02986,89.3902,16.0976,118.994,-10.0375,2.10043,0.141306,19.2683,-60.3354,63.75
390.002,28.2116,-2.50407,0,3.91586,10.1549,1.22625,100.244,48.7195,118.933,-9.4244,1.9256,0.131726,3.17073,-64.8476,63.2317
390.012,29.0446,-2.36833,0,1.50168,11.6757,0.476609,101.25,78.9024,127.622,-8.88073,1.63819,0.0910107,-12.5915,-67.9878,61.7683
390.022,29.9979,-2.22927,0,2.61057,10.2483,0.296982,96.2805,102.835,127.378,-8.5119,1.43222,0.114961,-27.5305,-74.6646,57.561
390.032,30.9323,-2.10844,0,2.82852,9.57768,-0.0526904,89.9085,115.335,122.988,-8.43765,1.31008,0.0622705,-40.5793,-80.6402,54.2073
390.042,31.8547,-2.03711,0,3.7027,8.51669,-0.349673,79.5427,118.415,109.299,-8.66758,1.31966,-0.110171,-54.0549,-85.061,51.2805
390.051,32.6017,-2.01132,0,2.87402,9.29028,-0.510139,75.0305,116.646,106.159,-9.08191,1.36995,-0.287402,-65.3049,-86.2195,46.9817
390.062,33.3278,-2.05316,0,2.7423,9.15376,-1.00351,70.5183,114.451,106.585,-9.42201,1.36037,-0.57241,-73.7195,-82.561,42.1646
390.072,33.9579,-2.14739,0,2.67045,9.00288,-1.14003,60.3354,106.829,98.5976,-9.56092,1.38911,-0.804727,-79.1463,-76.4939,38.5366
390.082,34.4515,-2.31533,0,2.26329,8.81367,-0.965193,53.9939,89.9085,90.2744,-9.60882,1.21667,-1.13284,-81.189,-67.8049,32.3171
390.092,34.8387,-2.53116,0,2.19863,8.83762,-1.18074,47.4085,73.1098,81.311,-9.55373,0.943638,-1.35319,-81.1585,-59.8476,28.5671
390.102,35.1357,-2.77677,0,2.20581,8.73943,-1.36277,42.8354,55.7622,72.5,-9.51062,0.512534,-1.50647,-79.0854,-53.9939,24.6951
390.112,35.3421,-3.02555,0,2.23695,8.53106,-1.56155,40.4268,39.3598,62.7744,-9.45554,-0.0167651,-1.54718,-72.6219,-47.2256,18.2012
390.121,35.4047,-3.28069,0,1.91362,8.40891,-1.31966,37.9268,25.5793,52.3476,-9.26154,-0.407153,-1.58071,-61.3415,-43.872,9.48171
390.132,35.3106,-3.52921,0,1.67412,7.98021,-1.24062,36.5244,12.8354,38.4756,-9.06994,-0.519719,-1.56155,-51.189,-42.8963,4.20732
390.142,35.0185,-3.74542,0,1.22146,7.63772,-1.15679,35.122,0.97561,23.7195,-8.97653,-0.471819,-1.45378,-40.1829,-42.4695,1.21951
390.152,34.5589,-3.9383,0,0.962798,7.31199,-0.967588,30.6707,-12.0427,9.35976,-8.96456,-0.249082,-1.3939,-32.3171,-44.8476,-0.792683
390.161,33.2036,-4.12057,0,0.61552,6.95753,-0.728086,24.878,-26.6463,-3.2622,-8.95258,0.0598755,-1.38193,-29.3598,-47.2561,-1.79878
390.172,32.5667,-4.34009,0,1.02986,6.70126,-0.759221,19.9695,-43.8415,-15.061,-8.92384,0.275427,-1.55437,-25.4268,-43.811,-3.59756
390.182,31.9691,-4.57623,0,1.80345,6.61983,-1.00112,10.3659,-53.628,-25.6098,-8.92624,0.481399,-1.65256,-24.4207,-37.4695,-6.28049
390.191,31.4082,-4.83812,0,2.58662,6.41147,-1.01549,5.57927,-62.1341,-36.8293,-8.84002,0.65384,-1.77231,-25.0305,-29.7561,-10.7012
390.202,30.8695,-5.10739,0,3.72426,6.60786,-1.47533,3.90244,-66.7683,-50.8841,-8.95737,0.816702,-1.86333,-28.7805,-22.8659,-13.4451
390.212,30.3082,-5.34262,0,4.68466,6.8761,-1.75315,-2.65244,-64.2073,-64.2073,-9.0867,0.902922,-1.78908,-32.7134,-18.3841,-17.4085
390.221,29.6887,-5.5457,0,5.0487,6.92879,-1.71004,-13.1402,-58.1402,-75,-9.17053,1.08494,-1.71004,-40.4573,-18.5366,-21.25
390.232,29.0131,-5.69455,0,5.15408,6.93837,-1.4921,-22.0427,-54.4512,-83.0488,-9.26394,1.20709,-1.53521,-46.9207,-21.2195,-23.689
390.242,28.3053,-5.82839,0,5.22114,6.84497,-1.59987,-27.3476,-55.1829,-89.2073,-9.27112,1.16398,-1.49689,-53.5366,-19.6646,-27.9878
390.252,27.5768,-5.98218,0,5.88456,7.19464,-2.1627,-26.6768,-55.9756,-96.7378,-9.17053,1.12805,-1.58071,-61.189,-13.689,-32.9268
390.262,26.8429,-6.26632,0,6.95035,7.88201,-2.84768,-27.1646,-51.4329,-103.11,-9.04599,1.03944,-1.7316,-66.7683,-1.95122,-34.9085
390.271,26.1582,-6.47631,0,7.89159,8.18618,-3.32189,-33.5061,-37.8354,-104.787,-9.08431,0.893342,-1.85135,-70.9451,9.96951,-36.1585
390.282,25.5642,-6.68668,0,8.45681,7.85806,-3.35303,-40.1524,-26.8293,-103.354,-9.22083,0.768801,-1.90883,-75.5183,18.811,-37.5305
390.291,25.085,-6.86813,0,8.96216,7.70717,-3.41769,-42.1037,-21.311,-97.3476,-9.46033,0.682581,-1.86333,-77.8354,25.4878,-39.3902
390.302,24.6956,-6.99721,0,9.14179,7.96344,-3.74102,-40.4268,-21.6768,-88.4146,-9.86509,0.589175,-1.73639,-80.4878,29.3598,-40.0915
390.312,24.4292,-7.05077,0,9.2328,8.18618,-4.13141,-32.5,-21.7378,-75.6402,-10.392,0.459844,-1.49928,-77.0732,28.2927,-40.2744
390.321,24.2841,-7.07734,0,8.98132,8.32509,-4.72537,-22.2866,-17.6524,-61.2195,-10.9548,0.287402,-1.46096,-67.9878,25.3354,-37.8659
390.332,24.2921,-7.12759,0,8.76098,7.89638,-4.038,-8.93293,-8.68902,-47.5305,-11.4195,-0.136516,-1.64538,-55.4268,29.7561,-38.0488
390.342,24.5528,-7.24678,0,9.20406,7.61856,-3.8009,7.22561,6.09756,-26.6463,-11.7308,-0.65863,-2.05732,-41.0671,38.4146,-37.9268
390.352,24.9936,-7.47228,0,9.43877,7.94188,-3.67396,17.4085,24.3293,-6.79878,-11.544,-0.936453,-2.5962,-30.5183,53.8415,-41.128
390.362,25.4577,-7.76066,0,8.94061,8.44484,-3.34824,24.8171,35.6098,2.95732,-11.0865,-0.826282,-2.84768,-26.0976,70.5488,-45.6402
390.372,25.7855,-8.10635,0,7.75028,9.32621,-3.10395,24.7561,39.4207,4.26829,-10.6459,-0.213157,-3.06323,-26.7073,88.4146,-47.1646
390.381,25.9487,-8.42011,0,6.81623,9.54415,-2.70877,23.1402,42.0427,-3.38415,-10.4519,0.318538,-2.90516,-31.5854,100.213,-44.1768
390.391,25.8252,-8.65252,0,5.9157,10.3369,-2.14594,25.4268,47.7744,-20.4268,-10.7872,0.969983,-2.64171,-44.1463,106.799,-37.8049
390.402,25.2878,-8.77914,0,4.30385,11.4027,-2.24653,26.7988,49.5732,-44.3293,-11.4865,1.25978,-2.29443,-51.2195,111.86,-29.4207
390.412,24.3668,-8.7917,0,2.86444,13.5295,-2.15552,15.5183,37.9268,-66.7683,-12.5619,1.27415,-1.88728,-55.4878,111.555,-24.1159
390.422,23.2649,-8.69863,0,2.42615,15.4886,-1.99745,-6.82927,25.061,-80.8841,-13.9749,0.797541,-1.44659,-53.811,107.409,-25.0915
390.432,22.237,-8.44009,0,3.03209,16.0969,-1.08494,-37.0732,19.878,-79.1768,-15.1126,0.273032,-0.455054,-47.622,89.9695,-31.25
390.441,21.3419,-8.14135,0,2.27048,15.7353,0.0574805,-51.7378,9.5122,-62.7134,-15.309,-0.452659,-0.134121,-37.5,79.6341,-39.5427
390.452,20.6893,-7.74671,0,2.34951,13.6588,-0.64905,-44.9695,-3.65854,-42.9573,-15.1198,-1.37474,0.57241,-34.5427,69.4817,-46.0061
390.462,20.1217,-7.35774,0,2.22258,10.0184,-0.936453,-29.1768,-30.2134,-41.2195,-13.7833,-1.96392,0.574805,-43.7195,63.0488,-51.7683
390.472,19.343,-7.04687,0,1.06578,7.75747,-1.152,-14.3293,-39.0549,-54.3598,-11.441,-1.39869,0.155676,-46.9817,58.0183,-46.6463
390.482,18.1954,-6.61198,0,-0.471819,7.39822,-1.40588,-4.69512,-30.4573,-70.1829,-9.37411,-0.306563,0.689766,-51.311,55.1829,-25.2134
390.492,16.8492,-5.90723,0,-1.06818,7.55868,-2.08367,-5.70122,-17.3476,-83.811,-8.02811,0.249082,1.61903,-63.0183,43.9024,-0.121951
390.502,15.4937,-5.16479,0,-0.593965,7.52276,-2.27048,-10.9451,-8.04878,-94.7256,-6.93119,-0.273032,1.59748,-80.1219,27.7439,16.128
390.511,14.2722,-4.06965,0,0.371228,7.41259,-2.03337,-19.8171,1.18902,-98.8719,-7.01501,0.304167,1.88009,-95.2134,4.20732,19.2073
390.522,13.2046,-3.3906,0,1.18314,7.41019,-1.54479,-30.7317,9.45122,-98.3232,-6.80665,0.373623,1.57113,-107.134,-16.25,16.0366
390.532,12.2676,-2.91917,0,1.4921,7.55629,-0.862207,-37.4695,16.0061,-91.4634,-6.89287,0.325723,1.01309,-107.896,-30.8841,8.68902
390.542,11.409,-2.5826,0,1.04662,8.18618,-0.0838257,-38.1707,12.9573,-77.439,-7.33594,0.0311353,0.687371,-99.1159,-45.9146,1.76829
390.552,10.6495,-2.29508,0,0.380808,8.7059,0.0119751,-31.9817,0.640244,-59.3293,-8.19336,-0.483794,0.627495,-83.2317,-60.3049,-4.29878
390.561,10.0255,-2.10442,0,0.0622705,8.78014,-0.737666,-21.0061,-11.8902,-42.7744,-9.33818,-1.41546,0.354463,-66.6463,-69.8781,-13.2012
390.572,9.54962,-2.04045,0,0.289797,8.64842,-2.13396,-9.08537,-14.4207,-32.0122,-10.5213,-2.41657,-0.150886,-47.7134,-67.1646,-26.5244
390.582,9.17962,-2.10485,0,0.778381,8.6077,-3.58295,2.10366,-5.67073,-28.811,-11.3524,-3.08239,-0.780776,-25.3963,-54.0854,-40.1524
390.592,8.83766,-2.24661,0,1.23823,8.67237,-4.24397,8.2622,2.86585,-32.7439,-11.4865,-3.29315,-1.18074,1.61585,-37.2561,-50.0915
390.602,8.45762,-2.42039,0,1.32924,8.89989,-4.11704,8.10976,3.96341,-38.0793,-10.8494,-3.10155,-1.29092,21.9207,-30.3963,-47.0427
390.612,8.04539,-2.61438,0,1.34121,9.01485,-3.54463,3.2622,1.21951,-42.0732,-9.66869,-2.86444,-1.26218,37.4085,-23.9329,-41.8293
390.621,7.60106,-2.7505,0,1.20709,9.331,-2.63692,-3.01829,-5.82317,-43.9634,-8.78733,-2.36388,-0.950823,46.311,-25.0305,-38.2012
390.632,7.18585,-2.8441,0,1.32684,9.48428,-1.81542,-9.57317,-10.5793,-43.1098,-8.464,-1.77471,-0.773591,52.622,-21.7988,-37.622
390.642,6.79464,-2.88429,0,1.29092,9.63756,-1.31487,-15.8537,-18.0183,-40.8232,-8.43765,-1.34121,-0.58678,49.7866,-24.0549,-34.2988
390.652,6.44102,-2.93886,0,1.41546,9.7621,-1.38432,-20.5183,-25.4268,-39.0549,-8.91666,-0.974773,-0.689766,37.439,-32.5915,-31.5854
390.662,6.08944,-2.99202,0,1.24062,9.58966,-1.30289,-23.872,-32.0732,-37.7744,-9.37171,-0.687371,-0.730481,32.1951,-35.4878,-31.3415
390.671,5.73186,-3.03125,0,1.06818,9.49146,-1.49928,-24.0854,-36.3415,-37.1646,-9.59445,-0.55325,-0.699346,23.7805,-37.622,-29.7866
390.681,5.36969,-3.09719,0,0.967588,9.49386,-1.92799,-22.5,-40.8841,-37.1341,-9.65911,-0.431104,-0.821492,16.311,-33.2927,-26.6768
390.692,4.99701,-3.20337,0,0.811912,9.46751,-2.29682,-18.9024,-43.2927,-37.0732,-9.55852,-0.514929,-0.991538,14.1159,-29.0549,-22.3476
390.702,4.63524,-3.32088,0,0.835862,9.44117,-2.55309,-16.7988,-43.8415,-37.0427,-9.31902,-0.637075,-1.02986,15.5488,-27.3476,-16.9512
390.712,4.27478,-3.46861,0,0.886157,9.39087,-2.66087,-16.4634,-42.9573,-38.3232,-9.07473,-0.807122,-1.14482,19.9695,-28.0183,-11.7683
390.722,3.93959,-3.62254,0,1.09452,9.25915,-2.48364,-17.8049,-36.9817,-39.2378,-9.02204,-0.852627,-1.18553,26.9512,-26.372,-8.96341
390.731,3.62715,-3.77518,0,1.40109,9.25915,-2.31598,-17.9878,-28.4146,-41.4024,-8.88792,-1.03465,-1.18793,33.2317,-27.4085,-7.5
390.742,3.33842,-3.93184,0,1.66214,9.14658,-2.04295,-19.3902,-22.622,-43.0793,-8.82804,-1.12326,-1.21906,35.5488,-26.4634,-5.2439
390.752,3.06326,-4.07262,0,1.86812,8.89989,-1.76273,-20.122,-17.8659,-45.4573,-8.8975,-1.16637,-1.19032,35.7927,-26.8598,-1.43293
390.762,2.79221,-4.23203,0,2.05732,9.00048,-1.58071,-20.2744,-13.4451,-47.6829,-9.07952,-1.21427,-1.31487,33.9939,-28.7195,-0.121951
390.772,2.51897,-4.38005,0,2.03098,8.99809,-1.45857,-19.2073,-8.29268,-48.1402,-9.17532,-1.22625,-1.31008,29.6646,-31.5244,0
390.782,2.2137,-4.54467,0,1.78189,9.17292,-1.50168,-18.2622,-6.40244,-48.4451,-9.31902,-1.26457,-1.42504,28.3232,-31.7073,2.34756
390.792,1.85004,-4.71564,0,1.35319,9.51062,-1.55916,-18.628,-7.7439,-49.1159,-9.27831,-1.19032,-1.47294,25.2134,-31.9817,5.51829
390.802,1.44043,-4.84088,0,1.00351,9.7118,-1.65735,-20.4573,-12.1951,-50.061,-9.14418,-1.13524,-1.29092,21.372,-31.7683,8.96341
390.812,0.981805,-5.03449,0,0.62989,9.75012,-1.79866,-22.9573,-16.9207,-51.4024,-8.86397,-1.00351,-1.54239,19.4207,-28.5061,16.5244
390.821,0.47037,-5.30829,0,0.237107,9.77886,-1.95434,-26.2805,-20.6098,-53.0183,-8.59093,-0.864602,-1.83458,21.2195,-21.372,25.061
390.832,-0.0276159,-5.69505,0,0.409548,9.70462,-2.15791,-28.9024,-20.6098,-54.7866,-8.33946,-0.874182,-2.25611,25.7622,-12.7744,32.8659
390.842,-0.511039,-6.16424,0,0.531694,9.60163,-2.23455,-30.2134,-21.1585,-55.8537,-8.19336,-0.998723,-2.5507,34.4207,-5.57927,40.0305
390.851,-0.984688,-6.75928,0,0.641865,9.18729,-2.13875,-31.0366,-23.4451,-57.5305,-8.23168,-1.16877,-2.75427,42.8963,3.2622,39.5732
390.862,-1.39102,-7.10895,0,1.12087,9.09868,-2.05014,-31.7683,-25.7317,-57.8049,-8.40412,-1.28134,-2.16749,49.6951,3.65854,39.4207
390.872,-1.70645,-7.33752,0,1.74597,9.20166,-2.19144,-34.5427,-25.6098,-56.9512,-8.62686,-1.32205,-1.83698,51.2805,-3.29268,40.7012
390.882,-1.93544,-7.53427,0,2.30401,9.4268,-2.20342,-35.3659,-22.9268,-54.878,-8.76577,-1.38432,-1.84417,50.5488,-3.75,40.7927
390.892,-2.15086,-7.78698,0,2.26808,9.32142,-2.01661,-33.5671,-22.0427,-53.8415,-8.78972,-1.43701,-2.16989,53.628,7.77439,41.7988
390.902,-2.32707,-8.06189,0,2.33035,9.24238,-1.90165,-29.6341,-20.7622,-51.25,-8.88792,-1.43701,-2.31838,56.5244,22.1646,43.1707
390.912,-2.46749,-8.27682,0,2.35909,9.24478,-2.05732,-27.622,-20.7012,-48.2927,-9.17532,-1.47533,-2.17468,59.878,31.4024,45.061
390.922,-2.54396,-8.38304,0,2.58902,9.51541,-2.44292,-28.1098,-19.2683,-43.9024,-9.5226,-1.346,-1.81542,56.9817,33.4451,46.9817
390.932,-2.53855,-8.36118,0,2.84289,9.65911,-2.692,-30.7317,-19.8476,-38.1098,-10.095,-1.20709,-1.35798,46.1585,34.2683,48.6585
390.941,-2.44115,-8.28143,0,3.05365,9.59205,-2.91953,-32.2866,-15.5793,-31.2805,-10.7009,-0.998723,-1.15919,28.5061,33.2927,46.372
390.952,-2.25976,-8.34424,0,3.18059,9.48667,-3.02012,-32.0732,-11.8598,-24.2988,-11.0219,-0.574805,-1.8777,13.1402,40.3049,41.4329
390.962,-2.02185,-8.60107,0,3.04407,9.32621,-2.886,-31.0976,-9.54268,-17.2256,-10.8997,0.0287402,-2.82852,0.365854,57.0122,42.2561
390.972,-1.73563,-9.02992,0,2.82133,9.20646,-2.74948,-29.7256,-10.5183,-9.69512,-10.4567,0.330513,-3.6069,-3.62805,80.7012,49.0854
390.982,-0.908776,-9.57271,0,2.85007,9.25436,-2.55788,-28.4756,-12.6524,-0.304878,-9.99921,-0.155676,-4.09069,-5.33537,98.4146,49.8171
390.992,-0.465889,-10.0328,0,2.70398,9.30705,-2.59381,-26.9817,-14.9085,10.2744,-9.88904,-0.919688,-3.73144,5.54878,104.756,47.1341
391.002,0.0975879,-10.2386,0,2.87402,9.55373,-2.82133,-25.122,-15.5183,22.378,-10.2914,-1.45617,-2.70637,13.9024,100.244,43.5061
391.012,0.819429,-10.2777,0,3.26441,9.55613,-2.96982,-22.2866,-15.3659,35.3659,-11.338,-1.52084,-2.15552,19.8171,93.4146,42.9268
391.021,1.71937,-10.2312,0,3.64761,9.33339,-2.56028,-16.3415,-16.0976,49.939,-12.7822,-1.19511,-1.93757,23.872,97.561,42.7744
391.032,2.80269,-10.0587,0,4.04998,9.22322,-2.55549,-9.2378,-15.8537,65.6707,-14.1115,-1.1041,-1.32684,25.8232,101.799,40.7012
391.042,4.0782,-9.68025,0,4.31822,8.55022,-3.11832,-0.914634,-14.9695,81.189,-15.412,-0.273032,-0.0191602,15.1524,87.0122,33.5061
391.052,5.52633,-9.11945,0,4.23679,7.67843,-3.29555,7.80488,-13.9634,97.1341,-15.9341,0.292192,1.33403,0.213415,61.4634,21.7683
391.062,7.06718,-8.63348,0,3.87754,7.38624,-3.43685,12.9268,-5.88415,111.982,-16.1975,0.708926,0.960403,-15.8537,48.628,9.7561
391.072,8.64252,-8.27813,0,3.19017,8.01613,-2.99617,14.7561,5.39634,130.884,-14.9593,1.07776,0.148491,-20.6098,46.25,1.58537
391.081,10.2911,-7.95931,0,2.61297,8.11912,-1.61903,10.3963,2.77439,149.451,-12.617,0.981958,-0.0119751,-10.8232,34.878,-0.792683
391.092,12.0867,-7.60833,0,2.70158,7.60179,-0.409548,12.9268,0.0609756,164.299,-10.1836,0.167651,0.186812,1.67683,29.7256,-6.4939
391.102,13.8957,-7.22306,0,2.35909,7.6473,1.01788,22.561,2.0122,174.268,-8.64363,-0.63468,0.340093,17.6829,26.7988,-13.3841
391.112,15.4978,-6.74588,0,0.747246,9.33818,1.4897,29.5732,1.4939,182.5,-7.91793,-1.42025,0.680186,41.6768,16.7378,-17.7744
391.122,16.9954,-6.23569,0,-0.275427,12.2721,1.41546,41.8598,-15.8232,187.073,-7.75507,-1.66214,0.835862,60.7927,8.62805,-18.0793
391.131,18.4506,-4.85709,0,-0.510139,14.7198,-0.838257,55.0305,-30.0305,187.226,-7.95865,-1.6334,0.780776,77.439,1.64634,-17.7134
391.142,19.8369,-4.39878,0,0.110171,14.5785,-2.62015,67.2866,-33.2927,178.232,-8.60052,-1.59029,1.00351,85.3354,-12.3171,-14.4512
391.152,21.1681,-4.00037,0,1.63101,14.9042,-3.73863,81.0976,-26.0671,163.567,-9.35734,-1.36756,0.907712,76.7378,-24.5122,-10.7927
391.162,22.4636,-3.72976,0,3.58774,13.9701,-4.33259,87.1037,-16.25,146.006,-9.99442,-0.924478,0.469424,60.7012,-29.1159,-6.37195
391.172,23.6388,-3.54569,0,3.99968,13.1055,-2.37346,87.3476,-20.7317,131.128,-10.2722,-0.220342,0.138911,44.0854,-29.0549,1.58537
391.182,24.7164,-3.43755,0,3.45362,11.6661,-0.143701,85.4268,-32.4085,124.543,-9.98723,0.129331,-0.162861,30.4573,-24.0854,16.372
391.191,25.7482,-3.37042,0,3.55421,11.1273,0.881367,90.4878,-23.1402,119.573,-9.79563,1.05141,-0.323328,16.7378,-29.9695,30.4878
391.202,26.8374,-3.32493,0,3.98052,11.041,0.689766,99.9085,8.23171,123.232,-9.40285,1.42025,-0.390388,0.121951,-31.4634,41.0671
391.212,27.9427,-3.28857,0,4.71579,10.8303,0.0718506,99.7256,39.939,119.543,-8.94061,1.41067,-0.404758,-12.439,-37.439,47.2866
391.222,29.0168,-3.28372,0,3.35303,10.8327,0.462239,104.085,63.2927,131.524,-8.49513,1.25499,-0.500559,-23.2012,-41.6159,48.7805
391.231,30.1558,-3.31012,0,4.04758,10.4638,0.0167651,95.5488,92.2256,132.287,-8.23168,1.08015,-0.598755,-29.6341,-42.439,46.128
391.242,31.2659,-3.33881,0,4.27511,9.72138,-0.0526904,86.2195,109.909,126.372,-8.24366,0.929268,-0.613125,-33.6585,-44.2073,41.5244
391.252,32.2241,-3.37903,0,3.70749,9.5681,-0.399968,76.8902,120.518,118.354,-8.47837,0.816702,-0.677791,-38.9939,-43.7195,37.0732
391.262,32.9571,-3.42604,0,2.46927,9.93215,0.376018,71.2195,110.976,112.073,-8.86636,0.723296,-0.740061,-45.7317,-41.4329,33.628
391.272,33.598,-3.50684,0,1.89686,9.99921,-0.134121,69.6341,110.823,110.732,-9.23759,0.64426,-0.914897,-51.8902,-38.3537,29.0244
391.282,34.2412,-3.63108,0,2.4022,9.20646,-0.66821,59.878,112.134,104.36,-9.50344,0.517324,-1.13284,-56.189,-31.0061,24.8476
391.292,34.8045,-3.77557,0,2.43334,8.90229,-0.977168,52.561,100.274,96.1585,-9.65672,0.361648,-1.25499,-61.3415,-25.2439,21.8293
391.302,35.2638,-3.93739,0,2.41897,8.71069,-1.27655,47.1646,85.5793,86.2195,-9.69504,0.205972,-1.35798,-61.4329,-22.5,19.3293
391.311,35.5727,-4.10642,0,2.14833,8.59573,-1.5376,40.4268,71.311,74.8476,-9.62798,0.0383203,-1.40588,-66.0366,-20.5793,17.3171
391.322,35.7024,-4.29708,0,1.7292,8.44723,-1.61664,33.872,57.8659,62.2256,-9.48188,-0.146096,-1.50407,-67.4695,-18.689,15.1829
391.331,35.622,-4.49811,0,1.21188,8.30353,-1.44659,26.8902,42.8659,47.7134,-9.26633,-0.205972,-1.54479,-70.3659,-18.3841,11.7988
391.341,35.3584,-4.70571,0,0.843047,7.92991,-1.27655,21.6159,25.1829,33.4146,-9.11544,-0.129331,-1.58311,-71.0366,-22.622,10.8232
391.352,34.9049,-4.87196,0,0.524509,7.63293,-1.12326,16.7683,6.43293,17.8659,-9.15137,0.0383203,-1.45617,-70.3354,-27.7134,7.04268
391.362,25.2606,-5.02747,0,-0.301772,7.28086,-0.977168,11.3415,-15.5793,0.670732,-9.20885,0.165256,-1.45138,-67.2866,-31.8598,6.06707
391.372,24.4909,-5.19183,0,-0.548459,7.01501,-0.955613,8.75,-39.9085,-17.8659,-9.24478,0.229922,-1.52084,-63.3841,-33.1402,4.45122
391.381,23.5566,-5.397,0,-0.60594,6.84257,-1.15679,5.18293,-58.5366,-35.0305,-9.19448,0.210762,-1.70765,-61.9207,-29.9695,3.04878
391.392,22.536,-5.65204,0,-0.143701,6.89047,-1.28134,7.2561,-80.1829,-53.628,-9.06515,0.265847,-1.91602,-62.6524,-19.6341,1.0061
391.402,21.5239,-5.96709,0,1.25978,7.70957,-1.79626,5.2439,-92.9573,-76.2195,-8.82325,0.342488,-2.13875,-64.5427,-7.43902,0.0304878
391.412,20.5441,-6.41965,0,3.13508,8.42568,-1.56874,-12.1646,-86.25,-97.7134,-8.66039,0.555645,-2.31838,-67.8659,2.83537,-1.31098
391.421,19.6162,-6.768,0,4.63915,8.1742,-0.426313,-32.8963,-65.7317,-113.11,-8.64123,0.838257,-2.34233,-71.8293,9.45122,1.03659
391.432,18.7961,-7.02228,0,5.58519,7.45809,0.66342,-46.0671,-47.7744,-118.811,-8.85918,1.08015,-2.0669,-75.2439,11.4329,2.10366
391.441,18.0753,-7.25864,0,6.3971,7.17548,0.467029,-49.4817,-47.1037,-120.335,-9.06994,1.27176,-2.08367,-80.1829,10.5488,2.7439
391.451,17.4598,-7.52453,0,7.37906,7.10123,-1.11129,-45.4573,-60.7317,-120,-9.19448,1.37235,-2.27527,-85.6402,14.878,2.16463
391.462,16.9038,-7.82507,0,7.76465,7.30241,-2.99617,-42.2561,-68.75,-116.524,-9.26873,1.44659,-2.48124,-92.0732,25.7012,3.56707
391.472,16.4336,-8.13033,0,7.4533,7.18745,-4.75172,-33.9939,-71.2805,-107.439,-9.45793,1.42743,-2.5962,-95.3354,37.1951,4.60366
391.481,16.0787,-8.37329,0,7.58263,7.37187,-6.41865,-23.1098,-60.5183,-96.1585,-9.78844,1.152,-2.4501,-97.9878,43.0488,4.69512
391.491,15.8705,-8.55701,0,8.10954,7.58503,-6.44021,-16.7683,-41.8598,-84.1768,-10.1477,0.696951,-2.30401,-97.7744,44.5732,-1.31098
391.502,15.7569,-8.70274,0,8.04008,8.1287,-5.93965,-7.89634,-26.4634,-70.3963,-10.5716,-0.00718506,-2.25132,-93.0183,43.4451,-11.4329
391.512,15.8196,-8.84801,0,7.80058,8.52387,-5.84864,6.37195,-22.6829,-48.1098,-10.859,-0.790356,-2.33993,-84.2378,42.622,-24.1768
