time,angle1,angle2,intgangle,accX1,accY1,accZ1,gyroX1,gyroY1,gyroZ1,accX2,accY2,accZ2,gyroX2,gyroY2,gyroZ2
345.944,83.25,8.41963,0,9.34776,1.03225,-2.34472,-0.304878,-0.0304878,-2.53049,-9.71899,0.0119751,1.48012,-14.3902,-2.9878,5.7622
345.95,83.2393,8.42642,0,9.33579,1.03704,-2.34712,-0.121951,-0.0914634,-2.16463,-9.75012,0.0502954,1.46815,-14.939,-3.20122,5.57927
345.956,83.2282,8.43927,0,9.34297,1.03944,-2.34472,-0.243902,-0.182927,-2.19512,-9.75491,0.0455054,1.4921,-15.122,-2.53049,5.21341
345.966,83.2237,8.43984,0,9.38848,1.02267,-2.36149,-0.152439,-0.457317,-1.95122,-9.75731,-0.0119751,1.44659,-16.6159,-4.08537,5.45732
345.976,83.2209,8.45477,0,9.41003,1.03944,-2.42615,-0.243902,-0.457317,-1.64634,-9.74533,-0.0191602,1.50647,-14.4512,-4.93902,4.32927
345.986,83.2151,8.46693,0,9.41003,1.04183,-2.34951,-0.182927,-0.762195,-1.85976,-9.7597,-0.0598755,1.49928,-14.8476,-4.81707,3.65854
345.996,83.2142,8.47055,0,9.39327,1.01309,-2.39502,0.0914634,-0.579268,-1.82927,-9.76689,-0.0407153,1.46575,-16.9817,-4.2378,5.06098
346.006,83.2114,8.48088,0,9.41482,1.03944,-2.35909,-0.121951,-0.182927,-1.67683,-9.73096,-0.0263452,1.4897,-15.7317,-4.66463,5.33537
346.016,83.217,8.48485,0,9.40764,0.989143,-2.4022,-0.0914634,-0.579268,-1.67683,-9.74294,-0.0335303,1.46575,-14.7561,-4.87805,5.33537
346.026,83.2257,8.48688,0,9.40524,0.981958,-2.37346,0.182927,-0.396341,-1.55488,-9.79563,-0.0550855,1.46575,-14.3293,-5.12195,5.2439
346.036,83.2303,8.49751,0,9.40285,1.01549,-2.34712,-0.0304878,-0.0609756,-1.43293,-9.76689,-0.0431104,1.49928,-15.4878,-4.14634,6.0061
346.046,83.2352,8.50935,0,9.40764,0.996328,-2.35191,0.182927,-0.304878,-1.61585,-9.76689,0.0263452,1.50647,-15.4268,-4.63415,5.97561
346.056,83.2406,8.491,0,9.39087,1.0083,-2.34472,0.0914634,-0.579268,-1.43293,-9.75731,-0.0215552,1.38193,-15.0305,-3.2622,5.18293
346.066,83.2459,8.49022,0,9.40764,1.00351,-2.36867,0.152439,-0.304878,-1.4939,-9.76689,-0.0311353,1.45138,-15.7317,-3.96341,5.57927
346.076,83.2467,8.49201,0,9.38369,1.01309,-2.37346,-0.121951,0,-1.64634,-9.79084,-0.0742456,1.46575,-15.7317,-3.96341,4.72561
346.086,83.2443,8.49331,0,9.40045,1.02028,-2.37107,0.121951,-0.0914634,-1.79878,-9.77168,-0.0694556,1.46096,-16.128,-4.11585,4.93902
346.096,83.242,8.51325,0,9.41003,1.01549,-2.38065,-0.0914634,-0.0914634,-1.85976,-9.74054,-0.0622705,1.53521,-15.5793,-3.71951,5.7622
346.106,83.2454,8.52027,0,9.41722,1.00112,-2.38065,0.182927,0.213415,-1.64634,-9.72857,-0.0407153,1.48252,-15.6707,-4.02439,5.03049
346.116,83.2459,8.50997,0,9.39806,1.01309,-2.4022,0.0609756,0.182927,-1.67683,-9.7621,-0.0287402,1.41546,-15.3354,-3.93293,6.12805
346.126,83.2457,8.52261,0,9.40285,1.02028,-2.41178,0.121951,0.182927,-1.64634,-9.78126,-0.0431104,1.51365,-16.3415,-3.65854,6.15854
346.136,83.2477,8.52832,0,9.44596,1.01309,-2.39502,-0.182927,0.121951,-1.61585,-9.78844,-0.0502954,1.48731,-15.4573,-2.95732,5.70122
346.146,83.2498,8.53505,0,9.41482,0.993933,-2.36388,-0.0914634,0.152439,-1.79878,-9.76689,-0.0622705,1.4897,-15.7622,-3.56707,4.7561
346.156,83.2446,8.52514,0,9.43638,1.03225,-2.42136,-0.182927,0.182927,-1.89024,-9.7597,-0.0670605,1.42025,-16.189,-3.56707,4.7561
346.166,83.2447,8.5133,0,9.41722,1.01788,-2.3543,-0.121951,0.213415,-1.67683,-9.7621,-0.0407153,1.41067,-15.5183,-3.62805,6.12805
346.176,83.2445,8.51786,0,9.4268,1.02746,-2.33754,-0.0304878,0.0304878,-1.58537,-9.78126,-0.0574805,1.48012,-14.7561,-4.02439,5.27439
346.186,83.2496,8.51249,0,9.40045,1.00351,-2.38544,-0.152439,0.365854,-1.4939,-9.77407,-0.0143701,1.43701,-14.9695,-4.35976,4.96951
346.196,83.2479,8.51048,0,9.38848,1.03465,-2.4046,0.182927,0.182927,-1.55488,-9.77407,-0.0167651,1.45138,-16.0976,-3.59756,5.30488
346.206,83.2475,8.51605,0,9.40285,1.0107,-2.38065,-0.0609756,0.213415,-1.76829,-9.77168,-0.0431104,1.48252,-16.0976,-3.78049,5.2439
346.216,83.2519,8.51888,0,9.40764,0.998723,-2.38304,-0.27439,0.365854,-1.58537,-9.77886,-0.0287402,1.47294,-15.8537,-3.78049,5.57927
346.226,83.2555,8.52118,0,9.39566,1.0107,-2.34472,-0.243902,0.213415,-1.4939,-9.76449,-0.0359253,1.46815,-16.2195,-5.21341,5.39634
346.236,83.2494,8.5278,0,9.3789,1.02746,-2.3567,0.121951,0.304878,-1.95122,-9.7621,-0.0311353,1.48731,-14.9085,-4.5122,5.2439
346.246,83.2532,8.52189,0,9.39327,1.00112,-2.38544,-0.182927,0.182927,-1.58537,-9.78126,-0.0479004,1.43701,-16.1585,-4.69512,4.29878
346.256,83.2498,8.51478,0,9.34058,1.03465,-2.40699,0.182927,0.0914634,-1.61585,-9.77886,0.0119751,1.42983,-16.0061,-5.18293,5.51829
346.266,83.2499,8.52701,0,9.39806,1.02267,-2.37825,-0.0914634,-0.121951,-1.58537,-9.75252,-0.0239502,1.50886,-15.7622,-4.42073,5.15244
346.276,83.2519,8.52096,0,9.3765,1.01788,-2.36628,0.0304878,0.213415,-1.4939,-9.75252,-0.0359253,1.43462,-15.4878,-3.2622,4.7561
346.286,83.2559,8.51929,0,9.40045,1.00591,-2.36149,0.152439,0.27439,-1.52439,-9.75731,-0.0359253,1.45138,-14.7561,-3.9939,5.85366
346.296,83.2544,8.52177,0,9.4244,1.01788,-2.37825,-0.0914634,-0.0304878,-1.76829,-9.78605,-0.0335303,1.47294,-15.3049,-4.14634,5.45732
346.306,83.2558,8.52512,0,9.41482,0.993933,-2.39023,-0.0609756,0.0914634,-1.82927,-9.77407,-0.0119751,1.47533,-15.4573,-4.14634,5.57927
346.316,83.2618,8.52,0,9.41961,1.00591,-2.4046,-0.0609756,-0.182927,-1.40244,-9.77407,-0.0239502,1.43941,-15.7622,-4.29878,6.55488
346.326,83.2689,8.52747,0,9.38848,0.991538,-2.37107,0.0914634,-0.121951,-1.46341,-9.75491,-0.0886157,1.4897,-15.6402,-4.20732,5.67073
346.336,83.2797,8.53072,0,9.40285,0.993933,-2.37586,0.213415,-0.213415,-1.21951,-9.76928,-0.0455054,1.47533,-15.5488,-3.68902,6.03659
346.346,83.285,8.51422,0,9.41243,1.0083,-2.39981,0.182927,0.0609756,-1.37195,-9.75491,-0.0311353,1.3939,-15.9756,-3.07927,4.48171
346.356,83.288,8.51338,0,9.38369,0.996328,-2.34712,0.0609756,-0.121951,-1.61585,-9.76928,-0.0215552,1.45617,-14.939,-3.32317,4.90854
346.366,83.2942,8.52118,0,9.38848,0.986748,-2.37825,0.0304878,-0.213415,-1.52439,-9.76689,-0.0263452,1.4897,-14.3598,-2.5,5.4878
346.376,83.2976,8.52508,0,9.40285,0.993933,-2.3543,0,-0.0914634,-1.61585,-9.77886,-0.0167651,1.47773,-15.4268,-2.31707,5.06098
346.386,83.3071,8.53806,0,9.38369,0.989143,-2.39023,-0.27439,-0.426829,-1.28049,-9.74054,-0.0383203,1.50886,-16.4329,-2.80488,4.54268
346.396,83.3131,8.52388,0,9.40524,0.993933,-2.39502,0.243902,-0.457317,-1.43293,-9.75491,-0.0502954,1.41546,-15.2134,-1.79878,4.45122
346.406,83.3168,8.52781,0,9.42201,1.00112,-2.39262,0,-0.182927,-1.4939,-9.75491,-0.0526904,1.47533,-17.1037,-3.14024,5.12195
346.416,83.3208,8.53377,0,9.41722,0.998723,-2.4022,0.335366,-0.152439,-1.4939,-9.75491,-0.0670605,1.48252,-15.4573,-2.19512,5.39634
346.426,83.3222,8.52846,0,9.40045,1.00112,-2.36867,0.121951,-0.27439,-1.61585,-9.76449,-0.0766406,1.4418,-15.0915,-2.80488,5.30488
346.436,83.3331,8.52817,0,9.41482,0.977168,-2.38783,0.0914634,0,-1.31098,-9.76928,-0.0622705,1.46096,-14.9695,-3.2622,5.51829
346.446,83.3327,8.54413,0,9.41722,1.02028,-2.39741,0.182927,-0.0304878,-1.4939,-9.80281,-0.0407153,1.53042,-14.878,-2.65244,3.71951
346.456,83.3407,8.55769,0,9.38608,0.989143,-2.35909,0.0609756,0.27439,-1.31098,-9.75252,-0.0694556,1.51126,-15.2439,-2.0122,4.57317
346.466,83.3435,8.56205,0,9.40045,1.0083,-2.3567,0.0304878,-0.0304878,-1.40244,-9.7621,-0.00239502,1.48252,-16.5244,-1.95122,5.70122
346.476,83.3482,8.56901,0,9.35974,0.991538,-2.39262,-0.121951,-0.121951,-1.43293,-9.76928,0,1.49689,-16.8293,-3.53659,5.7622
346.486,83.3557,8.56738,0,9.36692,0.998723,-2.34233,0.152439,-0.182927,-1.18902,-9.75491,-0.0383203,1.46096,-15.9146,-2.86585,5.73171
346.496,83.3548,8.5631,0,9.37411,1.02986,-2.4022,0.0304878,-0.182927,-1.31098,-9.76689,-0.0239502,1.45138,-15.5488,-3.07927,5.21341
346.506,83.3579,8.55558,0,9.38848,1.0107,-2.39502,0.243902,-0.121951,-1.31098,-9.7621,-0.0119751,1.43462,-16.3415,-3.96341,3.96341
346.516,83.3642,8.55036,0,9.3765,1.0083,-2.39023,0.27439,-0.304878,-1.12805,-9.77886,-0.0574805,1.4442,-15.3049,-4.93902,4.26829
346.526,83.3758,8.54624,0,9.38848,0.996328,-2.34951,0.0304878,-0.487805,-0.97561,-9.80042,-0.0526904,1.45138,-15.2439,-4.81707,5.57927
346.536,83.3817,8.54417,0,9.39087,0.981958,-2.4046,0.121951,-0.365854,-1.43293,-9.79323,-0.0479004,1.45857,-16.6159,-4.78659,5.79268
346.546,83.3883,8.53691,0,9.44596,0.989143,-2.39502,0.365854,-0.0914634,-1.34146,-9.79084,-0.0862207,1.43462,-15.122,-5.33537,6.25
346.556,83.3991,8.51387,0,9.4244,0.969983,-2.41178,0.152439,-0.304878,-1.28049,-9.78126,-0.0526904,1.36516,-15.7317,-4.45122,5.79268
346.566,83.4049,8.5019,0,9.41722,0.998723,-2.41418,-0.365854,-0.457317,-1.21951,-9.81479,-0.0431104,1.41306,-16.189,-4.72561,5.85366
346.576,83.4082,8.50943,0,9.39566,0.991538,-2.41418,0.0609756,-0.0914634,-1.43293,-9.83635,-0.0215552,1.49928,-15.2744,-4.26829,5.33537
346.586,83.4181,8.4952,0,9.41722,0.965193,-2.41178,-0.0609756,-0.396341,-1.34146,-9.82916,-0.0119751,1.40588,-15.061,-4.11585,5.70122
346.596,83.4228,8.48382,0,9.41482,0.972378,-2.36388,0.182927,-0.213415,-1.55488,-9.79084,0.0239502,1.41067,-14.9085,-3.90244,4.78659
346.606,83.427,8.46191,0,9.40524,0.989143,-2.43573,0.0304878,0,-1.37195,-9.78844,-0.00958008,1.36995,-15.3963,-2.89634,5.42683
346.616,83.4344,8.44201,0,9.4268,0.965193,-2.38544,-0.27439,0.121951,-1.46341,-9.7597,-0.0502954,1.37953,-15.5793,-2.07317,3.90244
346.626,83.4387,8.42507,0,9.41482,0.958008,-2.35191,0.121951,-0.0609756,-1.70732,-9.77647,-0.0886157,1.38911,-14.9085,-2.04268,5.15244
346.636,83.4353,8.41214,0,9.41243,0.955613,-2.38783,-0.213415,0.27439,-2.2561,-9.76449,-0.0766406,1.3963,-14.4817,-2.31707,3.93293
346.646,83.4333,8.42384,0,9.38129,0.974773,-2.41178,-0.213415,0.0609756,-1.92073,-9.78844,-0.0526904,1.4897,-15.3963,-2.37805,5.57927
346.656,83.4296,8.41157,0,9.39087,0.965193,-2.37107,-0.27439,0.213415,-2.16463,-9.75012,-0.0479004,1.40109,-15.3049,-1.82927,5.15244
346.666,83.4216,8.40732,0,9.38129,0.996328,-2.38304,-0.335366,0.27439,-2.13415,-9.73815,-0.0311353,1.42025,-14.8476,-3.07927,6.7378
346.676,83.419,8.41414,0,9.35734,0.986748,-2.34233,0.27439,0.27439,-1.82927,-9.74533,-0.00958008,1.46575,-16.4329,-3.71951,5.51829
346.686,83.4095,8.42669,0,9.38848,1.01549,-2.36867,-0.121951,0.0609756,-2.04268,-9.75491,-0.0287402,1.4897,-16.4329,-2.71341,5.73171
346.696,83.4055,8.42421,0,9.3789,0.996328,-2.38065,-0.0609756,0.396341,-1.85976,-9.78366,-0.0263452,1.43701,-14.6341,-2.86585,4.90854
346.706,83.3965,8.4411,0,9.3765,1.02746,-2.36388,-0.0304878,0.518293,-1.85976,-9.75731,-0.0239502,1.51126,-15.3659,-3.17073,3.87195
346.716,83.3944,8.43871,0,9.3765,0.986748,-2.33275,0,0.0304878,-1.85976,-9.78844,-0.0239502,1.4418,-15.7317,-2.2561,4.57317
346.726,83.3892,8.44081,0,9.3765,1.02746,-2.38065,0.0609756,-0.152439,-1.58537,-9.77886,-0.0431104,1.45617,-15.8537,-4.14634,4.57317
346.736,83.3888,8.45167,0,9.40764,1.00591,-2.39981,-0.243902,-0.0914634,-1.55488,-9.78126,-0.0383203,1.49449,-15.9451,-4.90854,5.57927
346.746,83.3874,8.46883,0,9.41003,0.998723,-2.40939,0.152439,-0.457317,-1.70732,-9.7621,-0.0431104,1.52084,-16.2195,-5.09146,5.45732
346.756,83.3951,8.47646,0,9.44835,0.979563,-2.41178,0.121951,-0.335366,-1.37195,-9.77886,-0.0646655,1.48491,-15.3354,-5.09146,5
346.766,83.3926,8.48087,0,9.39087,1.02507,-2.36867,-0.0304878,-0.335366,-1.43293,-9.76449,-0.0790356,1.47054,-15.5793,-3.84146,5.82317
346.776,83.4025,8.48474,0,9.39566,0.974773,-2.40939,0.0609756,0,-1.25,-9.7597,-0.0526904,1.46815,-15.2134,-4.32927,5.27439
346.786,83.4019,8.48857,0,9.39327,0.996328,-2.32556,0.243902,0.0914634,-1.64634,-9.77168,-0.0287402,1.47054,-15.6098,-4.11585,5.79268
346.796,83.4032,8.47475,0,9.38848,0.979563,-2.33275,-0.0914634,-0.0304878,-1.70732,-9.78844,-0.0119751,1.3963,-15.5793,-5.09146,4.7561
346.806,83.4098,8.47274,0,9.38608,0.986748,-2.39262,-0.0914634,-0.0914634,-1.28049,-9.77886,-0.0359253,1.4442,-15.7927,-4.78659,5.42683
346.816,83.4101,8.47324,0,9.40285,0.977168,-2.38065,0.182927,-0.213415,-1.79878,-9.7621,-0.0622705,1.45138,-15.5793,-5.82317,5.36585
346.826,83.4123,8.47397,0,9.40045,0.986748,-2.4022,-0.0609756,-0.365854,-1.55488,-9.76689,-0.0455054,1.45378,-16.2805,-5.12195,5.27439
346.836,83.4149,8.49006,0,9.39566,0.991538,-2.44531,0.0304878,0.182927,-1.46341,-9.72138,-0.0455054,1.51365,-16.0671,-4.81707,5.51829
346.846,83.4197,8.48649,0,9.39327,0.969983,-2.43813,-0.0609756,0.487805,-1.55488,-9.77407,-0.0646655,1.43941,-15.3659,-4.81707,4.48171
346.856,83.4223,8.47548,0,9.41961,0.981958,-2.39023,0.27439,0.121951,-1.58537,-9.79323,-0.0383203,1.41067,-14.4817,-4.05488,5.60976
346.866,83.4243,8.47675,0,9.3789,0.986748,-2.36867,0.121951,0.243902,-1.52439,-9.78126,-0.0119751,1.45857,-15.2134,-5.2439,5.12195
346.876,83.4307,8.46778,0,9.39806,0.974773,-2.39502,-0.152439,0.0914634,-1.40244,-9.79084,-0.00958008,1.41546,-15.0305,-5.27439,5.06098
346.886,83.4295,8.47354,0,9.40764,1.01788,-2.38783,0.0609756,0.121951,-1.37195,-9.78844,-0.0479004,1.47773,-13.5061,-5.51829,4.54268
346.896,83.4317,8.47093,0,9.3789,0.984353,-2.42136,-0.0609756,0.152439,-1.52439,-9.76449,-0.0479004,1.43941,-14.3902,-4.63415,4.87805
346.906,83.4321,8.46764,0,9.40524,0.991538,-2.36628,0.121951,0.335366,-1.58537,-9.77407,-0.0143701,1.43701,-15.6098,-5.06098,5.97561
346.916,83.4314,8.48169,0,9.38848,0.991538,-2.32796,0,0.335366,-1.64634,-9.7597,-0.0359253,1.50886,-14.8171,-3.68902,5.27439
346.926,83.432,8.47734,0,9.39327,0.986748,-2.37586,-0.304878,0.182927,-1.61585,-9.77886,-0.0407153,1.43462,-15.5183,-5.39634,5.4878
346.936,83.435,8.47747,0,9.39087,0.967588,-2.36867,-0.182927,-0.121951,-1.67683,-9.80042,-0.0119751,1.45617,-15.4268,-5.91463,6.89024
346.946,83.4381,8.47062,0,9.43638,0.974773,-2.3543,0.0304878,0.243902,-1.61585,-9.79563,-0.0431104,1.42504,-15.8537,-5.73171,5.94512
346.956,83.4421,8.47326,0,9.40764,0.993933,-2.37586,0.121951,-0.121951,-1.31098,-9.79563,-0.00479004,1.46575,-15.6707,-5.33537,4.87805
346.966,83.447,8.47744,0,9.38369,0.965193,-2.37107,0.182927,-0.27439,-1.55488,-9.78605,-0.0311353,1.47054,-14.1768,-6.64634,5.4878
346.976,83.4464,8.47856,0,9.39806,0.967588,-2.40939,-0.182927,-0.0914634,-1.89024,-9.8076,-0.00958008,1.46096,-15.0305,-6.67683,5.51829
346.986,83.4471,8.47647,0,9.38848,0.967588,-2.37346,0.243902,-0.182927,-1.79878,-9.76689,-0.0598755,1.4418,-14.8171,-5.79268,4.93902
346.996,83.449,8.47402,0,9.41243,0.969983,-2.37107,0.121951,0,-1.70732,-9.78126,-0.0526904,1.4418,-15.0305,-5.97561,5.54878
347.006,83.4498,8.45908,0,9.37411,0.962798,-2.38544,-0.182927,-0.243902,-1.82927,-9.7621,-0.0550855,1.38672,-14.5122,-4.29878,4.93902
347.016,83.452,8.46184,0,9.39327,0.955613,-2.33514,0.182927,-0.152439,-1.82927,-9.78844,-0.0550855,1.46336,-14.2378,-5.15244,5.70122
347.026,83.45,8.45654,0,9.41243,0.989143,-2.42855,-0.0304878,-0.0304878,-1.7378,-9.76449,-0.0550855,1.42504,-14.6037,-5.27439,4.90854
347.036,83.4489,8.46124,0,9.39087,0.969983,-2.39502,-0.243902,-0.213415,-1.89024,-9.77168,-0.0550855,1.46815,-15.2134,-6.09756,5.88415
347.046,83.4478,8.476,0,9.4268,0.989143,-2.37346,0.0304878,-0.213415,-1.70732,-9.79323,-0.0239502,1.51605,-14.7866,-6.70732,6.21951
347.056,83.4413,8.48444,0,9.39327,0.986748,-2.36149,-0.0609756,-0.0609756,-2.10366,-9.79084,-0.0119751,1.4897,-15.8537,-7.62195,5.7622
347.066,83.4358,8.47111,0,9.39806,0.986748,-2.36867,0.27439,0.152439,-2.04268,-9.77168,-0.00958008,1.3939,-15.1524,-6.18902,5.54878
347.076,83.4318,8.46871,0,9.40045,0.991538,-2.39262,0.0304878,0.335366,-1.89024,-9.78605,-0.0383203,1.4418,-15.6098,-6.0061,5.42683
347.086,83.4243,8.45743,0,9.39566,1.00591,-2.36149,-0.0914634,0.335366,-1.98171,-9.76928,-0.0407153,1.40109,-16.311,-5.12195,5.73171
347.096,83.4212,8.45739,0,9.39327,0.960403,-2.37825,-0.304878,0.213415,-2.19512,-9.80042,-0.0502954,1.45138,-15.5183,-6.55488,5.4878
347.106,83.4162,8.45546,0,9.3789,0.974773,-2.39262,-0.396341,-0.0609756,-2.16463,-9.7621,-0.0622705,1.43701,-16.2195,-7.0122,5.03049
347.116,83.412,8.45205,0,9.43159,0.998723,-2.36388,-0.243902,-0.182927,-1.89024,-9.77647,-0.0838257,1.43222,-15.6402,-7.10366,4.7561
347.126,83.4055,8.46357,0,9.40045,1.0083,-2.37586,-0.0304878,0.121951,-1.92073,-9.76689,-0.0167651,1.49449,-15.9451,-8.71951,5.33537
347.136,83.3995,8.46866,0,9.4268,1.00112,-2.36388,-0.304878,0.213415,-2.0122,-9.7597,-0.0335303,1.46815,-16.4024,-7.5,5.09146
347.146,83.3941,8.48248,0,9.40285,1.0083,-2.42615,-0.152439,0.213415,-1.85976,-9.76928,-0.0191602,1.50886,-14.1768,-7.59146,4.96951
347.156,83.393,8.47647,0,9.38129,0.967588,-2.42136,-0.365854,0.152439,-2.0122,-9.75731,0.00479004,1.42264,-14.5732,-7.13415,4.7561
347.166,83.3883,8.47854,0,9.39327,0.989143,-2.38304,-0.213415,0.213415,-2.04268,-9.77168,-0.0167651,1.45857,-15.5183,-7.92683,5.54878
347.176,83.384,8.48003,0,9.38369,0.986748,-2.36628,-0.27439,0.0914634,-2.04268,-9.76449,-0.0167651,1.45617,-15.3049,-6.92073,5.97561
347.186,83.3816,8.48298,0,9.41961,0.969983,-2.36388,0.0304878,0.152439,-2.13415,-9.7597,-0.0359253,1.46096,-15.5793,-8.23171,4.84756
347.196,83.3783,8.50038,0,9.38848,0.986748,-2.36149,-0.304878,-0.0304878,-1.98171,-9.75731,-0.0335303,1.52563,-15.7622,-7.10366,4.69512
347.206,83.3769,8.51764,0,9.3789,0.969983,-2.34472,-0.243902,-0.182927,-2.04268,-9.74054,-0.0287402,1.52563,-15.7317,-6.76829,6.70732
347.216,83.3723,8.52433,0,9.38129,0.977168,-2.38544,-0.0914634,-0.304878,-2.19512,-9.74773,-0.0479004,1.48252,-15.3963,-7.80488,6.70732
347.226,83.3646,8.53651,0,9.40045,0.986748,-2.4022,-0.0609756,-0.243902,-2.34756,-9.75252,-0.0455054,1.50886,-15.3354,-7.46951,6.67683
347.236,83.3632,8.54372,0,9.39087,0.969983,-2.39981,0.0304878,-0.0304878,-2.07317,-9.75491,-0.0574805,1.4897,-15.5793,-7.19512,5.36585
347.246,83.3595,8.54877,0,9.41003,0.993933,-2.40699,-0.121951,-0.182927,-1.98171,-9.73815,-0.00239502,1.47773,-15.5183,-8.56707,5.45732
347.256,83.3503,8.56876,0,9.40764,1.02986,-2.39981,-0.152439,-0.27439,-1.98171,-9.76449,-0.0191602,1.54958,-14.3293,-7.22561,5.64024
347.266,83.3515,8.58395,0,9.38369,0.977168,-2.39023,-0.182927,-0.396341,-1.82927,-9.79323,-0.0143701,1.53521,-14.3598,-8.65854,5.33537
347.276,83.3485,8.5998,0,9.40045,0.996328,-2.38065,0.243902,0.0914634,-1.92073,-9.75012,-0.0574805,1.53521,-14.6951,-7.19512,5.73171
347.286,83.3473,8.61594,0,9.43398,0.996328,-2.33754,0.0609756,-0.0609756,-1.82927,-9.73815,-0.0479004,1.5376,-15.122,-6.85976,5.45732
347.296,83.3495,8.62846,0,9.40524,0.981958,-2.34472,0.0304878,-0.0304878,-1.7378,-9.73336,-0.0143701,1.52323,-14.2073,-7.56098,4.81707
347.306,83.35,8.64513,0,9.38848,1.00351,-2.34712,-0.0609756,0,-1.58537,-9.75491,-0.0335303,1.54718,-14.1463,-7.34756,5.18293
347.316,83.3525,8.66316,0,9.36213,0.984353,-2.33993,-0.152439,-0.213415,-1.64634,-9.77647,-0.0550855,1.55916,-15.7927,-7.86585,5.4878
347.326,83.3494,8.66822,0,9.35495,1.0083,-2.38065,-0.182927,-0.0914634,-1.7378,-9.7621,-0.0311353,1.50407,-16.0366,-6.43293,5.42683
347.336,83.3481,8.67029,0,9.3789,0.986748,-2.37825,-0.182927,-0.304878,-1.89024,-9.75252,0,1.4897,-16.128,-7.19512,5.15244
347.346,83.3458,8.69067,0,9.36692,1.02986,-2.36388,0,-0.396341,-1.43293,-9.73336,0,1.56634,-14.8476,-8.62805,4.48171
347.356,83.3456,8.70162,0,9.36692,1.00112,-2.34472,0.0914634,-0.487805,-1.64634,-9.75012,-0.00958008,1.53042,-15.3963,-9.39024,4.69512
347.366,83.345,8.71369,0,9.40764,1.00112,-2.37107,0.152439,-0.304878,-1.70732,-9.73815,-0.0143701,1.53521,-16.0976,-9.63415,4.05488
347.376,83.3538,8.72459,0,9.4268,0.996328,-2.37586,-0.0304878,-0.27439,-1.18902,-9.76689,-0.0526904,1.5376,-16.4024,-8.5061,5.51829
347.386,83.3562,8.72868,0,9.42919,0.989143,-2.37107,0,-0.182927,-1.64634,-9.76689,-0.0574805,1.50886,-15.5793,-9.2378,5.60976
347.396,83.3582,8.7291,0,9.4244,0.998723,-2.42136,0.27439,-0.243902,-1.55488,-9.77168,-0.0838257,1.49449,-15.6707,-8.87195,5.21341
347.406,83.3605,8.74385,0,9.39806,0.989143,-2.42376,-0.304878,-0.487805,-1.61585,-9.76928,-0.0502954,1.55676,-16.6463,-9.54268,5.51829
347.416,83.3627,8.75564,0,9.41482,0.977168,-2.39023,-0.0914634,-0.0914634,-1.76829,-9.77168,-0.00958008,1.54718,-16.7073,-8.96341,6.0061
347.426,83.3639,8.75801,0,9.41482,0.998723,-2.36867,0.243902,-0.304878,-1.58537,-9.79084,-0.0167651,1.51126,-16.1585,-8.29268,6.03659
347.436,83.3663,8.76319,0,9.39327,0.962798,-2.33275,-0.121951,-0.0609756,-1.89024,-9.78605,-0.0191602,1.52323,-14.9085,-8.38415,5.82317
347.446,83.3724,8.76891,0,9.43398,0.962798,-2.37107,-0.0609756,-0.27439,-1.67683,-9.7621,-0.0215552,1.52323,-16.4329,-7.83537,5.27439
347.456,83.3715,8.77903,0,9.41961,0.986748,-2.39981,0.0914634,0.213415,-1.85976,-9.74773,-0.0574805,1.54,-14.939,-9.45122,4.69512
347.466,83.3711,8.79286,0,9.41961,0.969983,-2.34951,-0.0609756,0.182927,-2.0122,-9.74054,-0.0718506,1.55676,-14.7256,-9.63415,5
347.476,83.3684,8.80811,0,9.38848,0.981958,-2.42136,0.121951,0.213415,-2.0122,-9.73096,-0.0670605,1.56395,-15.2744,-9.63415,6.21951
347.486,83.3676,8.82625,0,9.38848,0.989143,-2.40939,0.426829,0.640244,-1.79878,-9.74533,-0.00239502,1.58071,-16.1585,-10.6707,6.21951
347.496,83.3613,8.84744,0,9.36213,1.00112,-2.36388,0.152439,0.823171,-2.04268,-9.7597,-0.00718506,1.59987,-14.6646,-10.4573,6.85976
347.506,83.3548,8.86023,0,9.38369,1.01549,-2.38304,0.182927,0.396341,-1.92073,-9.72857,0.00479004,1.56155,-15,-10.4268,5.7622
347.516,83.3481,8.88679,0,9.42201,1.00112,-2.32556,-0.0609756,0.457317,-2.16463,-9.69743,-0.0311353,1.61903,-15.4878,-10.6098,4.96951
347.526,83.3396,8.8979,0,9.38848,1.04423,-2.35191,-0.27439,0.365854,-1.7378,-9.73815,-0.0215552,1.56155,-15.3659,-11.5549,5.85366
347.536,83.3382,8.90986,0,9.39087,1.01549,-2.41418,0.0304878,0.243902,-1.58537,-9.73096,-0.0239502,1.56395,-14.5122,-14.0549,5.36585
347.546,83.3303,8.91577,0,9.3789,1.0586,-2.42376,0.426829,0.731707,-1.4939,-9.70462,-0.0479004,1.53521,-14.878,-14.1159,5.64024
347.556,83.3141,8.9163,0,9.32142,1.1065,-2.39502,0.701219,1.03659,-1.34146,-9.72617,-0.0407153,1.51365,-15.6707,-16.8293,7.59146
347.566,83.3024,8.94809,0,9.3789,1.08734,-2.4022,0.853659,1.4939,-1.43293,-9.74294,-0.0431104,1.65017,-15.7927,-21.4329,8.01829
347.576,83.2946,8.99494,0,9.39087,1.06099,-2.45729,0.823171,2.16463,-1.55488,-9.80281,-0.0167651,1.7316,-17.7134,-22.9268,9.11585
347.586,83.2886,9.05136,0,9.41243,1.05141,-2.39262,0.914634,2.56098,-1.58537,-9.82437,-0.0215552,1.78429,-19.0854,-25.4878,10.3963
347.596,83.2906,9.09238,0,9.40524,1.0083,-2.41418,0.762195,3.23171,-1.55488,-9.82916,-0.00718506,1.72441,-18.9024,-27.561,12.1951
347.606,83.2967,9.10792,0,9.40764,0.996328,-2.36628,0.701219,3.10976,-1.43293,-9.84832,-0.0502954,1.62143,-19.0854,-27.378,12.3171
347.616,83.3146,9.11823,0,9.38848,0.981958,-2.35909,0.884146,2.86585,-0.945122,-9.86748,-0.0311353,1.60227,-17.2866,-29.3293,10.8537
347.626,83.3418,9.13439,0,9.39806,0.924478,-2.29682,1.06707,2.31707,-1.06707,-9.87706,-0.0215552,1.62861,-15.9451,-32.9878,11.2195
347.636,83.3653,9.15123,0,9.39806,0.955613,-2.18905,1.06707,1.43293,-0.914634,-9.86988,0.0191602,1.63101,-13.75,-35.5793,10.7927
347.646,83.3828,9.15368,0,9.45075,0.969983,-2.31598,1.15854,1.03659,-1.0061,-9.86269,-0.0431104,1.56634,-12.8659,-38.2317,10.7927
347.656,83.405,9.15406,0,9.4268,0.972378,-2.33514,1.03659,0.640244,-0.731707,-9.84353,-0.0455054,1.55197,-11.5854,-41.0976,11.3415
347.666,83.4305,9.16649,0,9.42919,0.965193,-2.34472,0.97561,0.731707,-0.640244,-9.83635,-0.0598755,1.60227,-10.8841,-43.689,11.7378
347.676,83.4486,9.18914,0,9.41961,0.972378,-2.33275,0.97561,0.27439,-0.823171,-9.79084,-0.0359253,1.64059,-12.1951,-45.6707,12.3476
347.686,83.4942,9.21536,0,9.47709,0.917292,-2.33514,0.731707,0.426829,-0.365854,-9.76928,-0.0550855,1.65496,-11.128,-47.7439,12.8963
347.696,83.5467,9.24635,0,9.44835,0.900527,-2.27527,0.945122,0.243902,-0.27439,-9.77886,-0.0239502,1.6813,-11.5244,-48.9634,12.378
347.706,83.5968,9.27534,0,9.4747,0.869392,-2.28245,0.792683,-0.152439,-0.487805,-9.82437,0.00239502,1.6837,-11.1585,-51.2195,12.4085
347.716,83.661,9.3041,0,9.46272,0.835862,-2.28964,0.609756,-0.579268,-0.335366,-9.88185,-0.0239502,1.69567,-10.4268,-53.5061,13.3232
347.726,83.6959,9.31357,0,9.45075,0.864602,-2.26329,0.365854,-1.03659,-0.823171,-9.87467,0.0143701,1.61185,-10.3963,-55.0915,13.689
347.736,83.7132,9.33693,0,9.43398,0.893342,-2.3064,0.0609756,-1.37195,-1.21951,-9.88664,-0.00718506,1.67651,-9.54268,-56.4024,14.1463
347.746,83.715,9.36872,0,9.4244,0.922083,-2.31598,0.0304878,-1.34146,-1.76829,-9.90341,0.0431104,1.71962,-10.6707,-58.3841,14.2073
347.756,83.7065,9.38097,0,9.38848,0.969983,-2.3567,-0.304878,-1.95122,-1.92073,-9.94652,0.0431104,1.64298,-9.54268,-60.3354,14.3293
347.766,83.6941,9.37733,0,9.35734,0.958008,-2.34712,-0.579268,-2.22561,-2.37805,-9.98244,0.0431104,1.57832,-10,-61.4939,14.7866
347.776,83.6763,9.40615,0,9.39087,0.958008,-2.3088,-0.548781,-2.31707,-2.92683,-9.94412,0.0407153,1.71483,-9.93902,-64.8476,14.3902
347.786,83.658,9.45759,0,9.44117,0.946033,-2.37107,-0.731707,-2.92683,-3.20122,-9.92975,0.00718506,1.81542,-10.9451,-69.5732,14.6646
347.796,83.6408,9.52268,0,9.46991,0.910107,-2.38544,-1.0061,-3.04878,-3.59756,-9.9058,-0.0191602,1.8777,-11.0366,-74.3293,15.2744
347.806,83.6218,9.61363,0,9.54176,0.883762,-2.42615,-1.03659,-2.59146,-4.17683,-9.83874,-0.00718506,1.99026,-11.372,-77.4695,15.5488
347.816,83.603,9.6923,0,9.47709,0.898132,-2.44292,-1.15854,-2.04268,-3.96341,-9.82677,0.0191602,1.94715,-10.1829,-79.2988,16.7378
347.826,83.5847,9.76747,0,9.46751,0.852627,-2.50519,-1.21951,-1.28049,-4.48171,-9.73815,0.00718506,1.9256,-11.6768,-81.8902,18.7195
347.836,83.5584,9.83224,0,9.44356,0.905317,-2.43573,-1.09756,-0.792683,-4.63415,-9.75491,0.00239502,1.89446,-10.9451,-83.3841,21.0671
347.846,83.5282,9.88042,0,9.41482,0.931663,-2.44052,-1.03659,-0.152439,-4.72561,-9.78366,-0.00239502,1.83698,-12.7134,-83.7805,20.4878
347.856,83.4887,9.95282,0,9.45793,0.960403,-2.47406,-1.37195,0.731707,-5.42683,-9.83874,0.0407153,1.96152,-13.2927,-87.6219,18.5061
347.866,83.438,10.03,0,9.40285,1.0107,-2.48843,-1.85976,1.28049,-5.94512,-9.9561,0.0311353,2.01661,-15.061,-91.25,18.6585
347.876,83.382,10.1152,0,9.38129,1.0107,-2.5004,-2.07317,1.61585,-6.55488,-10.0639,0.102986,2.08367,-15.8841,-97.5305,16.5549
347.886,83.3207,10.1839,0,9.38369,1.02507,-2.41657,-1.98171,2.16463,-7.04268,-10.0399,0.189207,2.01421,-16.5244,-102.439,16.2195
347.896,83.2627,10.2762,0,9.37171,0.996328,-2.31838,-1.82927,2.86585,-7.16463,-9.9537,0.215552,2.1148,-16.8902,-105.03,17.4085
347.906,83.2087,10.3905,0,9.41722,0.965193,-2.33514,-1.76829,2.56098,-7.31707,-9.86988,0.184417,2.20821,-16.7073,-111.616,17.6524
347.916,83.1491,10.4901,0,9.41482,1.00351,-2.33035,-1.98171,1.43293,-7.53049,-9.84114,0.165256,2.15312,-17.3476,-114.055,19.2683
347.926,83.0906,10.6233,0,9.41961,0.974773,-2.28964,-2.10366,1.31098,-7.89634,-9.84593,0.112566,2.31838,-18.3232,-121.86,18.9024
347.936,83.031,10.7538,0,9.4244,0.986748,-2.33754,-2.13415,0.762195,-7.9878,-9.84832,0.0550855,2.32556,-17.1951,-127.591,17.8659
347.946,82.9636,10.8587,0,9.47709,1.03944,-2.36867,-2.37805,0.853659,-8.32317,-9.84832,0.0622705,2.22976,-16.1585,-130.732,19.2988
347.956,82.8922,10.9745,0,9.41482,1.02746,-2.39981,-2.31707,0.762195,-8.93293,-9.87946,0.0526904,2.30161,-17.3171,-135.091,19.3293
347.966,82.8152,11.0753,0,9.36453,1.07536,-2.34472,-2.5,0.518293,-8.9939,-9.94891,0.0167651,2.26569,-15,-139.604,18.3841
347.976,82.7395,11.1936,0,9.38848,1.06339,-2.32317,-2.53049,-0.0609756,-9.20732,-9.87946,0.0862207,2.34472,-14.6037,-143.537,17.7134
347.986,82.6576,11.3534,0,9.39806,1.07297,-2.28485,-2.22561,-0.792683,-9.87805,-9.87946,0.162861,2.5507,-15.7622,-151.951,17.2256
347.996,82.5724,11.5101,0,9.4244,1.08973,-2.24174,-2.68293,-1.46341,-10.2134,-9.83635,0.148491,2.55309,-15.7012,-153.841,18.0793
348.006,82.4889,11.6887,0,9.45075,1.06099,-2.34951,-2.92683,-1.40244,-10.6098,-9.76449,0.141306,2.65608,-15.8537,-162.043,18.1707
348.016,82.3982,11.8311,0,9.40764,1.08494,-2.29203,-3.04878,-2.16463,-11.1585,-9.68785,0.143701,2.49801,-15.2744,-167.012,19.7561
348.026,82.3001,11.9575,0,9.40285,1.11847,-2.31598,-3.35366,-2.31707,-11.6768,-9.69504,0.0574805,2.4525,-15.2744,-166.738,20
348.036,82.1895,12.1251,0,9.33579,1.15679,-2.27766,-3.75,-3.01829,-12.5915,-9.64474,0.0862207,2.6465,-15.7317,-170.915,21.0976
348.046,82.0684,12.3359,0,9.30226,1.19272,-2.23934,-3.90244,-3.90244,-13.3841,-9.69025,0.134121,2.886,-16.5549,-174.634,21.6768
348.056,81.9448,12.5579,0,9.34776,1.20469,-2.29682,-4.17683,-4.81707,-13.811,-9.78605,0.160466,2.99856,-15.6402,-183.018,21.25
348.066,81.8247,12.7655,0,9.43877,1.18074,-2.41178,-4.60366,-5.09146,-14.1463,-9.82437,0.184417,2.9794,-15.4268,-187.927,20.4268
348.076,81.6953,12.982,0,9.44835,1.20948,-2.47645,-5.15244,-5.27439,-15,-9.75012,0.270637,3.03209,-15.5183,-193.262,21.128
348.086,81.5671,13.1632,0,9.46751,1.18314,-2.43334,-5.94512,-4.81707,-15.4878,-9.74533,0.263452,2.90276,-16.7073,-196.524,21.25
348.096,81.4286,13.3265,0,9.50104,1.22864,-2.53393,-6.82927,-3.35366,-16.311,-9.69264,0.153281,2.8381,-18.1098,-195.213,19.4207
348.106,81.2802,13.5394,0,9.51062,1.24302,-2.55309,-7.40854,-2.62195,-17.439,-9.59684,0.100591,3.06802,-19.4817,-196.951,17.5305
348.116,81.1196,13.7821,0,9.55613,1.27894,-2.55788,-7.80488,-1.55488,-18.628,-9.61361,0.0479004,3.24765,-18.7195,-202.409,15.2439
348.126,80.9577,14.0449,0,9.55613,1.19032,-2.61776,-8.62805,0.121951,-20.1524,-9.58247,0.0790356,3.37219,-17.5,-208.018,14.3598
348.136,80.7686,14.3262,0,9.51062,1.31247,-2.70637,-9.90854,2.0122,-21.7073,-9.58726,0.134121,3.5087,-17.7134,-211.86,16.0061
348.146,80.5741,14.6152,0,9.44117,1.23823,-2.54591,-10.5183,3.20122,-23.4451,-9.61121,0.124541,3.6045,-17.7134,-215.579,17.3476
348.156,80.3596,14.8825,0,9.45793,1.32445,-2.5004,-11.0671,4.7561,-24.8476,-9.60882,0.114961,3.54942,-18.9024,-220.518,18.0183
348.166,80.1346,15.1335,0,9.41961,1.38193,-2.5004,-10.8232,6.89024,-25.6098,-9.47949,0.217947,3.47278,-18.5366,-222.073,18.5671
348.176,79.9042,15.3736,0,9.51781,1.41306,-2.52914,-10.4878,8.75,-26.4024,-9.32381,0.287402,3.41051,-17.8049,-223.232,19.5427
348.186,79.6667,15.6561,0,9.49865,1.3963,-2.50759,-10.061,9.78659,-27.7744,-9.3789,0.287402,3.67396,-18.9939,-225.366,18.628
348.196,79.4081,15.9879,0,9.49386,1.47054,-2.48364,-9.39024,11.3415,-29.5122,-9.36453,0.335303,3.95418,-20.6098,-231.189,17.1037
348.206,79.1312,16.3246,0,9.58726,1.58071,-2.53872,-9.87805,13.9329,-30.7622,-9.46751,0.354463,4.08111,-22.5305,-236.738,14.939
348.216,78.852,16.6677,0,9.64235,1.55197,-2.46448,-10.3354,15.122,-32.0122,-9.45793,0.395178,4.16973,-26.6463,-241.89,13.5366
348.226,78.5561,17.0268,0,9.56331,1.61185,-2.41897,-11.2805,15.6402,-33.4146,-9.50583,0.404758,4.33738,-28.2317,-244.421,13.689
348.236,78.258,17.3891,0,9.54176,1.57353,-2.46448,-11.4939,18.0183,-34.6646,-9.36453,0.390388,4.35415,-31.7073,-249.909,12.622
348.246,77.9342,17.7201,0,9.61121,1.69567,-2.46448,-11.5549,21.7988,-36.5854,-9.33579,0.285007,4.25595,-32.2256,-250.945,10.9146
348.256,77.5999,18.0327,0,9.69504,1.73878,-2.30161,-11.5854,23.1098,-37.9878,-9.12981,0.256267,4.13859,-32.3171,-248.323,8.9939
348.266,77.2408,18.3873,0,9.56331,1.87291,-2.23695,-11.8598,22.9878,-39.3293,-9.02683,0.256267,4.35415,-32.4085,-249.878,8.90244
348.276,76.8869,18.7939,0,9.71899,1.88249,-2.18905,-11.189,23.2622,-39.7866,-8.95258,0.258662,4.63915,-32.8659,-254.787,8.23171
348.286,76.5241,19.2004,0,9.48428,1.86572,-2.04295,-10.2439,20.7012,-41.0671,-8.85678,0.201182,4.6655,-32.4695,-258.994,9.78659
348.296,76.1535,19.5798,0,9.53936,1.96871,-2.02619,-10.0915,20.2744,-41.5244,-8.83762,0.134121,4.59604,-31.2195,-263.14,9.29878
348.306,75.7532,19.9879,0,9.39566,2.14115,-2.019,-11.0061,21.6159,-42.8963,-8.69392,0.225132,4.73495,-30.6098,-265.091,9.90854
348.316,75.344,20.4207,0,9.4723,2.14594,-2.05732,-11.311,24.2073,-44.7866,-8.62926,0.225132,4.90021,-31.3415,-268.201,10.3354
348.326,74.9411,20.8666,0,9.5226,2.19623,-1.80345,-10.4573,20.8232,-44.5122,-8.6101,0.229922,5.03912,-30.8537,-271.25,9.63415
348.336,74.5281,21.3411,0,9.45554,2.3088,-1.74597,-9.72561,17.3171,-44.878,-8.52387,0.296982,5.22114,-31.5549,-274.756,9.60366
348.346,74.1213,21.8237,0,9.57289,2.39741,-1.82261,-7.56098,15.9146,-44.3902,-8.4137,0.354463,5.2882,-29.8476,-278.323,8.44512
348.356,73.7162,22.2898,0,9.43159,2.39741,-1.76034,-5.60976,13.5976,-44.6341,-8.2724,0.376018,5.21396,-32.6524,-276.982,8.23171
348.366,73.3035,22.7778,0,9.4723,2.48843,-1.81063,-3.78049,14.4512,-45.3049,-8.19336,0.289797,5.36963,-33.2927,-277.622,7.68293
348.376,72.8587,23.3017,0,9.46991,2.75906,-1.70525,-2.19512,12.8354,-46.311,-8.15025,0.282612,5.6259,-34.9085,-280.884,6.43293
348.386,72.4032,23.8269,0,9.50104,2.90995,-1.62143,-1.28049,8.44512,-46.7073,-8.07601,0.246687,5.68817,-32.9878,-284.299,6.03659
348.396,71.9623,24.3759,0,9.41482,2.84528,-1.6358,0.335366,5.03049,-46.5854,-7.99458,0.239502,5.8654,-31.311,-287.774,6.37195
348.406,71.5225,24.9621,0,9.54894,2.94827,-1.73639,2.59146,5.51829,-46.6768,-7.97781,0.239502,6.17197,-28.5366,-293.049,6.7378
348.416,71.0393,25.5315,0,9.55852,3.30034,-1.7795,4.26829,4.72561,-48.1402,-7.95146,0.208367,6.18634,-27.8354,-294.665,6.46341
348.426,70.5477,26.1305,0,9.36213,3.32429,-1.64777,3.87195,4.42073,-48.9634,-7.86524,0.227527,6.41386,-28.5061,-295.091,7.04268
348.436,70.0605,26.7468,0,9.41482,3.43206,-1.48491,4.96951,1.15854,-48.5366,-7.76465,0.244292,6.56714,-30.0305,-297.043,7.34756
348.446,69.5888,27.3476,0,9.33579,3.38895,-1.40109,6.31098,-5.64024,-48.1098,-7.79339,0.227527,6.64139,-30.9756,-299.39,7.22561
348.456,69.1127,27.9526,0,9.20166,3.51589,-1.48491,7.10366,-7.9878,-47.561,-7.67125,0.253872,6.69887,-31.7683,-302.622,7.53049
348.466,68.6338,28.5888,0,9.45554,3.66677,-1.76992,7.77439,-7.92683,-48.2317,-7.5515,0.304167,6.91921,-30.7317,-306.86,7.83537
348.476,68.1734,29.2405,0,9.48907,3.62127,-1.81063,8.07927,-6.46341,-47.9573,-7.43414,0.342488,7.05812,-31.0976,-309.634,7.71341
348.486,67.6855,29.9125,0,9.45314,3.8464,-1.62861,9.7561,-8.96341,-49.1463,-7.30241,0.301772,7.21619,-31.372,-313.445,8.78049
348.496,67.1828,30.5931,0,9.43159,4.12183,-1.68849,12.0732,-12.6524,-48.6585,-7.12997,0.277822,7.26649,-30.6098,-314.329,8.23171
348.506,66.6867,31.265,0,9.47709,4.12901,-1.78189,12.8963,-12.5305,-49.1463,-7.08926,0.227527,7.33834,-26.25,-317.195,8.32317
348.516,66.213,31.9507,0,9.53218,4.07632,-1.71723,14.3598,-14.9695,-48.6585,-6.96232,0.239502,7.46528,-26.0366,-320.396,6.40244
348.526,65.7453,32.678,0,9.25915,4.04519,-1.89925,15.2744,-16.189,-48.1098,-6.71803,0.263452,7.65209,-26.6159,-322.835,7.13415
348.536,65.2568,33.3898,0,9.20885,4.26553,-1.77471,14.2378,-15.6402,-48.628,-6.50487,0.287402,7.49641,-23.9329,-323.262,7.10366
348.546,64.775,34.0956,0,9.17772,4.3302,-1.7292,12.6524,-18.2012,-48.1098,-6.34201,0.198787,7.45809,-26.25,-321.372,8.38415
348.556,64.3205,34.7929,0,9.15856,4.1841,-1.76752,12.2256,-18.0488,-47.7439,-6.20071,0.0598755,7.42217,-25.2439,-319.451,7.9878
348.566,63.833,35.5022,0,9.24478,4.58167,-1.86333,12.5915,-19.5122,-48.3537,-5.97797,0.0143701,7.41259,-22.6524,-320.945,7.80488
348.576,63.3706,36.2438,0,9.2831,4.52659,-1.73639,10.8232,-16.7988,-47.5305,-5.83666,-0.0886157,7.6473,-19.2378,-319.726,9.84756
348.586,62.894,36.9799,0,8.97174,4.58167,-1.86812,10.5488,-14.2073,-47.7744,-5.62111,-0.153281,7.52755,-17.2256,-319.329,8.87195
348.596,62.3922,37.7198,0,8.52627,4.67268,-1.83938,8.41463,-13.75,-47.8963,-5.4319,-0.198787,7.50839,-14.5427,-312.927,7.89634
348.606,61.9122,38.4909,0,8.56459,4.58407,-1.61664,5.64024,-11.9207,-47.8659,-5.20677,-0.00958008,7.62335,-11.4329,-307.927,10.5183
348.616,61.4626,39.2853,0,8.43526,4.51222,-1.53042,4.11585,-11.5854,-45.7622,-5.06547,0.0455054,7.80776,-11.6463,-308.323,11.0061
348.626,61.0461,40.1037,0,8.37778,4.55293,-1.91362,2.71341,-8.07927,-42.5305,-4.8092,0.172441,7.82453,-10.7012,-308.659,13.689
348.636,60.6908,40.9212,0,8.59812,4.39726,-1.85854,0.548781,-9.17683,-40.061,-4.59844,0.186812,7.72154,-11.5549,-308.171,14.939
348.646,60.2759,41.7424,0,8.11433,4.82596,-2.19144,0.579268,-6.0061,-39.4207,-4.26313,0.122146,7.43893,-8.78049,-297.683,15.122
348.656,59.9115,42.607,0,7.99218,4.39486,-2.27766,-0.335366,-5.18293,-39.0549,-4.05477,0.0263452,7.67843,-6.34146,-285.579,12.7744
348.666,59.5213,43.5237,0,8.17181,4.78046,-2.27766,-2.37805,-4.29878,-39.3293,-3.92065,-0.0838257,8.16941,-5.4878,-281.646,10.1524
348.676,59.1413,44.4554,0,8.01853,4.74693,-2.27766,-3.14024,-2.68293,-38.4756,-3.76018,-0.0718506,8.3179,-4.17683,-278.14,7.59146
348.686,58.7203,45.3773,0,7.54192,4.92177,-1.97589,-4.32927,-9.02439,-38.3232,-3.64522,-0.0239502,8.33706,-3.35366,-273.384,7.16463
348.696,58.4416,46.2521,0,8.14307,4.64394,-2.0669,-6.43293,0.213415,-31.6768,-3.59732,0.00479004,8.13109,-2.04268,-269.177,6.67683
348.706,58.3501,47.1194,0,7.96104,3.93262,-2.33275,-8.41463,11.25,-20.0915,-3.44164,-0.0239502,8.05445,-3.17073,-260.701,8.35366
348.716,58.0168,48.0224,0,7.62814,5.0966,-2.73272,-6.52439,2.71341,-29.7256,-3.30034,0.0981958,8.44484,-3.9939,-256.311,10.122
348.726,57.9072,48.9066,0,7.97542,4.14338,-1.74836,-6.61585,3.14024,-20.4268,-3.23807,0.126936,8.48316,-2.89634,-250.945,12.5305
348.736,57.9726,49.7933,0,8.21971,3.77934,-1.81063,-13.7805,2.0122,-8.44512,-3.16382,0.0862207,8.72985,-4.2378,-246.494,15.061
348.746,57.6251,50.6775,0,6.90245,5.43669,-1.75315,-10.3049,-12.1341,-22.8049,-3.07521,0.170046,8.88313,-7.59146,-245.732,15.2439
348.756,57.4866,51.5103,0,7.65209,4.60562,-1.77231,-9.20732,-6.82927,-16.8598,-3.01054,0.179626,8.50471,-8.71951,-242.866,16.0671
348.766,57.1595,52.314,0,6.98867,5.55884,-1.7292,-10.9146,-3.44512,-21.1585,-2.86444,0.177231,8.15504,-10.6402,-234.299,16.2195
348.776,56.9143,53.1283,0,7.00783,4.90979,-1.7771,-10.9451,0.457317,-20.5793,-2.8357,0.148491,8.59573,-11.2195,-228.933,15
348.786,56.7941,53.9297,0,7.59461,4.44037,-1.79626,-5.73171,-4.66463,-17.9268,-2.80217,0.150886,8.76338,-9.78659,-222.195,13.2927
348.796,56.3502,54.6827,0,7.13955,6.90963,-2.32077,-5.79268,-2.95732,-23.1402,-2.93869,0.0958008,8.97414,-8.29268,-217.287,9.96951
348.806,56.0462,55.4504,0,7.75507,5.7241,-2.02858,-7.80488,-0.884146,-25.3354,-2.81415,0.119751,9.20166,-3.71951,-216.921,9.60366
348.816,55.7483,56.183,0,7.76226,5.68338,-2.06451,-8.32317,-1.40244,-25.7927,-2.85486,0.182021,9.27591,-2.68293,-213.963,9.5122
348.826,55.4998,56.9164,0,8.04008,5.50136,-2.12199,-9.17683,-1.06707,-25.0915,-2.80457,0.193997,9.55134,-4.35976,-215.366,11.6463
348.836,55.2432,57.6372,0,8.13109,5.73607,-2.25611,-9.20732,-0.579268,-24.7561,-2.75667,0.222737,9.62079,-5.54878,-223.476,15.6098
348.846,55.0377,58.2883,0,8.49034,5.92049,-2.07648,-10.9451,3.20122,-20.7012,-2.88121,0.138911,9.39087,-2.28659,-229.909,21.5244
348.856,55.0165,58.8749,0,8.73464,4.29906,-1.69807,-13.1707,-11.6768,-20.0305,-3.01293,-0.0862207,9.24957,3.10976,-230.671,21.189
348.866,54.5143,59.4087,0,6.54559,7.37187,-1.69328,-8.56707,-16.0976,-23.872,-3.03449,-0.153281,8.92624,2.86585,-228.354,19.1159
348.876,54.1027,59.9469,0,7.51078,6.78988,-2.16749,-8.01829,-6.52439,-28.4756,-2.9339,0.0119751,8.96935,-1.18902,-225,18.3841
348.886,53.7409,60.4986,0,7.87961,6.23663,-2.39741,-4.39024,-1.76829,-31.8902,-2.82133,0.285007,9.10586,-3.9939,-220.976,21.25
348.896,53.3854,61.0576,0,7.67125,5.93965,-2.42615,-4.69512,-2.77439,-33.2317,-2.74948,0.378413,9.31184,-7.46951,-214.97,25.3354
348.906,53.0157,61.6467,0,7.46288,5.95881,-2.39023,-5.73171,-3.29268,-33.6585,-2.58902,0.387993,9.59205,-8.90244,-210.244,26.189
348.916,52.6988,62.2735,0,7.5994,5.79116,-2.37346,-6.40244,-5.57927,-31.6768,-2.34712,0.421523,9.72857,-9.87805,-209.817,26.372
348.926,52.3915,62.9224,0,7.54671,5.86061,-2.21779,-5.97561,-6.4939,-30.2744,-2.12199,0.404758,9.67827,-11.128,-207.256,24.8476
348.936,52.0841,63.5806,0,7.70478,6.03066,-2.04774,-6.34146,-6.0061,-30.4573,-1.94476,0.344883,9.59684,-12.0122,-202.104,22.9268
348.946,52.048,64.2384,0,8.6556,4.51222,-1.67172,-10.2439,-9.78659,-24.878,-1.78668,0.330513,9.38369,-13.75,-196.372,21.311
348.956,51.5875,64.8978,0,6.55517,7.6928,-1.95194,-7.19512,-7.2561,-23.2927,-1.68849,0.383203,9.50823,-14.939,-193.659,19.4207
348.966,51.5628,65.5371,0,8.0808,4.61999,-2.04535,-11.0671,0.426829,-20.1829,-1.65496,0.419128,9.48428,-14.4817,-190.061,20.122
348.976,51.1772,66.1648,0,7.43654,6.94556,-2.39023,-3.41463,-3.65854,-29.939,-1.57113,0.421523,9.3789,-13.5061,-181.22,21.0976
348.986,50.8402,66.7498,0,7.38145,6.14802,-2.13636,-3.2622,-4.93902,-32.4085,-1.6837,0.378413,9.6184,-12.9573,-175.366,19.6646
348.996,50.5249,67.3666,0,7.40061,5.98994,-1.91362,-2.89634,-5.36585,-32.5305,-1.4418,0.364043,9.61361,-11.6159,-172.561,20.5793
349.006,50.2096,67.9501,0,7.33115,6.06179,-1.99505,-3.71951,-6.15854,-31.9512,-1.4897,0.378413,9.70222,-14.2683,-167.591,20.1524
349.016,49.9096,68.5302,0,7.41738,6.11928,-2.04295,-3.84146,-8.04878,-31.1585,-1.40348,0.495769,9.72857,-18.5671,-163.689,19.878
349.026,49.6094,69.0952,0,7.29523,6.02347,-2.19623,-3.9939,-6.89024,-31.7378,-1.33882,0.522114,9.54415,-19.5122,-157.835,21.7378
349.036,49.3073,69.6512,0,7.29762,6.1049,-2.37586,-2.31707,-7.46951,-31.7988,-1.27415,0.536484,9.52499,-20.8841,-152.835,22.1646
349.046,48.9942,70.1968,0,7.29283,6.28453,-2.2585,-1.85976,-6.67683,-31.8293,-1.21906,0.457449,9.53218,-20.0915,-144.573,19.6646
349.056,48.6907,70.7437,0,7.31678,6.24861,-2.26329,-0.914634,-5.82317,-32.0122,-1.14482,0.373623,9.78126,-19.4512,-138.262,18.3232
349.066,48.3969,71.3036,0,7.26649,6.20071,-2.36867,2.34756,-6.21951,-31.6768,-0.989143,0.301772,9.77647,-17.622,-132.957,16.311
349.076,48.0863,71.8567,0,7.19943,6.46895,-2.28964,3.38415,-8.23171,-31.0061,-0.922083,0.141306,9.81479,-12.1341,-128.963,14.4817
349.086,47.7558,72.3994,0,7.14674,6.67971,-2.15073,2.10366,-9.45122,-31.372,-0.869392,-0.0431104,9.82437,-7.89634,-125.274,13.9634
349.096,47.4317,72.9357,0,7.2114,6.7324,-2.29443,2.80488,-9.60366,-31.4634,-0.790356,-0.126936,9.73815,-6.79878,-117.622,11.9817
349.106,47.0872,73.4605,0,7.07249,6.83778,-2.41418,1.64634,-9.02439,-32.1646,-0.759221,-0.0526904,9.93933,-7.83537,-112.165,11.4329
349.116,46.7279,73.979,0,6.81623,6.79467,-2.23455,-0.335366,-8.20122,-32.5915,-0.694556,0.177231,9.99681,-10.9451,-106.524,14.9695
349.126,46.518,74.486,0,7.26649,5.67859,-2.14354,-1.98171,-11.9207,-32.1646,-0.65384,0.354463,10.0615,-11.8293,-101.341,18.3537
349.136,46.154,74.9618,0,6.7803,7.5012,-2.56746,1.92073,-5.85366,-28.1402,-0.696951,0.462239,10.0471,-11.0671,-94.9085,20.6098
349.146,45.8144,75.4082,0,6.81144,7.21619,-2.53154,0.487805,-8.81098,-28.9329,-0.740061,0.347278,10.0279,-8.23171,-92.1037,19.3293
349.156,45.4685,75.841,0,6.86173,7.19224,-2.31838,1.12805,-12.4695,-30.8841,-0.718506,0.273032,10.0327,-5.09146,-87.5305,16.4024
349.166,45.1474,76.2641,0,7.15392,7.27128,-2.5004,0.365854,-11.7988,-30.8537,-0.692161,0.177231,10.1716,-2.53049,-84.3598,10.7927
349.176,44.8112,76.6931,0,7.07489,7.33115,-2.44292,-0.823171,-8.59756,-31.9207,-0.59157,0.0910107,10.2195,0.701219,-82.8963,8.56707
349.186,44.4665,77.1211,0,6.91442,7.27846,-2.18665,-1.79878,-10.1829,-32.561,-0.510139,-0.00718506,10.1405,3.84146,-77.2256,7.0122
349.196,44.156,77.5494,0,6.8282,7.0677,-2.30401,-3.78049,-9.26829,-30.7622,-0.435894,-0.0479004,10.2914,5.57927,-73.2012,7.2561
349.206,43.8224,77.9768,0,6.5863,7.31918,-2.31359,-6.0061,-9.20732,-29.6037,-0.352068,-0.0119751,10.1405,6.06707,-66.6768,7.56098
349.216,43.4521,78.3912,0,6.18394,7.35271,-2.20581,-6.52439,-11.7683,-30.122,-0.335303,0.0431104,10.2674,6.7378,-62.7134,10.3049
349.226,43.092,78.7833,0,6.08574,7.26888,-2.28245,-7.37805,-14.7561,-29.5732,-0.359253,0.172441,10.2291,6.4939,-61.4939,11.8598
349.236,42.6776,79.1593,0,5.94204,7.63772,-2.39981,-7.5,-17.561,-31.6463,-0.354463,0.280217,10.1429,7.07317,-56.8902,12.7439
349.246,42.2932,79.5283,0,6.02347,7.44851,-2.3088,-8.90244,-19.3293,-31.6463,-0.318538,0.419128,10.1645,5.21341,-54.6037,12.1951
349.256,41.9326,79.9059,0,6.10251,7.39103,-2.52435,-9.08537,-19.8171,-31.189,-0.205972,0.505349,9.98963,5.88415,-49.7561,10.3049
349.266,41.592,80.287,0,6.03545,7.2138,-2.57704,-9.35976,-19.6951,-30.6402,-0.117356,0.512534,9.9082,5.18293,-41.8902,7.71341
349.276,41.2698,80.6686,0,5.9157,6.99346,-2.51717,-8.96341,-21.4939,-30.0915,-0.0431104,0.474214,10.0256,4.45122,-34.4512,4.78659
349.286,41.1219,81.0533,0,5.7217,5.95881,-2.43813,-8.32317,-22.9268,-20.3354,0.0455054,0.359253,9.8555,1.06707,-24.0549,-0.792683
349.296,40.8235,81.443,0,5.92288,7.53952,-2.30161,-7.65244,-26.0976,-24.3902,0.141306,0.313748,9.77407,0.304878,-13.2622,-4.11585
349.306,40.5627,81.8545,0,5.8175,6.99106,-2.22737,-8.44512,-23.3537,-24.4512,0.289797,0.311353,9.7621,-1.55488,-5.27439,-6.89024
349.316,40.2854,82.3591,0,5.6738,7.11321,-2.37107,-9.54268,-23.5366,-24.2378,0.371228,0.323328,9.70462,1.82927,2.22561,-5.94512
349.326,40.0602,82.7559,0,5.63548,6.92161,-2.53633,-10,-21.4939,-20.6707,0.416733,0.423918,9.78126,-0.121951,12.3476,-4.93902
349.336,39.7952,83.1404,0,5.47262,7.37427,-2.42855,-10.9146,-23.4451,-19.939,0.431104,0.371228,9.58487,0.762195,21.8293,-3.75
349.346,39.5489,83.4892,0,5.40795,7.14674,-2.20821,-11.0976,-26.0671,-19.6646,0.349673,0.409548,9.48907,-0.97561,32.9268,-4.5122
349.356,39.3269,83.7945,0,5.5301,7.19464,-2.39502,-11.4634,-24.6951,-18.5671,0.234712,0.419128,9.53697,1.7378,42.4085,-6.18902
349.366,39.1276,84.0695,0,5.40795,7.12279,-2.32317,-12.0427,-26.1585,-16.0061,0.165256,0.452659,9.46991,2.83537,52.7744,-9.02439
349.376,38.9199,84.3112,0,5.37682,7.20422,-2.09804,-13.6585,-26.9512,-16.311,0.0790356,0.457449,9.45314,2.5,62.1341,-11.8293
349.386,38.7459,84.5479,0,5.31215,6.95514,-2.13636,-14.2683,-30.2744,-14.6037,0.105381,0.455054,9.59684,-1.25,68.8719,-13.0793
349.396,38.6667,84.7732,0,5.98994,6.91203,-2.71595,-12.1341,-26.2195,-12.5,0.102986,0.519719,9.51302,-1.95122,77.0732,-13.689
349.406,38.5165,85.0014,0,5.99473,7.50599,-2.76385,-13.6585,-25.0305,-15.2134,0.160466,0.512534,9.57768,-4.26829,85.6402,-13.2622
349.416,38.3962,85.2163,0,5.94683,7.22338,-2.89797,-13.7195,-21.6768,-14.2073,0.146096,0.467029,9.46512,-4.26829,92.5,-11.3415
349.426,38.2365,85.4101,0,5.384,7.2593,-2.54112,-15.7012,-24.6037,-12.561,0.102986,0.416733,9.52739,-5.45732,102.774,-11.4024
349.436,38.0907,85.5651,0,5.28341,7.1659,-2.28964,-14.5122,-25.2134,-11.128,-0.0191602,0.428708,9.51541,-5.27439,112.896,-10.4878
349.446,37.9701,85.6878,0,5.50615,7.16111,-2.61297,-14.9085,-22.7134,-11.2195,-0.126936,0.455054,9.63516,-3.96341,117.622,-10.5183
349.456,37.8866,85.7785,0,5.66662,7.19224,-2.79499,-15,-20.7317,-9.05488,-0.237107,0.459844,9.66869,-4.87805,124.512,-11.9512
349.466,37.817,85.8413,0,5.36963,6.93119,-2.65129,-16.0976,-25.3659,-6.85976,-0.332908,0.483794,9.63277,-6.09756,132.957,-14.6646
349.476,37.6846,85.8862,0,5.21635,7.5036,-2.61536,-17.439,-29.7561,-7.34756,-0.385598,0.476609,9.56092,-7.83537,144.512,-15
349.486,37.5648,85.9091,0,5.18043,7.3575,-2.62734,-16.6768,-31.7073,-7.04268,-0.459844,0.426313,9.49865,-8.10976,153.963,-16.0976
349.496,37.4384,85.9204,0,5.34329,7.5515,-2.5028,-18.2927,-32.3171,-8.23171,-0.495769,0.426313,9.46512,-8.5061,163.476,-17.2866
349.506,37.344,85.9178,0,5.42951,7.54431,-2.56986,-19.2683,-32.5305,-6.15854,-0.541274,0.380808,9.42919,-7.95732,173.537,-17.1951
349.516,37.2625,85.8968,0,5.25707,7.39582,-2.40939,-19.2988,-33.4451,-4.17683,-0.60594,0.416733,9.35495,-7.56098,183.14,-16.9512
349.526,37.2427,85.8514,0,5.67141,7.28325,-2.66087,-19.1768,-30.5488,-3.44512,-0.699346,0.380808,9.31902,-8.07927,193.659,-16.7988
349.536,37.2193,85.7749,0,5.59956,7.34792,-2.58662,-19.4207,-28.9634,-2.56098,-0.828677,0.361648,9.30944,-6.0061,200.762,-15.3659
349.546,37.1527,85.6799,0,5.16366,7.08926,-2.40699,-20.2744,-29.9695,0.640244,-0.881367,0.385598,9.02922,-3.20122,211.768,-15.1829
349.556,37.1528,85.5576,0,5.22593,7.0701,-2.38783,-21.6463,-29.4207,2.10366,-1.0107,0.383203,9.137,-0.884146,221.738,-15.4878
349.566,37.1459,85.3982,0,5.19959,7.1156,-2.37586,-22.1037,-31.3415,2.22561,-1.16877,0.457449,9.08191,1.67683,228.994,-14.2073
349.576,37.153,85.196,0,5.28581,7.04136,-2.40699,-21.7683,-34.1463,1.64634,-1.35319,0.371228,9.01725,2.07317,237.409,-14.6037
349.586,37.2101,84.9483,0,5.79595,7.29044,-2.70877,-21.2195,-34.5122,2.71341,-1.57353,0.282612,9.06036,2.86585,243.537,-16.2195
349.596,37.2837,84.6586,0,5.89414,7.36947,-2.84289,-21.128,-38.9634,4.5122,-1.7771,0.258662,9.03162,6.92073,249.726,-16.9817
349.606,37.3634,84.3401,0,6.1049,7.49162,-2.89318,-21.128,-35.3963,4.17683,-1.95913,0.299377,9.12023,9.60366,254.604,-19.1159
349.616,37.4543,83.9748,0,6.18873,7.46049,-2.96503,-20.7622,-30.3354,4.48171,-2.17707,0.371228,9.00048,8.90244,260.335,-17.5915
349.626,37.5385,83.5589,0,6.09532,7.28325,-2.80457,-21.0061,-26.5244,3.17073,-2.41178,0.447869,8.87594,10.3049,267.805,-15.4878
349.636,37.5845,83.0944,0,5.75523,7.25691,-2.7399,-20.9756,-27.3476,2.59146,-2.68721,0.488584,8.88792,8.41463,272.256,-14.0549
349.646,37.5915,82.5976,0,5.63548,7.33834,-2.77583,-21.0976,-31.4329,0.97561,-2.90516,0.543669,8.89031,5.85366,273.872,-12.6829
349.656,37.6254,82.0697,0,5.60674,7.12518,-2.7878,-20.2439,-29.6646,1.21951,-3.09197,0.622705,8.8017,6.06707,278.11,-13.1707
349.666,37.62,81.5234,0,5.56363,7.27367,-2.75427,-20.3049,-30.061,0.548781,-3.24286,0.651445,8.75619,1.79878,283.476,-13.811
349.676,37.6365,80.9561,0,5.64985,7.27128,-2.86205,-20.3963,-29.9695,0.670732,-3.34345,0.692161,8.54543,1.25,290.122,-13.1098
349.686,37.6515,80.384,0,5.57561,7.19703,-2.77104,-20.7317,-28.1098,1.03659,-3.41769,0.737666,8.44723,0.304878,295.457,-15.2134
349.696,37.718,79.8287,0,5.772,7.1635,-2.80217,-20.1524,-25.7012,0.426829,-3.48715,0.728086,8.5598,0.640244,297.591,-18.1098
349.706,37.8153,79.2796,0,6.20071,7.15632,-3.06083,-18.3537,-24.6951,2.37805,-3.5566,0.756826,8.56219,-0.609756,299.299,-18.1098
349.716,37.8844,78.7305,0,6.14562,7.5036,-3.02012,-19.9695,-23.4146,3.90244,-3.56858,0.684976,8.38017,-3.62805,307.256,-18.5976
349.726,37.9656,78.1763,0,6.01629,7.23775,-2.7878,-19.6037,-20.8841,4.42073,-3.61887,0.661025,8.24366,-9.32927,315.457,-20.1524
349.736,38.0692,77.616,0,5.97797,7.07249,-2.74948,-19.6341,-19.6037,5.97561,-3.69312,0.680186,8.14786,-12.6829,321.555,-21.4024
349.746,38.1799,77.0322,0,5.99234,6.8785,-2.76625,-18.75,-20.2134,5.09146,-3.81766,0.66342,7.99937,-17.0427,326.189,-22.1341
349.756,38.2927,76.418,0,5.8199,6.62223,-2.75188,-18.1098,-21.0061,4.96951,-3.9446,0.677791,7.79818,-19.8171,332.378,-21.7073
349.766,38.3616,75.7936,0,5.58998,6.81144,-2.77343,-18.75,-22.5,4.7561,-4.07153,0.64426,7.76465,-22.1951,338.933,-22.5915
349.776,38.4614,75.1614,0,5.87259,6.70845,-2.85247,-19.5732,-20.9451,4.08537,-4.21763,0.593965,7.77902,-26.25,344.573,-23.0488
349.786,38.5832,74.4761,0,6.08814,6.64139,-2.81415,-19.4817,-14.9695,3.20122,-4.37091,0.55325,7.44851,-26.0976,351.372,-23.9634
349.796,38.6677,73.7801,0,5.89893,6.79228,-2.47406,-20.4573,-15.9146,2.77439,-4.50982,0.56283,7.41019,-27.8049,358.841,-24.9695
349.806,38.792,73.0659,0,6.00431,6.5863,-2.63692,-19.939,-13.3232,2.10366,-4.74932,0.541274,7.45809,-32.4695,356.951,-23.9939
349.816,39.0043,72.3476,0,6.08814,6.62223,-2.66326,-19.3598,-9.90854,0.579268,-4.95769,0.548459,7.54431,-36.6159,355.61,-25.0305
349.826,38.969,71.6171,0,5.79595,7.36469,-2.50759,-18.689,-7.7439,0.426829,-5.18522,0.519719,7.58263,-37.9878,350.396,-25.2439
349.836,38.874,70.8039,0,5.69775,7.79579,-2.5004,-19.1159,-6.15854,-1.28049,-5.3864,0.541274,7.10842,-35.3963,356.89,-24.939
349.846,38.7572,69.9941,0,5.63069,8.09517,-2.50519,-18.3232,-4.02439,-3.17073,-5.58758,0.526904,7.19224,-35.7622,363.902,-23.3537
349.856,38.6048,69.19,0,5.68578,8.30832,-2.4525,-18.9634,-3.41463,-6.61585,-5.78637,0.467029,7.26649,-34.3293,359.939,-21.9817
349.866,38.403,68.3896,0,5.36245,8.08559,-2.39981,-20.2439,-4.57317,-10.2744,-5.94683,0.402363,7.27607,-34.2073,356.311,-21.128
349.876,38.1918,67.5777,0,5.44627,8.09756,-2.50519,-19.8476,-5.12195,-12.4085,-6.15999,0.342488,7.24493,-32.1037,351.341,-20.0915
349.886,37.9881,66.75,0,5.56363,7.82453,-2.56507,-18.1098,-4.17683,-15.122,-6.251,0.306563,7.04375,-30.0305,350.823,-20.9451
349.896,37.7645,65.9209,0,5.61393,8.09517,-2.4501,-17.7744,-3.81098,-16.189,-6.30369,0.296982,6.89047,-25.3354,350.366,-19.1463
349.906,37.5199,65.1416,0,5.54926,8.4616,-2.39502,-17.378,-2.0122,-15.7622,-6.43302,0.330513,7.13237,-26.4024,345.244,-19.3293
349.916,37.2519,64.3673,0,5.37442,8.33467,-2.07648,-17.7439,-3.35366,-17.7439,-6.48571,0.330513,7.01741,-29.4512,336.463,-18.5061
349.926,36.9673,63.5823,0,5.35047,8.43526,-2.15312,-17.2256,-0.97561,-19.1159,-6.49529,0.335303,6.77551,-31.5854,336.524,-19.1463
349.936,36.6314,62.8245,0,4.84991,8.6053,-2.18186,-17.1341,-4.69512,-18.8415,-6.49769,0.356858,6.75395,-31.6159,336.189,-19.7561
349.946,36.2966,62.0383,0,4.86189,8.57417,-2.2106,-17.9878,-8.38415,-19.7256,-6.49769,0.301772,6.42105,-31.372,341.037,-18.3841
349.956,35.9778,61.2433,0,5.0511,8.49274,-2.04774,-19.5122,-8.56707,-21.189,-6.64857,0.273032,6.34441,-29.2988,342.988,-18.4146
349.966,35.6637,60.4574,0,5.099,8.29395,-1.95673,-19.1768,-7.68293,-23.0793,-6.75875,0.227527,6.31806,-26.9207,337.561,-17.378
349.976,35.3548,59.6813,0,5.24749,8.10235,-2.10043,-19.1463,-6.34146,-25.9451,-6.94316,0.201182,6.35878,-26.4939,328.78,-15.5488
349.986,35.0238,58.8865,0,5.07505,8.07601,-2.10283,-19.4512,-5.91463,-27.2256,-6.98867,0.110171,6.12167,-24.7866,324.512,-15.9146
349.996,34.6733,58.1179,0,4.91937,8.16223,-2.17947,-19.7561,-2.13415,-27.7134,-7.03896,0.155676,6.13604,-22.3171,323.323,-14.1463
350.006,34.3235,57.3438,0,4.84033,8.05445,-2.27048,-18.9634,-1.55488,-28.2012,-7.1635,0.117356,6.04024,-19.4512,317.012,-13.2317
350.016,33.9627,56.6226,0,4.6655,7.94188,-2.33514,-17.9878,-3.29268,-28.872,-7.19224,0.162861,6.18155,-19.3902,312.226,-13.6585
350.026,33.5942,55.9051,0,4.58886,8.03529,-2.27048,-16.8293,-4.17683,-28.9634,-7.35032,0.191602,6.16957,-19.0549,304.329,-12.5
350.036,33.2033,55.1681,0,4.45474,8.25324,-2.08367,-16.311,-4.29878,-29.2073,-7.45809,0.270637,5.99473,-20.8232,302.53,-13.3232
350.046,32.7969,54.4206,0,4.42839,8.51908,-2.07409,-16.7988,-7.10366,-29.7561,-7.61856,0.364043,5.90612,-22.0732,301.311,-14.9085
350.056,32.3749,53.6762,0,4.34457,8.62926,-1.97589,-16.8293,-8.9939,-30.6707,-7.78381,0.407153,5.88696,-23.689,298.415,-15
350.066,31.952,52.9138,0,4.48587,8.78493,-2.08606,-16.311,-8.44512,-32.2866,-7.94667,0.445474,5.74805,-24.939,294.299,-15.1829
350.076,31.5196,52.1338,0,4.45474,8.74661,-2.00463,-16.5244,-7.40854,-33.9939,-8.04487,0.392783,5.55884,-26.7683,288.506,-16.6463
350.086,31.0787,51.3582,0,4.31343,8.85678,-1.99505,-16.311,-6.31098,-33.6585,-8.10235,0.304167,5.45585,-28.7195,284.055,-18.628
350.096,30.6504,50.6138,0,4.28709,8.58854,-1.91362,-16.4939,-7.68293,-34.4207,-8.0329,0.263452,5.40556,-31.311,278.384,-19.0549
350.106,30.2127,49.8921,0,4.16973,8.59812,-2.019,-16.128,-9.32927,-34.9085,-7.97542,0.213157,5.32892,-33.5061,274.573,-19.6646
350.116,29.7934,49.1698,0,4.31343,8.6101,-2.04295,-16.9817,-12.8049,-35.4268,-7.88201,0.124541,5.12295,-37.2866,277.165,-21.372
350.126,29.3913,48.4166,0,4.41642,8.6053,-2.02619,-18.1098,-12.7439,-35.6707,-7.89398,0.0359253,4.84512,-36.5854,280.854,-20.8537
350.136,29.004,47.6545,0,4.47869,8.50471,-1.69088,-18.3232,-10.5488,-36.2195,-8.01613,0.00958008,4.73495,-34.7256,282.165,-21.9207
350.146,28.6302,46.8789,0,4.49545,8.43286,-1.50647,-18.2317,-7.56098,-36.2195,-8.14786,0.0119751,4.59844,-28.9939,277.195,-21.0671
350.156,28.2608,46.1101,0,4.4236,8.3682,-1.62143,-18.2317,-4.5122,-36.128,-8.27,0.105381,4.54814,-21.7073,271.524,-20.7012
350.166,27.8945,45.353,0,4.33738,8.38017,-1.76513,-17.3476,-5.73171,-35.5488,-8.35383,0.107776,4.49785,-16.8902,264.207,-19.1463
350.176,27.5172,44.5778,0,4.15775,8.34664,-1.82021,-16.4329,-7.22561,-35.6098,-8.40412,0.107776,4.29667,-17.378,262.744,-18.5671
350.186,27.1009,43.8901,0,3.71947,8.38975,-2.01182,-15.3963,-5.7622,-35.122,-8.39454,0.182021,4.55772,-16.9817,260.061,-17.2561
350.196,26.6908,43.1711,0,3.67635,8.53106,-1.84896,-15.5183,-6.64634,-34.1159,-8.28677,0.179626,4.22481,-15.6402,258.902,-16.4939
350.206,26.2965,42.452,0,3.68594,8.63644,-1.63819,-15.7317,-9.26829,-32.9268,-8.28437,0.182021,4.09548,-15.5183,261.585,-16.0366
350.216,25.9074,41.7151,0,3.59732,8.72506,-1.6334,-18.689,-13.8415,-31.7683,-8.31072,0.215552,3.90628,-15.3963,268.933,-15.7622
350.226,25.5849,40.9962,0,4.08111,8.56219,-1.60227,-16.7683,-11.7073,-32.0427,-8.38257,0.189207,3.89191,-14.9695,271.25,-16.1585
350.236,25.2479,40.3163,0,4.04279,8.7514,-1.56874,-16.9817,-11.8902,-32.7744,-8.51669,0.165256,3.99968,-16.0976,268.811,-17.561
350.246,24.9043,39.6232,0,4.06435,8.87594,-1.54,-15.7317,-11.7683,-33.75,-8.64123,0.186812,3.87035,-18.7195,265.274,-17.2561
350.256,24.5365,38.8945,0,4.00926,9.00048,-1.59029,-16.25,-9.93902,-35.7012,-8.7035,0.201182,3.61408,-17.9878,268.232,-17.5305
350.266,24.1492,38.1395,0,3.9446,9.24957,-1.49449,-17.7134,-8.10976,-36.5854,-8.8017,0.217947,3.41051,-17.7439,273.323,-16.0976
350.276,23.7678,37.3653,0,3.92783,9.1849,-1.42504,-18.7195,-6.64634,-36.8902,-8.93103,0.201182,3.24286,-14.6341,276.402,-13.872
350.286,23.3842,36.6266,0,3.71947,9.01246,-1.38193,-18.6585,-3.9939,-36.4024,-9.08431,0.158071,3.3171,-11.4329,272.226,-13.9024
350.296,22.9903,35.8878,0,3.42967,8.76817,-1.40109,-17.2256,-3.5061,-36.0671,-9.11784,0.131726,3.19017,-5.39634,265.64,-13.2927
350.306,22.6098,35.1754,0,3.36261,8.7538,-1.5855,-16.2805,-3.78049,-34.7866,-9.12023,0.0622705,3.1734,-5.15244,259.817,-12.5
350.316,22.2231,34.4416,0,3.33387,9.09149,-1.86333,-17.439,-2.92683,-34.4207,-9.00767,0.0239502,2.91713,-4.93902,262.561,-14.8171
350.326,21.8671,33.7198,0,3.34345,8.98611,-1.63101,-18.3232,-4.81707,-32.622,-8.92384,-0.0239502,2.82133,-7.5,268.994,-16.6463
350.336,21.5254,32.9913,0,3.34584,9.10107,-1.64059,-17.9268,-6.64634,-31.4329,-8.88073,-0.0215552,2.66087,-7.22561,273.994,-19.4207
350.346,21.1779,32.2913,0,3.22849,9.137,-1.59029,-16.9817,-8.41463,-31.25,-8.90468,0.0167651,2.66566,-6.58537,272.744,-18.7195
350.356,20.8892,31.6396,0,3.48475,8.71069,-1.3484,-16.8902,-8.53659,-30.7317,-8.9909,0.186812,2.77583,-7.0122,267.134,-17.7439
350.366,20.6065,30.9471,0,3.43925,8.66518,-1.04662,-16.7988,-9.11585,-30.3963,-9.01485,0.256267,2.49322,-11.0061,264.421,-13.1707
350.376,20.3412,30.2643,0,3.51589,8.64602,-1.14242,-17.4085,-6.37195,-30.1829,-9.01246,0.299377,2.41657,-13.4146,263.75,-10.0305
350.386,20.0547,29.5813,0,3.26681,8.6101,-1.14482,-13.3232,-4.60366,-30.122,-9.07712,0.253872,2.31598,-17.1646,262.012,-7.68293
350.396,19.7776,28.9092,0,3.40332,8.85678,-1.52563,-11.9817,-3.47561,-30.2439,-9.16334,0.201182,2.26569,-19.2683,258.415,-6.98171
350.406,19.5012,28.2827,0,3.35782,9.15137,-1.69807,-11.7988,-1.85976,-28.9634,-9.22322,0.193997,2.35909,-22.0427,254.39,-6.76829
350.416,19.2561,27.6559,0,3.4632,9.12023,-1.49689,-12.6829,-0.0304878,-27.6524,-9.30705,0.150886,2.26808,-24.1463,250.823,-6.28049
350.426,18.9993,27.0202,0,3.26441,9.02204,-1.15679,-12.7134,3.53659,-27.5,-9.32142,0.215552,2.12438,-28.1707,249.482,-3.38415
350.436,18.7177,26.3735,0,2.89558,9.05078,-0.967588,-11.7378,3.75,-26.1585,-9.46272,0.189207,1.99745,-28.872,248.567,-2.40854
350.446,18.4376,25.753,0,2.80457,9.06994,-1.02267,-11.6159,3.07927,-25.4573,-9.58008,0.174836,2.0214,-34.1463,244.634,-2.04268
350.456,18.1857,25.1225,0,2.88121,9.07473,-1.26218,-9.60366,3.14024,-24.0244,-9.62079,0.174836,1.8753,-38.6585,242.226,-3.81098
350.466,17.9116,24.4913,0,2.73032,9.20406,-1.27415,-8.90244,3.38415,-24.5732,-9.616,0.146096,1.76034,-43.872,240.335,-5.18293
350.476,17.6296,23.8765,0,2.71595,9.40524,-1.33882,-9.45122,5,-25.0915,-9.68785,0.253872,1.7316,-49.4817,235.884,-3.04878
350.486,17.3507,23.2923,0,2.70158,9.2328,-0.907712,-9.78659,1.25,-25.7622,-9.69264,0.330513,1.75555,-54.7561,230.945,-0.670732
350.496,17.1027,22.6915,0,2.83091,9.36932,-0.924478,-9.63415,0.762195,-24.2073,-9.76449,0.246687,1.5879,-58.3232,225.518,0.152439
350.506,16.8784,22.0989,0,2.95306,9.28549,-1.16158,-9.05488,6.52439,-23.9939,-9.79323,0.201182,1.52084,-63.1098,222.134,1.4939
350.516,16.6298,21.5389,0,2.692,9.12981,-0.953218,-8.2622,11.5854,-24.4512,-9.83874,0.170046,1.56155,-65.9451,214.36,3.10976
350.526,16.4257,20.9567,0,3.15424,8.82086,-0.965193,-6.09756,19.8171,-27.0427,-9.77647,0.217947,1.35079,-66.2195,208.171,5.45732
350.536,16.1642,20.3919,0,2.62494,8.83762,-0.881367,-2.56098,21.5244,-26.9207,-9.80042,0.241897,1.32445,-67.9268,202.5,7.89634
350.546,15.9217,19.8032,0,2.65608,8.83283,-0.670605,-0.182927,19.8476,-25.9146,-9.77647,0.213157,1.11368,-65.5488,196.677,9.29878
350.556,15.6736,19.2119,0,2.52914,8.92145,-0.646655,0.579268,18.689,-25.122,-9.79803,0.0814307,0.996328,-64.2378,188.933,10.2744
350.566,15.4231,18.6309,0,2.28245,9.20885,-0.919688,0.640244,22.2866,-21.9817,-9.86988,0.00479004,0.941243,-63.4451,183.445,8.44512
350.576,15.2102,18.0926,0,2.31119,9.29268,-0.958008,1.98171,23.0183,-18.75,-9.96568,-0.134121,1.02986,-60.4268,173.994,5.4878
350.586,15.0113,17.5567,0,2.18665,9.47949,-0.764011,1.0061,19.5732,-15.7622,-10.0687,-0.153281,0.948428,-54.3293,165.945,0.701219
350.596,14.8105,17.0169,0,1.98547,9.58247,-0.802332,-1.03659,17.1951,-13.75,-10.1261,-0.179626,0.835862,-48.9329,160.213,-2.56098
350.606,14.5976,16.4462,0,1.78668,9.58247,-0.895737,-1.25,16.0976,-13.0488,-10.1812,-0.131726,0.60115,-45.9756,156.494,-4.35976
350.616,14.3994,15.8396,0,1.79387,9.61121,-0.814307,-0.121951,13.9329,-12.0122,-10.1669,-0.0215552,0.337698,-45.3963,156.494,-3.75
350.626,14.1898,15.2831,0,1.71004,9.58008,-0.589175,0.762195,8.81098,-12.6524,-10.2004,-0.0742456,0.452659,-46.2195,152.165,-3.84146
350.636,13.9647,14.7654,0,1.54479,9.59205,-0.65863,-0.304878,5.4878,-12.6829,-10.2483,-0.0574805,0.522114,-44.6646,142.927,-1.58537
350.646,13.7807,14.2586,0,1.84896,9.76449,-0.931663,0.243902,5.79268,-12.1646,-10.2603,-0.0598755,0.471819,-43.5671,134.543,0.853659
350.656,13.6119,13.7729,0,1.9232,9.64953,-1.04662,-0.853659,5.82317,-12.1037,-10.2698,-0.0119751,0.471819,-42.8963,128.567,2.19512
350.666,13.4646,13.2843,0,2.00463,9.47949,-0.972378,-1.06707,5.70122,-11.6159,-10.2531,-0.0311353,0.368833,-44.0549,126.402,4.66463
350.676,13.3304,12.7972,0,2.05972,9.31902,-0.656235,0.731707,5.09146,-11.6463,-10.2076,-0.0886157,0.285007,-42.6829,124.482,4.5122
350.686,13.1985,12.3153,0,2.13157,9.48667,-0.859812,-0.396341,6.0061,-12.1037,-10.1309,-0.0694556,0.217947,-44.2988,122.348,3.56707
350.696,13.0557,11.8162,0,2.00942,9.4747,-1.25499,-0.365854,10.8537,-12.0732,-10.1237,-0.0550855,0.0526904,-42.8049,118.11,2.56098
350.706,12.9313,11.3074,0,2.08606,9.45554,-1.17356,1.0061,9.5122,-11.4329,-10.1214,-0.0814307,-0.0790356,-42.2561,118.354,1.09756
350.716,12.8001,10.8165,0,1.96871,9.63037,-1.43701,1.03659,6.58537,-10.5793,-10.1405,-0.105381,-0.0934058,-41.6463,113.293,1.0061
350.726,12.6763,10.3531,0,1.98787,9.73575,-1.34121,0.0914634,4.93902,-10.061,-10.2243,-0.153281,-0.0646655,-37.2256,105.64,0.487805
350.736,12.5437,9.90112,0,1.88728,9.79803,-0.965193,-2.07317,2.04268,-9.90854,-10.2435,-0.292192,-0.102986,-34.4817,98.0183,0.579268
350.746,12.3722,9.43694,0,1.60945,9.8579,-0.929268,-7.31707,2.92683,-10.8232,-10.1669,-0.416733,-0.239502,-33.4756,95.1524,-2.07317
350.756,12.2204,8.95685,0,1.6813,9.69025,-0.912502,-7.9878,1.92073,-10.3354,-9.91299,-0.275427,-0.380808,-36.1585,98.3232,-2.89634
350.766,12.0876,8.48325,0,1.83458,9.43398,-0.864602,-7.13415,-0.731707,-11.0671,-9.80042,-0.196392,-0.426313,-39.8476,103.476,-1.7378
350.776,11.9531,7.98839,0,1.99505,9.52499,-0.711321,-6.82927,-2.19512,-13.2012,-9.77647,-0.112566,-0.598755,-41.128,102.713,0.670732
350.786,11.786,7.52369,0,1.89446,9.59205,-0.665815,-6.46341,-3.07927,-15.4573,-9.84114,-0.0958008,-0.560435,-40.7622,98.4146,2.92683
350.796,11.6365,7.11665,0,2.13636,9.54176,-0.929268,-5.60976,-1.43293,-16.9512,-10.0016,-0.110171,-0.402363,-42.8354,91.189,3.44512
350.806,11.495,6.7509,0,2.24892,9.49386,-0.965193,-4.60366,-1.12805,-17.8963,-10.0615,-0.0981958,-0.296982,-43.3537,86.6463,2.19512
350.816,11.381,6.40543,0,2.5507,9.28549,-0.986748,-2.19512,2.07317,-19.5122,-10.1118,-0.100591,-0.277822,-42.7744,80.6402,1.92073
350.826,11.2856,5.98006,0,2.72553,9.50104,-1.05141,-0.701219,7.56098,-19.1768,-10.0902,-0.158071,-0.692161,-45.7927,83.2622,0.0609756
350.837,11.2004,5.50808,0,2.72793,9.2831,-1.21667,1.82927,14.5427,-19.0854,-10.0327,-0.268242,-0.965193,-44.7256,89.6037,-2.37805
350.846,11.0784,5.07151,0,2.3543,9.24238,-1.35558,2.80488,19.9695,-18.75,-10.0375,-0.342488,-0.888552,-41.0061,92.4695,-4.72561
350.856,10.9718,4.68744,0,2.3543,9.33339,-1.43222,3.17073,23.2012,-17.1646,-10.0447,-0.301772,-0.732876,-37.1341,91.7378,-5.7622
350.866,10.8777,4.36196,0,2.26329,9.3765,-1.38432,1.82927,23.4756,-14.9085,-10.0519,-0.256267,-0.541274,-34.1159,90.8232,-6.06707
350.876,10.7995,4.03611,0,2.20102,9.34297,-1.2526,1.79878,23.4756,-12.8354,-9.98723,-0.217947,-0.598755,-32.1037,88.0488,-4.87805
350.886,10.7004,3.72075,0,1.99745,9.49146,-0.356858,-1.52439,22.5305,-12.3171,-9.87467,-0.148491,-0.603545,-30.7927,86.8293,-5.06098
350.896,10.5568,3.40434,0,1.66693,9.55373,-0.263452,-2.68293,22.3476,-13.0183,-9.79323,-0.0574805,-0.661025,-31.0976,82.439,-4.48171
350.906,10.3908,3.11146,0,1.49689,9.70462,-0.447869,-3.62805,21.8598,-13.2927,-9.73815,0.0407153,-0.613125,-32.2256,78.5671,-2.9878
350.916,10.2263,2.82915,0,1.53281,9.65193,-0.560435,-1.92073,19.2683,-13.9939,-9.79803,0.148491,-0.6251,-35.3659,74.1768,-3.2622
350.926,10.0557,2.53571,0,1.48491,9.59924,-0.656235,-0.0914634,15.8537,-14.4817,-9.9058,0.193997,-0.735271,-40.1524,67.8659,-2.28659
350.936,9.89837,2.22903,0,1.62622,9.5705,-0.56283,0.182927,13.5976,-15.2134,-10.0567,0.201182,-0.859812,-42.378,65.061,-2.59146
350.946,9.74321,1.90896,0,1.63819,9.53936,-0.673001,0.518293,11.7988,-15.5183,-10.1884,0.229922,-0.989143,-44.878,62.3171,-3.14024
350.956,9.594,1.6254,0,1.64777,9.58726,-0.816702,1.76829,11.8902,-15.2439,-10.2627,0.239502,-0.893342,-47.0122,55.8841,-2.07317
350.966,9.45828,1.35879,0,1.73399,9.54894,-1.02028,2.68293,12.9573,-15.2744,-10.3441,0.148491,-0.881367,-50.0915,47.8963,0.304878
350.976,9.34396,1.08322,0,1.8274,9.55852,-1.16398,4.69512,14.8476,-14.4512,-10.3728,0.0718506,-0.977168,-51.6159,44.1159,0.487805
350.986,9.25626,0.80952,0,1.79387,9.52499,-1.22146,8.41463,16.7683,-11.6463,-10.3225,-0.0335303,-1.01549,-52.4085,42.439,1.98171
350.996,9.17713,0.535907,0,1.67651,9.56092,-1.19751,9.69512,19.5122,-9.48171,-10.2052,-0.0981958,-1.05381,-50.3049,41.2805,1.70732
351.006,9.10107,0.268341,0,1.52323,9.64474,-0.890947,8.35366,21.25,-7.34756,-10.016,-0.258662,-1.0586,-44.7866,37.8963,2.34756
351.016,9.03192,0.0146993,0,1.44899,9.66151,-0.692161,5.85366,23.3537,-5.88415,-10.0279,-0.263452,-1.04902,-38.3841,33.2927,2.28659
351.026,8.97145,-0.268195,0,1.42264,9.77886,0.0239502,2.0122,22.1951,-4.60366,-9.98484,-0.368833,-1.22146,-35.7622,31.25,4.26829
351.036,8.89269,-0.541638,0,1.31966,9.94891,0.917292,-3.04878,16.7988,-5.12195,-10.0064,-0.364043,-1.23344,-31.7378,29.5427,2.68293
351.046,8.78798,-0.772029,0,1.02028,9.82677,0.263452,-0.884146,16.2195,-4.5122,-9.98963,-0.256267,-1.08973,-29.3293,27.0732,2.83537
351.056,8.73119,-0.993356,0,1.28613,10.1573,-1.12566,3.07927,12.1646,-0.762195,-9.99202,-0.110171,-1.09213,-29.6951,24.939,4.29878
351.066,8.73898,-1.20724,0,1.54718,10.0591,-1.64298,2.34756,6.95122,0.762195,-10.0279,-0.0958008,-1.1041,-28.1098,22.5,3.71951
351.076,8.70574,-1.42327,0,1.3939,9.8579,-1.11847,0.182927,2.10366,-1.46341,-10.0711,-0.170046,-1.15919,-27.5305,19.5427,5.42683
351.086,8.62723,-1.64628,0,1.14961,9.62319,-0.665815,1.12805,-1.58537,-3.9939,-9.98005,-0.170046,-1.22146,-22.6524,15.5488,7.0122
351.096,8.54617,-1.85596,0,1.152,9.40524,-0.852627,3.75,-0.335366,-4.84756,-9.94891,-0.198787,-1.1999,-20.8537,12.9878,7.59146
351.106,8.4822,-2.0561,0,1.23823,9.34776,-1.04183,4.96951,2.71341,-4.42073,-10.004,-0.337698,-1.2023,-20.3963,11.4634,7.22561
351.116,8.4158,-2.24093,0,1.17835,9.4723,-0.981958,4.63415,2.5,-3.78049,-9.99921,-0.337698,-1.16877,-20.4878,11.4634,3.29268
351.126,8.35048,-2.45575,0,1.17356,9.64953,-0.929268,3.71951,0.0914634,-3.44512,-9.98484,-0.275427,-1.33403,-20.4878,11.2195,1.25
351.136,8.29647,-2.68043,0,1.2526,9.83874,-0.953218,2.65244,-1.46341,-3.10976,-9.98005,-0.215552,-1.41546,-19.5122,11.5244,-1.67683
351.146,8.28203,-2.89133,0,1.52084,9.82916,-0.953218,1.28049,-0.701219,-2.62195,-10.0208,-0.148491,-1.40109,-16.4024,9.32927,-1.0061
351.156,8.27859,-3.09377,0,1.57353,9.76928,-0.969983,-0.853659,1.03659,-2.40854,-10.0184,-0.150886,-1.40109,-13.9634,8.04878,-0.27439
351.166,8.27615,-3.29516,0,1.59508,9.73815,-0.869392,-2.40854,2.43902,-2.62195,-9.96568,-0.146096,-1.42504,-13.2012,7.34756,0.609756
351.176,8.2549,-3.50152,0,1.51126,9.72378,-0.682581,-2.77439,2.2561,-3.38415,-9.92496,-0.153281,-1.47533,-12.8963,10.3049,1.18902
351.186,8.21707,-3.69552,0,1.43701,9.70941,-0.665815,-1.89024,2.89634,-4.20732,-9.93933,-0.170046,-1.45857,-12.7134,10.5183,2.0122
351.196,8.1727,-3.8784,0,1.42983,9.71659,-0.701741,-1.15854,3.65854,-4.84756,-9.96328,-0.117356,-1.44659,-13.0488,10.5793,2.37805
351.206,8.11472,-4.05465,0,1.40348,9.73815,-0.759221,0.609756,4.87805,-5.97561,-9.96328,-0.0910107,-1.45138,-13.628,7.46951,3.04878
351.216,8.05154,-4.22129,0,1.40588,9.7597,-0.747246,0.121951,3.56707,-6.61585,-9.88425,-0.134121,-1.42743,-15.4573,8.93293,3.29268
351.226,8.00054,-4.37465,0,1.57353,9.70941,-0.835862,0.0304878,3.17073,-7.56098,-9.89383,-0.136516,-1.39869,-15.3963,9.48171,3.53659
351.236,7.95207,-4.52851,0,1.58071,9.67348,-0.888552,0.487805,2.56098,-7.56098,-9.86269,-0.208367,-1.42264,-15.3659,10.4878,4.02439
351.246,7.90811,-4.6801,0,1.64777,9.67348,-0.938848,1.03659,2.07317,-7.9878,-9.89862,-0.249082,-1.4442,-16.128,11.25,3.38415
351.256,7.86338,-4.79972,0,1.62861,9.64474,-0.965193,1.37195,0.609756,-7.9878,-9.89383,-0.289797,-1.32924,-14.8476,9.81707,2.34756
351.266,7.81522,-4.91746,0,1.57113,9.68067,-0.948428,0.792683,-0.152439,-7.68293,-9.84114,-0.332908,-1.33642,-14.3902,7.31707,3.23171
351.276,7.76959,-5.01626,0,1.58071,9.63995,-0.902922,0.518293,-0.457317,-7.71341,-9.77407,-0.268242,-1.26457,-13.6585,6.18902,4.08537
351.286,7.73014,-5.09689,0,1.54,9.65193,-0.862207,-0.0609756,-0.457317,-6.67683,-9.75731,-0.237107,-1.19511,-12.378,4.39024,5.39634
351.296,7.69944,-5.20692,0,1.54,9.63037,-0.811912,-0.304878,-0.152439,-5.91463,-9.75252,-0.241897,-1.30289,-12.6524,2.95732,6.31098
351.306,7.67513,-5.32784,0,1.51844,9.62798,-0.900527,-0.182927,-0.487805,-5.09146,-9.85311,-0.241897,-1.40588,-12.1341,3.71951,6.95122
351.316,7.66831,-5.45181,0,1.56395,9.62319,-0.900527,0,-0.97561,-3.9939,-9.91059,-0.249082,-1.45857,-10.3963,4.32927,6.31098
351.326,7.67517,-5.59899,0,1.59269,9.63995,-0.998723,-0.27439,-1.40244,-3.10976,-9.92975,-0.225132,-1.41306,-10.3049,1.37195,5.45732
351.336,7.68632,-5.79287,0,1.59269,9.64235,-1.01309,-0.365854,-1.31098,-2.77439,-9.98005,-0.222737,-1.42983,-8.93293,0.487805,5.88415
351.346,7.69906,-5.91401,0,1.5855,9.67109,-0.972378,-0.304878,-1.21951,-2.53049,-9.98484,-0.210762,-1.43462,-9.02439,1.67683,5.79268
351.356,7.71032,-6.02141,0,1.59748,9.64235,-0.950823,-0.243902,-1.03659,-2.77439,-9.93454,-0.186812,-1.42983,-9.63415,2.13415,5.4878
351.366,7.71035,-6.21818,0,1.54718,9.71659,-0.878972,-0.335366,-0.701219,-2.9878,-9.84353,-0.208367,-1.42264,-9.72561,0.304878,5.88415
351.376,7.69835,-6.34114,0,1.52802,9.72857,-0.876577,-0.152439,-0.731707,-3.81098,-9.84353,-0.244292,-1.38193,-8.90244,-0.823171,6.70732
351.386,7.6675,-6.43222,0,1.41306,9.73096,-0.840652,0.121951,-1.03659,-4.32927,-9.81958,-0.282612,-1.38672,-9.05488,-1.58537,7.2561
351.396,7.62843,-6.49398,0,1.3484,9.73096,-0.811912,0.396341,-1.58537,-4.45122,-9.83874,-0.265847,-1.36756,-6.4939,-3.29268,6.98171
351.406,7.58864,-6.57499,0,1.34121,9.77168,-0.852627,0.426829,-1.67683,-4.45122,-9.8555,-0.282612,-1.46336,-5.67073,-3.38415,6.98171
351.416,7.55513,-6.63194,0,1.36037,9.70701,-0.907712,0.182927,-2.10366,-4.2378,-9.88664,-0.265847,-1.38672,-3.29268,-3.87195,5.94512
351.426,7.53037,-6.6767,0,1.41306,9.7118,-0.962798,0.243902,-2.0122,-4.05488,-9.9082,-0.222737,-1.346,-4.39024,-3.68902,6.34146
351.436,7.50751,-6.73349,0,1.42264,9.62798,-0.989143,0.0609756,-1.85976,-4.17683,-9.88904,-0.205972,-1.36756,-4.45122,-2.07317,6.25
351.446,7.49487,-6.76324,0,1.45378,9.55373,-1.04902,0.365854,-1.7378,-3.75,-9.92736,-0.162861,-1.2981,-5.06098,-3.10976,6.12805
351.456,7.48325,-6.81068,0,1.44659,9.55613,-1.06818,0.121951,-1.31098,-3.59756,-9.92975,-0.124541,-1.38672,-5.18293,-4.08537,6.03659
351.466,7.46984,-6.85781,0,1.42504,9.57529,-0.986748,-0.0609756,-1.58537,-3.5061,-9.94652,-0.110171,-1.39869,-7.04268,-4.57317,4.60366
351.476,7.45853,-6.889,0,1.43941,9.62558,-0.953218,-0.487805,-1.98171,-3.41463,-9.92736,-0.119751,-1.33882,-6.31098,-7.28659,4.54268
351.486,7.43543,-6.92944,0,1.37235,9.74054,-0.914897,-1.12805,-2.19512,-3.56707,-9.92975,-0.143701,-1.38672,-8.59756,-8.17073,5.03049
351.496,7.41128,-6.97296,0,1.38193,9.76689,-0.859812,-1.25,-2.43902,-3.78049,-9.91778,-0.165256,-1.40588,-9.26829,-8.10976,3.07927
351.506,7.38541,-7.0219,0,1.38672,9.78366,-0.850232,-1.4939,-2.95732,-4.02439,-9.9537,-0.217947,-1.4442,-8.14024,-9.45122,2.65244
351.516,7.36163,-7.06201,0,1.41546,9.74533,-0.881367,-1.55488,-3.07927,-4.26829,-9.98723,-0.213157,-1.41785,-8.68902,-9.20732,2.89634
351.526,7.33653,-7.09358,0,1.42264,9.71899,-0.871787,-1.58537,-2.62195,-4.57317,-9.92496,-0.217947,-1.37953,-8.93293,-10.8841,2.5
351.536,7.30764,-7.11942,0,1.3963,9.6639,-0.886157,-1.40244,-2.28659,-4.78659,-9.91538,-0.186812,-1.35798,-9.93902,-10.5793,3.59756
351.546,7.28638,-7.13542,0,1.4442,9.69025,-0.876577,-1.21951,-2.31707,-4.60366,-9.93215,-0.160466,-1.32205,-10.3354,-11.8598,4.11585
351.556,7.26823,-7.15491,0,1.4442,9.64714,-0.890947,-0.792683,-1.7378,-4.42073,-9.9058,-0.112566,-1.33642,-11.8598,-11.2805,5.51829
351.566,7.25967,-7.16998,0,1.51126,9.6663,-0.936453,-0.365854,-1.15854,-4.26829,-9.94891,-0.0646655,-1.32684,-12.439,-12.3476,5.21341
351.576,7.24985,-7.18585,0,1.49449,9.67109,-0.893342,-0.0304878,-0.884146,-4.20732,-9.97526,-0.102986,-1.33642,-14.7561,-12.0732,4.78659
351.586,7.25153,-7.17528,0,1.54239,9.6639,-0.914897,0,0.243902,-3.71951,-9.96089,-0.0958008,-1.22146,-14.878,-14.6037,4.63415
351.596,7.25485,-7.17218,0,1.53281,9.68306,-0.821492,0.121951,0.426829,-3.44512,-9.91538,-0.0790356,-1.24781,-15.2134,-15.3049,4.48171
351.606,7.26179,-7.16137,0,1.54958,9.65911,-0.850232,-0.213415,0.762195,-3.35366,-9.84353,-0.102986,-1.20469,-15.9146,-15.7622,5.36585
351.616,7.26263,-7.15583,0,1.52084,9.6184,-0.869392,-0.548781,1.15854,-3.62805,-9.88904,-0.0694556,-1.23344,-17.5305,-17.8354,4.45122
351.626,7.25973,-7.14049,0,1.49449,9.60882,-0.862207,-0.609756,1.58537,-3.68902,-9.87227,-0.0981958,-1.18793,-18.8415,-18.7805,4.7561
351.636,7.24569,-7.13828,0,1.42504,9.64474,-0.893342,-0.609756,1.76829,-3.87195,-9.88425,-0.110171,-1.24541,-20.6098,-19.5122,5.06098
351.646,7.22009,-7.14163,0,1.32684,9.67827,-0.843047,-0.27439,1.7378,-3.81098,-9.87706,-0.134121,-1.26936,-22.2866,-20.3049,5.70122
351.656,7.18945,-7.14675,0,1.29571,9.7118,-0.835862,-0.579268,1.61585,-3.93293,-9.88425,-0.184417,-1.27894,-21.5854,-20.5793,4.93902
351.666,7.15496,-7.15266,0,1.28134,9.69264,-0.843047,-0.0609756,1.46341,-4.2378,-9.91299,-0.141306,-1.28613,-22.3171,-19.4512,5.12195
351.676,7.11719,-7.16473,0,1.26218,9.6663,-0.811912,-0.0914634,1.15854,-4.45122,-9.92017,-0.122146,-1.31487,-22.1646,-18.75,4.66463
351.686,7.08039,-7.17702,0,1.25978,9.67348,-0.862207,0.121951,1.28049,-4.39024,-9.97526,-0.141306,-1.32445,-20.6402,-17.7744,4.05488
351.696,7.04676,-7.18687,0,1.29092,9.69743,-0.934058,0.243902,1.12805,-4.48171,-9.93933,-0.131726,-1.31247,-21.1585,-19.4817,3.01829
351.706,7.01945,-7.19832,0,1.34121,9.71659,-0.986748,0.0609756,1.46341,-4.48171,-9.89622,-0.122146,-1.31487,-22.2256,-18.689,2.86585
351.716,6.99635,-7.2093,0,1.38911,9.74294,-0.857417,-0.182927,1.31098,-4.63415,-9.8555,-0.136516,-1.31008,-22.4695,-19.4207,1.85976
351.726,6.97635,-7.23419,0,1.41067,9.71899,-0.907712,-0.243902,1.03659,-4.66463,-9.83156,-0.150886,-1.36995,-22.439,-19.1463,3.10976
351.736,6.95722,-7.24247,0,1.40588,9.7142,-0.804727,-0.365854,0.914634,-4.57317,-9.89143,-0.177231,-1.31008,-20.7622,-20.4878,3.75
351.746,6.93587,-7.26143,0,1.42983,9.66869,-0.740061,-0.335366,0.426829,-5.18293,-9.95849,-0.100591,-1.36756,-19.6341,-19.7866,3.93293
351.756,6.90656,-7.26339,0,1.38432,9.61361,-0.764011,-0.27439,0.884146,-5.57927,-10.0543,-0.0574805,-1.30768,-17.9878,-20.122,5.30488
351.766,6.87295,-7.26324,0,1.34361,9.52978,-0.778381,-0.396341,1.15854,-5.73171,-10.1501,-0.0479004,-1.31247,-17.378,-21.8598,2.53049
351.776,6.83485,-7.24889,0,1.29571,9.62798,-0.792751,-0.548781,1.89024,-5.51829,-10.1956,-0.0335303,-1.25739,-17.3171,-26.189,0.426829
351.786,6.78481,-7.23093,0,1.19272,9.64474,-0.931663,-1.03659,2.0122,-5.54878,-10.0375,-0.162861,-1.22146,-18.2012,-28.872,-2.0122
351.796,6.7353,-7.19524,0,1.14961,9.72138,-0.993933,-1.89024,1.7378,-4.96951,-9.99681,-0.280217,-1.13524,-19.0244,-30.122,-4.7561
351.806,6.68539,-7.19044,0,1.15919,9.79563,-1.07057,-3.2622,1.52439,-5.12195,-10.004,-0.292192,-1.26697,-19.3902,-29.0854,-8.84146
351.816,6.63525,-7.17563,0,1.152,9.71659,-1.02028,-4.17683,1.40244,-5.27439,-10.0735,-0.342488,-1.22864,-20.5183,-27.7439,-10.4268
351.826,6.57444,-7.15614,0,1.0586,9.60882,-0.965193,-5.21341,0.487805,-5.4878,-10.1166,-0.361648,-1.21188,-21.5549,-29.8171,-11.7683
351.836,6.50763,-7.13445,0,1.02746,9.67827,-0.977168,-5.88415,-0.426829,-5.7622,-10.0112,-0.419128,-1.18793,-24.0854,-32.0427,-12.6524
351.846,6.44205,-7.12415,0,1.04183,9.79803,-1.0586,-6.55488,-1.43293,-5.79268,-9.99921,-0.479004,-1.23344,-26.7988,-31.8902,-13.75
351.856,6.39752,-7.13198,0,1.20948,9.80042,-1.22386,-7.28659,-1.70732,-5.7622,-9.87946,-0.512534,-1.29571,-29.2378,-30.3049,-14.6646
351.866,6.36219,-7.13884,0,1.28373,9.7597,-1.26457,-8.04878,-2.34756,-5.85366,-9.76449,-0.469424,-1.27655,-28.689,-28.872,-14.4817
351.876,6.33985,-7.16071,0,1.36516,9.66151,-1.28852,-8.75,-3.68902,-5.73171,-9.68306,-0.440684,-1.33163,-30.9146,-28.1402,-12.9268
351.886,6.32205,-7.18223,0,1.42743,9.46272,-1.20948,-8.90244,-4.63415,-6.40244,-9.7118,-0.524509,-1.33882,-29.4817,-29.2378,-12.6829
351.896,6.31068,-7.19255,0,1.48012,9.4244,-1.13524,-8.23171,-4.66463,-6.4939,-9.82197,-0.56283,-1.31008,-27.1341,-31.25,-10.1829
351.906,6.30303,-7.20961,0,1.54479,9.54655,-1.05141,-7.95732,-3.41463,-6.67683,-9.92257,-0.555645,-1.35798,-25,-34.2683,-11.4024
351.916,6.29883,-7.23121,0,1.51605,9.6639,-1.12805,-7.07317,-2.34756,-5.79268,-9.86748,-0.632285,-1.37235,-23.3537,-32.8659,-10.3963
351.926,6.30162,-7.24323,0,1.54239,9.8076,-1.14961,-6.58537,-0.518293,-5.15244,-9.81719,-0.704136,-1.32445,-22.1037,-30.061,-9.72561
351.936,6.3021,-7.26591,0,1.4442,9.80042,-1.1544,-6.31098,1.0061,-4.29878,-9.6184,-0.795146,-1.34361,-21.0671,-27.5305,-7.7439
351.946,6.30731,-7.2931,0,1.41546,9.72857,-1.16158,-5.88415,1.70732,-3.68902,-9.50104,-0.857417,-1.346,-18.7805,-22.378,-4.20732
351.956,6.31577,-7.33123,0,1.39869,9.64235,-1.10171,-5.64024,2.22561,-3.38415,-9.46272,-0.898132,-1.38911,-18.689,-19.2378,0.823171
351.966,6.31416,-7.3639,0,1.31726,9.70701,-1.07297,-4.96951,2.5,-3.2622,-9.38608,-0.857417,-1.36037,-16.0976,-18.3232,6.58537
351.976,6.31122,-7.40835,0,1.32445,9.69264,-1.12566,-4.05488,3.17073,-3.47561,-9.39327,-0.874182,-1.41546,-14.8171,-16.7683,11.3415
351.986,6.28313,-7.4403,0,1.13763,9.77886,-0.993933,-4.02439,3.01829,-3.56707,-9.48667,-0.934058,-1.38193,-13.1707,-14.6951,16.372
351.996,6.23177,-7.49323,0,0.967588,9.80521,-0.993933,-4.78659,1.46341,-3.87195,-9.57768,-0.883762,-1.4921,-12.0122,-15.7622,18.7805
352.006,6.16403,-7.52687,0,0.878972,9.81,-0.936453,-5.4878,-1.0061,-4.60366,-9.66151,-0.883762,-1.42983,-9.96951,-15.2134,20.0305
352.016,6.0825,-7.57985,0,0.802332,9.81958,-0.934058,-6.40244,-3.32317,-5.2439,-9.77407,-0.843047,-1.5376,-8.87195,-15.2744,19.8171
352.026,6.00102,-7.63437,0,0.866997,9.79323,-1.03704,-7.28659,-5.33537,-6.21951,-9.8124,-0.831072,-1.55676,-6.79878,-11.7683,21.0976
352.036,5.92631,-7.68897,0,0.907712,9.78366,-1.06099,-8.90244,-7.28659,-6.18902,-9.8555,-0.831072,-1.57353,-5.67073,-11.7378,19.2378
352.046,5.86143,-7.73105,0,0.969983,9.84593,-1.1041,-10.3049,-8.93293,-6.0061,-9.9082,-0.886157,-1.53521,-3.53659,-11.3415,20
352.056,5.80676,-7.76869,0,1.01309,9.89383,-1.1544,-11.5244,-10.7317,-5.54878,-9.88185,-0.950823,-1.51844,-1.79878,-10.9451,18.628
352.066,5.77176,-7.81369,0,1.08015,9.87227,-1.18793,-12.0732,-12.3171,-4.48171,-9.78366,-0.934058,-1.54,-1.79878,-8.23171,18.9939
352.076,5.74086,-7.84849,0,1.1065,9.87227,-1.21667,-12.5305,-14.4207,-4.45122,-9.68546,-0.934058,-1.48731,0.121951,-7.77439,20.061
352.086,5.72571,-7.85491,0,1.18314,9.73336,-1.22864,-13.3232,-16.128,-4.05488,-9.69025,-0.946033,-1.36995,-0.914634,-7.34756,22.6829
352.096,5.73629,-7.86998,0,1.32684,9.63277,-1.26697,-13.0488,-16.189,-3.5061,-9.68067,-0.910107,-1.40827,-0.518293,-8.38415,25.6402
352.106,5.7762,-7.87048,0,1.45138,9.60642,-1.24541,-13.1098,-15.9756,-2.62195,-9.68785,-0.924478,-1.3484,-2.9878,-8.32317,27.4085
352.116,5.88341,-7.86118,0,1.62622,9.56571,-1.32445,-12.9878,-14.4207,-1.31098,-9.73575,-0.876577,-1.31247,-5.03049,-8.5061,29.0549
352.126,6.15246,-7.84586,0,1.825,9.54415,-1.26218,-13.0793,-13.5671,-0.152439,-9.74294,-0.833467,-1.28613,-7.10366,-9.17683,28.9634
352.136,6.35132,-7.8325,0,1.9256,9.49625,-1.25978,-12.8354,-12.7744,0.97561,-9.75731,-0.795146,-1.29331,-9.69512,-8.47561,29.7256
352.146,6.51522,-7.81301,0,2.1172,9.5705,-1.27415,-13.1402,-11.0976,2.7439,-9.80281,-0.766406,-1.27176,-12.8659,-10.3963,29.3293
352.156,6.69966,-7.78857,0,2.28724,9.53218,-1.27655,-13.2317,-9.7561,4.17683,-9.84832,-0.732876,-1.2526,-14.0244,-10.6098,28.811
352.166,6.92203,-7.7633,0,2.48364,9.56331,-1.3005,-13.3841,-7.53049,6.61585,-9.89143,-0.708926,-1.2502,-12.8354,-10.7622,28.3537
352.176,7.18141,-7.74589,0,2.5986,9.41961,-1.18314,-13.3841,-5.21341,9.11585,-9.93454,-0.656235,-1.28613,-13.1402,-10.6707,28.1707
352.186,7.49394,-7.71479,0,2.7423,9.38129,-1.15679,-13.2927,-3.65854,13.2927,-9.93454,-0.689766,-1.22146,-14.7256,-9.81707,28.4146
352.196,7.86167,-7.67342,0,2.84049,9.2352,-1.13763,-12.622,-2.71341,17.9268,-9.95131,-0.62031,-1.17356,-16.5854,-11.25,31.2195
352.206,8.29119,-7.60839,0,2.86923,9.01485,-1.0562,-11.7073,-2.2561,23.8415,-9.94412,-0.665815,-1.06339,-16.4634,-14.6951,32.2256
352.216,8.78813,-7.51203,0,2.88121,8.67955,-1.02746,-9.84756,-3.10976,30.1524,-9.92257,-0.677791,-0.914897,-15.1829,-18.7805,36.2195
352.226,9.36993,-7.38601,0,2.92432,8.33946,-0.931663,-7.16463,-4.2378,37.8659,-9.99202,-0.778381,-0.778381,-12.561,-25.1829,38.9024
352.236,10.0687,-7.26023,0,3.06562,7.89877,-0.960403,-2.62195,-5.09146,47.1341,-10.0136,-0.828677,-0.766406,-7.34756,-33.7195,42.439
352.246,10.9155,-7.1118,0,3.28836,7.42456,-0.948428,3.32317,-6.25,58.2012,-9.98005,-0.845442,-0.64905,3.96341,-42.2256,45.4573
352.256,11.9294,-6.95016,0,3.59253,7.04136,-0.898132,10.2439,-6.95122,70.5793,-9.87227,-0.795146,-0.56762,14.5732,-52.6524,49.6646
352.266,13.1472,-6.78669,0,4.13141,6.81862,-1.03944,18.5366,-5.2439,84.9085,-9.75012,-0.62989,-0.534089,30.2439,-63.2927,52.5915
352.276,14.5383,-6.63685,0,4.75651,6.99585,-1.346,27.7439,-0.487805,98.9634,-9.72857,-0.474214,-0.57241,44.5427,-73.6281,53.9939
352.286,16.0978,-6.48963,0,5.64267,7.29283,-1.56874,38.5061,8.87195,111.799,-9.87227,-0.366438,-0.574805,61.0061,-83.4756,52.4695
352.296,17.7157,-6.34682,0,5.93246,8.6556,-1.83458,53.2927,21.4634,127.683,-10.2627,-0.294587,-0.598755,79.5122,-92.0427,48.2317
352.306,19.3466,-6.23669,0,6.33722,10.974,-2.45969,68.9329,36.4329,141.341,-10.6028,-0.308958,-0.749641,98.9329,-96.7073,41.4329
352.316,20.9369,-6.15995,0,6.02108,13.2612,-2.43813,77.8659,44.2988,151.921,-10.8614,-0.220342,-0.910107,114.695,-99.1768,36.3415
352.326,22.5451,-6.12829,0,5.78397,12.878,-2.30161,76.5549,45.8232,157.47,-10.7488,-0.00718506,-1.10171,125.274,-99.3293,36.2805
352.336,24.1606,-6.15952,0,6.61744,11.4266,-1.66933,66.7073,37.2866,149.482,-10.3752,0.457449,-1.346,124.909,-95.9451,44.3598
352.346,25.6506,-6.25404,0,4.05237,12.0829,-0.752036,74.2683,37.1037,163.506,-9.87946,1.11847,-1.56155,116.159,-88.0183,55.9756
352.356,27.2346,-6.39011,0,4.86189,10.3058,-0.641865,84.2378,56.0976,162.439,-9.51062,1.63101,-1.69088,102.073,-79.0244,67.1646
352.366,28.696,-6.53735,0,3.83203,10.3728,-0.505349,84.1463,55.3659,163.323,-9.3286,2.00703,-1.72441,81.5244,-73.689,72.5
352.376,30.0011,-6.69127,0,2.84528,10.3393,0.593965,75.2744,31.4939,160.335,-9.38369,2.18426,-1.78429,59.3293,-69.0549,69.8476
352.386,31.1602,-6.82096,0,2.28245,10.0591,1.48012,61.6463,-6.98171,153.415,-9.59205,2.38783,-1.74118,40.3963,-65.1219,63.9024
352.396,32.2919,-6.9389,0,3.06323,9.63516,0.514929,51.6159,-19.3293,143.079,-9.93933,2.44771,-1.76992,25.5488,-60.122,54.6951
352.406,33.3553,-7.03434,0,4.13859,9.46751,-0.728086,46.9512,-9.39024,126.22,-10.2028,2.32077,-1.7292,12.0122,-54.6341,44.5427
352.416,34.2924,-7.07782,0,5.23791,9.69743,-1.41306,40.4573,-0.121951,105.793,-10.5117,2.07648,-1.54958,-0.609756,-51.2195,35.8841
352.426,35.0821,-7.09623,0,5.89893,9.41003,-1.76513,34.9695,4.32927,85.0915,-10.665,1.71962,-1.46096,-10.0305,-51.9817,29.7256
352.436,35.7346,-7.10692,0,6.04503,8.97174,-1.59748,29.8476,9.7561,68.8415,-10.5022,1.52802,-1.40827,-18.3537,-54.8476,33.4146
352.446,36.2685,-7.12648,0,5.74326,8.5095,-0.684976,29.5427,12.0122,57.9878,-10.1645,1.28373,-1.40588,-22.4695,-55.3354,40.8841
352.456,36.7151,-7.16915,0,5.29539,8.1742,0.0694556,31.9207,16.0061,52.378,-9.88904,0.998723,-1.47533,-22.1341,-56.7988,52.5305
352.466,37.0824,-7.21348,0,4.97206,7.89398,0.179626,32.561,24.2378,46.6768,-9.71659,0.819097,-1.46575,-16.8293,-58.5671,59.3293
352.476,37.3785,-7.26873,0,4.6631,7.73112,0.222737,29.9085,35.4573,42.439,-9.63037,0.821492,-1.51365,-5.2439,-65.3963,64.1768
352.486,37.613,-7.33427,0,4.57209,7.57066,0.330513,25.6402,44.7561,36.6768,-9.61121,0.807122,-1.56634,7.59146,-67.1646,63.5671
352.496,37.794,-7.40183,0,4.58886,7.29044,0.138911,22.9878,50.2134,29.5427,-9.55613,0.847837,-1.57832,22.2866,-68.3232,60.8232
352.506,37.9239,-7.46064,0,4.79243,7.14674,-0.217947,21.1585,52.9268,21.311,-9.58487,0.974773,-1.55676,34.878,-68.3537,57.0122
352.516,38.0026,-7.49958,0,4.98164,7.02699,-0.670605,19.2073,54.1159,13.3232,-9.6663,1.07536,-1.49449,42.0122,-69.6951,51.4024
352.526,38.021,-7.4958,0,5.06547,7.01022,-1.08973,17.8659,53.5671,6.31098,-9.73815,1.1544,-1.32445,41.7378,-68.8719,45.4268
352.536,37.7891,-7.48676,0,4.96488,6.73719,-1.43222,16.2195,47.8049,-0.213415,-9.79563,1.152,-1.30768,37.5915,-67.9573,40.5183
352.546,37.6952,-7.46948,0,4.80441,6.60786,-1.52323,15.3049,39.4512,-5.88415,-9.68067,1.2981,-1.2526,31.6463,-65.0915,35.1829
352.556,37.5317,-7.45876,0,4.56491,6.48571,-1.42743,14.0244,29.9695,-11.4634,-9.59924,1.52323,-1.26457,21.7683,-61.7988,33.6585
352.566,37.2882,-7.44405,0,4.25595,6.40907,-1.31008,12.9268,18.9024,-16.7988,-9.51062,1.61424,-1.23104,11.7683,-58.2012,32.1341
352.576,36.9889,-7.43291,0,4.26074,6.4929,-1.36756,11.3415,4.05488,-22.3476,-9.46033,1.64059,-1.23583,4.05488,-56.5244,28.628
352.586,36.6425,-7.43667,0,4.30625,6.45697,-1.42025,8.59756,-12.5,-28.628,-9.63516,1.54239,-1.31726,-3.56707,-51.9207,22.3476
352.596,36.2349,-7.46451,0,4.30385,6.3971,-1.25499,5.36585,-29.1768,-36.0671,-9.70701,1.40827,-1.42983,-10.0305,-48.4146,14.3902
352.606,35.7346,-7.50787,0,4.20565,6.53122,-1.27655,2.2561,-44.9695,-43.9939,-9.72857,1.3939,-1.50647,-14.6951,-49.0854,5.82317
352.616,35.1524,-7.54452,0,4.23679,6.54798,-1.24541,-0.670732,-58.0488,-53.628,-9.72857,1.36037,-1.48491,-16.2805,-49.5122,-2.34756
352.626,34.4723,-7.57574,0,4.32301,7.02938,-1.2526,-6.82927,-67.561,-62.1341,-9.69743,1.42743,-1.46096,-17.1037,-47.3476,-10.0305
352.636,33.7373,-7.58321,0,4.52898,7.28325,-1.11608,-14.9695,-76.0366,-69.6951,-9.72617,1.56155,-1.36516,-21.6463,-45.5793,-16.4329
352.646,33.0304,-7.58616,0,5.06307,7.08686,-0.984353,-23.9024,-79.2988,-75.8232,-9.74773,1.63819,-1.346,-26.2195,-41.25,-24.1768
352.656,32.3615,-7.58098,0,5.66183,6.94795,-1.2023,-31.1585,-78.4451,-80.7927,-9.70701,1.68849,-1.30289,-30.2439,-38.2317,-30.7622
352.666,31.7736,-7.57995,0,6.47613,6.57433,-1.42264,-35.5793,-72.561,-84.9085,-9.59445,1.67172,-1.2981,-37.1951,-30.3354,-38.8415
352.676,31.2788,-7.60678,0,7.24972,6.17436,-1.5879,-38.8415,-63.9939,-86.8293,-9.41243,1.6358,-1.38193,-44.7561,-19.1768,-47.1646
352.686,30.8588,-7.64223,0,7.94188,5.93486,-1.79866,-38.75,-56.372,-87.6524,-9.26154,1.62622,-1.38911,-53.5671,-6.46341,-56.0061
352.696,30.4596,-7.68515,0,8.43526,6.26058,-2.0693,-36.9817,-52.9878,-86.7683,-9.20646,1.63101,-1.3939,-60.3354,3.32317,-63.0488
352.706,30.0581,-7.72138,0,8.84241,6.9264,-2.43573,-33.2622,-50.9451,-84.7866,-9.30465,1.59987,-1.3963,-66.7683,13.2927,-66.25
352.716,29.6701,-7.77485,0,8.99569,7.47486,-2.91474,-29.2073,-47.5,-80.8537,-9.5202,1.47773,-1.50168,-68.75,21.7988,-67.4695
352.726,29.3078,-7.8386,0,8.75619,7.85806,-3.19975,-25.9451,-38.1707,-74.5732,-9.82197,1.25978,-1.59748,-71.311,29.6341,-68.689
352.736,28.9607,-7.89119,0,7.98021,8.11912,-3.4129,-21.0671,-26.2805,-66.4329,-10.1669,1.1041,-1.60945,-71.6463,34.6037,-68.2622
352.746,28.6503,-7.97664,0,7.2138,8.25324,-3.73144,-15.6707,-21.5244,-56.5549,-10.4758,1.03225,-1.82021,-68.5976,38.7805,-68.3537
352.756,28.3907,-8.07862,0,6.53601,8.1263,-3.83203,-11.4329,-19.1159,-47.2256,-10.5716,0.977168,-1.92799,-69.5427,43.689,-70.3049
352.766,28.1497,-8.17424,0,5.92049,8.06403,-3.42009,-7.95732,-18.9634,-40.7012,-10.5716,0.998723,-1.90883,-69.4207,52.1341,-73.1402
352.776,27.895,-8.253,0,5.8678,8.53106,-2.8836,-0.884146,-18.5061,-38.9939,-10.6051,1.06818,-1.84656,-66.6159,57.7744,-78.0793
352.786,27.5596,-8.29287,0,6.03545,9.65432,-2.80936,3.93293,-12.5,-42.622,-10.8734,0.941243,-1.70765,-63.2012,67.5915,-83.3841
352.796,27.1452,-8.34999,0,6.12646,10.665,-2.42376,5.15244,-0.152439,-47.0122,-11.1584,0.728086,-1.83698,-61.0671,78.1402,-88.4451
352.806,26.6639,-8.40791,0,5.76481,10.4974,-2.14594,-1.15854,7.9878,-52.439,-11.4314,0.63468,-1.88249,-57.8354,93.2012,-93.6281
352.816,26.1143,-8.3825,0,5.70015,10.9812,-1.1041,-13.5366,11.5549,-57.6524,-11.647,0.823887,-1.48731,-56.9817,98.7805,-93.9024
352.826,25.5108,-8.24382,0,6.35399,12.423,-0.184417,-20.8537,13.5366,-63.5671,-12.1691,0.828677,-0.936453,-50.4268,97.0122,-89.2683
352.836,24.9474,-8.02235,0,6.86892,14.0612,-0.467029,-26.7378,14.1159,-58.5671,-12.8397,0.64905,-0.495769,-39.5122,88.8415,-85.7317
352.846,24.5755,-7.81255,0,7.20182,13.2852,-1.88728,-30.3354,11.2195,-45.122,-13.3786,0.213157,-0.541274,-23.5976,82.3476,-81.6768
352.856,24.4153,-7.64713,0,6.86652,12.3439,-2.46448,-23.0488,-0.670732,-25.5488,-13.5822,-0.457449,-0.768801,-9.60366,79.939,-77.561
352.866,24.387,-7.54501,0,6.24142,10.3537,-2.68482,-6.0061,0.731707,-16.4939,-13.4241,-1.06339,-1.09452,-1.18902,82.2561,-76.2805
352.876,24.1953,-7.43351,0,4.24637,8.72745,-2.19623,7.07317,15.3963,-22.7439,-12.7295,-1.12805,-0.962798,6.43293,81.6159,-72.1951
352.886,23.5348,-7.26048,0,1.16637,8.51669,-1.33642,13.628,29.2988,-33.9329,-11.1991,-0.5772,-0.522114,7.80488,79.7561,-61.7378
352.896,22.5259,-6.93778,0,-0.560435,8.53585,-0.682581,14.9695,27.0427,-47.2561,-10.1381,-0.0167651,0.222737,1.43293,74.7866,-55.6402
352.906,21.3496,-6.53048,0,-1.06818,8.43526,-0.371228,11.8902,10.2744,-59.3293,-9.28789,0.179626,0.598755,-11.6768,68.9024,-55.9146
352.916,20.1272,-6.04793,0,-0.828677,8.05685,-0.158071,5.36585,-4.57317,-69.1768,-8.58375,0.59157,0.893342,-29.8171,57.8659,-56.372
352.926,18.9501,-5.49062,0,-0.244292,8.11912,-0.191602,-7.16463,-12.2256,-75.5183,-8.07361,1.02267,1.17116,-46.0671,46.128,-58.6585
352.936,17.8374,-4.73352,0,0.138911,8.13109,-0.380808,-19.9085,-14.2988,-76.8598,-7.82213,1.00591,1.91123,-61.9207,20.6707,-59.9085
352.946,16.7919,-2.90111,0,0.253872,8.28437,-0.435894,-30.5793,-16.7988,-73.8719,-7.72394,0.680186,2.00463,-78.8719,-2.13415,-64.1463
352.956,15.8947,-2.2446,0,0.459844,8.70829,-0.352068,-36.4939,-21.0671,-63.4451,-7.73112,0.253872,1.87051,-94.9085,-15.4268,-68.2927
352.966,15.1977,-1.70764,0,1.05141,9.29028,-0.57241,-36.0061,-28.1402,-51.8598,-7.97781,-0.261057,1.57832,-110.884,-25.061,-75.4268
352.976,14.6157,-1.37456,0,1.26218,9.35495,-0.943638,-32.2256,-36.0366,-44.0549,-8.23887,-0.831072,0.948428,-118.232,-27.6524,-77.439
352.986,14.0757,-1.18393,0,1.17835,9.42919,-1.47773,-26.7073,-38.6585,-39.8171,-8.72027,-1.2023,0.500559,-115.091,-31.0976,-73.8415
352.996,13.5266,-1.11061,0,1.08255,9.53697,-1.98308,-21.8293,-30.8841,-40.5183,-9.20166,-1.74597,0.0838257,-102.896,-29.4512,-66.8293
353.006,12.9286,-1.10398,0,0.792751,9.59684,-2.12917,-17.439,-18.5671,-43.0488,-9.65193,-2.23934,-0.182021,-84.7866,-27.7134,-57.6524
353.016,12.3245,-1.1634,0,0.878972,9.3286,-2.29682,-13.2317,-6.46341,-46.25,-10.1022,-2.65129,-0.483794,-64.1463,-27.7134,-46.8293
353.026,11.6958,-1.25109,0,0.869392,9.26154,-2.15791,-11.9207,0.640244,-49.939,-10.277,-3.11353,-0.632285,-41.7683,-28.872,-40.8841
353.036,11.0911,-1.3505,0,1.06818,9.04359,-1.88488,-9.2378,5.2439,-51.5854,-10.1573,-3.2692,-0.692161,-16.4634,-27.6829,-35.9451
353.046,10.5375,-1.42477,0,1.31487,9.08191,-1.72681,-7.83537,4.20732,-50.6707,-9.93454,-3.09197,-0.584385,3.35366,-28.3537,-35.4573
353.056,10.0254,-1.45505,0,1.25499,9.15616,-1.78429,-4.17683,2.16463,-46.6768,-9.76449,-2.79259,-0.399968,18.4146,-31.5549,-36.2805
353.066,9.56299,-1.46514,0,1.20709,9.29028,-2.01421,-1.85976,-1.34146,-41.8293,-9.59924,-2.3088,-0.313748,27.4085,-32.7744,-36.6159
353.076,9.17359,-1.45633,0,1.38672,9.331,-1.96392,-1.67683,-5.21341,-37.4695,-9.59445,-1.89207,-0.234712,29.5427,-32.0732,-36.3415
353.086,8.81252,-1.45001,0,1.33642,9.38369,-1.80584,-2.71341,-10,-34.6646,-9.5705,-1.43701,-0.241897,29.0854,-30.5183,-33.9939
353.096,8.47253,-1.45412,0,1.30529,9.45793,-1.64298,-4.29878,-15.4573,-32.7439,-9.59684,-1.04662,-0.282612,25.9756,-26.8598,-32.2866
353.106,8.13673,-1.48975,0,1.17595,9.5226,-1.5376,-5.39634,-22.8354,-31.3415,-9.57529,-0.864602,-0.414338,23.4756,-25.0305,-30.5183
353.116,7.78491,-1.52469,0,0.936453,9.69983,-1.50407,-6.46341,-31.0976,-30.5488,-9.46991,-0.787961,-0.409548,20.6402,-21.0671,-27.6524
353.126,7.44272,-1.56546,0,0.826282,9.79323,-1.58311,-8.35366,-39.2683,-28.872,-9.24238,-0.756826,-0.428708,17.1037,-20.5183,-27.1951
353.136,7.12461,-1.60038,0,0.744851,9.91778,-1.8274,-12.8049,-44.2378,-26.0366,-9.14179,-0.835862,-0.404758,13.0488,-17.7744,-25.0305
353.146,6.84349,-1.63863,0,0.787961,9.88664,-1.69567,-17.1951,-46.5244,-23.4451,-8.91905,-0.958008,-0.411943,9.5122,-15.7622,-22.4085
353.156,6.63427,-1.70649,0,1.21667,9.7142,-1.75794,-20.4573,-43.5671,-21.9512,-8.78014,-1.00112,-0.526904,6.64634,-16.5549,-19.0244
353.166,6.49878,-1.7654,0,1.74597,9.30226,-1.64538,-22.3476,-38.4146,-21.9817,-8.7514,-1.04183,-0.502954,4.32927,-19.2683,-13.1098
353.176,6.38878,-1.80061,0,1.98308,9.14658,-1.49449,-21.9207,-32.439,-22.9268,-8.86397,-1.06339,-0.428708,-0.0609756,-23.0793,-5.54878
353.186,6.30534,-1.84312,0,2.33275,8.90708,-1.35079,-20.2134,-24.6951,-25.4268,-9.07712,-1.07297,-0.476609,-6.31098,-26.6159,2.07317
353.196,6.18508,-1.87461,0,2.30401,8.87115,-1.35798,-17.3171,-16.4634,-29.1159,-9.2328,-1.02746,-0.450264,-13.4451,-31.0366,8.10976
353.206,6.01293,-1.92977,0,2.13396,9.05317,-1.43462,-14.4817,-8.29268,-32.0122,-9.36453,-0.969983,-0.56283,-16.6159,-34.7256,16.0061
353.216,5.78912,-1.99894,0,1.94476,9.30226,-1.37235,-12.4695,-0.792683,-34.6646,-9.42201,-1.02746,-0.63468,-20.3354,-35.7927,19.8476
353.226,5.49981,-2.06665,0,1.52563,9.46033,-1.28134,-12.1341,2.68293,-36.4024,-9.43877,-1.08734,-0.63947,-22.4085,-33.7805,22.439
353.236,5.17928,-2.18436,0,1.36516,9.50104,-1.40348,-11.4634,5.51829,-38.1707,-9.35495,-1.24541,-0.850232,-21.9512,-31.0671,23.7195
353.246,4.84015,-2.34538,0,1.22386,9.45554,-1.51605,-10.9756,6.37195,-39.0854,-9.2304,-1.32924,-1.03225,-21.2805,-26.4024,24.7866
353.256,4.48254,-2.55861,0,1.12805,9.25675,-1.68849,-10.7012,5.12195,-40.7927,-9.07952,-1.49928,-1.24781,-16.311,-19.2378,26.4024
353.266,4.10104,-2.81854,0,1.01549,9.18729,-1.83698,-10.5183,4.29878,-42.6524,-9.00048,-1.57832,-1.45617,-12.1951,-13.628,27.8659
353.276,3.71798,-3.12651,0,0.998723,9.34297,-1.99266,-9.90854,2.40854,-43.1707,-8.94061,-1.66933,-1.67651,-4.57317,-7.65244,29.4817
353.286,3.3239,-3.66288,0,0.845442,9.59924,-1.99026,-9.93902,1.70732,-42.8963,-8.90708,-1.69567,-1.76992,0.365854,-1.64634,31.7073
353.296,2.8955,-3.9888,0,0.579595,9.75252,-1.76752,-12.1341,-0.487805,-43.872,-8.94779,-1.73878,-1.64777,3.90244,2.77439,33.5976
353.306,2.46504,-4.4345,0,0.58199,9.81719,-1.66933,-14.4817,-2.95732,-44.939,-9.05317,-1.67651,-1.43462,5.82317,0.945122,37.8659
353.316,2.04829,-4.93975,0,0.764011,9.87467,-1.65256,-17.1951,-5.27439,-46.5244,-9.13939,-1.53521,-1.36277,4.90854,-0.335366,43.872
353.326,1.6656,-5.20849,0,0.993933,10.1525,-1.52323,-18.2622,-5.94512,-46.2805,-9.17772,-1.45857,-1.42264,4.81707,1.37195,51.9207
353.336,1.33195,-5.40015,0,1.35798,10.4255,-1.5879,-20.3049,-7.77439,-45.7927,-9.11065,-1.41306,-1.60706,5.15244,8.07927,57.0427
353.346,0.973037,-5.70084,0,1.09692,10.2746,-1.42983,-21.5854,-11.9817,-46.3415,-8.97893,-1.41306,-2.05493,8.44512,20.7317,59.7866
353.356,0.604479,-5.9857,0,1.07776,9.78844,-1.63819,-21.372,-13.6585,-48.4451,-9.04599,-1.56155,-2.04295,14.6037,33.9634,60.9451
353.366,0.31778,-6.1039,0,1.57353,9.94412,-1.96152,-20.1524,-16.2805,-46.372,-9.24478,-1.65975,-1.42983,18.5366,36.0976,61.0061
353.376,0.100094,-6.1351,0,1.83458,10.0471,-2.213,-20.5793,-16.2805,-42.6829,-9.53218,-1.56874,-1.12326,19.6951,34.5427,62.6524
353.386,-0.0481822,-6.18686,0,2.05972,9.92975,-2.36149,-22.1646,-11.7073,-38.8415,-9.82916,-1.47773,-1.2502,17.5305,39.1159,65.8841
353.396,-0.122286,-6.20662,0,2.4046,9.86748,-2.46687,-22.9268,-3.59756,-35.6098,-10.0663,-1.37235,-1.13763,16.5244,48.0488,67.4085
353.406,-0.161619,-6.28585,0,2.5483,9.77407,-2.38065,-21.5549,2.65244,-34.0854,-10.2435,-1.17356,-1.42504,10.5183,58.0793,66.1585
353.416,-0.159407,-6.46071,0,2.44052,9.69743,-2.18186,-18.872,8.23171,-28.9329,-10.3297,-0.866997,-1.88488,8.81098,72.8354,66.189
353.426,-0.0998341,-6.70594,0,2.49561,9.65911,-2.01182,-16.8293,8.41463,-23.811,-10.2962,-0.536484,-2.23216,5.73171,85.0915,72.1646
353.436,-0.0107198,-7.06713,0,2.27766,9.58726,-1.96392,-15.2134,8.62805,-18.3841,-10.0854,-0.522114,-2.76625,7.37805,98.7805,76.9207
353.446,0.116127,-7.51077,0,2.04056,9.29507,-2.06211,-14.1768,4.14634,-12.3476,-9.83156,-0.902922,-3.13987,14.5732,112.835,81.4024
353.456,0.295545,-7.95901,0,1.71483,9.01964,-2.38783,-14.5427,-4.96951,-4.26829,-9.75012,-1.42743,-3.20693,28.3841,125.945,81.7988
353.466,0.55901,-8.26501,0,1.65256,9.11065,-2.886,-15.9756,-12.1037,6.43293,-10.0758,-1.86093,-2.70877,40.4268,129.055,77.3171
353.476,0.957065,-8.45268,0,1.75555,9.3789,-3.29076,-17.7134,-16.25,20.122,-10.7033,-2.17707,-2.34472,52.5915,130.915,72.561
353.486,1.50193,-8.50497,0,1.89925,9.6184,-3.2213,-17.561,-17.4695,34.7561,-11.5248,-2.01182,-1.84896,61.189,133.049,68.1098
353.496,2.22798,-8.46473,0,2.31359,9.84114,-2.93629,-16.8293,-19.878,50.1524,-12.1763,-1.53281,-1.45857,66.6768,132.988,67.1646
353.506,3.12425,-8.31732,0,2.67524,9.90341,-2.47406,-16.128,-24.7256,65.1524,-12.7702,-0.917292,-0.912502,62.2866,132.317,69.1463
353.516,4.18733,-7.88259,0,2.9315,9.81479,-2.28245,-15.3963,-31.1585,80.9146,-12.7702,-0.799937,0.728086,47.8049,121.738,75.8537
353.526,5.40146,-7.34153,0,3.00814,9.24957,-2.18426,-10.3049,-35.8232,95.6707,-14.5306,0.718506,1.59508,20.1524,97.7744,74.3902
353.536,6.74849,-6.99535,0,2.82133,8.8951,-2.02858,-0.823171,-40.9756,112.561,-15.4311,1.43941,0.500559,15.6098,92.439,73.7195
353.546,8.15983,-6.78744,0,2.33275,9.6639,-1.54,3.56707,-42.561,130.091,-15.9724,1.89446,-0.352068,12.4085,97.4695,74.0854
353.556,9.60537,-6.50883,0,1.70765,10.198,-1.7316,5.2439,-32.6829,144.756,-15.1222,1.14003,0.182021,16.1585,89.1768,63.3537
353.566,11.1219,-6.16219,0,1.53042,9.29507,-0.58199,5.2439,-32.2256,155.274,-12.5762,-0.150886,0.565225,19.878,66.4329,39.8171
353.576,12.7767,-5.67482,0,2.13396,8.31072,0.64905,5.30488,-39.2073,162.165,-10.0112,-0.546064,1.11368,22.0732,40.9146,21.2805
353.586,14.4477,-5.10304,0,2.16989,7.80537,1.29571,15.0915,-36.128,164.878,-8.18618,-0.469424,1.28134,34.4817,26.6463,16.0671
353.596,15.9496,-4.53262,0,1.12326,8.33467,1.42264,27.622,-25.8841,167.073,-7.41977,-0.617915,1.22625,50.3049,16.7378,19.1768
353.606,17.3357,-3.9202,0,0.814307,9.16813,2.52914,44.6951,-26.3415,163.628,-7.12758,-0.570015,1.36516,61.4634,7.9878,25.122
353.616,18.6761,-3.21419,0,0.821492,10.9309,1.61424,57.1341,-22.1037,163.384,-7.20661,-0.641865,1.25739,68.5061,-4.39024,27.2561
353.626,19.9347,-2.71021,0,0.979563,11.4027,0.306563,67.7134,-16.0976,156.524,-7.60179,-0.452659,1.26218,69.3598,-17.2256,27.8659
353.636,21.1399,-2.2492,0,1.85854,12.1523,-0.65384,76.1281,-13.4146,145.915,-8.21731,-0.00958008,1.26936,58.1707,-30.3354,28.9329
353.646,22.335,-1.88598,0,3.43206,12.4325,-1.74836,81.25,-11.2805,133.598,-9.02683,0.62031,1.06339,43.2927,-41.311,32.0122
353.656,23.5506,-1.59975,0,5.02954,12.1284,-2.51477,84.6646,-0.670732,123.659,-9.84114,1.17356,0.876577,27.2256,-50.8841,39.6646
353.666,24.7843,-1.40537,0,6.03066,11.1081,-2.43094,86.2195,15.6707,115.793,-10.4686,1.73399,0.55325,10.9146,-57.3476,45.1524
353.676,25.947,-1.31212,0,4.62478,11.0003,-1.95673,89.4817,33.4451,122.683,-10.6578,2.22018,0.122146,-7.95732,-59.1463,50.6098
353.686,27.0915,-1.25897,0,3.98292,10.9452,-1.03465,89.6951,53.75,128.933,-10.4495,2.42615,-0.0455054,-27.8963,-56.4939,55.6707
353.696,28.1562,-1.26242,0,3.54463,10.7009,-0.306563,90.2744,69.6037,126.524,-9.9537,2.21539,-0.280217,-44.7561,-53.811,60.5488
353.706,29.029,-1.30878,0,2.05014,10.8662,0.289797,92.3781,78.2927,124.726,-9.40045,1.83458,-0.440684,-59.6646,-50.7012,60.3354
353.716,29.875,-1.37535,0,2.45969,10.2698,0.328118,90.3049,98.0488,118.079,-9.02204,1.38193,-0.512534,-68.9024,-52.8354,56.372
353.726,30.6744,-1.47987,0,2.14115,10.4902,-0.433499,87.4695,103.963,118.994,-8.95498,1.00112,-0.670605,-71.0671,-54.1463,49.2073
353.736,31.3851,-1.64349,0,2.02619,9.97047,-0.409548,78.811,102.043,111.677,-9.0867,0.771196,-0.936453,-70.8537,-55.0305,39.6646
353.746,32.0112,-1.86377,0,2.1148,9.63756,-0.440684,69.5427,93.9329,102.683,-9.25196,0.728086,-1.21188,-69.2073,-51.7683,35.2134
353.756,32.566,-2.10678,0,2.4022,9.57529,-0.819097,60.2134,86.25,93.2012,-9.52978,0.546064,-1.37953,-63.1402,-47.8049,32.8659
353.766,33.0206,-2.33476,0,2.44292,9.5202,-0.852627,53.5366,74.4817,83.4756,-9.80281,0.229922,-1.39151,-56.9207,-43.5061,28.5061
353.776,33.3992,-2.54397,0,2.55309,9.14179,-0.838257,47.7439,60.8841,74.1768,-9.93933,-0.0910107,-1.36516,-51.7073,-40.9451,23.1098
353.786,33.717,-2.72441,0,2.76864,8.85199,-0.917292,43.2622,46.6463,65.1524,-9.85072,-0.150886,-1.26457,-44.8171,-43.3841,18.6585
353.796,33.9898,-2.88635,0,3.0273,8.53106,-1.03465,39.6646,34.7256,56.7683,-9.79323,-0.203577,-1.20948,-39.2378,-45.7927,14.5122
353.806,34.2063,-3.04617,0,3.09197,8.06643,-1.06818,38.5061,24.4512,48.6585,-9.60163,-0.131726,-1.20469,-32.2256,-46.3415,10.8841
353.816,34.3685,-3.20918,0,3.30034,7.80297,-1.13284,37.7744,18.0793,39.5732,-9.4244,0.217947,-1.22386,-28.9939,-47.7744,9.20732
353.826,34.4194,-3.39588,0,3.20693,7.6928,-0.958008,37.8659,13.2927,29.1463,-9.2304,0.488584,-1.32205,-27.439,-45.8841,10
353.836,34.3273,-3.57864,0,2.96024,7.66406,-0.979563,35.7317,9.02439,17.7439,-9.16813,0.768801,-1.32684,-28.9634,-45.1829,11.9512
353.846,34.1362,-3.72124,0,2.86923,7.42935,-0.878972,32.4695,6.09756,7.62195,-9.20406,1.04183,-1.19751,-31.0976,-47.1341,11.9207
353.856,33.5815,-3.84206,0,2.13636,7.23056,-0.723296,25.8841,-0.27439,-3.68902,-9.25196,1.26697,-1.13763,-31.5854,-48.0183,11.6159
353.866,33.0386,-3.97933,0,1.64538,6.90963,-0.589175,18.8415,-12.6829,-14.2073,-9.2352,1.21427,-1.22146,-33.2317,-45.6402,11.3415
353.876,32.4276,-4.15771,0,1.61185,6.60786,-0.490979,8.04878,-24.0244,-22.8963,-9.15616,1.00351,-1.39869,-35.9756,-40.7317,7.56098
353.886,31.7891,-4.37012,0,2.03577,6.43063,-0.677791,7.10366,-37.561,-34.8171,-8.95737,0.823887,-1.52802,-39.3902,-32.1646,1.28049
353.896,31.0848,-4.67185,0,2.55549,6.71084,-1.26457,5.30488,-50,-49.5427,-8.73703,0.792751,-1.87291,-42.9573,-22.0732,-4.60366
353.906,30.3955,-5.00366,0,3.43446,6.86173,-1.59748,-3.17073,-57.1646,-61.1585,-8.63884,0.828677,-2.01182,-45.6402,-11.9207,-9.32927
353.916,29.7072,-5.28873,0,4.02842,6.75635,-1.60466,-11.128,-61.0976,-71.0671,-8.76577,0.874182,-1.89207,-50.9451,-6.37195,-12.2866
353.926,28.9932,-5.57977,0,4.45953,6.95514,-1.65735,-19.7866,-61.2195,-78.9024,-8.9454,0.931663,-1.80824,-54.2073,-2.92683,-17.5
353.936,28.3295,-5.78532,0,5.28341,7.00064,-1.85375,-24.0549,-57.7439,-84.1463,-9.20885,0.974773,-1.70525,-56.5549,-3.87195,-20.8232
353.946,27.6883,-6.02029,0,5.90133,7.20422,-2.58423,-22.1646,-57.2866,-87.8659,-9.41243,0.946033,-1.71962,-57.9878,-2.07317,-24.3293
353.956,27.0473,-6.21801,0,6.3468,7.48683,-3.27878,-21.7988,-57.5915,-91.1281,-9.45314,0.807122,-1.81303,-56.7073,4.42073,-25.9756
353.966,26.4185,-6.42547,0,6.61265,7.60898,-3.70031,-24.1159,-58.3537,-92.6219,-9.46751,0.63947,-1.90883,-54.0549,11.6463,-27.9268
353.976,25.8448,-6.67361,0,7.118,7.51078,-3.81766,-25.5183,-58.2622,-93.3232,-9.40764,0.474214,-2.10043,-50.2744,21.372,-31.311
353.986,25.3041,-6.916,0,7.76705,7.95146,-3.74342,-25.7317,-53.2927,-92.8963,-9.48907,0.383203,-2.12678,-48.0793,32.6524,-33.5671
353.996,24.8092,-7.09758,0,8.51669,8.52866,-3.53265,-26.311,-45.5488,-90.6098,-9.83395,0.399968,-1.96871,-43.2012,36.5244,-36.7683
354.006,24.4281,-7.25934,0,8.93582,8.6556,-3.78413,-23.628,-34.1159,-81.9512,-10.2674,0.471819,-1.99266,-40.5183,40.2439,-38.75
354.016,24.2219,-7.41169,0,8.81367,8.41131,-4.10267,-15.5183,-21.311,-65.7622,-10.7512,0.414338,-2.0669,-31.9512,45.3354,-39.2073
354.026,24.211,-7.55238,0,8.36101,8.32748,-3.75539,-4.54268,-8.47561,-43.75,-11.2422,0.215552,-2.12678,-20.8537,50.9146,-39.6341
354.036,24.413,-7.73341,0,8.5574,8.07361,-3.73863,8.01829,6.25,-25.2134,-11.5248,-0.100591,-2.41418,-12.5915,59.1463,-42.6829
354.046,24.7449,-7.96521,0,8.59333,7.87243,-3.94699,18.5671,24.6341,-13.2622,-11.4937,-0.253872,-2.70398,-5.7622,70.4268,-46.6463
354.056,25.0348,-8.25946,0,7.94667,8.09517,-3.54702,22.8963,39.6646,-10.6707,-11.0818,-0.126936,-2.96743,-3.35366,81.8293,-49.5732
354.066,25.1832,-8.54174,0,6.89766,8.3658,-2.9339,22.1341,45.7012,-14.3902,-10.6435,0.359253,-2.8357,-5.70122,94.7866,-51.7683
354.076,25.1948,-8.80833,0,6.32046,8.67716,-2.26808,19.7561,46.8293,-21.0366,-10.3704,0.845442,-2.73272,-14.6341,103.323,-50.9756
354.086,25.029,-8.96678,0,5.86061,9.65432,-1.88009,15.3963,43.0793,-29.2988,-10.4854,1.17835,-2.28245,-27.378,106.89,-52.4695
354.096,24.6791,-9.06674,0,5.47022,10.6267,-2.11959,11.5549,47.5915,-40.2134,-10.9213,1.31966,-2.11241,-41.5549,109.909,-54.878
354.106,24.0499,-9.08892,0,4.01166,11.338,-2.44052,4.87805,45.9451,-53.5976,-11.4338,1.33642,-1.8274,-56.0061,110.396,-58.9634
354.116,23.1808,-8.87248,0,3.59253,13.5654,-1.65256,-14.7256,39.2073,-69.8781,-12.126,1.43701,-0.661025,-69.4817,101.616,-59.2683
354.126,22.1623,-8.55974,0,4.20326,17.6273,-1.07057,-27.561,36.128,-83.9939,-13.1918,1.24781,-0.131726,-75.5183,81.4024,-57.4695
354.136,21.2,-8.28446,0,3.93502,18.7362,-1.69567,-41.0976,28.4756,-77.1646,-14.7581,0.136516,-0.318538,-65.3354,75.1219,-54.0549
354.146,20.5674,-8.09932,0,4.07393,16.1472,-1.77231,-49.6951,15.2134,-50.1829,-15.8598,-1.32924,-0.893342,-55.5488,77.8049,-56.8902
354.156,20.0688,-7.93393,0,2.86684,9.50104,-1.01788,-40.7012,3.56707,-43.1707,-15.6275,-2.39502,-0.967588,-49.5427,76.7683,-57.2561
354.166,19.2698,-7.65798,0,0.59636,6.60786,0.0790356,-17.7134,1.37195,-51.0976,-13.3858,-1.20948,-0.160466,-43.4756,56.2805,-36.8293
354.176,18.1176,-7.31151,0,-0.752036,6.61025,-0.227527,1.06707,0.182927,-65,-10.653,-0.114961,0.244292,-43.2317,44.939,-3.14024
354.186,16.777,-6.81681,0,-1.20709,7.09644,-0.368833,10.3049,-6.18902,-80.1219,-8.91187,0.651445,0.835862,-51.6768,35.8232,23.4146
354.196,15.4122,-6.04553,0,-1.11368,7.84369,-0.962798,7.92683,-14.3293,-88.5366,-8.38257,1.09692,1.88728,-71.4939,8.93293,38.0488
354.206,14.0169,-5.19771,0,-1.22146,7.92991,-1.74357,-8.04878,-17.0732,-93.0488,-7.60898,0.828677,1.82979,-86.6463,-5,32.8963
354.216,12.6531,-4.40949,0,-1.26218,7.74789,-1.7292,-24.6341,-13.7195,-91.6768,-7.18266,0.526904,1.86572,-98.0183,-29.4817,16.5549
354.226,11.3887,-3.64889,0,-1.30289,8.11193,-1.12326,-37.0427,-11.5549,-84.5732,-7.12758,0.332908,1.84656,-107.591,-55.2134,-6.98171
354.236,10.3354,-3.06878,0,-0.878972,8.59333,-0.500559,-43.0488,-15,-72.3171,-7.23056,0.0910107,1.36037,-113.018,-69.7256,-26.8293
354.246,9.60137,-2.61111,0,0.273032,9.10826,-0.55325,-43.0183,-18.689,-57.3171,-7.55868,-0.440684,1.07776,-112.47,-75.4878,-38.9634
354.256,9.19479,-2.29904,0,1.61185,9.06515,-1.14003,-35.0305,-20.5793,-42.4695,-8.25084,-0.831072,0.704136,-111.982,-79.1159,-44.2073
354.266,8.97831,-2.09053,0,2.2106,8.77056,-2.08367,-23.9939,-15.7622,-32.1951,-8.97414,-1.53521,0.404758,-101.189,-77.5915,-43.4451
354.276,8.83941,-2.04741,0,2.48364,8.64363,-3.12311,-13.4451,-8.38415,-28.5671,-9.86988,-2.12678,-0.232317,-86.3415,-70.061,-40.7012
354.286,8.67554,-2.12906,0,2.47885,8.67716,-3.64043,-8.44512,0.884146,-31.2195,-10.562,-2.52914,-0.811912,-66.8293,-57.8354,-35.7622
354.296,8.45032,-2.29326,0,2.57944,8.54064,-3.54463,-4.93902,8.41463,-39.5732,-10.7656,-2.60339,-1.22625,-45.6707,-45,-29.0854
354.306,8.05663,-2.45738,0,1.82021,8.58854,-3.00335,-2.5,11.7988,-47.3476,-10.4135,-2.45729,-1.21188,-25.9146,-40.4573,-21.1585
354.316,7.48506,-2.61702,0,0.835862,8.92145,-2.15312,-2.89634,10.6402,-52.8049,-9.88425,-2.20821,-1.15919,-11.7683,-40.4573,-18.0793
354.326,6.82485,-2.73793,0,0.0886157,9.34776,-1.42025,-3.53659,7.07317,-53.2012,-9.36213,-1.83458,-0.967588,-0.487805,-46.5549,-20.4878
354.336,6.17759,-2.86147,0,-0.107776,9.73096,-1.20948,-7.04268,4.57317,-50.8232,-9.14658,-1.41067,-0.977168,7.31707,-48.5366,-25.6402
354.346,5.61725,-2.95897,0,0.138911,9.84832,-1.26697,-11.2805,1.34146,-46.2195,-9.22801,-1.23104,-0.905317,8.07927,-56.4939,-28.5366
354.356,5.16416,-3.06931,0,0.490979,9.67109,-1.28613,-15.8537,-5.91463,-40.7012,-9.51541,-1.06578,-1.0107,5.45732,-64.2073,-31.128
354.366,4.82571,-3.21789,0,1.02028,9.62798,-1.53042,-18.5366,-13.5976,-36.3415,-9.71659,-0.977168,-1.21906,6.09756,-66.6159,-31.1585
354.376,4.5402,-3.33878,0,1.18793,9.45314,-1.75315,-18.628,-23.1402,-33.9024,-9.77647,-0.936453,-1.13045,6.0061,-65.6707,-27.9268
354.386,4.2584,-3.46337,0,1.14482,9.34058,-1.95434,-18.0488,-33.7195,-33.75,-9.73815,-0.869392,-1.15919,3.53659,-61.2805,-24.3293
354.396,3.94294,-3.57599,0,0.859812,9.33579,-2.12199,-17.8354,-43.9939,-34.2378,-9.57529,-0.819097,-1.10889,1.98171,-60.3354,-17.7439
354.406,3.60134,-3.70453,0,0.65384,9.28549,-2.18426,-19.2683,-48.1402,-35.0305,-9.32142,-0.780776,-1.16637,2.34756,-62.6829,-12.7439
354.416,3.23853,-3.82965,0,0.481399,9.2807,-2.14833,-21.6768,-45.9451,-35.7317,-9.06275,-0.684976,-1.14242,3.96341,-64.7866,-6.89024
354.426,2.88001,-3.96613,0,0.502954,9.40764,-2.0214,-23.4146,-41.4634,-36.2195,-8.84481,-0.570015,-1.18074,7.31707,-66.189,-1.06707
354.436,2.57358,-4.1147,0,0.845442,9.39566,-1.9232,-24.5732,-34.1159,-35.8841,-8.71308,-0.61073,-1.23344,10.5183,-68.5976,3.2622
354.446,2.3337,-4.25515,0,1.346,9.2807,-1.79147,-25.8841,-27.1951,-36.0671,-8.67716,-0.711321,-1.21906,12.6524,-67.8354,3.53659
354.456,2.14443,-4.43322,0,1.80345,9.12023,-1.57832,-26.4024,-21.8293,-37.378,-8.64363,-0.756826,-1.38193,16.7988,-66.9817,4.02439
354.466,2.00045,-4.59412,0,2.19863,9.00288,-1.40827,-25.6707,-17.9573,-38.3232,-8.77775,-0.910107,-1.36277,18.872,-66.3719,5.21341
354.476,1.86544,-4.72885,0,2.40939,8.95498,-1.38911,-23.811,-14.1768,-40.4268,-8.94779,-1.0107,-1.31008,18.9329,-67.3171,5.12195
354.486,1.68793,-4.87068,0,2.27527,9.02922,-1.50886,-21.7683,-12.3476,-43.1707,-9.10347,-1.19272,-1.38432,20.4268,-67.9268,7.10366
354.496,1.43323,-5.01371,0,1.77231,9.2831,-1.6837,-20.1524,-11.6463,-44.6037,-9.18729,-1.23823,-1.42504,20.6707,-67.5305,11.1585
354.506,1.1154,-5.21517,0,1.3484,9.4747,-1.83458,-20.3659,-11.4634,-46.0366,-9.17532,-1.31966,-1.68609,24.2378,-62.9878,15.6402
354.516,0.742123,-5.5118,0,0.986748,9.56331,-2.06451,-21.128,-11.4939,-47.8354,-8.93582,-1.36516,-2.05732,29.1768,-52.439,20.0305
354.526,0.318878,-5.92819,0,0.680186,9.67827,-2.05014,-22.6829,-13.3232,-49.878,-8.54064,-1.30768,-2.48364,34.1768,-37.9573,25.4268
354.536,-0.127033,-6.41383,0,0.617915,9.82437,-1.96871,-24.2683,-15.5488,-52.1951,-8.17899,-1.25499,-2.70637,40.7012,-23.689,31.6463
354.546,-0.547812,-6.92977,0,0.946033,9.9058,-2.01421,-25.5183,-16.311,-54.3293,-7.92512,-1.21427,-2.80696,46.0671,-12.3476,37.5915
354.556,-0.939735,-7.44627,0,1.346,9.81719,-2.20821,-27.622,-16.8902,-57.0427,-7.8844,-1.17595,-2.5004,51.1585,-3.62805,47.2256
354.566,-1.304,-8.77631,0,1.6358,9.86988,-2.03816,-29.2683,-19.7866,-58.2927,-7.9323,-1.2526,-2.26808,52.7744,1.03659,54.0549
354.576,-1.61441,-9.11391,0,2.19623,10.0926,-2.12917,-30.6402,-21.6463,-59.3902,-8.14067,-1.4442,-2.52435,59.4207,14.7866,59.4512
354.586,-1.897,-9.41628,0,2.27287,10.0854,-1.95673,-32.1341,-26.4634,-58.0488,-8.33706,-1.59748,-2.48364,65.7622,32.439,58.872
354.596,-2.12712,-9.67588,0,2.42136,9.82437,-2.08367,-30.5183,-29.939,-55.6098,-8.78014,-1.81063,-2.47406,72.6524,47.5305,57.0732
354.606,-2.25086,-9.8329,0,2.8357,9.84593,-2.55309,-28.2622,-33.5976,-49.7561,-9.35255,-1.86572,-2.22018,75.9756,57.9878,54.1463
354.616,-2.27748,-9.89538,0,3.08,9.89622,-3.02012,-28.5976,-33.6585,-42.5915,-10.0208,-1.62143,-1.96392,76.7378,65.061,53.5061
354.626,-2.19709,-9.81965,0,3.28357,9.78605,-3.21651,-31.128,-28.2927,-34.2988,-10.7201,-1.33163,-1.43941,71.4939,67.8049,54.2988
354.636,-2.01515,-9.66206,0,3.43446,9.70222,-3.2692,-35.4573,-23.7805,-25.7012,-11.2638,-0.938848,-1.08494,57.2256,68.3232,55.8841
354.646,-1.72615,-9.65061,0,3.47996,9.32142,-3.03209,-37.5,-18.4451,-16.4024,-11.5105,-0.268242,-1.82261,42.6829,75.7927,56.8598
354.656,-1.34047,-9.79165,0,3.36021,8.76817,-2.77822,-35.9756,-11.372,-7.04268,-11.4554,-0.143701,-2.5986,28.9024,87.1341,58.7195
354.666,-0.821141,-9.92584,0,3.03449,8.6077,-2.61057,-29.9695,-5.67073,2.68293,-11.5632,-0.239502,-2.59381,27.8049,108.537,57.622
354.676,-0.321385,-9.96355,0,2.81415,8.90708,-2.50759,-20.7927,-5.45732,13.5366,-12.1044,0.00479004,-2.2106,20.8841,106.768,46.8902
354.686,0.272696,-9.97395,0,2.81415,9.43398,-2.86923,-12.7439,-8.65854,26.0671,-12.4733,-0.0215552,-2.13636,22.5305,102.439,35.4878
354.696,0.973252,-9.85828,0,2.85247,9.97765,-3.50631,-7.83537,-10.3354,39.4817,-12.6984,-0.237107,-1.46336,20.9146,96.8598,28.0488
354.706,1.8095,-9.61275,0,2.92192,10.0806,-3.77455,-4.93902,-8.90244,54.3293,-13.0097,-0.445474,-0.728086,18.628,91.8598,23.1402
354.716,2.82511,-9.04331,0,3.2237,9.98005,-3.57576,-4.2378,-6.28049,70.7927,-14.1737,-0.476609,1.27415,6.12805,74.7256,15.7622
354.726,4.04534,-8.45626,0,3.63803,9.79323,-3.06083,-1.28049,-3.81098,88.689,-16.5448,0.313748,1.76034,-19.5427,59.0244,2.86585
354.736,5.47188,-8.21963,0,4.03321,9.68546,-2.65368,9.17683,-1.25,107.683,-17.4501,1.90883,-0.65384,-30.3659,67.6829,0.853659
354.746,6.97458,-8.09751,0,3.81527,10.1764,-1.72681,14.1768,-0.182927,122.561,-16.3316,2.55549,-1.35558,-41.25,78.9634,13.628
354.756,8.47536,-7.87599,0,3.13029,10.6243,-1.62861,17.5,6.85976,133.872,-13.3882,0.419128,-0.493374,-32.9268,79.4207,13.9634
354.766,9.97182,-7.52563,0,2.35191,10.095,-0.914897,16.8902,2.9878,143.232,-10.562,-0.926873,0.232317,-36.6159,58.3232,0.914634
354.776,11.5478,-7.067,0,2.27766,9.1346,0.00958008,14.2683,-15.7317,152.591,-8.49274,-1.28613,0.632285,-34.0244,40.7927,-11.8598
354.786,13.1615,-6.59712,0,1.96152,7.93949,1.02746,19.3902,-23.0488,159.909,-6.81623,-1.13045,0.593965,-14.2683,36.6768,-10.8841
354.796,14.6207,-6.05828,0,0.555645,7.68083,1.89686,28.5671,-21.2805,167.317,-6.03066,-0.926873,0.759221,16.7378,33.4146,1.37195
354.806,15.8983,-5.51335,0,-0.902922,7.82932,2.87163,41.0366,-24.6341,173.628,-6.13604,-0.689766,0.838257,33.3232,15.4878,17.5305
354.816,17.1701,-4.96618,0,-1.2023,9.47709,2.74709,58.0488,-31.372,176.982,-6.3468,-0.950823,0.768801,60.3354,6.18902,27.5915
354.826,18.4339,-4.4329,0,-0.991538,10.4782,0.455054,70.1219,-32.2866,175.03,-6.97669,-0.972378,1.02986,70.8841,-8.78049,29.2988
354.836,19.6765,-3.9443,0,-0.682581,11.8194,-0.922083,75.5183,-34.6646,171.159,-7.11321,-1.32924,0.977168,67.2866,-16.8598,27.4085
354.846,20.9431,-3.599,0,0.993933,12.7463,-2.03577,81.6159,-40.7927,160.305,-8.07361,-0.603545,0.661025,59.939,-19.1463,22.8354
354.856,22.3167,-3.35176,0,3.80569,13.0648,-3.43446,88.3537,-36.25,149.756,-9.50583,0.56762,0.411943,53.7805,-32.9573,20.7927
354.866,23.7695,-3.2315,0,6.49769,12.3823,-3.1279,87.9573,-25.3354,137.287,-10.0375,1.25739,-0.0814307,44.8476,-30.2744,23.9329
354.876,25.1929,-3.1314,0,6.68689,11.5823,-1.76752,89.6341,-14.5732,132.53,-10.5525,1.71483,-0.155676,34.6646,-28.5671,30.4268
354.886,26.539,-3.07568,0,5.62351,11.0003,-0.481399,89.6646,2.46951,133.506,-10.7632,1.89446,-0.349673,19.5732,-27.5915,34.9695
354.896,27.7844,-3.05458,0,5.0511,10.7848,0.112566,93.5976,24.8476,130.03,-10.5668,1.72441,-0.493374,2.7439,-26.311,37.622
354.906,28.9547,-3.08298,0,4.70142,10.6698,-0.0574805,100.64,59.4512,127.591,-9.98963,1.35558,-0.682581,-9.63415,-27.7439,39.1768
354.916,30.0141,-3.14474,0,4.07153,9.76689,-0.191602,98.2927,88.1707,121.006,-9.46751,1.01309,-0.795146,-18.5671,-31.9512,39.8476
354.926,30.7897,-3.26852,0,1.14242,10.6722,1.24781,97.2561,116.646,127.927,-9.12502,0.689766,-1.02986,-23.2012,-34.0854,40.0305
354.936,31.8371,-3.4126,0,4.48587,10.483,-1.68609,86.1281,136.098,122.439,-9.06754,0.502954,-1.12805,-21.1585,-37.3171,40.7317
354.946,32.673,-3.5911,0,3.10395,9.59684,-0.459844,80.0915,113.963,113.689,-9.09868,0.352068,-1.2981,-19.3293,-40.2439,36.5549
354.956,33.3364,-3.75617,0,2.65608,9.94891,-0.536484,66.7683,104.665,103.872,-9.18011,0.306563,-1.28613,-19.1768,-43.5976,31.5854
354.966,33.8911,-3.96481,0,2.6441,9.58966,-0.723296,54.2073,97.5915,93.1707,-9.22562,0.313748,-1.49928,-14.0549,-41.5549,26.6159
354.976,34.3399,-4.14886,0,2.52914,8.92624,-0.802332,44.3293,83.9634,82.6829,-9.39087,0.232317,-1.45378,-7.46951,-37.8963,22.561
354.986,34.6944,-4.29656,0,2.31359,8.33946,-0.704136,38.3537,68.9024,74.6037,-9.36213,0.227527,-1.32445,-2.16463,-35,18.7195
354.996,34.968,-4.42655,0,2.23216,8.02811,-0.756826,33.7195,54.3902,67.0122,-9.42919,0.263452,-1.28373,1.09756,-35.122,12.8354
355.006,35.1385,-4.54647,0,2.2609,7.88919,-0.797541,28.4451,40.9146,56.128,-9.30944,0.402363,-1.2502,0.518293,-39.1768,9.96951
355.016,35.2164,-4.69135,0,2.25611,7.46288,-0.855022,26.9512,32.4695,45.3354,-9.26394,0.385598,-1.36995,-3.04878,-41.7683,7.13415
355.026,35.1442,-4.8658,0,1.93757,7.14434,-0.66821,26.0976,23.5976,33.5366,-9.16095,0.565225,-1.50168,-5.85366,-42.9573,5.73171
355.036,34.8958,-5.06256,0,1.64298,7.09165,-0.771196,21.7073,13.4756,19.7561,-9.09389,0.826282,-1.61185,-7.59146,-43.75,5.51829
355.046,34.4176,-5.24981,0,1.32445,6.8785,-0.859812,16.3415,1.09756,5.64024,-9.20885,0.984353,-1.62622,-8.90244,-45.1829,5.21341
355.056,33.7276,-5.43378,0,0.613125,6.5863,-0.843047,12.9878,-19.878,-10.9756,-9.28549,1.06339,-1.65735,-10.061,-45.3963,5.51829
355.066,32.8082,-5.64465,0,0.141306,6.18155,-1.27894,14.3293,-47.4695,-27.6524,-9.34537,0.924478,-1.81063,-11.311,-41.6463,1.70732
355.076,31.7329,-5.93673,0,0.0646655,6.1576,-1.70525,11.4024,-74.7866,-43.9939,-9.19209,0.847837,-2.15312,-10.3049,-32.8963,-2.86585
355.086,30.6285,-6.33067,0,0.965193,6.39231,-2.20821,13.2012,-100.976,-65.4573,-8.87115,0.768801,-2.54112,-13.5366,-20.061,-6.7378
355.096,29.2156,-6.72042,0,0.488584,7.44851,-1.99266,-3.32317,-127.713,-89.3293,-8.72985,0.886157,-2.53633,-19.0854,-8.04878,-13.5366
355.106,27.8901,-7.1984,0,2.14354,7.84129,-0.862207,-27.0427,-108.567,-106.829,-8.76338,1.02746,-2.24174,-25.3963,-1.92073,-17.0732
355.116,26.813,-7.36821,0,4.00926,7.05573,-0.294587,-44.0244,-95.2134,-113.415,-9.00288,1.20709,-1.83458,-36.4939,-7.68293,-21.4939
355.126,25.9275,-7.48953,0,5.61632,7.00064,-0.419128,-51.9817,-100.396,-114.695,-9.22801,1.40588,-1.70765,-46.9512,-10.6098,-23.3232
355.136,25.1789,-7.64988,0,7.41738,7.38385,-1.69807,-55.9146,-106.616,-115.579,-9.27831,1.61903,-1.89925,-54.3598,-7.31707,-24.7561
355.146,24.5439,-7.8307,0,8.78733,7.47007,-3.39374,-58.3232,-105.061,-114.695,-9.35734,1.66454,-2.01182,-59.8171,5.15244,-23.0488
