time,angle1,angle2,intgangle,accX1,accY1,accZ1,gyroX1,gyroY1,gyroZ1,accX2,accY2,accZ2,gyroX2,gyroY2,gyroZ2
558.537,85.1451,2.19134,0,9.68546,0.689766,-0.934058,-0.0609756,0,-1.15854,-9.85311,-0.282612,0.361648,-15.0305,-2.34756,4.69512
558.548,85.1533,2.20368,0,9.67588,0.694556,-0.888552,-0.0914634,0.0914634,-1.46341,-9.84832,-0.265847,0.419128,-14.9085,-2.16463,4.72561
558.557,85.1594,2.20409,0,9.7142,0.706531,-0.922083,0.152439,0.304878,-1.46341,-9.85072,-0.308958,0.378413,-14.4512,-2.59146,5.06098
558.567,85.1544,2.22285,0,9.70701,0.744851,-0.910107,0.0609756,0.243902,-1.76829,-9.86748,-0.289797,0.438289,-15.5183,-1.61585,5.4878
558.577,85.1516,2.22866,0,9.71659,0.737666,-0.907712,-0.0609756,0.182927,-1.70732,-9.83874,-0.292192,0.395178,-15.1829,-0.853659,5.36585
558.587,85.1465,2.234,0,9.69983,0.752036,-0.936453,-0.0304878,0,-1.70732,-9.90341,-0.258662,0.402363,-15.6707,-1.95122,4.69512
558.597,85.139,2.24715,0,9.69743,0.771196,-0.886157,-0.121951,-0.152439,-1.64634,-9.91778,-0.268242,0.409548,-14.4207,-0.121951,4.29878
558.607,85.1379,2.23881,0,9.70701,0.742456,-0.924478,-0.182927,-0.0914634,-1.55488,-9.90101,-0.273032,0.368833,-15.2134,-0.670732,4.14634
558.617,85.1367,2.23594,0,9.73096,0.754431,-0.893342,0,0.0609756,-1.43293,-9.9082,-0.285007,0.378413,-14.6037,-1.12805,4.7561
558.627,85.1444,2.24413,0,9.73096,0.742456,-0.914897,0.0914634,0,-1.0061,-9.93215,-0.273032,0.414338,-15.122,-1.82927,5
558.637,85.1482,2.23948,0,9.73575,0.732876,-0.934058,-0.0914634,-0.365854,-1.34146,-9.89383,-0.316143,0.371228,-15.3659,-1.64634,4.78659
558.647,85.154,2.24385,0,9.73575,0.744851,-0.953218,0.0609756,-0.335366,-1.06707,-9.91778,-0.325723,0.402363,-14.878,-2.43902,4.26829
558.657,85.1537,2.24288,0,9.74773,0.761616,-0.955613,-0.0609756,-0.396341,-1.25,-9.94173,-0.296982,0.383203,-14.2683,-2.83537,4.63415
558.667,85.1494,2.24877,0,9.75731,0.768801,-0.969983,-0.121951,-0.426829,-1.46341,-9.93454,-0.316143,0.409548,-15.7317,-2.46951,5.57927
558.677,85.1523,2.25749,0,9.74054,0.766406,-0.986748,-0.0304878,-0.0304878,-0.97561,-9.93933,-0.320933,0.423918,-15.7012,-3.96341,4.54268
558.687,85.1593,2.26378,0,9.75731,0.713716,-0.979563,-0.182927,-0.0304878,-1.34146,-9.92257,-0.344883,0.414338,-16.0366,-3.44512,5.82317
558.697,85.1579,2.26378,0,9.76928,0.759221,-0.905317,0.121951,0.365854,-1.37195,-9.91538,-0.313748,0.387993,-16.0061,-4.60366,4.87805
558.707,85.1695,2.2537,0,9.74533,0.713716,-0.998723,-0.121951,0.457317,-1.06707,-9.92736,-0.323328,0.344883,-16.25,-4.72561,5.45732
558.718,85.1768,2.25123,0,9.71659,0.732876,-0.955613,0,0.579268,-1.06707,-9.93215,-0.330513,0.376018,-15.2744,-4.87805,5.54878
558.727,85.1804,2.23295,0,9.7118,0.737666,-0.948428,0.182927,0.518293,-1.21951,-9.9537,-0.318538,0.306563,-13.872,-5.67073,4.72561
558.737,85.1843,2.22543,0,9.73336,0.708926,-0.991538,0.152439,0.853659,-1.52439,-9.9561,-0.268242,0.352068,-14.3902,-4.39024,3.96341
558.747,85.1899,2.21414,0,9.70941,0.725691,-0.938848,-0.27439,0.579268,-1.21951,-9.9058,-0.265847,0.332908,-15.6402,-4.39024,4.84756
558.757,85.1972,2.2071,0,9.73575,0.684976,-0.946033,0.0914634,1.25,-1.55488,-9.89862,-0.232317,0.347278,-15.4573,-5.70122,4.69512
558.767,85.1994,2.20922,0,9.7118,0.716111,-0.809517,0.0609756,1.15854,-1.52439,-9.86748,-0.237107,0.385598,-14.5732,-4.32927,4.05488
558.777,85.206,2.20094,0,9.7142,0.689766,-0.929268,0.304878,1.12805,-1.52439,-9.89143,-0.256267,0.342488,-15.9146,-4.39024,4.32927
558.787,85.2076,2.1964,0,9.73096,0.696951,-0.874182,-0.0914634,0.823171,-1.76829,-9.88664,-0.251477,0.356858,-16.0061,-4.35976,5.27439
558.797,85.2061,2.1841,0,9.72857,0.696951,-0.895737,0,0.762195,-1.98171,-9.87946,-0.273032,0.323328,-17.1951,-4.11585,5.54878
558.808,85.2065,2.17272,0,9.73096,0.704136,-0.883762,0.213415,0.457317,-1.76829,-9.89143,-0.258662,0.328118,-16.6768,-3.23171,4.54268
558.819,85.2067,2.15429,0,9.7142,0.699346,-0.890947,0.152439,0.518293,-1.82927,-9.89383,-0.261057,0.296982,-14.6341,-3.32317,5.39634
558.827,85.2069,2.12843,0,9.69025,0.692161,-0.893342,0.213415,0.396341,-1.89024,-9.9082,-0.294587,0.265847,-15.9756,-3.04878,5.06098
558.837,85.2,2.13078,0,9.69504,0.720901,-0.929268,0.121951,0.396341,-2.10366,-9.87946,-0.251477,0.373623,-14.9695,-4.08537,5.7622
558.847,85.1949,2.13769,0,9.70701,0.718506,-0.919688,0.396341,0.304878,-2.0122,-9.92975,-0.251477,0.395178,-16.5549,-4.78659,4.57317
558.857,85.1873,2.14168,0,9.74294,0.735271,-0.881367,0.457317,0.213415,-2.04268,-9.90341,-0.239502,0.383203,-16.1585,-3.75,4.11585
558.867,85.1789,2.1405,0,9.75012,0.747246,-0.890947,0.152439,0.121951,-1.98171,-9.89143,-0.273032,0.361648,-15.6098,-3.87195,5.09146
558.877,85.1781,2.14381,0,9.72617,0.696951,-0.943638,0.0914634,0.0304878,-1.98171,-9.90101,-0.296982,0.380808,-14.9695,-3.2622,4.26829
558.887,85.1722,2.1453,0,9.70701,0.742456,-0.907712,0.0304878,-0.0304878,-1.82927,-9.88904,-0.306563,0.373623,-16.189,-2.83537,4.08537
558.897,85.1632,2.14625,0,9.71899,0.744851,-0.871787,0.0609756,-0.121951,-2.07317,-9.89143,-0.308958,0.371228,-15.1524,-3.87195,5.73171
558.907,85.1537,2.14319,0,9.71659,0.759221,-0.919688,-0.0304878,0.0304878,-1.95122,-9.88904,-0.320933,0.354463,-15.3354,-3.84146,5.30488
558.917,85.1501,2.15566,0,9.72617,0.730481,-0.914897,0,-0.121951,-1.85976,-9.91059,-0.313748,0.419128,-14.7256,-3.23171,5.7622
558.927,85.1408,2.16287,0,9.73575,0.771196,-0.888552,0.0304878,0.152439,-1.82927,-9.9058,-0.268242,0.399968,-14.6951,-3.93293,4.69512
558.937,85.1342,2.17483,0,9.74054,0.742456,-0.883762,-0.0609756,-0.182927,-1.98171,-9.9058,-0.280217,0.421523,-14.7561,-4.87805,5.18293
558.947,85.1306,2.18345,0,9.72617,0.764011,-0.936453,0.0914634,0.0304878,-1.4939,-9.91538,-0.289797,0.409548,-15.6707,-5,4.42073
558.957,85.1274,2.18945,0,9.7118,0.754431,-0.895737,-0.121951,-0.335366,-1.58537,-9.91778,-0.268242,0.399968,-15.5488,-4.63415,5.51829
558.967,85.121,2.19872,0,9.7142,0.747246,-0.910107,0.0304878,-0.304878,-1.92073,-9.91059,-0.277822,0.414338,-15.3049,-5.73171,5.15244
558.977,85.1234,2.20805,0,9.74294,0.744851,-0.876577,-0.213415,-0.579268,-1.34146,-9.91778,-0.261057,0.416733,-14.6951,-5.27439,4.2378
558.987,85.1261,2.19344,0,9.72138,0.764011,-0.912502,-0.0914634,-0.365854,-1.06707,-9.89862,-0.296982,0.313748,-14.3598,-5.39634,3.35366
558.997,85.1292,2.19633,0,9.72617,0.744851,-0.914897,-0.152439,-0.670732,-1.28049,-9.92496,-0.289797,0.387993,-14.7561,-5.45732,4.39024
559.007,85.1391,2.20269,0,9.74054,0.704136,-0.914897,-0.213415,-0.792683,-1.31098,-9.89383,-0.296982,0.402363,-14.9085,-5.45732,3.41463
559.017,85.1413,2.19877,0,9.71899,0.747246,-0.967588,-0.335366,-1.03659,-1.28049,-9.90101,-0.299377,0.359253,-13.75,-5.36585,3.5061
559.027,85.1441,2.20113,0,9.7142,0.735271,-0.878972,-0.304878,-0.609756,-1.37195,-9.89383,-0.275427,0.385598,-12.9878,-5.21341,5
559.037,85.145,2.20916,0,9.70222,0.744851,-0.929268,-0.0609756,-0.548781,-1.37195,-9.87227,-0.311353,0.409548,-13.4756,-5.39634,4.63415
559.047,85.155,2.21458,0,9.73336,0.704136,-0.958008,-0.0304878,-0.548781,-1.28049,-9.86988,-0.258662,0.399968,-14.6341,-4.63415,5.15244
559.057,85.1649,2.21913,0,9.70462,0.713716,-0.907712,-0.121951,-0.487805,-1.15854,-9.87706,-0.280217,0.397573,-14.4512,-4.48171,5.79268
559.067,85.1748,2.21745,0,9.71899,0.706531,-0.960403,0.0304878,-0.640244,-1.21951,-9.88425,-0.280217,0.371228,-16.0366,-5.27439,5.06098
559.077,85.1843,2.21386,0,9.71899,0.682581,-0.936453,-0.0609756,-0.548781,-1.46341,-9.89383,-0.292192,0.364043,-15.7927,-4.39024,4.87805
559.087,85.1823,2.2003,0,9.7118,0.730481,-0.953218,-0.0304878,-0.518293,-1.67683,-9.89143,-0.282612,0.323328,-16.9512,-3.47561,5.03049
559.097,85.1824,2.19433,0,9.71659,0.725691,-0.907712,-0.0914634,-0.762195,-1.58537,-9.89143,-0.275427,0.352068,-15.9756,-3.62805,5.42683
559.107,85.1705,2.18711,0,9.70941,0.775986,-0.929268,0.182927,-0.640244,-1.89024,-9.91299,-0.294587,0.344883,-15.4268,-4.60366,5.06098
559.117,85.1734,2.19098,0,9.71899,0.735271,-0.919688,0.0304878,-0.457317,-1.31098,-9.94173,-0.325723,0.392783,-14.5427,-3.65854,5.15244
559.127,85.1716,2.19468,0,9.77407,0.725691,-0.984353,0.0609756,0,-1.76829,-9.94412,-0.282612,0.392783,-14.2988,-3.93293,5.03049
559.137,85.1741,2.19326,0,9.78366,0.718506,-0.946033,-0.27439,-0.396341,-1.55488,-9.91299,-0.275427,0.371228,-14.5427,-3.29268,5.18293
559.147,85.1721,2.19187,0,9.74773,0.725691,-0.943638,0.0914634,-0.579268,-1.76829,-9.89862,-0.294587,0.371228,-16.5244,-2.80488,4.93902
559.157,85.1777,2.19955,0,9.73096,0.706531,-0.912502,-0.0914634,-0.304878,-1.46341,-9.93694,-0.308958,0.409548,-15.4573,-4.39024,4.69512
559.167,85.1758,2.19385,0,9.69504,0.737666,-0.914897,-0.304878,-0.182927,-1.58537,-9.91778,-0.270637,0.352068,-15.4268,-4.93902,3.84146
559.177,85.1764,2.20546,0,9.69983,0.708926,-0.969983,-0.304878,0.0914634,-1.7378,-9.88904,-0.263452,0.423918,-15.2439,-6.34146,3.75
559.188,85.1739,2.21724,0,9.73575,0.725691,-0.969983,0,0.182927,-1.79878,-9.87706,-0.289797,0.426313,-15.4268,-6.12805,5.27439
559.197,85.17,2.22228,0,9.7597,0.730481,-0.979563,0.182927,0.213415,-1.85976,-9.88904,-0.354463,0.399968,-16.2805,-5.57927,5.45732
559.207,85.1671,2.21383,0,9.73815,0.723296,-0.974773,-0.0304878,0.396341,-1.85976,-9.89143,-0.366438,0.342488,-16.4939,-5.51829,4.90854
559.218,85.1639,2.22328,0,9.7621,0.735271,-0.950823,0.152439,0.304878,-1.76829,-9.9082,-0.376018,0.419128,-16.0366,-5.85366,5.18293
559.227,85.1654,2.23509,0,9.80521,0.732876,-0.907712,0.152439,0.182927,-1.4939,-9.92736,-0.337698,0.431104,-15.8232,-6.95122,4.81707
559.237,85.1625,2.2392,0,9.73815,0.744851,-0.912502,0.0914634,0.0914634,-1.61585,-9.92975,-0.256267,0.399968,-15.5793,-6.4939,5.21341
559.247,85.1629,2.24289,0,9.74773,0.720901,-0.979563,-0.243902,0.609756,-1.67683,-9.93933,-0.251477,0.399968,-15.0305,-5.51829,6.06707
559.257,85.1655,2.24098,0,9.73815,0.725691,-0.926873,-0.27439,0.762195,-1.46341,-9.90101,-0.244292,0.376018,-15.3659,-4.2378,5
559.267,85.1711,2.23958,0,9.70941,0.704136,-0.898132,0.182927,0.914634,-1.4939,-9.89143,-0.241897,0.376018,-14.939,-5.82317,3.71951
559.277,85.1697,2.23975,0,9.74054,0.732876,-0.941243,0.0609756,1.09756,-1.64634,-9.89862,-0.282612,0.383203,-15.4878,-5.39634,2.53049
559.287,85.1726,2.23604,0,9.78605,0.713716,-0.936453,0.365854,1.18902,-1.58537,-9.9058,-0.311353,0.366438,-14.6341,-5.67073,4.42073
559.297,85.1787,2.21994,0,9.91059,0.706531,-0.914897,0.426829,0.853659,-1.4939,-9.90341,-0.282612,0.311353,-14.7866,-6.12805,3.93293
559.307,85.1735,2.22392,0,9.7118,0.797541,-0.900527,0.27439,1.09756,-1.0061,-9.87706,-0.292192,0.395178,-15.2744,-5.82317,3.20122
559.317,85.1776,2.23833,0,9.63037,0.708926,-0.780776,-0.152439,-0.640244,-1.4939,-9.86269,-0.246687,0.440684,-14.3902,-5.2439,5.39634
559.327,85.1814,2.2541,0,9.6184,0.64426,-0.864602,0.152439,-0.945122,-2.16463,-9.83874,-0.241897,0.447869,-14.7866,-4.57317,4.45122
559.337,85.173,2.2465,0,9.69504,0.708926,-0.962798,0,0.792683,-2.40854,-9.88185,-0.239502,0.352068,-15.2744,-4.90854,4.72561
559.348,85.1628,2.24051,0,9.7142,0.740061,-0.931663,0.27439,0.762195,-2.22561,-9.8579,-0.229922,0.356858,-16.1585,-4.87805,4.14634
559.357,85.1581,2.24026,0,9.79084,0.747246,-0.857417,0.548781,0.213415,-1.76829,-9.85311,-0.263452,0.380808,-16.7073,-4.2378,3.71951
559.367,85.1556,2.23584,0,9.7621,0.735271,-0.799937,-0.0609756,-0.670732,-1.7378,-9.88425,-0.265847,0.364043,-17.1037,-4.39024,3.71951
559.377,85.1527,2.22841,0,9.74294,0.742456,-0.874182,-0.701219,-0.792683,-1.67683,-9.88425,-0.308958,0.349673,-15.9756,-4.96951,3.29268
559.387,85.1485,2.22422,0,9.67588,0.754431,-0.905317,-0.365854,-0.731707,-1.58537,-9.88904,-0.342488,0.361648,-14.0854,-5.79268,3.17073
559.397,85.1415,2.23041,0,9.69504,0.785566,-0.883762,0.121951,-1.0061,-1.40244,-9.91538,-0.301772,0.407153,-15.6098,-5.70122,3.84146
559.407,85.1408,2.23225,0,9.70701,0.759221,-0.922083,0.335366,-0.701219,-1.31098,-9.92017,-0.311353,0.390388,-13.7195,-4.54268,4.32927
559.417,85.1414,2.25112,0,9.74773,0.759221,-0.910107,0.0609756,-0.97561,-1.25,-9.93215,-0.275427,0.464634,-13.9329,-5.33537,4.69512
559.427,85.1428,2.26214,0,9.74054,0.747246,-0.900527,0.121951,-1.37195,-1.34146,-9.89862,-0.294587,0.431104,-14.1768,-7.13415,3.23171
559.437,85.1409,2.28256,0,9.72378,0.747246,-0.965193,-0.396341,-1.52439,-1.55488,-9.89622,-0.306563,0.474214,-15.3049,-6.7378,5.33537
559.448,85.1447,2.29376,0,9.72378,0.732876,-0.948428,-0.548781,-1.18902,-1.34146,-9.90341,-0.296982,0.438289,-15.3659,-6.09756,3.81098
559.457,85.1416,2.2986,0,9.73575,0.771196,-0.922083,-0.304878,-1.09756,-1.34146,-9.91778,-0.280217,0.411943,-14.2378,-7.56098,3.44512
559.467,85.1482,2.29735,0,9.73815,0.747246,-0.878972,-0.182927,-1.09756,-1.0061,-9.89862,-0.344883,0.385598,-14.4207,-7.28659,3.71951
559.477,85.1497,2.3013,0,9.69264,0.766406,-0.898132,-0.335366,-1.7378,-1.03659,-9.88904,-0.337698,0.407153,-14.3902,-7.95732,5.4878
559.487,85.1579,2.304,0,9.59445,0.730481,-0.843047,-0.0304878,-2.43902,-1.03659,-9.91059,-0.301772,0.402363,-13.5976,-9.02439,4.93902
559.497,85.162,2.29694,0,9.69983,0.754431,-0.950823,-0.0304878,-0.762195,-1.0061,-9.87946,-0.296982,0.359253,-13.1402,-8.71951,4.29878
559.507,85.1727,2.29556,0,9.70701,0.711321,-1.00112,-0.121951,-0.609756,-1.12805,-9.9058,-0.323328,0.383203,-12.622,-9.45122,4.02439
559.518,85.181,2.28492,0,9.75491,0.725691,-0.974773,-0.365854,-0.609756,-1.09756,-9.9058,-0.318538,0.342488,-12.6524,-9.42073,3.87195
559.527,85.202,2.28494,0,9.75731,0.682581,-0.986748,-0.0609756,-0.762195,-0.884146,-9.92736,-0.285007,0.387993,-13.689,-9.57317,3.90244
559.537,85.2229,2.28245,0,9.69983,0.701741,-0.943638,-0.152439,-0.518293,-0.670732,-9.93694,-0.318538,0.376018,-12.1646,-11.128,3.90244
559.547,85.231,2.29207,0,9.73575,0.728086,-0.919688,-0.0914634,-0.731707,-0.97561,-9.92017,-0.320933,0.426313,-11.6463,-13.0488,5.12195
559.557,85.2381,2.29469,0,9.69743,0.732876,-0.922083,0.335366,-0.640244,-0.945122,-9.9058,-0.258662,0.395178,-10.1829,-14.878,4.48171
559.567,85.2549,2.31193,0,9.64474,0.713716,-0.895737,0.670732,-0.945122,-0.640244,-9.92257,-0.289797,0.459844,-11.4329,-15.4878,6.40244
559.577,85.2529,2.3273,0,9.69264,0.759221,-0.958008,0.518293,-0.457317,-1.12805,-9.96568,-0.308958,0.455054,-9.87805,-17.3171,7.31707
559.587,85.2602,2.36057,0,9.75731,0.737666,-0.960403,0.731707,-0.731707,-0.853659,-9.99921,-0.318538,0.536484,-10.2744,-19.4512,7.80488
559.597,85.27,2.3846,0,9.72378,0.744851,-0.941243,1.15854,-0.914634,-0.579268,-10.0016,-0.294587,0.500559,-9.93902,-20.6402,7.10366
559.607,85.2746,2.40396,0,9.79803,0.737666,-0.989143,0.213415,-0.487805,-1.0061,-10.0088,-0.325723,0.483794,-10,-21.4634,6.34146
559.617,85.2957,2.42716,0,9.73815,0.694556,-0.938848,0.121951,-0.579268,-0.609756,-9.98484,-0.292192,0.502954,-9.48171,-21.4329,5.85366
559.627,85.318,2.44705,0,9.7621,0.689766,-0.929268,0.396341,-0.731707,-0.579268,-9.98244,-0.304167,0.490979,-9.45122,-22.9878,4.87805
559.637,85.3412,2.45557,0,9.72138,0.687371,-0.955613,-0.304878,-0.884146,-0.518293,-9.93933,-0.311353,0.440684,-8.71951,-24.939,5.88415
559.647,85.3823,2.47186,0,9.59924,0.656235,-0.835862,0,-1.25,-0.213415,-9.93215,-0.277822,0.474214,-9.02439,-26.9512,6.85976
559.657,85.4028,2.49001,0,9.70222,0.694556,-0.974773,-0.457317,-0.304878,-0.426829,-9.91778,-0.280217,0.483794,-9.14634,-27.7744,7.5
559.667,85.4212,2.5066,0,9.72378,0.694556,-0.888552,-0.27439,-0.853659,-0.487805,-9.93694,-0.304167,0.479004,-10.3963,-30.1524,7.10366
559.677,85.4408,2.52468,0,9.60163,0.687371,-0.819097,0.609756,-1.34146,-0.457317,-9.98244,-0.311353,0.488584,-9.08537,-32.561,6.92073
559.687,85.4441,2.53997,0,9.7118,0.752036,-0.965193,0.152439,-1.61585,-0.335366,-9.98723,-0.311353,0.479004,-8.71951,-33.2927,8.44512
559.697,85.4593,2.55941,0,9.63277,0.699346,-0.843047,0.27439,-2.19512,-0.457317,-10.0208,-0.299377,0.498164,-7.46951,-37.3476,8.44512
559.707,85.4837,2.59244,0,9.73336,0.701741,-0.991538,0.182927,-1.52439,0.0914634,-10.0279,-0.325723,0.560435,-7.65244,-39.3598,8.96341
559.717,85.5088,2.61949,0,9.62079,0.66342,-0.917292,0.579268,-2.19512,-0.396341,-10.0687,-0.323328,0.538879,-6.03659,-42.8049,8.32317
559.727,85.532,2.64149,0,9.77407,0.66342,-1.0586,0.457317,-1.15854,-0.426829,-10.0782,-0.316143,0.519719,-7.53049,-45.061,8.47561
559.737,85.5679,2.67334,0,9.77407,0.62989,-1.02507,0.365854,-1.34146,-0.27439,-10.0735,-0.313748,0.565225,-5.51829,-47.3476,9.72561
559.748,85.6025,2.71696,0,9.88664,0.622705,-1.08255,0.762195,-0.945122,-0.304878,-10.0639,-0.306563,0.62031,-6.82927,-50.0305,9.48171
559.757,85.6289,2.75844,0,9.75731,0.613125,-1.05381,0.304878,-1.28049,-0.640244,-10.0926,-0.299377,0.617915,-6.92073,-52.7439,9.42073
559.767,85.6628,2.801,0,9.71899,0.574805,-0.998723,0.335366,-1.09756,-0.670732,-10.0615,-0.285007,0.627495,-8.04878,-53.4451,8.23171
559.777,85.6713,2.83133,0,9.74773,0.603545,-1.01309,0.426829,-0.792683,-1.4939,-10.0232,-0.270637,0.5772,-9.57317,-54.7561,7.56098
559.787,85.6835,2.8505,0,9.74533,0.598755,-0.996328,0.213415,-0.548781,-1.31098,-10.0615,-0.261057,0.534089,-9.45122,-55.9451,8.17073
559.797,85.6913,2.87328,0,9.74773,0.613125,-1.01549,0.426829,-0.548781,-1.40244,-10.0256,-0.246687,0.550855,-8.93293,-56.7073,9.2378
559.807,85.7017,2.89914,0,9.71659,0.58678,-0.984353,0.640244,-0.213415,-1.4939,-10.004,-0.225132,0.565225,-11.4024,-59.1159,9.84756
559.818,85.7016,2.92352,0,9.72617,0.60594,-0.958008,0.396341,-0.152439,-1.95122,-10.0327,-0.296982,0.56283,-12.622,-61.4024,9.72561
559.827,85.6995,2.9418,0,9.70701,0.584385,-0.958008,0.518293,-0.823171,-2.31707,-10.0256,-0.313748,0.538879,-13.1098,-62.3171,9.29878
559.837,85.6904,2.99409,0,9.7621,0.63468,-0.986748,0.609756,-1.21951,-2.34756,-10.0208,-0.325723,0.689766,-14.3902,-65.5793,8.62805
559.847,85.6832,3.04537,0,9.72857,0.61552,-0.929268,0.365854,-1.15854,-2.40854,-10.0711,-0.301772,0.696951,-13.2317,-66.7073,9.17683
559.857,85.6701,3.08597,0,9.73815,0.617915,-1.0083,0.0914634,-1.34146,-2.89634,-10.0735,-0.292192,0.656235,-12.9878,-69.3902,8.17073
559.867,85.6543,3.14402,0,9.70941,0.613125,-0.960403,0,-1.43293,-3.20122,-10.0663,-0.246687,0.737666,-11.8902,-72.8963,7.77439
559.877,85.6382,3.22184,0,9.71659,0.60594,-0.996328,-0.0304878,-1.34146,-3.35366,-10.004,-0.217947,0.828677,-13.5671,-75.5183,9.60366
559.887,85.6135,3.31167,0,9.73096,0.641865,-1.03944,-0.121951,-1.25,-3.78049,-10.016,-0.208367,0.893342,-13.2927,-79.5122,10.8537
559.897,85.587,3.40926,0,9.70701,0.65863,-0.986748,0,-1.06707,-3.78049,-10.016,-0.210762,0.941243,-15.3963,-82.3171,12.0732
559.907,85.5634,3.51001,0,9.72378,0.646655,-0.950823,0.27439,-1.31098,-3.71951,-10.0256,-0.251477,0.969983,-15.9756,-86.311,11.5244
559.918,85.5402,3.59248,0,9.71899,0.651445,-0.998723,0.243902,-1.7378,-3.65854,-10.0351,-0.268242,0.905317,-17.1646,-88.4451,11.4024
559.927,85.5108,3.66433,0,9.73575,0.64905,-1.02507,-0.304878,-2.13415,-4.35976,-10.0256,-0.277822,0.869392,-16.9512,-91.0671,11.311
559.937,85.4808,3.73493,0,9.70222,0.661025,-1.0083,-0.182927,-2.13415,-4.29878,-10.0112,-0.280217,0.874182,-17.8659,-92.2561,11.311
559.947,85.4491,3.81998,0,9.6663,0.66342,-0.972378,-0.152439,-2.19512,-4.48171,-9.99681,-0.258662,0.946033,-16.8293,-96.311,12.439
559.958,85.417,3.91707,0,9.66869,0.64905,-0.965193,0.0304878,-2.59146,-4.7561,-10.0112,-0.304167,1.01309,-18.0793,-99.6646,12.0427
559.967,85.3775,4.01584,0,9.71899,0.706531,-0.967588,-0.243902,-2.28659,-4.90854,-10.0639,-0.316143,1.03944,-16.311,-103.933,11.372
559.977,85.3355,4.12371,0,9.74294,0.718506,-1.05141,-0.426829,-2.83537,-5.12195,-10.0998,-0.287402,1.09931,-16.7988,-106.677,11.4024
559.987,85.2929,4.23815,0,9.75012,0.756826,-1.07536,-0.792683,-3.47561,-4.81707,-10.0998,-0.203577,1.14482,-16.9207,-110.427,12.5
559.997,85.2513,4.36373,0,9.74773,0.742456,-1.07297,-1.25,-3.41463,-4.96951,-10.1333,-0.172441,1.21667,-15.6707,-113.75,12.5
560.007,85.2114,4.48876,0,9.72617,0.713716,-1.04662,-1.25,-3.29268,-5.21341,-10.1501,-0.251477,1.23583,-18.0793,-117.012,11.4024
560.018,85.1781,4.61828,0,9.72617,0.675395,-1.07057,-1.46341,-3.17073,-5.09146,-10.0591,-0.203577,1.26457,-17.5305,-120.03,10.4573
560.027,85.1396,4.75702,0,9.72138,0.677791,-1.12326,-1.58537,-3.04878,-5.64024,-10.0447,-0.244292,1.32445,-19.6037,-123.323,9.7561
560.037,85.0929,4.89936,0,9.69983,0.708926,-1.06339,-1.85976,-2.13415,-6.15854,-9.9561,-0.239502,1.3484,-20.3963,-128.994,10.7012
560.047,85.0459,5.05849,0,9.69504,0.701741,-1.12087,-1.95122,-1.98171,-6.37195,-9.96568,-0.268242,1.44659,-21.6463,-133.079,10.1829
560.057,84.9997,5.228,0,9.72617,0.696951,-1.10889,-1.55488,-1.52439,-6.46341,-9.97047,-0.263452,1.51844,-21.8293,-137.348,12.6524
560.067,84.9442,5.39253,0,9.68546,0.701741,-1.04662,-1.58537,-2.04268,-7.40854,-10.0232,-0.261057,1.53042,-22.8354,-141.707,12.0122
560.077,84.8832,5.58023,0,9.69983,0.749641,-1.0083,-2.46951,-2.43902,-7.53049,-10.016,-0.258662,1.65975,-25.3659,-146.189,11.189
560.087,84.8176,5.76805,0,9.74533,0.759221,-1.04423,-2.46951,-2.56098,-8.04878,-10.0256,-0.179626,1.69088,-25.2134,-151.494,10.4573
560.097,84.754,5.95581,0,9.74533,0.747246,-1.152,-2.40854,-2.71341,-8.10976,-10.0208,-0.189207,1.71962,-25.8841,-155.976,9.93902
560.107,84.6876,6.13932,0,9.75012,0.780776,-1.09931,-2.40854,-2.28659,-8.14024,-10.0088,-0.155676,1.7292,-25.061,-159.177,9.78659
560.117,84.6149,6.33221,0,9.77168,0.802332,-1.27655,-2.2561,-1.21951,-8.68902,-9.96328,-0.177231,1.79387,-26.372,-162.378,8.01829
560.127,84.5445,6.51684,0,9.7597,0.792751,-1.21427,-2.68293,0.0304878,-8.68902,-9.93694,-0.174836,1.78429,-25.3659,-164.634,6.98171
560.137,84.4739,6.71024,0,9.86988,0.790356,-1.17356,-2.89634,1.03659,-8.9939,-9.92257,-0.208367,1.85135,-23.9329,-168.079,4.29878
560.147,84.4012,6.91161,0,9.88185,0.816702,-1.32205,-3.47561,1.12805,-9.05488,-9.93215,-0.256267,1.92081,-23.5366,-171.738,3.17073
560.157,84.335,7.12292,0,9.74294,0.749641,-1.22146,-2.16463,0.762195,-9.20732,-9.94173,-0.258662,1.99984,-22.8963,-176.585,1.40244
560.167,84.2571,7.3381,0,9.39327,0.787961,-1.01309,-2.46951,-0.914634,-9.72561,-9.93694,-0.292192,2.05253,-23.2012,-179.024,-1.89024
560.177,84.1742,7.56634,0,9.63516,0.790356,-1.11129,-2.53049,0.609756,-10.6098,-9.94652,-0.225132,2.14833,-23.5061,-184.634,-1.95122
560.187,84.0893,7.78937,0,9.8555,0.790356,-1.30529,-1.40244,3.65854,-11.189,-9.92736,-0.186812,2.15791,-24.1768,-188.872,-3.04878
560.197,83.9929,8.01285,0,9.81719,0.845442,-1.25499,-2.31707,4.87805,-11.8598,-9.9561,-0.134121,2.20342,-25.3659,-192.652,-4.17683
560.207,83.8945,8.24527,0,9.61121,0.804727,-1.20469,-1.12805,4.87805,-12.5305,-9.9058,-0.105381,2.26808,-28.4756,-199.146,-3.56707
560.217,83.7929,8.49909,0,9.67588,0.828677,-1.1999,0.27439,6.06707,-12.8354,-9.90341,-0.0622705,2.4046,-30.2134,-203.506,-5.70122
560.227,83.6837,8.74594,0,9.73815,0.888552,-1.07057,-0.121951,5.88415,-13.1707,-9.95131,-0.0502954,2.42615,-34.4207,-208.293,-5.64024
560.237,83.5674,9.00088,0,9.75012,0.936453,-1.02507,0.762195,5.4878,-13.5671,-9.97526,-0.0550855,2.50759,-35.5183,-216.829,-7.28659
560.247,83.4405,9.27196,0,9.65432,1.00591,-1.0562,0.457317,6.0061,-13.9329,-9.98723,-0.0407153,2.62734,-36.189,-223.78,-8.14024
560.257,83.3072,9.5254,0,9.7118,1.02028,-0.972378,-0.701219,6.34146,-14.7561,-9.94891,-0.107776,2.57944,-36.311,-229.726,-7.83537
560.267,83.1654,9.76933,0,9.6184,1.0562,-0.946033,-1.98171,7.31707,-15.3354,-9.89143,-0.107776,2.56267,-34.878,-234.451,-7.22561
560.277,83.0133,10.0471,0,9.70941,1.17116,-1.03225,-2.77439,8.84146,-15.4268,-9.84353,-0.203577,2.74709,-36.3415,-240.793,-8.14024
560.287,82.8574,10.3481,0,9.75252,1.22625,-0.922083,-4.08537,6.98171,-15.5488,-9.84114,-0.246687,2.89797,-32.7439,-250.152,-9.63415
560.297,82.7185,10.6369,0,9.8555,1.16158,-0.943638,-3.96341,4.26829,-15.0305,-9.79803,-0.234712,2.87642,-32.7134,-258.628,-10.8232
560.307,82.583,10.9476,0,9.63037,1.14721,-0.802332,-3.17073,1.58537,-14.8171,-9.73575,-0.193997,3.00814,-31.6768,-265.396,-10.7317
560.318,82.4308,11.254,0,9.63756,1.24302,-0.696951,-4.35976,0.670732,-15.6707,-9.6663,-0.186812,3.01772,-30.7012,-271.921,-8.81098
560.327,82.275,11.5652,0,9.76928,1.28134,-0.804727,-5.03049,-0.304878,-16.0976,-9.65193,-0.258662,3.08239,-26.3415,-283.201,-9.78659
560.337,82.1133,11.8388,0,9.59924,1.27176,-0.826282,-4.96951,-2.16463,-16.8598,-9.70462,-0.352068,2.97461,-24.8476,-289.726,-10.3049
560.347,81.9469,12.1169,0,9.64714,1.3005,-0.771196,-6.25,-3.65854,-17.4085,-9.616,-0.378413,3.01533,-21.8902,-293.018,-12.0122
560.357,81.7842,12.4439,0,9.4723,1.28852,-0.773591,-6.64634,-6.09756,-17.2256,-9.51062,-0.313748,3.25723,-19.5122,-296.799,-11.311
560.367,81.6276,12.8478,0,9.55852,1.19511,-0.775986,-6.43293,-6.67683,-18.2012,-9.44356,-0.273032,3.64761,-19.4512,-307.988,-12.8963
560.377,81.4766,13.2545,0,9.63995,1.11847,-0.835862,-7.07317,-7.0122,-18.9939,-9.4723,-0.268242,3.73623,-16.4329,-321.707,-13.3537
560.387,81.3169,13.6482,0,9.93454,1.11847,-1.06339,-7.59146,-7.46951,-20.5793,-9.46272,-0.323328,3.73863,-17.0427,-330.823,-14.4512
560.397,81.1535,14.0702,0,9.90101,1.01549,-1.29331,-7.13415,-5.88415,-22.439,-9.3789,-0.383203,3.91107,-17.439,-337.47,-16.0976
560.407,80.9724,14.4947,0,9.79803,1.09931,-1.22386,-6.18902,-4.02439,-23.4756,-9.16813,-0.320933,3.90867,-17.378,-343.11,-16.5244
560.418,80.7888,14.9044,0,9.76449,1.07536,-1.03704,-6.12805,-3.44512,-24.3293,-8.98611,-0.366438,3.84161,-17.9573,-342.165,-17.1951
560.427,80.5782,15.3327,0,9.54176,1.15919,-0.759221,-6.43293,-2.04268,-26.1585,-8.8496,-0.359253,3.9446,-15.1524,-342.835,-18.2317
560.437,80.3323,15.8219,0,9.34537,1.29571,-0.64426,-8.41463,-2.34756,-28.2012,-8.77296,-0.332908,4.27511,-12.622,-344.726,-18.4451
560.447,80.1036,16.3484,0,9.89143,1.18074,-0.795146,-8.90244,-0.914634,-29.1768,-8.77535,-0.320933,4.54575,-9.60366,-349.909,-17.6524
560.457,79.8547,16.8889,0,9.92975,1.35079,-0.855022,-7.04268,-3.75,-29.7866,-8.8017,-0.354463,4.72777,-7.22561,-354.726,-17.6829
560.468,79.5975,17.4339,0,9.81479,1.42743,-0.910107,-5.51829,-5.73171,-30.061,-8.87594,-0.361648,4.89781,-4.90854,-355.793,-20.3049
560.477,79.3182,17.9822,0,9.85072,1.63819,-0.833467,-5.91463,-11.4939,-30.4573,-8.87594,-0.330513,5.02475,-3.32317,-356.585,-20.5793
560.487,79.0467,18.5328,0,9.97047,1.60706,-0.914897,-7.04268,-11.6768,-30.8232,-8.87834,-0.304167,5.15169,-4.48171,-355.945,-23.0488
560.497,78.75,19.0942,0,9.91538,1.75315,-0.850232,-9.26829,-13.1098,-32.1646,-8.80409,-0.251477,5.28341,-7.56098,-351.585,-24.6646
560.507,78.4632,19.7167,0,9.97286,1.55916,-0.66821,-11.6159,-14.7866,-34.0854,-8.73464,-0.323328,5.68817,-9.7561,-352.043,-25.7622
560.518,78.1362,20.3681,0,9.93454,1.84656,-0.63468,-12.9573,-17.5305,-35.4268,-8.73703,-0.486189,5.98036,-10.9451,-358.537,-26.5549
560.527,77.8008,21.0442,0,10.2746,1.9232,-0.696951,-15.3963,-19.1463,-36.7988,-8.5598,-0.58678,6.13843,-5.03049,-363.14,-24.7561
560.537,77.4458,21.7416,0,9.81958,2.04295,-0.900527,-17.7439,-23.689,-37.1341,-8.43765,-0.603545,6.31806,3.01829,-369.573,-22.0122
560.547,77.0946,22.4802,0,10.0782,2.02379,-0.950823,-17.9878,-25.2134,-38.2927,-8.18618,-0.584385,6.52403,8.53659,-371.616,-17.1341
560.557,76.7349,23.2306,0,9.7597,2.06451,-1.07776,-18.3537,-27.8659,-38.6585,-8.02571,-0.608335,6.63899,11.8902,-370.03,-10.8841
560.567,76.3945,23.9862,0,9.65193,2.00224,-1.08494,-17.8049,-30.4878,-37.8963,-7.7431,-0.661025,6.61504,13.8415,-364.451,-8.14024
560.577,76.062,24.7592,0,9.9082,2.05253,-1.15679,-18.872,-30.8232,-37.8049,-7.44851,-0.665815,6.64378,17.561,-358.75,-7.2561
560.587,75.7276,25.5817,0,9.87227,2.09325,-1.12566,-18.9024,-32.8354,-38.1402,-7.10842,-0.55325,6.81144,16.5244,-353.72,-5.67073
560.597,75.3861,26.4471,0,9.65432,2.11001,-1.28373,-16.8598,-32.9878,-38.811,-6.72282,-0.457449,6.89047,19.1159,-349.268,-6.67683
560.607,75.0325,27.3423,0,9.70462,2.21779,-1.56155,-15.5488,-30.8537,-39.6341,-6.41386,-0.423918,6.96711,19.7561,-340.823,-5.67073
560.617,74.6506,28.2782,0,9.47709,2.50759,-1.71723,-13.5671,-32.3476,-39.2683,-6.03305,-0.335303,7.0222,18.7805,-332.012,-4.02439
560.627,74.2563,29.233,0,9.54415,2.71835,-1.68609,-12.1341,-31.5549,-39.1159,-5.78158,-0.411943,7.08926,19.6646,-320.884,-1.95122
560.637,73.8915,30.2148,0,9.64953,2.55549,-1.59987,-8.90244,-29.6341,-39.0854,-5.53968,-0.493374,7.21619,19.5122,-310.793,-2.34756
560.647,73.548,31.2174,0,9.79803,2.52435,-1.78189,-6.12805,-28.2927,-38.4451,-5.27623,-0.493374,7.26888,19.8171,-304.482,-2.77439
560.657,73.2141,32.2564,0,9.59445,2.57225,-1.56395,-5.12195,-25.6098,-37.0122,-4.99362,-0.467029,7.40301,18.6585,-294.268,-2.86585
560.668,72.9022,33.3069,0,9.27112,2.51956,-1.25739,-3.78049,-32.7744,-35.061,-4.77806,-0.428708,7.46288,19.0549,-285.488,-0.762195
560.677,72.615,34.3662,0,9.63037,2.60339,-1.90404,-4.54268,-22.2256,-33.3232,-4.50743,-0.423918,7.4078,19.8476,-277.835,0.182927
560.688,72.3664,35.4377,0,9.64235,2.50519,-1.89925,-7.2561,-16.2195,-31.128,-4.30385,-0.340093,7.48204,24.0244,-269.421,2.95732
560.697,72.1265,36.4914,0,9.32142,2.53154,-1.18793,-8.20122,-15.1524,-29.4512,-4.19368,-0.354463,7.49162,22.0732,-259.543,7.46951
560.707,71.8774,37.5022,0,8.89989,2.60818,-0.773591,-8.41463,-18.9024,-28.5671,-4.09788,-0.419128,7.33355,19.2988,-244.97,10.5183
560.717,71.6539,38.4654,0,9.44356,2.68721,-1.24541,-8.29268,-10.5488,-27.378,-4.02363,-0.459844,7.16829,19.939,-228.902,12.9878
560.727,71.4022,39.3849,0,9.59445,2.92911,-1.42743,-9.72561,-7.65244,-28.4756,-4.03561,-0.55325,7.1659,25.0305,-216.646,15.5793
560.737,71.0943,40.3078,0,8.73464,3.06802,-0.850232,-11.7988,-7.40854,-29.878,-3.9925,-0.512534,7.4054,26.7988,-205.915,19.3598
560.747,70.805,41.1985,0,9.20166,3.10634,-1.16877,-10.9756,2.16463,-30.0305,-4.01645,-0.476609,7.49881,30.3659,-197.012,22.8049
560.757,70.4818,42.0436,0,8.84481,3.32908,-0.991538,-9.26829,0.914634,-30.061,-4.1362,-0.423918,7.65209,32.0427,-188.384,29.3902
560.767,70.1601,42.8642,0,9.00527,3.43685,-1.38672,-10,7.80488,-30.0305,-4.26792,-0.347278,7.97781,33.9939,-184.177,33.0793
560.777,69.8152,43.6623,0,8.61728,3.5566,-1.41785,-11.372,7.65244,-29.9085,-4.30385,-0.148491,8.13588,29.6646,-181.128,36.9817
560.787,69.5196,44.4113,0,8.88073,3.37937,-1.5376,-12.6829,9.02439,-28.8415,-4.40444,-0.0311353,8.18618,24.9695,-173.628,40.0915
560.797,69.2537,45.1428,0,8.8017,3.21172,-1.55437,-11.189,7.19512,-28.0183,-4.3757,0.158071,8.25084,20.061,-165.671,43.3232
560.807,68.9886,45.8463,0,8.64602,3.25244,-1.82979,-8.29268,1.82927,-27.3171,-4.35175,0.189207,8.22929,15.9756,-157.287,45.7012
560.817,68.7163,46.5461,0,9.18011,3.56858,-2.2609,-5.91463,6.70732,-27.3171,-4.36852,0.129331,8.48795,10.7927,-152.256,43.628
560.827,68.3702,47.2527,0,8.66039,3.94939,-2.06451,-5.30488,3.68902,-28.7195,-4.34217,0.0958008,8.76577,11.4634,-149.573,43.2012
560.837,68.0077,47.9373,0,8.88073,4.14338,-2.22976,-3.20122,-0.914634,-30.0915,-4.38528,-0.0335303,8.91426,12.8354,-148.659,41.4634
560.847,67.6167,48.6196,0,8.67237,4.27511,-2.24653,-2.0122,-3.56707,-31.2195,-4.48348,-0.0694556,9.37411,11.8293,-146.89,38.7195
560.857,67.2567,49.2686,0,9.04838,4.19847,-2.13396,-0.487805,2.5,-31.6159,-4.58886,-0.0981958,9.52978,10.4573,-145.61,35.3659
560.867,66.9101,49.8966,0,9.23759,4.20565,-2.42136,2.04268,1.92073,-31.8293,-4.6176,-0.0646655,9.64953,5.91463,-141.646,33.75
560.877,66.5435,50.5174,0,9.24957,4.41642,-2.41897,3.53659,-2.07317,-32.439,-4.63676,0.0407153,9.89622,0.27439,-136.829,33.7805
560.887,66.1557,51.1268,0,9.04359,4.50743,-2.31838,5.09146,-8.01829,-33.3841,-4.59604,0.0766406,9.96568,-4.5122,-134.451,35.8537
560.897,65.7439,51.7248,0,9.20646,4.70621,-2.61057,6.70732,-7.62195,-35.4268,-4.59365,-0.0119751,10.1142,-4.45122,-131.921,35.6098
560.907,65.2745,52.3025,0,9.02922,5.02715,-2.79259,6.15854,-5.45732,-37.9878,-4.59365,-0.122146,10.1621,-1.06707,-128.811,34.878
560.918,64.806,52.8659,0,9.17053,5.01517,-2.48124,7.89634,-8.07927,-39.7561,-4.67029,-0.193997,10.4447,-1.4939,-125.549,30.2134
560.927,64.3191,53.4136,0,9.09389,5.16845,-2.44292,9.11585,-13.8415,-40.6707,-4.69903,-0.114961,10.598,-5.06098,-123.415,27.0122
560.937,63.8243,53.9527,0,9.34776,5.31215,-2.72314,10.0305,-13.8415,-42.4695,-4.71819,-0.0191602,10.8063,-7.2561,-123.75,24.0854
560.948,63.305,54.461,0,9.33339,5.4798,-2.69679,9.96951,-13.5061,-44.3293,-4.7613,0.0981958,10.7848,-8.47561,-123.293,21.6768
560.957,62.7737,54.9411,0,9.34058,5.50376,-2.58423,11.9512,-16.0671,-46.4329,-4.81638,0.0958008,10.8135,-6.34146,-119.573,21.311
560.967,62.234,55.4053,0,9.63277,5.59716,-2.91953,12.8354,-12.6829,-49.0854,-4.84512,0.00239502,10.9237,-5.70122,-117.896,18.1098
560.977,61.6534,55.8451,0,9.4747,5.76002,-2.91953,10.8537,-14.3902,-52.0427,-4.81159,-0.110171,10.7752,-3.93293,-116.159,17.7134
560.987,61.0693,56.2834,0,9.51302,5.75763,-2.97701,10.5793,-14.6951,-53.811,-4.71579,-0.193997,10.7704,-3.47561,-112.835,15.7927
560.997,60.4563,56.727,0,9.16813,5.87738,-2.78301,9.60366,-21.6768,-54.939,-4.67029,-0.227527,10.962,-4.81707,-113.659,15.7622
561.007,59.8468,57.1719,0,9.33579,5.94444,-3.06083,9.14634,-22.9573,-56.189,-4.5218,-0.217947,10.8638,-7.9878,-112.896,15.7927
561.018,59.1979,57.6137,0,8.8951,6.07137,-2.64171,8.2622,-32.5,-57.7134,-4.45474,-0.201182,10.9021,-8.20122,-111.799,15.3963
561.027,58.5504,58.0498,0,8.77535,6.13843,-2.4022,6.40244,-39.6037,-57.561,-4.38049,-0.186812,10.8878,-8.01829,-109.726,16.9817
561.037,57.9066,58.4743,0,8.82086,6.20789,-2.25611,3.75,-35.5488,-58.1707,-4.23918,-0.162861,10.6243,-8.93293,-105.366,15.6402
561.047,57.2391,58.8884,0,8.66758,6.42105,-2.44531,2.0122,-35.7622,-59.0549,-4.1817,-0.143701,10.5812,-10.0915,-100.396,15.5488
561.057,56.5957,59.2983,0,9.01964,6.36596,-2.65608,-2.5,-27.1341,-60.6402,-4.05477,-0.124541,10.4375,-12.7439,-94.7561,16.1585
561.067,55.9042,59.7165,0,8.27958,6.41626,-2.47166,-6.4939,-32.0732,-61.6463,-3.89191,-0.0574805,10.3656,-14.2073,-88.3537,14.6341
561.077,55.2386,60.1304,0,8.38496,6.2989,-2.48124,-8.78049,-28.0488,-62.1646,-3.72665,-0.0766406,10.1094,-13.5671,-82.0732,12.8354
561.087,54.5801,60.5352,0,8.1742,6.18394,-2.51238,-11.7378,-26.25,-62.4085,-3.58774,-0.0766406,9.84832,-10.7622,-74.4512,11.6159
561.097,53.9287,60.9468,0,7.91793,6.1049,-2.43813,-13.7195,-25.4573,-61.9512,-3.38416,-0.0934058,9.61121,-8.93293,-65.9756,9.42073
561.108,53.2849,61.3786,0,7.5491,5.9157,-2.58902,-16.0976,-26.4024,-61.5854,-3.20214,-0.138911,9.60642,-7.71341,-57.8963,7.56098
561.117,52.6726,61.8295,0,7.39822,5.6738,-2.58902,-15.9146,-30.3354,-60.9146,-3.01054,-0.215552,9.55852,-9.81707,-49.6341,5.36585
561.127,52.0494,62.2868,0,6.91682,5.61872,-2.36867,-16.1585,-34.1463,-60,-2.85247,-0.189207,9.43877,-12.2866,-38.9634,3.96341
561.137,51.434,62.7497,0,6.81383,5.6283,-2.56267,-17.1341,-37.0732,-59.5122,-2.6944,-0.102986,9.29507,-15.6098,-28.689,3.41463
561.147,50.8274,63.2163,0,6.75635,5.76721,-2.48364,-19.0244,-39.4817,-57.9878,-2.55309,-0.0215552,9.17292,-15.1524,-17.4695,4.11585
561.157,50.2484,63.6657,0,6.71803,5.69775,-2.60099,-21.0976,-40.4573,-56.7683,-2.56267,0.0359253,9.24957,-17.378,-7.89634,7.53049
561.167,49.6759,64.1818,0,6.67731,5.84624,-2.67763,-21.7073,-43.811,-55.4573,-2.5483,0.0215552,9.02443,-17.5,2.56098,9.66463
561.177,49.1982,64.5588,0,7.33834,5.772,-3.44883,-19.6341,-37.7134,-53.1098,-2.55788,0.0359253,8.79691,-16.8598,17.3476,9.78659
561.187,48.709,64.9291,0,7.10363,5.9636,-2.8357,-19.0244,-42.1951,-51.5244,-2.53633,0.0479004,8.87834,-15.3659,29.5427,8.56707
561.197,48.2101,65.2758,0,6.82102,6.04024,-2.60818,-20.4878,-42.4085,-50.4268,-2.49082,0.0239502,8.62207,-14.2378,40.7317,8.23171
561.207,47.7029,65.6007,0,6.55996,6.13843,-2.52675,-21.2805,-39.5427,-49.0854,-2.50998,-0.0670605,8.61249,-13.9329,54.9085,5.33537
561.218,47.1964,65.915,0,6.31327,6.17436,-2.53872,-22.8963,-37.1646,-47.4695,-2.5028,-0.0838257,8.64363,-14.6646,63.7805,5.67073
561.227,46.7102,66.2197,0,6.3468,6.17436,-2.5028,-24.3598,-37.1341,-46.7378,-2.44292,-0.129331,8.5119,-15,75.8537,4.57317
561.237,46.2331,66.5037,0,6.15041,6.21268,-2.5028,-26.0976,-40.1524,-44.6037,-2.44531,-0.165256,8.43047,-16.128,87.5,4.2378
561.247,45.7825,66.7646,0,6.16478,6.18634,-2.62734,-27.9878,-37.8049,-43.2622,-2.43813,-0.158071,8.27719,-13.811,100.305,4.14634
561.257,45.3392,67.0145,0,5.93965,6.13604,-2.37586,-29.878,-39.0549,-41.7378,-2.43813,-0.160466,8.29874,-11.7683,111.616,5.4878
561.267,44.9268,67.2176,0,6.04024,6.14323,-2.26569,-30.8841,-40.9451,-40.3963,-2.50998,-0.117356,8.0784,-11.0366,120.64,8.93293
561.277,44.5213,67.3853,0,5.99234,6.27735,-2.37586,-32.8659,-38.0183,-38.811,-2.56507,-0.153281,7.94667,-8.90244,132.744,10.2744
561.287,44.0291,67.5293,0,5.04391,6.42823,-2.22497,-33.9939,-45.1524,-37.1646,-2.69919,-0.110171,8.16941,-8.47561,140.579,9.72561
561.297,43.6708,67.6328,0,6.01868,6.34201,-2.60339,-33.628,-35.8537,-35.4878,-2.80696,-0.112566,8.09277,-5.12195,146.89,10.061
561.307,43.3099,67.6919,0,5.90612,6.3468,-2.71116,-34.4512,-34.8171,-35.3354,-2.96264,-0.0215552,8.09517,-1.79878,156.341,9.35976
561.318,42.9039,67.6904,0,5.4822,6.56475,-2.62015,-35.3049,-37.6829,-34.3902,-3.12071,0.0359253,7.91314,-1.61585,166.524,9.05488
561.327,42.5023,67.651,0,5.42711,6.64139,-2.54112,-35.061,-35.7622,-33.5366,-3.2692,0.0814307,7.91554,-3.38415,174.329,9.54268
561.338,42.1265,67.5568,0,5.54447,6.68929,-2.53872,-35.122,-34.4512,-32.5305,-3.43685,0.114961,7.78142,-3.38415,181.28,8.71951
561.348,41.7925,67.4316,0,5.79595,6.65576,-2.6944,-34.0549,-32.9268,-31.8902,-3.6548,0.126936,7.94907,-5.7622,184.238,5.97561
561.358,41.4192,67.3002,0,5.43909,6.91442,-2.68242,-35.061,-33.4756,-30.7317,-3.70989,0.182021,7.97542,-7.13415,190.091,4.05488
561.368,41.052,67.1642,0,5.5301,7.09405,-2.5986,-35.5793,-34.5427,-30.3659,-3.753,0.287402,7.98979,-9.84756,196.707,5.4878
561.377,40.6868,66.989,0,5.44148,7.08686,-2.66566,-35.4573,-33.5366,-30.061,-3.83203,0.268242,7.77184,-8.65854,204.97,6.70732
561.387,40.339,66.8061,0,5.57082,7.20422,-2.63692,-36.1585,-34.2073,-29.4207,-3.92544,0.186812,7.84129,-6.79878,209.421,7.28659
561.397,39.9933,66.5732,0,5.54208,7.30481,-2.68003,-35.122,-34.1463,-28.8415,-4.1362,0.105381,7.76944,-7.13415,211.524,7.95732
561.407,39.6775,66.3098,0,5.82948,7.41977,-2.69919,-35.4573,-30.0915,-28.4756,-4.27032,-0.0287402,7.69999,-8.07927,214.909,7.10366
561.417,39.3593,66.0285,0,5.74326,7.50599,-2.46208,-34.8476,-28.1402,-27.8659,-4.44037,-0.0167651,7.77423,-12.3476,214.36,5.15244
561.427,39.0364,65.7188,0,5.64267,7.48683,-2.61536,-35.122,-28.1707,-28.1402,-4.56251,0.0550855,7.67604,-13.9634,215.366,2.65244
561.437,38.6961,65.3874,0,5.47262,7.31678,-2.60339,-35.5183,-27.5305,-30.1524,-4.62718,0.186812,7.53473,-14.9695,221.524,2.86585
561.447,38.3482,65.0274,0,5.41993,7.07249,-2.67284,-34.6646,-26.7988,-32.9878,-4.72777,0.251477,7.39582,-15.7927,225.091,0.487805
561.457,37.9982,64.67,0,5.50136,6.91442,-2.84768,-33.5671,-27.561,-36.0366,-4.82596,0.325723,7.46528,-16.8293,225.762,1.58537
561.467,37.6268,64.3064,0,5.30018,6.78749,-2.86923,-32.9878,-27.0427,-37.8659,-4.86428,0.313748,7.38145,-16.7378,227.561,0.609756
561.477,37.2395,63.9269,0,5.3385,6.99825,-2.77583,-31.4939,-25.3354,-38.9329,-4.84512,0.253872,7.15153,-18.5366,234.207,-2.34756
561.487,36.8303,63.5771,0,5.20198,7.18985,-2.7878,-30.8841,-25.2744,-38.9939,-4.81638,0.217947,7.21619,-19.9085,239.878,-1.92073
561.497,36.4002,63.2369,0,5.06547,7.34313,-2.67284,-31.2195,-26.7073,-39.3293,-4.87865,0.170046,7.28565,-20.4268,243.354,-2.07317
561.507,35.9833,62.8831,0,5.20198,7.44851,-2.37586,-32.1646,-28.6585,-39.5427,-4.92416,0.0670605,7.17308,-22.8963,248.689,-1.7378
561.517,35.5551,62.5326,0,5.06786,7.49402,-2.3088,-32.9878,-29.2073,-39.7866,-4.97206,0.0167651,7.17548,-23.3232,252.226,-0.853659
561.527,35.1517,62.1341,0,5.20917,7.46049,-2.213,-32.378,-27.0732,-39.878,-5.02715,0.0215552,6.85694,-24.2988,259.024,-0.731707
561.537,34.7652,61.6635,0,5.2427,7.36947,-2.39502,-30.5183,-23.7805,-40,-5.18043,0.0622705,6.52882,-21.5854,266.585,-0.152439
561.547,34.392,61.1981,0,5.31934,7.46288,-2.50759,-29.6341,-21.5854,-39.5427,-5.36724,0.0670605,6.6821,-21.0366,266.037,1.03659
561.557,34.0066,60.7175,0,5.16366,7.4557,-2.53154,-29.7256,-21.5854,-39.9695,-5.45106,0.158071,6.58391,-20.8537,265.64,0.670732
561.567,33.6156,60.2065,0,4.99122,7.40061,-2.46448,-29.2988,-21.8598,-39.878,-5.6283,0.205972,6.50966,-23.1707,270.854,-0.0609756
561.577,33.1948,59.6996,0,4.78764,7.33594,-2.27527,-27.5,-21.189,-41.9512,-5.72889,0.258662,6.5384,-26.5549,276.921,-0.579268
561.587,32.7504,59.1656,0,4.73495,7.49162,-2.34472,-27.0427,-21.7683,-43.5061,-5.7217,0.308958,6.27016,-25.8537,283.384,0.426829
561.597,32.2632,58.595,0,4.51701,7.71915,-2.29922,-27.4085,-22.0427,-44.7866,-5.85822,0.304167,6.1049,-20.8232,288.049,2.34756
561.607,31.7516,58.0629,0,4.43558,7.93709,-2.43334,-28.4451,-21.7073,-45.9451,-6.00431,0.213157,6.34441,-16.9207,286.524,4.08537
561.617,31.2101,57.5127,0,4.24397,7.9323,-2.54591,-27.9573,-21.25,-47.8963,-6.16957,0.0790356,6.2989,-12.7744,287.896,3.84146
561.627,30.6617,56.9141,0,4.2799,8.15983,-2.28485,-28.7195,-24.7866,-48.75,-6.31088,-0.0646655,6.06419,-12.3171,295.427,3.29268
561.637,30.1481,56.2805,0,4.39726,8.02571,-2.28964,-29.7866,-27.378,-48.4451,-6.38033,-0.160466,5.83187,-13.0793,306.25,2.34756
561.648,29.6751,55.6722,0,4.3781,7.84608,-2.53872,-28.75,-24.1768,-46.25,-6.48811,-0.138911,5.93725,-12.6524,311.524,-0.731707
561.657,29.2212,55.0801,0,4.41163,7.96344,-2.49561,-27.378,-22.8963,-44.9085,-6.53601,-0.0694556,5.93965,-12.7744,311.829,-0.97561
561.667,28.7917,54.4519,0,4.4236,7.99937,-2.62973,-25.8841,-21.1585,-43.2622,-6.71084,-0.0742456,5.78637,-15.1829,313.354,-2.59146
561.677,28.366,53.8033,0,4.41163,8.09038,-2.47885,-24.7256,-23.4146,-43.0488,-6.80425,-0.0383203,5.63788,-19.939,317.713,-4.05488
561.687,27.9447,53.1672,0,4.28469,7.99697,-2.39981,-26.1585,-23.5976,-42.622,-6.93598,0.0215552,5.68099,-23.75,318.872,-6.25
561.697,27.5067,52.4935,0,4.14338,8.01134,-2.70398,-26.0976,-20.3963,-43.4756,-7.00064,0.110171,5.41753,-27.0427,319.634,-6.4939
561.707,27.051,51.7942,0,4.03321,7.99937,-2.65847,-23.9634,-20,-44.9695,-7.00543,0.227527,5.17564,-30.4268,327.835,-3.59756
561.717,26.5412,51.0854,0,3.70031,8.31072,-2.62255,-22.9268,-23.628,-45.7927,-7.12758,0.208367,5.09421,-35.8841,335.091,-0.823171
561.727,26.0435,50.3788,0,3.8464,8.45202,-2.55309,-24.6646,-21.4329,-46.5549,-7.2114,0.215552,5.03433,-39.2988,338.78,1.12805
561.737,25.5612,49.6596,0,3.88472,8.34425,-2.26569,-24.2073,-19.2683,-47.0122,-7.31199,0.160466,4.91219,-43.5976,338.476,4.20732
561.747,25.0971,48.9387,0,4.07153,8.49753,-2.16031,-25.061,-14.1768,-47.439,-7.39582,0.0910107,4.82836,-46.7378,340.488,4.93902
561.757,24.6338,48.213,0,4.03321,8.56938,-2.38065,-28.4756,-7.71341,-47.5,-7.53473,0.0191602,4.76609,-49.939,343.628,5.30488
561.767,24.1759,47.4473,0,3.80569,8.63165,-2.32077,-26.8598,-6.64634,-45,-7.61137,-0.105381,4.50024,-52.9573,347.195,4.5122
561.777,23.7539,46.6595,0,3.90149,8.71787,-2.3567,-24.5427,-6.12805,-42.9268,-7.71675,-0.222737,4.3278,-51.5244,349.512,2.83537
561.787,23.3201,45.9044,0,3.57097,8.81607,-2.37586,-22.5915,-2.68293,-40.7927,-7.81974,-0.237107,4.39007,-52.5915,347.622,1.92073
561.797,22.9018,45.1477,0,3.37698,8.67955,-2.34951,-21.0671,-0.0304878,-38.4756,-7.8844,-0.306563,4.2799,-51.8598,342.866,1.58537
561.807,22.4794,44.4209,0,3.10634,8.72985,-1.99266,-21.0366,1.31098,-36.3415,-7.94907,-0.251477,4.31104,-54.5732,339.299,1.15854
561.818,22.0226,43.6462,0,2.72314,8.81607,-1.83219,-22.4695,3.75,-35.7622,-8.0784,-0.299377,4.03561,-58.2622,340.884,2.0122
561.827,21.5746,42.8778,0,2.61057,8.72745,-1.75794,-23.5366,-0.884146,-34.7561,-8.1766,-0.253872,3.97573,-59.2683,341.067,1.58537
561.837,21.1496,42.1214,0,2.61536,8.67716,-2.15073,-24.0244,-1.7378,-33.5671,-8.34664,-0.263452,3.97094,-59.6341,336.555,2.28659
561.847,20.7588,41.3338,0,2.67763,8.90229,-2.54112,-21.8598,-0.609756,-30.8841,-8.45921,-0.356858,3.74581,-59.6951,333.78,1.12805
561.857,20.4318,40.5307,0,3.04407,8.80888,-2.47406,-20.8841,0.914634,-29.9085,-8.55022,-0.443079,3.57816,-57.7134,334.146,-0.945122
561.867,20.1109,39.7718,0,3.00814,8.93342,-2.34233,-18.9939,5.94512,-29.0244,-8.61489,-0.445474,3.65959,-59.5122,333.171,-1.34146
561.878,19.7599,39.0167,0,2.62494,9.01725,-2.19144,-18.6585,8.93293,-27.8963,-8.72027,-0.538879,3.58055,-58.6585,327.378,-2.22561
561.887,19.3778,38.2233,0,2.34712,9.15137,-1.7316,-18.0183,5.45732,-28.0183,-8.77775,-0.570015,3.29794,-56.8293,325.671,-0.701219
561.897,19.0095,37.4608,0,2.39741,9.34297,-1.92799,-18.0488,2.62195,-27.4085,-8.88552,-0.603545,3.33147,-56.4024,319.787,-0.670732
561.907,18.6456,36.7041,0,2.3567,9.19209,-2.12438,-18.0183,4.39024,-27.6829,-9.01725,-0.687371,3.26202,-55.7927,310.183,0.945122
561.917,18.2594,35.9418,0,2.13157,9.07712,-1.73639,-14.878,4.84756,-28.3232,-9.07233,-0.716111,3.11592,-55.1524,303.598,0.365854
561.927,17.8812,35.1739,0,2.14833,9.09868,-1.66693,-13.1098,9.84756,-28.4451,-9.17053,-0.797541,2.98419,-52.1951,298.049,0.579268
561.937,17.5377,34.415,0,2.37586,9.26873,-1.18793,-13.6585,14.6037,-27.8963,-9.15616,-0.890947,2.88121,-46.189,294.421,1.15854
561.947,17.2116,33.6533,0,2.49322,9.25196,-1.39869,-13.689,18.3537,-28.2622,-9.16574,-0.859812,2.73511,-37.6524,289.787,1.03659
561.957,16.8824,32.8884,0,2.32077,9.31902,-1.71483,-11.4634,18.0793,-27.0122,-9.15856,-0.816702,2.58423,-31.4939,286.921,2.59146
561.967,16.571,32.1551,0,2.20581,9.20646,-1.90644,-9.29878,17.8354,-24.8171,-9.19448,-0.752036,2.5986,-27.5,284.939,2.40854
561.977,16.2652,31.4464,0,2.11241,9.44835,-1.75794,-9.69512,18.9329,-23.1098,-9.30944,-0.687371,2.60578,-23.2927,278.75,2.62195
561.987,15.9788,30.7244,0,2.07888,9.37171,-1.43462,-11.0366,18.4451,-21.5549,-9.34058,-0.59636,2.42855,-22.5,274.695,2.89634
561.997,15.6589,29.9914,0,1.75794,9.41482,-1.32445,-11.7378,17.6829,-21.6159,-9.42201,-0.546064,2.27287,-22.2561,272.409,1.46341
562.008,15.3097,29.2446,0,1.53521,9.64235,-1.35079,-13.4451,15.4878,-22.1341,-9.49865,-0.548459,2.10043,-21.6159,270,-1.61585
562.017,14.9606,28.5019,0,1.54718,9.71899,-1.43701,-14.2988,14.4512,-22.8354,-9.50823,-0.481399,1.98787,-21.25,266.433,-2.19512
562.027,14.6183,27.7758,0,1.73399,9.75491,-1.37474,-15.4268,14.3293,-24.9695,-9.51062,-0.479004,1.92799,-19.1463,261.585,-1.09756
562.037,14.2521,27.0632,0,1.55676,9.66151,-1.12566,-15.122,9.54268,-26.2195,-9.53936,-0.433499,1.86572,-16.5854,259.665,-0.27439
562.047,13.918,26.369,0,1.79866,9.48188,-1.22625,-14.4207,8.65854,-26.9207,-9.59924,-0.378413,1.83219,-15.061,257.226,3.07927
562.057,13.5318,25.7054,0,1.41306,9.73096,-0.948428,-17.2256,5.03049,-27.8659,-9.65911,-0.258662,1.85375,-16.2195,253.018,6.40244
562.067,13.1714,25.0637,0,1.52084,9.6639,-1.08255,-18.6585,2.77439,-27.4085,-9.75252,-0.193997,1.84656,-21.189,246.616,7.77439
562.077,12.8504,24.3938,0,1.74118,9.54415,-0.900527,-19.3902,0,-26.9817,-9.79323,-0.289797,1.60945,-21.6463,239.604,5.73171
562.087,12.5252,23.7424,0,1.56155,9.50104,-0.950823,-20.7927,-0.548781,-26.0061,-9.83156,-0.275427,1.57592,-22.5,234.604,5.70122
562.097,12.2506,23.1127,0,1.81782,9.39087,-0.874182,-21.8598,-0.762195,-24.8171,-9.80281,-0.265847,1.54718,-21.4329,227.866,5.45732
562.107,12.0047,22.4706,0,1.96631,9.46033,-0.795146,-21.2195,-0.243902,-24.0549,-9.8124,-0.320933,1.37953,-19.7866,223.293,6.7378
562.118,11.7849,21.8482,0,1.92799,9.30944,-0.929268,-18.4756,0.0304878,-21.7988,-9.92975,-0.399968,1.36756,-17.2256,219.939,5.91463
562.127,11.6031,21.224,0,2.0693,9.29268,-1.10171,-17.2256,1.55488,-20.122,-9.96328,-0.428708,1.24781,-17.1951,212.744,4.02439
562.137,11.4319,20.6334,0,1.94715,9.21603,-1.23583,-15.0915,3.81098,-18.1402,-9.99681,-0.431104,1.28613,-16.8293,206.28,3.71951
562.147,11.2686,20.0359,0,1.81303,9.25675,-1.16637,-13.689,5.18293,-15.9451,-10.1046,-0.500559,1.15679,-15.3049,199.299,2.0122
562.157,11.1239,19.4193,0,1.74357,9.13939,-0.955613,-12.1037,5.15244,-13.811,-10.1429,-0.526904,0.962798,-13.75,193.354,1.0061
562.167,10.9921,18.7991,0,1.70525,9.29986,-0.627495,-13.4451,3.32317,-11.9512,-10.1166,-0.6251,0.831072,-9.72561,189.848,-0.701219
562.177,10.8686,18.213,0,1.65017,9.34297,0.0455054,-14.0549,-2.0122,-10.6098,-10.1453,-0.60115,0.871787,-6.21951,184.116,-2.40854
562.187,10.7727,17.6566,0,1.72681,9.43159,-0.280217,-12.1037,-3.38415,-8.78049,-10.0256,-0.462239,0.886157,-8.10976,179.817,-3.53659
562.197,10.7358,17.1221,0,1.99745,9.64714,-0.936453,-10.3049,-4.60366,-5.67073,-9.97526,-0.443079,0.878972,-10.6098,177.134,-3.53659
562.207,10.7742,16.582,0,2.41178,9.74533,-1.1041,-10.8232,-3.29268,-3.01829,-10.0303,-0.414338,0.759221,-13.9634,170.823,-3.90244
562.218,10.8721,16.015,0,2.65129,9.35734,-0.979563,-8.9939,-1.67683,-2.34756,-10.0543,-0.359253,0.538879,-15.7317,162.104,-3.9939
562.227,11.0303,15.4669,0,2.70158,9.07952,-0.656235,-6.64634,-1.15854,-1.64634,-10.095,-0.285007,0.517324,-16.6463,153.78,-2.31707
562.237,11.4108,14.9294,0,2.71356,8.96695,-0.5772,-4.05488,0.27439,0.304878,-10.1381,-0.182021,0.464634,-17.8659,147.652,-0.335366
562.247,11.6051,14.4297,0,3.00814,8.89271,-0.651445,-2.80488,2.43902,3.23171,-10.1788,-0.102986,0.531694,-20,136.921,4.05488
562.257,11.8426,13.978,0,3.24525,8.91905,-0.728086,-2.31707,7.43902,7.07317,-10.2507,-0.0838257,0.65384,-24.0854,126.616,7.0122
562.267,12.1329,13.5221,0,3.44164,9.01006,-0.859812,-2.04268,13.2622,11.128,-10.3345,-0.143701,0.548459,-27.4695,115.732,10.6402
562.277,12.4671,13.0242,0,3.40811,8.96935,-0.708926,-2.16463,18.4451,16.4024,-10.2986,-0.172441,0.268242,-27.3171,109.634,14.3598
562.287,12.8496,12.5245,0,3.39614,8.81367,-0.565225,-2.07317,23.4756,21.4634,-10.2363,-0.213157,0.162861,-21.6159,102.561,17.0732
562.297,13.2718,12.0481,0,3.32668,8.77775,-0.409548,-3.41463,25.7622,26.9512,-10.1932,-0.318538,0.172441,-15.2134,95.5488,20.7012
562.307,13.7809,11.5955,0,3.3674,8.53585,-0.337698,-3.04878,27.622,35.0915,-10.198,-0.385598,0.186812,-3.96341,87.0427,23.1707
562.318,14.4152,11.1876,0,3.40093,7.9323,-0.390388,2.56098,27.0427,45.4878,-10.1908,-0.450264,0.296982,6.92073,75.8232,27.439
562.327,15.2057,10.8326,0,3.59971,7.38864,-0.744851,11.6159,24.4512,57.0732,-10.1357,-0.462239,0.450264,17.6829,64.7561,29.939
562.337,16.1594,10.5018,0,3.92544,7.03178,-1.23344,23.0183,19.6646,68.811,-10.1716,-0.476609,0.486189,30.0305,52.0427,32.1037
562.347,17.2683,10.2236,0,4.46671,6.95274,-1.73639,33.9329,20.5183,79.3598,-10.1022,-0.411943,0.646655,40.1829,37.7439,34.1463
562.357,18.4326,9.93362,0,4.73256,7.51318,-1.94476,45.3659,26.7988,88.3232,-10.0782,-0.330513,0.531694,50.3049,23.872,34.4207
562.367,19.5847,9.64038,0,4.68705,8.85678,-2.27766,52.2256,34.2683,98.2622,-10.1884,-0.328118,0.459844,61.6463,11.2195,34.5122
562.377,20.7094,9.3045,0,4.49785,10.3656,-2.33275,56.8902,40.3354,106.86,-10.3872,-0.349673,0.450264,73.4451,-1.76829,30.7927
562.388,21.8298,9.00132,0,4.42121,11.8625,-2.51956,62.0427,43.5671,114.878,-10.6698,-0.421523,0.296982,85.8537,-10.9756,27.0427
562.397,22.9543,8.61644,0,4.41881,12.8445,-2.29922,64.6341,41.2805,120.549,-10.8614,-0.505349,-0.148491,96.5854,-13.2012,23.3232
562.407,24.085,8.20275,0,4.27032,12.6146,-2.22737,59.1159,31.2805,124.055,-11.0099,-0.428708,-0.366438,106.768,-15.3659,21.7073
562.417,25.2441,7.78208,0,4.232,11.4218,-1.93278,56.5854,30,125.945,-10.8542,-0.0239502,-0.476609,112.134,-18.9634,28.811
562.427,26.4115,7.36842,0,4.04279,10.5644,-1.46096,57.4695,27.2256,127.896,-10.5165,0.344883,-0.510139,113.354,-22.9268,39.3293
562.437,27.5454,6.92115,0,3.83203,10.0735,-0.886157,60,18.3232,127.104,-10.1022,0.687371,-0.716111,108.049,-25.9451,47.6829
562.447,28.6534,6.45924,0,3.73144,9.44356,-0.0479004,66.0976,9.08537,125.274,-9.7621,1.03465,-0.831072,95.7012,-24.7866,51.7073
562.457,29.7366,5.95586,0,3.93262,8.93342,0.213157,73.5671,2.7439,120.518,-9.59445,1.19272,-1.06818,84.6951,-20.3049,51.9512
562.467,30.7254,5.44198,0,3.81766,9.68546,0.129331,72.3781,-5.79268,117.683,-9.58966,1.57592,-1.2023,66.9207,-25.3049,49.1463
562.477,31.6902,4.92172,0,3.85838,10.1142,0.294587,63.2317,-21.189,118.537,-9.74054,1.7771,-1.34121,50.8232,-29.0854,46.2195
562.487,32.6907,4.42125,0,4.51461,9.82437,-0.579595,52.561,-21.5854,116.402,-10.0902,1.84656,-1.39869,39.8171,-35.4573,44.0549
562.497,33.722,3.9822,0,5.64267,9.331,-1.50647,44.9695,-1.03659,108.354,-10.5022,1.69328,-1.26457,30.7317,-40.4268,43.0488
562.507,34.6763,3.56142,0,6.3013,9.30944,-1.74357,38.0793,22.1951,96.6159,-10.792,1.39151,-1.2981,22.1951,-43.5061,39.6341
562.518,35.4666,3.18967,0,6.19592,9.00048,-1.37714,33.1402,36.5549,80.9146,-10.871,0.917292,-1.1544,16.311,-47.561,39.2988
562.527,36.0728,2.84526,0,5.63069,8.48555,-0.924478,32.2256,43.8415,65.7317,-10.7536,0.627495,-1.08734,13.0183,-53.75,37.5305
562.537,36.485,2.53126,0,4.77567,8.27,-0.63468,34.2683,45.5488,54.4512,-10.4806,0.411943,-0.989143,12.1951,-62.1646,39.3902
562.547,36.7171,2.2228,0,3.74342,8.5598,-0.857417,33.2622,46.372,49.939,-10.1381,0.385598,-0.993933,11.4024,-68.9024,40.4878
562.557,36.874,1.91938,0,3.45362,8.44484,-1.06099,28.811,46.9207,45.5488,-9.8603,0.337698,-1.00351,12.5305,-75.1524,41.9512
562.567,36.989,1.62425,0,3.59732,8.14546,-1.26936,22.7134,51.3415,38.3537,-9.69504,0.340093,-1.0083,16.6159,-81.6463,41.0061
562.577,37.0928,1.33458,0,4.09548,7.47007,-1.43701,19.4512,55.7317,27.439,-9.58966,0.440684,-1.02746,18.2622,-85.8232,36.7683
562.587,37.1224,1.06864,0,4.37331,7.27846,-1.79387,17.8049,56.372,15.4573,-9.62079,0.364043,-0.981958,19.2378,-90.2744,29.2988
562.597,37.0954,0.758842,0,4.51701,6.90005,-1.88488,16.2195,54.2073,5.4878,-9.54655,0.536484,-1.20709,22.9878,-91.2805,22.4695
562.607,36.9912,0.452128,0,4.50743,6.5863,-1.85614,15.3354,50.0305,-4.48171,-9.49625,0.593965,-1.23583,23.9634,-86.5244,15.6402
562.617,36.7107,0.143401,0,3.60211,6.36836,-1.22146,18.5061,37.2256,-13.3232,-9.49625,0.833467,-1.29331,24.4817,-83.1402,12.439
562.627,36.4292,-0.162912,0,4.05956,6.23663,-1.76752,17.378,31.0061,-21.2805,-9.57768,1.0083,-1.34361,24.3293,-79.5732,11.9512
562.637,36.0569,-0.426597,0,3.96376,6.36357,-2.15073,17.2866,13.0793,-28.7805,-9.72378,1.0586,-1.22864,19.2683,-76.7378,12.7439
562.648,35.5865,-0.670845,0,3.95657,6.69408,-2.4046,13.9939,-9.05488,-36.8293,-9.88425,1.16877,-1.20469,13.3537,-71.6159,13.5671
562.657,34.9879,-0.918469,0,3.58774,6.82341,-2.22018,8.62805,-34.878,-45.061,-9.91059,1.27415,-1.26218,8.47561,-67.4695,14.0854
562.667,34.2505,-1.19084,0,3.19017,6.90484,-2.16031,4.84756,-58.9024,-54.4512,-9.97047,1.26697,-1.42025,0.365854,-62.7134,16.7378
562.677,33.3581,-1.48239,0,3.00335,7.22577,-2.00703,3.44512,-77.7134,-67.2256,-10.0423,1.22625,-1.55916,-8.47561,-54.9695,15.4573
562.688,32.3442,-1.76699,0,3.20933,7.62095,-1.67412,1.03659,-89.4512,-81.9817,-10.0974,1.19032,-1.58071,-16.0671,-46.0366,8.75
562.697,31.2287,-2.04128,0,3.63564,8.15504,-1.32205,-5.51829,-97.5,-96.8598,-10.1237,1.08494,-1.58311,-21.7683,-39.2683,-1.0061
562.707,30.1286,-2.26116,0,4.60802,8.31072,-0.888552,-17.2561,-103.902,-107.713,-10.1333,1.01309,-1.38193,-28.811,-34.7256,-13.8415
562.717,29.104,-2.45242,0,5.60195,8.02571,-0.699346,-30.3354,-102.561,-114.329,-9.92736,0.934058,-1.26218,-34.8171,-31.2805,-28.2317
562.727,28.215,-2.657,0,6.66534,7.34313,-0.684976,-40.1524,-95.5793,-117.5,-9.55613,0.981958,-1.29571,-38.4451,-20.7927,-38.4756
562.737,27.4914,-2.89284,0,8.19097,6.90245,-0.929268,-46.311,-78.689,-118.049,-9.22562,1.08734,-1.37235,-40.3354,-4.60366,-44.8476
562.747,26.9541,-3.12837,0,9.58247,6.28932,-1.2502,-50.9451,-54.1463,-114.482,-9.00767,1.18074,-1.39151,-45.2744,11.8902,-47.2866
562.757,26.6107,-3.32353,0,10.2172,5.59477,-2.24413,-49.5732,-37.4695,-105.122,-8.97653,1.27415,-1.2502,-48.5976,25.8232,-48.4756
562.767,26.3993,-3.43496,0,10.0088,5.45825,-3.52068,-42.622,-31.4329,-92.561,-9.12023,1.34361,-0.953218,-52.2561,34.4512,-49.6646
562.777,26.2368,-3.53664,0,9.37411,6.2031,-4.50264,-35.4878,-26.7378,-78.0183,-9.34058,1.31966,-0.948428,-58.1402,41.4024,-52.2256
562.787,26.095,-3.61141,0,8.92384,7.06291,-4.35654,-23.9634,-15.9146,-66.311,-9.59205,1.20948,-0.869392,-58.872,49.6341,-56.7073
562.797,25.9594,-3.66572,0,8.0329,7.70238,-4.00926,-7.68293,-0.853659,-54.878,-10.0208,1.07536,-0.823887,-58.5671,57.1646,-60.6098
562.807,25.7685,-3.74531,0,6.32764,8.08559,-4.36852,6.95122,9.48171,-44.1463,-10.483,0.866997,-0.979563,-56.6768,68.1098,-66.4634
562.818,25.4477,-3.7889,0,4.58167,9.22322,-4.17212,14.4207,15.4268,-34.0549,-10.962,0.6251,-0.852627,-56.7073,80.5183,-72.0427
562.827,24.9501,-3.78899,0,3.2716,11.4674,-3.50152,14.1768,30.7622,-31.3415,-11.4506,0.368833,-0.66821,-58.5976,91.2195,-80.4878
562.837,24.2801,-3.83529,0,1.86572,13.072,-3.35542,15.2439,42.6524,-34.0244,-11.8673,-0.0981958,-0.922083,-56.128,104.085,-88.5671
562.847,23.5436,-3.84056,0,2.09564,13.6013,-2.78062,5.67073,35.4878,-43.4756,-12.0613,-0.359253,-0.713716,-52.9268,117.561,-94.2988
562.857,22.7624,-3.75852,0,2.91953,14.8539,-1.70046,-16.4024,14.4207,-54.3598,-12.3224,-0.299377,-0.251477,-50.6707,121.159,-90.6098
562.867,22.1577,-3.66223,0,5.56842,14.9329,-1.42504,-36.6463,-5.60976,-56.9817,-12.8804,-0.289797,-0.165256,-44.4817,119.573,-80.0915
562.877,21.8087,-3.56099,0,6.3971,12.296,-0.895737,-46.128,-18.5366,-46.4939,-13.4025,-0.251477,-0.122146,-37.1951,117.927,-63.8415
562.887,21.6818,-3.46642,0,6.31327,9.49146,-0.811912,-41.5549,-26.6159,-37.0732,-13.5223,-0.153281,-0.143701,-37.4695,113.963,-44.0549
562.897,21.5786,-3.33535,0,5.20438,7.82932,-0.874182,-29.1159,-33.5671,-34.878,-12.7319,0.376018,0.0838257,-42.9573,107.835,-27.2256
562.907,21.3391,-3.1352,0,3.97094,7.47486,-0.783171,-18.8415,-32.1646,-37.5,-11.6853,0.55804,0.457449,-53.2317,105.64,-21.7683
562.917,20.8827,-2.83821,0,2.81415,7.58982,-0.823887,-14.2988,-26.9817,-44.5427,-10.4111,1.01549,0.888552,-70.4268,103.78,-26.6768
562.927,20.1936,-2.4501,0,1.50168,7.71436,-0.807122,-11.8902,-27.9268,-50.1829,-9.51781,1.35319,1.24541,-91.7073,99.4512,-30.5488
562.937,19.4738,-2.06286,0,1.50647,7.73352,-1.46815,-13.689,-30.2134,-54.7256,-8.76338,1.52563,1.1999,-110.915,94.5122,-36.311
562.947,18.6911,-1.61313,0,1.18793,8.13828,-1.79626,-19.3598,-23.5976,-57.0732,-8.18139,1.49449,1.40109,-126.799,85.6402,-38.872
562.958,17.9735,-1.05615,0,1.56155,8.09038,-2.00942,-24.2073,-9.72561,-57.378,-7.79339,1.19511,1.76752,-141.829,65.9756,-43.0793
562.967,17.3436,-0.414111,0,1.85614,8.19815,-1.81303,-26.8293,1.25,-53.628,-7.49402,0.538879,2.05972,-155.488,42.6524,-47.1646
562.977,16.8525,0.197751,0,2.32317,8.43047,-1.52084,-26.0366,9.45122,-46.1585,-7.24972,-0.234712,1.96392,-169.024,24.3293,-55.9146
562.987,16.4928,0.693515,0,2.80217,8.86636,-1.4897,-19.7561,14.6037,-38.1098,-7.18745,-1.03944,1.63101,-180.305,13.8415,-63.1402
562.997,16.1748,1.03339,0,2.8836,9.24238,-1.78189,-10.4573,21.0366,-34.1463,-7.28325,-1.6813,1.14961,-186.433,6.12805,-69.2378
563.007,15.8161,1.87701,0,2.52196,9.19209,-2.07648,-6.12805,22.7744,-34.9085,-7.791,-1.83698,0.684976,-190.427,-0.945122,-66.189
563.017,15.3506,1.53789,0,1.89207,8.98611,-2.18905,-3.20122,24.878,-39.4817,-8.26042,-2.18905,0,-176.006,0.640244,-54.1159
563.027,14.7821,1.34808,0,1.37953,8.94779,-2.22018,-0.579268,28.9024,-44.5732,-9.19448,-2.41418,-0.502954,-162.409,4.81707,-36.5244
563.037,14.1256,1.10611,0,0.910107,8.96216,-2.21539,1.85976,32.1951,-48.6585,-9.96568,-2.52435,-0.819097,-143.476,12.8354,-21.25
563.047,13.4075,0.839766,0,0.510139,9.08431,-2.03337,1.61585,31.5244,-51.0061,-10.574,-2.73751,-1.02267,-122.317,19.2988,-9.45122
563.057,12.692,0.553228,0,0.306563,9.18969,-1.82979,0.27439,28.2012,-49.5427,-10.7465,-2.80457,-1.18314,-101.22,22.8963,-11.4634
563.068,11.9571,0.291288,0,-0.246687,9.42919,-1.78668,-2.43902,17.9268,-46.0366,-10.5644,-2.58902,-1.09931,-83.9939,24.3902,-20.5183
563.077,11.2485,0.0496914,0,-0.517324,9.66151,-1.82021,-4.45122,7.46951,-41.6463,-10.4159,-2.30161,-1.03465,-69.6037,27.6524,-29.6646
563.087,10.6141,-0.142421,0,-0.275427,9.75012,-2.04774,-6.95122,-1.7378,-38.4756,-10.404,-2.04774,-0.857417,-61.4329,18.2622,-43.5671
563.097,10.0432,-0.30026,0,0.0574805,9.74773,-2.09085,-10.3354,-10.7012,-37.2866,-10.3561,-1.66214,-0.737666,-58.7195,10.8841,-49.1159
563.107,9.54576,-0.441617,0,0.6251,9.75252,-2.0669,-13.3537,-16.6463,-37.7439,-10.2842,-1.33882,-0.682581,-55,4.32927,-49.1159
563.117,9.10548,-0.563875,0,1.10889,9.5705,-1.93997,-15.1524,-18.5976,-38.9329,-10.1645,-1.152,-0.627495,-55.061,-5.18293,-44.9695
563.127,8.7097,-0.671682,0,1.3939,9.36213,-1.72202,-14.8476,-19.7866,-39.0854,-10.0447,-1.10889,-0.584385,-54.7866,-8.87195,-38.6585
563.137,8.34422,-0.771144,0,1.48731,9.19927,-1.54479,-14.1768,-19.4817,-38.2622,-9.84832,-1.15679,-0.560435,-52.9573,-14.878,-34.6951
563.147,7.9844,-0.86766,0,1.28852,9.0867,-1.36037,-13.4451,-19.5732,-36.1585,-9.60882,-1.2526,-0.555645,-51.189,-20.4268,-31.7988
563.158,7.64785,-0.934121,0,1.15679,9.06036,-1.32445,-13.4756,-20.2134,-32.8963,-9.53697,-1.33642,-0.447869,-47.5915,-28.8415,-30.7622
563.167,7.33174,-0.98903,0,1.03225,9.27831,-1.62622,-13.628,-20.9756,-29.6037,-9.42201,-1.35079,-0.411943,-43.2317,-36.9207,-32.0732
563.177,7.0288,-1.03656,0,0.890947,9.41482,-1.73639,-15.0915,-21.6768,-26.9817,-9.30465,-1.346,-0.387993,-37.9573,-40.122,-33.7195
563.187,6.74491,-1.09405,0,0.912502,9.4723,-1.82979,-16.9817,-20.9451,-25.8537,-9.21125,-1.22864,-0.435894,-35.3354,-44.6341,-32.622
563.197,6.47208,-1.13713,0,0.962798,9.40285,-1.81782,-18.6585,-18.5976,-26.0061,-9.1825,-1.15679,-0.387993,-33.0488,-47.9878,-31.0366
563.208,6.18927,-1.18634,0,0.981958,9.48428,-1.65975,-18.872,-16.4634,-27.7134,-9.16334,-1.03944,-0.421523,-33.75,-51.3415,-28.6585
563.217,5.90008,-1.24145,0,1.07776,9.60882,-1.51605,-17.561,-13.2622,-29.939,-9.17532,-0.950823,-0.455054,-38.9939,-52.7744,-24.939
563.227,5.6022,-1.34524,0,1.21906,9.69025,-1.4897,-15.9756,-10.7012,-32.9878,-9.26154,-1.01788,-0.66821,-43.5366,-53.3841,-22.3171
563.237,5.26814,-1.49622,0,1.16877,9.8076,-1.66214,-15.8537,-8.78049,-36.5244,-9.40524,-1.07536,-0.893342,-50.5183,-54.1463,-22.0427
563.247,4.90378,-1.677,0,1.14242,9.86509,-1.825,-16.3415,-8.23171,-39.9085,-9.57529,-1.27415,-1.06339,-55.9451,-55.7317,-22.6524
563.257,4.5118,-1.84627,0,1.14003,9.84114,-1.85375,-16.6768,-6.82927,-43.4756,-9.73096,-1.39151,-1.06339,-58.7195,-57.561,-22.622
563.267,4.07244,-1.9965,0,1.03944,9.84353,-1.80824,-15.5183,-5.97561,-47.9268,-9.80521,-1.57353,-1.02267,-63.0793,-63.5366,-21.9207
563.277,3.62045,-2.24349,0,1.04183,9.9082,-2.12199,-17.1341,-6.0061,-50.061,-9.69983,-1.65975,-1.45617,-63.811,-61.4329,-18.2622
563.288,3.08762,-2.54354,0,0.617915,9.65911,-1.9711,-16.6159,-5.88415,-54.4512,-9.45314,-1.62382,-1.6837,-61.7378,-56.25,-13.3537
563.297,2.53348,-2.85656,0,0.56762,9.6639,-1.85135,-17.0122,-2.77439,-57.1037,-9.05796,-1.66214,-1.71244,-56.8293,-52.0427,-7.92683
563.307,2.01814,-3.21576,0,0.953218,9.72378,-2.03816,-17.8659,2.46951,-58.8415,-8.82804,-1.74118,-1.90165,-48.5366,-46.25,-1.58537
563.317,1.54559,-3.60718,0,1.27176,9.76928,-2.01661,-15.7622,4.5122,-59.2378,-8.59333,-1.84417,-2.03098,-38.1402,-39.9085,4.54268
563.327,1.09226,-3.98174,0,1.41546,10.0016,-1.71004,-15.3963,1.0061,-59.5427,-8.48076,-1.88488,-1.99505,-26.128,-34.7561,10.3354
563.337,0.66392,-4.37758,0,1.52084,10.277,-1.5855,-15.7927,-0.945122,-58.6585,-8.39215,-1.86812,-2.11001,-14.8171,-27.378,17.9878
563.347,0.273213,-4.7605,0,1.61185,10.3992,-1.49689,-18.628,-4.20732,-56.4939,-8.32748,-1.88728,-2.09564,-2.22561,-15.7927,26.4024
563.357,-0.0803727,-5.13778,0,1.59269,10.3632,-1.37714,-22.1951,-10.1829,-53.3537,-8.38975,-2.01421,-2.06211,8.53659,-4.5122,35.1829
563.367,-0.370357,-5.47758,0,1.78429,10.313,-1.41306,-25.8232,-16.128,-49.7866,-8.49034,-2.23695,-2.06451,17.3171,10.1829,40.3049
563.377,-0.579066,-5.7326,0,2.09564,10.1932,-1.6813,-27.0732,-18.9939,-45.7622,-8.81607,-2.38304,-1.84417,20.7012,20.7622,40.9451
563.387,-0.696682,-5.96131,0,2.47645,10.107,-1.9256,-27.5,-18.3537,-41.2805,-9.29747,-2.42136,-1.86572,23.8415,32.561,39.6341
563.397,-0.711163,-6.13799,0,2.85486,9.79323,-2.38544,-28.4451,-15.1829,-36.0671,-9.89862,-2.08606,-1.78189,22.8049,44.0854,37.1646
563.407,-0.641059,-6.26015,0,3.02251,9.58966,-2.55788,-30.5183,-12.1646,-30,-10.4279,-1.65975,-1.64538,20.6707,51.7683,38.9939
563.417,-0.452308,-6.38054,0,3.41051,9.43877,-2.70158,-32.7744,-7.43902,-22.5915,-10.7441,-1.30768,-1.70286,17.0732,59.4512,43.3841
563.427,-0.163261,-6.62666,0,3.52786,9.21603,-2.77583,-33.5366,-5.09146,-14.1768,-10.6986,-0.981958,-2.31838,11.9512,74.5122,46.0366
563.437,0.183282,-7.04508,0,3.19496,9.07952,-2.55549,-32.1037,-6.09756,-5,-10.21,-0.790356,-3.06562,16.3415,96.9512,53.2317
563.447,0.57602,-7.42219,0,2.76146,9.00048,-2.42376,-29.1159,-10.1524,5.2439,-9.96568,-0.874182,-2.85965,23.3841,112.591,60.8537
563.457,1.03242,-7.62933,0,2.46448,9.05557,-2.41897,-23.2012,-16.1585,16.6768,-10.1908,-1.17356,-2.18186,32.8963,114.848,65.5793
563.467,1.61283,-7.5952,0,2.51238,9.27352,-2.57465,-15.9451,-22.9878,30.3963,-11.0889,-1.14961,-1.21188,42.8963,107.165,72.1341
563.477,2.35834,-7.5323,0,2.85007,9.47949,-2.83091,-10.122,-26.7683,45.2134,-12.2457,-1.00351,-1.17595,52.1646,105.396,77.4085
563.487,3.29448,-7.42968,0,3.39614,9.70462,-3.01533,-6.12805,-24.8476,60.9756,-13.2684,-0.670605,-1.01549,57.5915,113.994,78.6281
563.497,4.41401,-7.15432,0,3.89909,9.68067,-2.94108,-3.5061,-20.2439,76.189,-14.0252,-1.09452,0.0119751,61.2805,106.098,77.0427
563.507,5.74293,-6.6826,0,4.50024,9.32621,-2.73272,0.152439,-17.6524,92.0427,-15.1341,-0.486189,1.3963,39.2073,103.75,63.7805
563.517,7.29,-6.18103,0,4.86907,8.51429,-3.17101,7.37805,-15.5183,108.841,-14.8659,-0.783171,1.67891,19.0549,92.9878,47.8049
563.527,8.98073,-5.72379,0,4.77088,7.92751,-2.78541,15.7622,-13.6585,124.055,-14.9449,-0.399968,1.50168,4.72561,75.2439,35.6098
563.537,10.6713,-5.39503,0,4.23439,8.89271,-2.52435,15.1829,-2.53049,138.872,-13.2564,-0.328118,0.680186,8.14024,72.5,34.6037
563.547,12.3486,-5.14032,0,2.99138,8.95019,-1.64777,13.0488,3.32317,155.213,-10.9883,-0.275427,0.268242,13.7195,73.0488,39.7866
563.557,14.1333,-4.76993,0,2.81175,7.94188,-0.241897,14.1159,-8.32317,167.53,-9.54655,-0.730481,0.749641,31.7988,55.9146,43.9329
563.567,16.0062,-4.44138,0,2.94108,7.31918,1.19032,17.2256,-12.5,175.274,-8.4616,-0.881367,0.55325,55.5183,43.2622,48.3537
563.577,17.7214,-4.0486,0,1.55197,7.48444,1.91602,29.6341,-11.8293,183.78,-7.96823,-0.864602,0.787961,85.3049,34.4207,55.4878
563.587,19.1671,-3.54353,0,-0.445474,8.61728,2.32556,48.0793,-23.872,189.726,-8.02332,-0.960403,1.24062,111.86,17.0122,56.2805
563.597,20.5776,-3.05881,0,-1.02507,11.4266,1.89686,63.628,-47.8049,193.506,-8.35383,-1.03465,1.18793,126.829,4.90854,51.0976
563.608,21.9712,-2.49333,0,-0.696951,13.5965,-0.419128,72.5305,-55.4573,190.183,-8.85678,-0.857417,1.28134,128.902,-2.83537,40.6402
563.618,23.3136,-2.11366,0,0.395178,14.7246,-2.1651,79.1463,-52.8963,178.689,-9.34776,-0.641865,1.1544,122.5,-10.8537,30
563.627,24.5973,-1.83416,0,2.49322,15.4407,-2.97701,79.6341,-52.6829,159.848,-9.72617,-0.0526904,0.828677,113.323,-15.061,21.6159
563.637,25.8236,-1.60945,0,4.58646,13.7139,-3.20454,81.189,-50.5183,137.591,-9.94652,0.570015,0.65384,100.762,-16.0671,21.0061
563.647,26.9883,-1.39504,0,5.51094,11.4697,-2.19863,86.4024,-37.5305,119.177,-9.94891,1.04662,0.646655,83.6585,-17.3476,29.5427
563.657,28.0569,-1.18439,0,4.89063,10.3848,-0.878972,89.8781,-26.5854,112.652,-9.77647,1.28852,0.65384,64.5427,-19.8476,41.2195
563.668,29.0943,-0.972946,0,4.63676,10.2435,-0.167651,93.4451,-4.96951,113.415,-9.47709,1.31487,0.66821,46.5854,-24.6646,52.0122
563.677,30.118,-0.794121,0,4.37091,10.4782,0.316143,92.9573,15.122,117.622,-9.21364,1.21906,0.546064,28.9939,-30.5183,62.0122
563.687,31.2043,-0.640825,0,4.48348,10.2986,0.514929,99.2073,42.9573,124.299,-8.95258,1.15919,0.455054,13.3537,-33.7805,70.061
563.697,32.3079,-0.524998,0,4.54096,10.4686,0.172441,99.1159,73.6585,128.445,-8.82086,1.07776,0.323328,1.21951,-37.3476,72.9573
563.708,33.3797,-0.426264,0,4.31582,10.301,0.167651,94.7561,97.6219,128.902,-8.86636,1.02028,0.273032,-6.98171,-41.311,71.5244
563.717,34.3937,-0.373396,0,4.05956,10.0136,0.0383203,88.3841,112.195,126.555,-8.98611,1.01309,0.105381,-13.3841,-47.8659,67.7744
563.727,35.3262,-0.355439,0,3.92065,9.7142,-0.335303,79.3598,116.799,120.488,-9.27591,1.02986,-0.0287402,-17.5305,-52.0427,60.4878
563.737,36.1505,-0.382091,0,3.76018,9.23759,-0.510139,70.7317,115.122,111.006,-9.51781,1.04902,-0.215552,-21.8293,-54.3293,54.6037
563.747,36.8247,-0.449338,0,3.12311,9.30226,-0.541274,68.4756,109.939,104.695,-9.70701,0.984353,-0.397573,-24.4512,-53.5671,48.9939
563.757,37.37,-0.565646,0,2.7423,9.27831,-0.979563,64.6341,104.482,97.1951,-9.70701,0.802332,-0.617915,-27.3171,-51.7073,45.061
563.767,37.7753,-0.700891,0,2.4525,9.34776,-1.21427,58.75,93.5976,87.6219,-9.63037,0.534089,-0.711321,-30.8537,-49.1768,43.2012
563.777,38.0599,-0.875689,0,2.47166,9.03401,-1.31726,53.0793,79.2073,74.9085,-9.5226,0.182021,-0.890947,-31.9207,-46.4939,40.9756
563.787,38.1853,-1.07768,0,2.08127,8.95977,-1.48252,49.5732,66.5244,63.7805,-9.4268,-0.222737,-1.02267,-32.439,-43.4756,35.7317
563.797,38.1343,-1.29394,0,1.69088,8.53345,-1.50168,44.0854,51.7073,49.8476,-9.41243,-0.526904,-1.11368,-31.2195,-42.2256,29.4207
563.807,37.8624,-1.53023,0,1.0586,8.22929,-1.41546,37.5,35.0305,35.122,-9.39806,-0.56283,-1.23104,-28.4146,-40.7927,21.6159
563.817,37.3905,-1.77514,0,0.603545,7.85566,-1.29571,28.872,17.5305,20.1524,-9.38129,-0.332908,-1.30529,-25.8537,-41.6768,16.128
563.827,36.6581,-1.99207,0,0.153281,7.42456,-1.11368,20.9756,-1.09756,5.45732,-9.46272,-0.0287402,-1.24302,-23.9939,-46.5244,11.4634
563.837,35.7661,-2.20782,0,-0.342488,7.01741,-0.948428,14.8171,-23.7805,-10.4268,-9.52739,0.208367,-1.28373,-20.3354,-47.1951,7.10366
563.847,34.7245,-2.43655,0,-0.428708,6.9264,-1.12566,7.16463,-49.7866,-26.0671,-9.48667,0.376018,-1.36516,-19.3902,-41.4024,1.12805
563.857,33.5309,-2.69521,0,-0.5772,6.66294,-1.17595,-2.13415,-70.9146,-40.8232,-9.34297,0.548459,-1.50168,-21.5244,-32.8354,-3.41463
563.867,32.2597,-3.00369,0,-0.170046,6.84257,-1.76034,-2.22561,-104.299,-58.3841,-9.10347,0.723296,-1.70286,-26.4024,-22.2256,-8.68902
563.877,31.0057,-3.33946,0,1.23104,7.81495,-2.29682,-11.7988,-120.854,-80.3963,-8.91187,0.898132,-1.82021,-32.561,-12.3476,-13.2317
563.888,29.7982,-3.65933,0,2.97222,8.04008,-1.76034,-31.6768,-112.591,-101.341,-8.79691,1.0083,-1.74597,-39.2988,-5.06098,-18.4451
563.897,28.6812,-4.51692,0,4.60562,7.75986,-0.795146,-47.8049,-95.061,-115.793,-8.71548,1.14961,-1.72202,-44.1768,0.884146,-25.3659
563.907,27.6962,-4.7927,0,5.98036,7.19703,-0.258662,-57.0732,-80.2439,-123.049,-8.60052,1.2526,-1.73878,-51.189,10.0915,-29.7256
563.917,26.8453,-5.05947,0,7.35271,6.99106,-0.855022,-61.189,-71.311,-125.091,-8.5598,1.41306,-1.7292,-55.2744,21.9207,-32.8963
563.928,26.1399,-5.33325,0,8.65081,6.76114,-2.33514,-62.8049,-71.6159,-123.293,-8.62207,1.5879,-1.80345,-60.3659,32.1646,-32.8354
563.937,25.551,-5.55687,0,9.11544,6.3971,-4.1338,-59.4817,-75.6707,-118.872,-8.85678,1.71483,-1.6837,-63.9939,43.7195,-30.1524
563.948,25.0057,-5.74246,0,9.43398,6.88568,-5.55405,-52.7134,-72.439,-113.445,-9.29507,1.59508,-1.6358,-66.3415,53.0183,-28.6585
563.957,24.5569,-5.89256,0,10.4686,7.60179,-6.42344,-46.0366,-44.9085,-105,-9.81719,1.29092,-1.59508,-70.061,61.4939,-30.7317
563.967,24.2279,-5.98195,0,11.3069,8.07122,-6.13843,-37.8963,-0.640244,-94.6341,-10.4351,0.730481,-1.43462,-69.1768,65,-37.5
563.977,24.0391,-6.05118,0,11.1081,8.14546,-5.18043,-19.6951,35.7622,-79.5122,-10.9572,0.138911,-1.42264,-63.4146,67.1951,-46.5244
563.987,24.0431,-6.14489,0,10.0926,7.84369,-4.69663,3.14024,40.3659,-56.9512,-11.3835,-0.356858,-1.61424,-49.4207,70.0305,-48.9024
563.997,24.2898,-6.27227,0,9.99202,7.70478,-5.13013,19.3598,32.2256,-32.622,-11.7428,-0.941243,-1.85375,-34.1159,78.9329,-50.5488
564.007,24.5847,-6.45136,0,8.6053,8.18618,-4.51701,24.0244,35.8841,-15.0915,-11.853,-1.28613,-2.1651,-24.6037,89.5427,-48.0793
564.018,24.7453,-6.64327,0,6.45458,9.00767,-3.9925,25.9756,43.1707,-6.15854,-11.8506,-1.17356,-2.2585,-25.3049,102.5,-44.939
564.028,24.7074,-6.73535,0,5.27862,10.7944,-2.75427,20.8232,54.1159,-6.55488,-11.932,-0.723296,-1.76992,-30.061,107.287,-43.9024
564.038,24.4429,-6.77283,0,4.34457,11.7164,-1.48731,11.9512,60.8232,-18.0793,-12.2074,-0.263452,-1.53281,-42.8354,106.098,-47.2561
564.048,23.8967,-6.66381,0,2.95545,11.8553,-0.850232,2.10366,43.3841,-34.4207,-12.514,0.407153,-0.771196,-57.2866,99.6341,-52.9573
564.058,23.1466,-6.40854,0,3.31231,14.2839,-0.376018,-10.9756,17.9268,-54.4207,-12.902,1.03465,0.0526904,-71.8598,91.25,-56.6463
564.068,22.3317,-6.04068,0,5.39358,17.1603,-0.124541,-25.8841,4.20732,-71.5244,-13.9845,1.08255,0.799937,-82.3781,79.3902,-58.2012
564.077,21.6744,-5.73172,0,7.24733,17.1052,-0.560435,-45.6707,6.85976,-68.3537,-14.8731,0.584385,0.548459,-81.5854,70.8232,-58.3232
564.087,21.2481,-5.48457,0,6.8306,13.9893,-0.287402,-52.9573,10.5183,-52.378,-15.5173,-0.428708,0.225132,-85.0305,65.0305,-57.8963
564.097,20.9163,-5.28737,0,4.83794,9.57289,0.373623,-36.4024,15.3354,-45.2134,-14.7892,-0.866997,-0.0598755,-93.2317,55.122,-52.7439
564.107,20.2294,-5.14232,0,1.40348,7.39582,0.57241,-15.4878,7.28659,-49.3293,-12.4996,-0.203577,-0.301772,-88.5976,48.7805,-22.8049
564.117,19.1298,-4.86771,0,-0.59157,6.80904,0.114961,3.41463,7.43902,-60.7927,-10.3632,0.354463,0.359253,-85.0915,39.0244,10.4573
564.127,17.759,-4.27804,0,-1.83458,7.29283,-0.907712,8.10976,-1.31098,-72.0122,-9.41003,0.392783,1.67412,-96.189,13.1098,30.2744
564.137,16.2392,-3.13206,0,-2.43334,7.51557,-1.3963,2.62195,-5.42683,-82.2256,-8.1287,-0.141306,1.99026,-116.829,-2.62195,30.3963
564.147,14.7171,-2.42821,0,-2.43813,7.9347,-1.74836,-9.32927,-1.18902,-87.3171,-7.42935,-0.155676,1.92799,-133.506,-18.9634,21.0061
564.157,13.3258,-1.75068,0,-1.7292,8.35622,-1.8274,-22.1951,9.87805,-88.0793,-6.84018,-0.114961,1.76992,-143.11,-35.122,6.43293
564.167,12.1194,-1.22225,0,-1.00112,8.63405,-1.54239,-30.7012,14.9085,-82.4085,-6.65815,0.277822,1.33403,-155.244,-53.3232,-4.90854
564.177,11.2178,-0.90659,0,0.349673,8.66279,-1.26697,-35.4268,12.561,-71.9817,-6.47374,-0.529299,0.737666,-137.683,-50.1524,-14.4512
564.187,10.5886,-0.698001,0,1.24541,8.48555,-1.13284,-32.6829,4.11585,-58.3537,-6.74198,-1.07057,0.483794,-125.915,-51.7988,-18.0183
564.197,10.1701,-0.54366,0,1.74836,8.44244,-1.51126,-23.9329,-3.07927,-44.9695,-7.47486,-1.8777,0.380808,-108.72,-57.1951,-19.8171
564.207,9.84846,-0.499799,0,1.84896,8.54543,-2.20821,-14.5122,-8.07927,-36.9817,-8.52627,-2.62015,0.0407153,-92.3476,-58.6585,-23.2622
564.217,9.53981,-0.573272,0,1.88249,8.66758,-2.87402,-7.46951,-5.54878,-36.4024,-9.54176,-3.37698,-0.438289,-71.0976,-55.5183,-28.5976
564.227,9.20042,-0.718702,0,2.00942,8.89989,-3.3195,-3.81098,-0.396341,-41.128,-10.574,-3.63803,-0.831072,-46.0976,-50.1524,-31.5244
564.237,8.7738,-0.886224,0,1.8753,9.04599,-3.31471,-3.47561,3.04878,-48.6585,-11.0243,-3.42248,-0.998723,-18.9634,-45.9451,-28.7195
564.247,8.25555,-1.03986,0,1.50886,9.16574,-2.79259,-3.81098,5.4878,-54.0549,-10.871,-2.85007,-0.946033,-0.518293,-41.9512,-24.0244
564.257,7.67311,-1.17274,0,0.962798,9.35734,-2.10522,-5.4878,3.59756,-54.5732,-10.2914,-2.28724,-0.828677,11.2805,-42.0732,-22.2866
564.267,7.09879,-1.32324,0,0.63468,9.47949,-1.51844,-7.37805,-1.40244,-50.7622,-9.85311,-1.9232,-0.893342,16.4634,-41.8902,-24.9085
564.277,6.5963,-1.47952,0,0.60115,9.46033,-1.35079,-10.1524,-9.78659,-44.2073,-9.616,-1.42983,-0.919688,18.1707,-39.1159,-31.9817
564.287,6.18669,-1.60292,0,0.723296,9.52739,-1.32924,-12.7744,-20.0915,-37.1951,-9.58247,-1.03225,-0.802332,11.7988,-38.4756,-38.0488
564.297,5.89039,-1.70841,0,1.22386,9.67827,-1.71962,-16.0366,-27.5,-32.3171,-9.6663,-0.869392,-0.759221,6.58537,-45.2744,-39.5122
564.308,5.6625,-1.8002,0,1.6837,9.76928,-1.97829,-18.5976,-30.6707,-31.189,-9.64474,-0.725691,-0.720901,3.20122,-50.1524,-37.2561
564.317,5.45522,-1.9147,0,1.9256,9.79803,-2.23216,-21.2195,-31.7683,-32.2866,-9.55613,-0.684976,-0.826282,-1.52439,-50.5793,-29.1463
564.327,5.23118,-2.02238,0,1.89925,9.62319,-2.17707,-24.5122,-34.8476,-34.5122,-9.40045,-0.792751,-0.802332,-1.7378,-49.3902,-19.9085
564.337,4.98812,-2.12438,0,1.80105,9.35255,-2.00224,-26.8598,-38.1402,-36.372,-9.17292,-0.881367,-0.775986,1.37195,-47.9268,-10.1524
564.347,4.73391,-2.25394,0,1.68609,9.00288,-1.87291,-27.0732,-39.3902,-37.4085,-9.02204,-1.01549,-0.888552,4.96951,-46.2195,-1.21951
564.357,4.46336,-2.3889,0,1.50886,8.78493,-1.88249,-24.2683,-36.0061,-37.8354,-8.91905,-1.09452,-0.919688,10.5793,-45.5183,3.32317
564.367,4.18367,-2.54498,0,1.40348,8.72506,-1.89925,-20.3049,-27.1037,-38.0793,-8.86397,-1.15679,-1.01788,16.2195,-44.5427,6.12805
564.377,3.91961,-2.67252,0,1.50886,8.73224,-1.73878,-17.0122,-17.622,-38.4146,-8.86636,-1.18074,-0.931663,20.6402,-47.0122,7.92683
564.387,3.66734,-2.78386,0,1.57592,8.74182,-1.52802,-16.25,-11.0366,-38.5976,-8.88792,-1.18074,-0.890947,22.8354,-48.5671,8.20122
564.397,3.43539,-2.88821,0,1.75555,8.90947,-1.41306,-17.1037,-7.22561,-38.9329,-8.97414,-1.13524,-0.890947,23.6585,-50.6402,8.23171
564.407,3.19639,-3.02082,0,1.72441,9.07712,-1.24062,-16.8902,-6.03659,-39.3293,-9.02683,-1.12805,-1.02746,23.3232,-51.8902,8.75
564.417,2.93831,-3.16237,0,1.60227,9.20166,-1.29092,-15.9146,-5.54878,-39.9695,-9.0412,-1.11368,-1.08494,23.1707,-50,10.3049
564.427,2.63376,-3.33877,0,1.29331,9.36453,-1.36516,-14.6037,-7.16463,-41.128,-9.02204,-1.2023,-1.24541,24.2073,-48.9939,13.7195
564.437,2.26083,-3.49327,0,0.816702,9.5226,-1.54718,-14.6646,-11.8293,-42.6829,-9.05078,-1.22386,-1.18793,24.0549,-47.8963,17.4085
564.447,1.85912,-3.7081,0,0.593965,9.77168,-1.76034,-16.6768,-15.7012,-43.4756,-8.96216,-1.24781,-1.4418,25.8232,-44.6341,21.7683
564.457,1.44877,-3.97074,0,0.570015,9.97047,-1.96152,-19.9085,-18.1098,-44.7561,-8.78493,-1.24302,-1.6334,31.0976,-38.9024,28.5366
564.467,1.03376,-4.31868,0,0.60115,10.0136,-2.019,-24.5427,-20.0915,-46.4024,-8.58854,-1.25499,-1.96631,35.061,-27.9573,34.7256
564.477,0.616902,-4.71613,0,0.696951,10.0327,-1.94715,-28.1707,-21.4939,-48.5366,-8.47118,-1.31726,-2.18426,40.7317,-20.8537,39.2073
564.487,0.217301,-5.11219,0,0.977168,9.83395,-1.82979,-30.4268,-22.2256,-51.0976,-8.39454,-1.38911,-2.21539,45.8232,-13.3841,43.7805
564.497,-0.140023,-5.4203,0,1.43701,9.67348,-1.87291,-32.1341,-22.7439,-53.2622,-8.37299,-1.47054,-1.9232,49.6341,-9.45122,47.0732
564.507,-0.423695,-5.66834,0,2.12917,9.75491,-1.98308,-33.689,-20.6098,-54.3598,-8.39933,-1.57113,-1.72441,52.8049,-5.79268,50.2134
564.517,-0.624836,-5.99462,0,2.80217,9.65432,-2.31359,-34.4207,-14.7866,-54.4207,-8.3658,-1.73639,-1.77471,54.9085,2.95732,50.3354
564.527,-0.808294,-6.25895,0,2.87881,9.27591,-2.40939,-34.0854,-14.5122,-55.1829,-8.40173,-1.88967,-1.8753,60.4878,17.5915,48.628
564.537,-0.922206,-6.53971,0,3.21172,9.16574,-2.57225,-30.3049,-13.2012,-52.6829,-8.56219,-1.94476,-2.00703,65.2439,31.6768,46.9512
564.547,-0.999363,-6.78306,0,3.22849,8.92624,-2.54351,-26.8902,-14.6341,-50.3354,-8.96695,-1.79626,-1.98308,66.8293,43.3232,46.4634
564.557,-0.992747,-6.92752,0,3.54702,8.93582,-3.0776,-24.3293,-9.60366,-45.5488,-9.60882,-1.42025,-1.72681,67.0427,49.1159,49.2073
564.567,-0.957957,-6.91629,0,3.34824,9.07233,-3.12071,-23.689,-9.96951,-39.8171,-10.5285,-1.04662,-1.18314,58.4756,46.8902,49.6951
564.577,-0.855032,-6.78352,0,3.32908,9.29268,-3.07281,-24.3293,-7.56098,-31.6768,-11.5248,-0.840652,-0.675395,43.628,42.378,49.7866
564.587,-0.673844,-6.81,0,3.20693,9.29507,-3.00575,-23.4756,-4.72561,-22.1037,-12.1571,-0.457449,-1.5376,25.061,49.2378,40.7317
564.597,-0.417079,-6.92958,0,2.90755,9.23999,-2.99856,-23.3232,-3.56707,-10.8232,-11.9056,-0.471819,-1.98787,25.4878,70.8537,40.8232
564.607,0.262545,-7.11542,0,2.52196,9.2304,-3.13508,-24.2683,-2.07317,-0.27439,-11.8793,-0.246687,-2.36149,16.0061,76.5854,35.9146
564.617,0.667896,-7.36307,0,2.56986,9.41243,-3.27399,-23.1098,-3.53659,10.7317,-11.1105,-1.11847,-2.5483,18.7195,91.189,28.7195
564.627,1.20407,-7.51596,0,2.75427,9.55613,-3.34345,-19.4512,-7.22561,23.2622,-11.2949,-1.27894,-2.14833,28.4756,91.8902,20.8537
564.637,1.87621,-7.60446,0,3.00814,9.80042,-3.47038,-16.0976,-10.7622,36.2195,-11.7715,-1.27655,-1.92081,40.5488,97.6219,18.3841
564.647,2.74372,-7.60344,0,3.75779,10.0758,-3.59013,-14.5427,-9.48171,50.6098,-12.3846,-1.18793,-1.53042,46.2805,107.927,16.2195
564.657,3.80409,-7.4335,0,4.26074,9.8579,-3.20693,-13.872,-9.2378,66.0976,-13.1008,-1.13045,-0.63468,43.5976,108.811,9.81707
564.667,5.06796,-7.02309,0,4.79483,9.33579,-3.25483,-11.4634,-11.189,81.25,-13.9845,-1.00591,0.831072,30.9451,95.061,-2.86585
564.677,6.54814,-6.55224,0,5.3385,8.62686,-3.47038,-3.5061,-11.9512,96.5854,-15.0431,-0.232317,1.37953,12.4695,75.2744,-18.9024
564.687,8.1717,-6.2521,0,5.45825,8.14546,-2.93869,7.59146,-8.01829,110,-15.3425,0.804727,0.371228,4.81707,72.561,-25.2134
564.698,9.78701,-6.20579,0,4.84033,8.87834,-2.65608,10.9146,1.0061,123.14,-13.678,1.48731,-1.11608,0.243902,84.4207,-16.6463
564.707,11.4101,-6.10323,0,3.76976,8.8496,-1.96871,10.2744,4.72561,138.506,-11.6949,0.62989,-0.65384,-3.17073,84.0244,-4.84756
564.717,13.1439,-5.86144,0,3.5087,7.78621,-0.998723,10.7622,-10.8232,150.701,-9.45554,-0.498164,0.0550855,0.0609756,66.8902,2.10366
564.727,14.9705,-5.49269,0,3.46559,6.89526,-0.189207,12.8963,-18.811,158.75,-7.94667,-1.14721,0.512534,16.311,48.4756,6.12805
564.737,16.7006,-5.06721,0,2.33993,6.94795,1.50886,22.9268,-20.1829,169.116,-7.12039,-1.09452,0.677791,41.5854,37.561,15.3659
564.747,18.1788,-4.36436,0,0.464634,7.16829,1.43462,39.6037,-16.7988,177.348,-6.78749,-1.24302,1.54239,66.8902,24.4512,21.4939
564.757,19.4716,-3.78838,0,-0.859812,8.62207,1.50407,57.2866,-19.2073,180.64,-7.14434,-0.953218,1.17835,76.1281,5.97561,29.4207
564.767,20.8684,-0.630688,0,-0.292192,11.5943,-0.0383203,70.1524,-31.7988,185.213,-7.75507,-0.917292,1.19272,85.5183,-0.853659,30.2134
564.777,22.2644,-0.353728,0,0.522114,13.9893,-2.1148,73.9329,-37.622,180.671,-8.71548,-0.445474,0.881367,80.3963,-4.14634,24.6037
564.787,23.6099,-0.205284,0,2.09085,15.4191,-2.86923,75.4878,-41.4329,166.982,-9.10586,-0.500559,0.376018,69.7866,-2.34756,14.2073
564.797,24.8493,-0.176535,0,3.76018,14.5593,-2.96503,84.3598,-44.9085,145.091,-10.1022,0.455054,0.0862207,59.4512,-5.06098,11.7073
564.807,25.9735,-0.253221,0,4.94572,13.072,-2.66326,90.1829,-37.1037,123.14,-10.5836,1.14721,-0.366438,51.9207,-2.37805,14.6646
564.817,27.0319,-0.327331,0,5.39598,11.6637,-1.40588,95.5793,-25.122,110.335,-10.6914,1.61424,-0.364043,43.2317,-1.89024,23.2622
564.828,28.0562,-0.39303,0,5.2403,10.6291,-0.531694,100.762,-9.17683,106.128,-10.3417,1.4897,-0.332908,28.3537,-2.31707,33.9634
564.837,29.083,-0.443562,0,5.48699,10.7656,-0.617915,104.543,17.5305,106.921,-9.89862,1.09931,-0.289797,12.378,-4.87805,41.9207
564.847,30.1306,-0.489758,0,5.64746,10.8255,-0.486189,110.976,39.7866,110.03,-9.47709,0.833467,-0.273032,-4.08537,-8.2622,49.6341
564.857,31.1316,-0.54596,0,5.07026,11.1177,-0.263452,109.909,63.811,113.598,-9.30705,0.637075,-0.320933,-15,-13.3232,55.9451
564.867,32.109,-0.611788,0,4.57928,10.9979,-0.0790356,102.47,91.8902,117.134,-9.32142,0.502954,-0.376018,-22.0732,-20.5488,59.8476
564.877,33.0426,-0.656074,0,4.10746,10.5405,0.119751,94.7561,116.037,117.348,-9.41243,0.505349,-0.311353,-28.0793,-33.2317,61.128
564.887,33.8538,-0.729445,0,3.19256,10.0495,0.193997,87.0732,127.073,114.238,-9.54655,0.57241,-0.455054,-32.7744,-44.4817,59.0854
564.897,34.5646,-0.793189,0,2.96982,9.15376,0.246687,77.5915,128.72,104.939,-9.7118,0.63947,-0.440684,-36.372,-52.3171,51.7988
564.907,35.1084,-0.865349,0,1.96152,9.60163,0.222737,72.5305,125.335,102.47,-9.67348,0.819097,-0.488584,-36.7073,-55.7622,45.2134
564.917,35.5841,-0.937513,0,2.00463,9.36213,-0.385598,66.2805,118.476,95.5183,-9.7118,0.869392,-0.502954,-41.5854,-55.9451,41.9817
564.927,35.9513,-1.02964,0,1.76752,9.09868,-0.797541,56.9817,103.445,87.6524,-9.69264,0.778381,-0.598755,-45.5793,-54.7256,36.4329
564.937,36.1898,-1.15013,0,1.49928,9.23759,-0.840652,52.0732,83.1707,78.9024,-9.60882,0.622705,-0.728086,-47.8659,-52.7134,29.8476
564.948,36.3689,-1.30257,0,1.99505,8.95258,-1.32684,45.0915,68.4451,66.4939,-9.55852,0.342488,-0.878972,-52.7439,-51.4024,22.9268
564.957,36.4391,-1.52032,0,2.17228,8.48555,-1.43941,39.3598,52.4695,52.0732,-9.41722,0.0215552,-1.16398,-54.939,-49.4512,16.4939
564.967,36.3117,-1.7874,0,1.78668,8.2724,-1.56155,33.2622,34.8171,36.4939,-9.30465,-0.184417,-1.38911,-55.2439,-45.7317,10
564.977,35.9575,-2.10562,0,1.1544,8.09756,-1.45857,25.9451,17.6829,21.4024,-9.22801,-0.251477,-1.6334,-51.8598,-43.2927,7.04268
564.987,35.3939,-2.42111,0,0.725691,7.77423,-1.16637,18.4451,0.0304878,6.40244,-9.28789,-0.143701,-1.68609,-47.1037,-43.811,3.81098
564.997,34.615,-2.69139,0,0.105381,7.53713,-0.974773,11.1585,-19.2073,-8.65854,-9.4747,-0.0191602,-1.58311,-42.1037,-48.3537,3.2622
565.007,33.5938,-2.94641,0,-0.493374,7.08207,-0.898132,5.39634,-43.6585,-25.4268,-9.56331,0.0958008,-1.58071,-40.0915,-51.372,0.243902
565.018,32.3551,-3.23605,0,-0.948428,7.03178,-1.37714,-1.89024,-68.1402,-42.1646,-9.51541,0.287402,-1.76513,-38.7805,-50.2134,-3.44512
565.027,30.8906,-3.58399,0,-1.47533,6.77072,-1.50168,-4.90854,-95.8537,-58.3232,-9.29747,0.330513,-2.01421,-40.6098,-40.6707,-8.87195
565.037,29.3646,-3.98571,0,-0.792751,7.56347,-2.27527,-5.79268,-126.585,-80.4573,-9.09389,0.538879,-2.24653,-43.0793,-29.9085,-13.9329
565.047,27.9144,-4.40013,0,1.23823,8.46639,-2.19863,-21.7378,-128.689,-105.03,-8.87355,0.754431,-2.30161,-49.2378,-18.1707,-17.622
565.057,26.5919,-4.75596,0,3.64761,8.5095,-1.19272,-43.811,-107.287,-125.335,-8.81607,1.01549,-2.10762,-55.1524,-12.0122,-20.9146
565.067,25.4288,-5.07265,0,5.43909,7.85806,-0.0383203,-62.9573,-81.25,-135.213,-8.74422,1.1999,-1.98308,-62.9573,-7.80488,-22.439
565.077,24.4672,-5.47373,0,6.92161,7.17308,0.380808,-70.2744,-72.0732,-135.976,-8.69632,1.42504,-1.91602,-69.1159,-2.43902,-23.5061
565.087,23.6969,-5.74941,0,8.5574,6.95993,-1.02028,-69.0549,-81.0366,-132.5,-8.7059,1.59029,-1.89207,-75.3354,5.27439,-24.6951
565.097,23.0891,-5.98857,0,9.8579,7.14195,-3.18777,-65.9451,-93.3232,-124.024,-8.82325,1.67651,-1.82979,-81.9512,14.6951,-24.5732
565.107,22.6092,-6.19728,0,10.2842,7.4078,-5.36484,-59.4207,-92.2561,-112.53,-9.11544,1.52084,-1.79626,-88.6585,22.5,-22.561
565.117,22.292,-6.35605,0,11.156,7.07489,-7.22577,-47.9878,-55.9756,-103.811,-9.50344,1.04902,-1.68849,-92.8963,26.6463,-26.4024
565.127,22.0608,-6.47762,0,11.623,7.34313,-7.2138,-34.0244,-6.06707,-95.8841,-9.8579,0.517324,-1.61185,-93.2927,28.2622,-35.1524
565.137,21.9378,-6.56479,0,10.5956,7.49162,-6.85694,-10.0915,27.1951,-79.2378,-10.1261,0.134121,-1.51844,-85.0915,30.4573,-37.8659
565.147,22.0488,-6.68929,0,9.43877,6.88329,-6.59828,13.4451,23.5366,-53.9024,-10.5022,-0.457449,-1.76513,-66.9207,33.9329,-38.1402
565.157,22.4624,-6.89754,0,9.83156,6.3971,-6.76593,33.75,5.7622,-29.0244,-11.0123,-1.36037,-2.28485,-49.5427,45.8232,-39.8171
565.167,23.002,-7.15274,0,9.18729,6.37554,-5.93007,33.9634,12.1037,-11.8293,-11.235,-2.01661,-2.60099,-39.7561,62.0427,-43.75
565.177,23.5311,-7.41226,0,6.98388,6.89047,-4.01405,28.5671,31.9817,1.85976,-10.7896,-1.79866,-2.55788,-38.1402,74.6646,-47.1341
565.187,23.8468,-7.59568,0,5.73128,7.81495,-2.51477,20.9756,45.9146,6.15854,-10.3537,-1.10889,-2.13396,-43.1707,80.4268,-49.878
565.197,23.8872,-7.6402,0,5.0032,10.0782,-0.869392,8.84146,55.7012,-1.58537,-10.3872,-0.134121,-1.52323,-66.4329,76.189,-53.4756
565.208,23.5875,-7.65357,0,3.97573,11.3907,-0.222737,2.71341,55.2439,-21.0976,-10.7776,0.58199,-1.43462,-89.6037,79.9695,-58.9939
565.217,22.9293,-7.65398,0,3.0297,12.9762,-1.01549,0.731707,34.7866,-45.8537,-11.2686,1.29092,-1.42504,-107.348,92.1951,-65.1219
565.227,22.0467,-7.59838,0,3.7027,15.2251,-1.51126,-13.7805,12.8354,-71.1585,-12.0613,1.48252,-1.21427,-118.689,101.28,-67.3476
565.237,21.2896,-7.36683,0,6.77551,16.4945,-0.368833,-41.7378,9.45122,-77.8354,-13.1678,1.14242,-0.296982,-119.909,92.7439,-67.3171
565.247,20.8429,-7.00045,0,8.76338,16.6837,0.280217,-64.3598,25.6707,-58.689,-14.3198,0.495769,0.548459,-108.872,62.2866,-66.3719
565.257,20.7302,-6.67501,0,8.09277,15.309,-0.761616,-60.4573,21.311,-25.8232,-15.4239,-1.07057,0.399968,-92.8354,54.0549,-64.3293
565.267,20.7618,-6.47641,0,6.53601,12.7295,-0.320933,-37.378,-5.51829,-9.93902,-15.1701,-2.77583,-0.364043,-93.5366,57.622,-62.1037
565.277,20.6535,-6.24928,0,3.91346,8.06164,-0.548459,-8.14024,7.13415,-21.5244,-13.6301,-2.76146,-0.117356,-91.8293,50.0305,-44.6341
565.287,19.7982,-5.7811,0,-0.241897,6.53601,-1.57592,15.5488,35.9756,-40.7927,-11.6111,-1.6837,1.14961,-88.4451,16.3415,-5.70122
565.297,18.3857,-5.16967,0,-2.79259,6.89287,-2.27766,26.5244,45.7622,-58.7195,-9.7142,-1.12566,1.64298,-94.8781,-7.0122,33.8415
565.307,16.7789,-4.45967,0,-3.10634,6.88568,-3.1255,28.2927,50.6402,-76.8902,-8.54303,-0.713716,1.91841,-110.274,-20.8537,58.2622
565.317,15.2346,-3.70997,0,-2.80457,7.87482,-2.74709,15.0305,48.3537,-83.3232,-7.78621,-0.289797,1.98787,-124.116,-30.3354,64.8781
565.327,13.8309,-3.06915,0,-1.86333,7.96344,-2.08367,-0.884146,48.3232,-85.2744,-6.31327,-1.10171,1.37714,-148.049,-33.75,69.9085
565.337,12.5678,-2.65436,0,-1.46815,8.32509,-1.19032,-13.5366,39.8171,-80.2439,-6.60546,-0.476609,0.850232,-134.207,-14.2073,55.7012
565.347,11.5389,-2.3097,0,-0.831072,8.93821,-0.308958,-23.5671,20,-68.5061,-8.01374,0.225132,0.823887,-129.085,-36.25,38.75
565.357,10.7202,-2.14248,0,-0.481399,8.79451,-0.112566,-29.2683,-9.93902,-53.5976,-8.66997,-0.229922,0.263452,-118.262,-34.8476,17.0122
565.367,10.1597,-2.10049,0,-0.0143701,8.92145,-1.20948,-25.3659,-36.311,-35.122,-9.47709,-0.804727,-0.203577,-103.963,-30,-5.91463
565.377,9.89672,-2.18678,0,0.991538,8.43526,-2.81175,-19.6646,-48.3841,-19.7866,-10.0998,-1.55437,-0.778381,-85.061,-25.7317,-29.2073
565.387,9.82387,-2.34008,0,1.86572,7.73591,-3.87035,-12.378,-40.2439,-14.9085,-10.2722,-2.25371,-1.11368,-62.7134,-26.189,-42.6524
565.397,9.73114,-2.50237,0,2.05732,7.86524,-4.36373,-4.35976,-26.5549,-19.3293,-10.1525,-2.71116,-1.16637,-38.7195,-23.3537,-48.1098
565.407,9.53038,-2.67522,0,1.84896,8.52148,-4.03082,-0.213415,-19.4512,-25.6098,-9.71659,-3.08958,-1.19032,-19.4512,-23.628,-51.372
565.417,9.2395,-2.86146,0,1.64538,8.98851,-3.14227,-1.40244,-20.0305,-31.4024,-9.02683,-3.08239,-1.18793,-5.51829,-23.9634,-49.878
565.427,8.90986,-3.09187,0,1.63101,9.30944,-2.28724,-5.57927,-21.5244,-35.061,-8.55022,-2.74709,-1.31966,6.98171,-19.0244,-46.5244
565.437,8.59617,-3.28787,0,1.6334,9.41961,-1.47773,-11.6159,-20.4268,-33.9024,-8.44723,-2.0669,-1.20469,11.9512,-15.1524,-42.4085
565.447,8.3365,-3.46078,0,1.85614,9.44356,-0.455054,-16.9512,-19.3598,-31.6463,-8.50711,-2.02619,-1.15679,10.1829,-18.0183,-38.9329
565.458,8.11452,-3.64945,0,1.99984,9.49625,0.56283,-20.3963,-18.8415,-29.9085,-8.82325,-1.70286,-1.29331,10.9146,-23.0183,-38.4146
565.467,7.91776,-3.84807,0,2.24892,9.96089,-0.0119751,-21.7378,-11.6768,-29.4817,-9.04599,-1.34361,-1.3963,13.0183,-22.1646,-36.189
565.477,7.71514,-4.08004,0,2.28724,10.1405,-0.924478,-24.6037,-9.29878,-30.4573,-9.23999,-1.04183,-1.59508,16.4329,-17.8659,-32.439
565.487,7.4238,-4.30428,0,1.90165,9.93454,-1.40348,-27.5305,-10.9756,-36.0976,-9.29986,-0.785566,-1.60706,20.8232,-12.4085,-25.2744
565.497,6.98444,-4.54611,0,1.12326,9.78366,-1.67172,-28.628,-18.2927,-43.0488,-9.28549,-0.61552,-1.71244,25.7317,-8.44512,-13.5366
565.507,6.42233,-4.79555,0,0.526904,9.69743,-2.00942,-26.9207,-24.878,-49.4512,-9.17772,-0.498164,-1.75315,33.689,-5.79268,-1.18902
565.517,5.80966,-5.05371,0,0.438289,9.63516,-2.26569,-24.8476,-30.4268,-54.7256,-8.95498,-0.287402,-1.66214,38.1098,-3.32317,11.4939
565.527,5.15414,-5.2464,0,0.366438,9.49865,-2.33993,-24.1463,-34.1159,-59.5427,-8.89989,-0.285007,-1.54718,40.4878,-5.4878,22.4085
565.537,4.49007,-5.3949,0,0.548459,9.48907,-2.1148,-23.872,-34.2683,-63.9939,-8.95258,-0.411943,-1.42504,40.5793,-9.81707,28.4146
565.547,3.86647,-5.51105,0,1.04902,9.44117,-2.08606,-22.3476,-30.5793,-67.4085,-9.11784,-0.55325,-1.346,39.7256,-14.0549,29.0549
565.557,3.28893,-5.60704,0,1.42743,9.41961,-1.94236,-23.9024,-25.2439,-68.6281,-9.2831,-0.831072,-1.31008,39.8476,-19.7561,26.7378
565.567,2.81579,-5.70557,0,2.213,9.1346,-1.57113,-25.7622,-14.1463,-69.3598,-9.43638,-1.12805,-1.36037,40.9451,-21.8598,21.189
565.577,2.42528,-5.79689,0,2.67524,8.77056,-1.52323,-27.1037,-3.38415,-68.7195,-9.44596,-1.42264,-1.3484,44.2073,-22.6829,18.3537
565.588,2.07557,-5.87249,0,2.80217,8.53345,-1.60945,-25.4573,6.0061,-67.8354,-9.49625,-1.66693,-1.30529,46.6768,-24.3598,15.5488
565.597,1.71356,-5.96783,0,2.56507,8.53824,-1.83458,-22.1037,14.1159,-66.8293,-9.44356,-1.7795,-1.3963,49.1768,-26.372,12.5915
565.607,1.28829,-6.0896,0,2.09804,8.78254,-2.11959,-18.9024,19.1768,-67.3171,-9.137,-1.77471,-1.47533,50.6707,-26.1585,13.5671
565.617,0.78842,-6.29227,0,1.56634,9.06515,-2.24174,-17.0122,19.4817,-68.3841,-8.83044,-1.62622,-1.76752,52.5305,-22.5,14.3902
565.627,0.222812,-6.56277,0,1.16158,9.3765,-2.39741,-16.5549,14.1463,-70.5183,-8.5095,-1.45857,-1.99984,55.4268,-20.6402,18.2012
565.637,-0.377897,-6.87229,0,0.962798,9.45075,-2.61776,-17.0122,4.60366,-72.7134,-8.23408,-1.31247,-2.12199,57.622,-14.6037,22.8659
565.648,-0.985153,-7.18804,0,0.706531,9.51541,-2.70877,-19.3598,-9.14634,-71.4024,-8.00655,-1.21667,-2.13157,59.5427,-12.5915,27.8354
565.657,-1.54108,-7.51122,0,0.771196,9.53936,-2.77104,-24.939,-23.4146,-68.1707,-7.87722,-1.15679,-2.16989,61.1585,-10.7927,32.5305
565.667,-2.00457,-7.80502,0,1.03225,9.44356,-2.91474,-29.6341,-34.2683,-63.1707,-7.91793,-1.30529,-2.11241,59.5732,-7.68293,35.6707
565.677,-2.34925,-9.30066,0,1.37235,9.22801,-2.94827,-33.628,-41.7378,-56.5244,-8.18378,-1.58311,-2.1148,60.3049,0.304878,35.3963
565.687,-2.5192,-9.44006,0,2.07409,9.19448,-3.03449,-36.189,-43.9634,-48.0793,-8.73703,-1.78429,-1.9711,60.3659,5.09146,32.4085
565.697,-2.5387,-9.5556,0,2.70158,9.25675,-2.97461,-37.7439,-43.2317,-40.3354,-9.331,-1.84656,-2.03577,61.311,10.0915,32.1341
565.707,-2.46657,-9.65269,0,2.96264,9.21125,-2.56746,-37.0732,-40.8537,-34.2073,-10.0543,-1.80824,-2.11959,61.4634,20.7622,31.4939
565.717,-2.30322,-9.69043,0,3.40332,9.32142,-2.22976,-36.0976,-34.0854,-29.2988,-10.6722,-1.45138,-1.9711,58.7805,28.5976,32.9878
565.727,-2.05496,-9.60313,0,3.85598,9.46512,-2.15073,-34.3902,-24.4207,-24.6037,-11.144,-0.946033,-1.43701,48.0488,27.8963,35.8841
565.737,-1.76081,-9.39784,0,3.91586,9.53936,-2.17707,-33.9939,-17.439,-19.7256,-11.6302,-0.426313,-0.878972,29.2988,19.6037,38.0793
565.747,-1.42502,-9.32549,0,3.83922,9.42201,-2.42376,-32.1341,-11.0976,-14.5732,-11.7236,0.122146,-1.53281,7.56098,24.6341,36.6768
565.757,-1.05322,-9.44473,0,3.5087,9.10107,-2.60818,-27.0427,-4.87805,-8.01829,-11.4362,0.332908,-2.46687,-9.39024,33.1707,37.5915
565.767,-0.426917,-9.57776,0,3.08718,9.01485,-2.77104,-20.7012,-0.457317,-1.09756,-11.5608,0.263452,-2.57704,-12.9268,47.9878,35.8841
565.777,0.028158,-9.65221,0,3.13508,9.38129,-3.04646,-13.8415,1.09756,7.83537,-11.6087,-0.445474,-2.28964,-4.5122,60.6402,30.7317
565.787,0.570498,-9.71284,0,3.32189,10.0878,-3.30513,-9.48171,-0.213415,18.2012,-12.2553,-0.311353,-2.34712,-3.62805,68.9634,20.0305
565.797,1.20687,-9.64594,0,3.4129,10.6818,-3.26681,-6.92073,0.0304878,29.939,-13.0145,-0.399968,-1.74836,-0.213415,75.2134,9.17683
565.807,1.96927,-9.32036,0,3.6548,10.7632,-3.47278,-5.4878,2.7439,41.9817,-14.4803,-0.490979,-0.277822,-9.20732,65.6707,-6.25
565.817,2.88312,-8.95897,0,3.90149,10.1501,-3.46559,-1.46341,1.15854,54.3598,-16.2789,-0.352068,0.0239502,-26.372,56.311,-25.122
565.827,3.95412,-8.75202,0,4.05477,9.72138,-3.42009,6.21951,-2.65244,68.9634,-17.0956,0.328118,-1.01309,-35.3049,69.0244,-44.7561
565.837,5.13947,-8.67885,0,3.98531,10.004,-3.27399,15.4573,-2.43902,84.6951,-15.6826,0.337698,-1.7795,-36.7073,87.0122,-46.7378
565.848,6.41376,-8.52425,0,3.72426,10.8327,-3.48475,17.9573,3.04878,101.799,-13.2971,-0.826282,-1.02507,-43.2622,74.0244,-39.0244
565.858,7.7884,-8.30564,0,3.21891,10.9333,-3.24765,12.7439,4.08537,119.878,-10.847,-2.13396,-0.519719,-42.6524,52.6829,-31.4024
565.868,9.29253,-8.01452,0,2.9818,9.70222,-2.1651,5.03049,-10.6707,134.512,-9.2328,-2.6441,-0.129331,-37.6829,30.6402,-24.0854
565.878,10.941,-7.66662,0,2.92192,8.06882,-1.03944,0.0609756,-21.0671,146.555,-7.71915,-2.72074,0.110171,-22.1037,10.1524,-9.84756
565.888,12.5874,-7.11443,0,1.96631,7.04615,0.804727,1.43293,-27.7134,158.506,-6.58151,-2.15073,0.311353,11.4329,-4.63415,14.6037
565.898,14.2096,-6.58589,0,1.24302,6.66773,2.9339,8.53659,-31.5549,169.665,-8.76338,0.64426,0.912502,49.3293,-58.1707,37.561
565.908,15.6883,-6.04562,0,0.201182,6.41386,3.21172,22.8963,-23.9024,176.22,-6.40189,-1.19751,0.773591,95.3659,-33.7805,65.8537
565.917,17.0272,-5.21375,0,-0.785566,7.40301,2.9818,42.4085,-22.1646,181.006,-6.924,-0.905317,1.82021,104.726,-46.8902,80.9146
565.928,18.4652,-4.71216,0,-0.263452,9.66869,1.4897,59.7256,-37.1646,184.665,-7.791,-0.65863,0.989143,112.439,-43.9024,72.5915
565.937,19.9116,-4.28103,0,0.277822,12.0996,-0.809517,65.3963,-42.1951,182.591,-8.53345,-0.325723,0.893342,110.854,-40.122,53.0183
565.947,21.3347,-3.84298,0,1.76992,13.5055,-2.11959,76.189,-41.7988,170.61,-10.4064,1.48012,1.19751,97.4085,-43.689,46.7378
565.958,22.7217,-3.59547,0,3.8009,14.8611,-3.02012,84.7866,-46.9817,155.793,-10.5093,0.699346,0.387993,91.9512,-59.2073,27.0427
565.968,24.0158,-3.49317,0,5.13253,14.4348,-3.18538,69.1463,-50.2134,138.476,-10.7009,0.965193,-0.222737,87.6829,-36.4329,4.05488
565.978,25.2149,-3.46527,0,5.64267,12.5547,-1.93039,61.8902,-41.7683,121.982,-10.7345,1.45617,-0.550855,73.7805,-30.122,-6.95122
565.988,26.2882,-3.43651,0,4.92416,11.1871,-1.19272,70.3963,-22.561,112.5,-10.4183,1.54958,-0.519719,61.189,-23.5976,-7.0122
565.997,27.3301,-3.40467,0,4.96009,10.7009,-0.845442,81.7988,-2.62195,109.207,-10.083,1.38193,-0.479004,44.1159,-17.622,4.02439
566.007,28.3495,-3.36827,0,5.01757,10.7321,-0.529299,86.6159,15.6707,108.659,-9.82677,1.11368,-0.438289,26.9817,-13.811,23.2317
566.018,29.3583,-3.34103,0,4.74932,10.7991,-0.268242,85.4573,38.1402,112.348,-9.91059,0.5772,-0.474214,11.3415,-11.9512,41.4329
566.028,30.3291,-3.32974,0,4.26313,10.4591,0.184417,82.4695,62.1341,113.72,-10.1285,0.172441,-0.550855,0.853659,-11.5244,53.2927
566.038,31.1987,-3.341,0,3.55181,10.3944,0.469424,78.0183,80.6402,112.134,-10.1621,-0.0814307,-0.656235,1.4939,-16.311,57.9878
566.048,31.9325,-3.35949,0,2.68242,10.3321,0.467029,71.5854,94.4817,108.841,-10.0615,-0.0862207,-0.689766,5.36585,-23.0183,53.9329
566.058,32.5591,-3.36523,0,2.23934,10.2387,0.232317,67.7439,100.762,103.933,-9.93215,-0.0335303,-0.63468,12.0122,-30.6707,44.9695
566.067,33.0755,-3.37176,0,1.98308,10.4279,-0.244292,62.2866,100.274,97.1646,-9.82677,0.0407153,-0.63947,19.1159,-39.0244,37.0732
566.078,33.4744,-3.35116,0,1.9232,10.1669,-0.546064,53.0793,90.3963,86.3415,-9.79803,0.158071,-0.526904,23.9939,-45.7927,29.0244
566.087,33.7585,-3.32426,0,1.76752,10.2674,-0.694556,45.2134,79.6646,77.3781,-9.70701,0.153281,-0.495769,27.4695,-50.8841,22.1341
566.098,33.9626,-3.30544,0,1.7795,9.68785,-0.804727,39.4207,63.872,68.4756,-9.55852,0.292192,-0.522114,27.8354,-56.0671,18.75
566.107,34.0568,-3.30606,0,1.56634,8.86636,-0.917292,37.1951,49.6646,58.4756,-9.38129,0.383203,-0.59157,26.8902,-58.0183,17.1951
566.118,34.0214,-3.34061,0,1.41306,8.26761,-1.04902,39.3902,38.2317,46.0976,-9.27831,0.419128,-0.725691,22.1951,-59.3598,15.7622
566.128,33.8098,-3.42056,0,1.13045,8.01853,-1.1065,38.7805,27.1646,31.4634,-9.20885,0.483794,-0.912502,15.1524,-60.4573,14.9695
566.137,33.3882,-3.52041,0,0.682581,7.60898,-1.03465,36.0671,13.5976,15.5183,-9.24238,0.593965,-1.0107,11.0366,-60.3963,13.5976
566.148,30.8678,-3.60784,0,0.00479004,7.55868,-1.04662,30.5488,-10.5183,-1.85976,-9.43398,0.64905,-0.996328,4.54268,-60.6707,9.7561
566.158,29.8739,-3.74844,0,-0.962798,7.58742,-1.11847,22.439,-39.2073,-23.6585,-9.60163,0.608335,-1.25499,-1.52439,-58.2622,5.45732
566.168,28.5395,-3.95327,0,-1.91841,7.53234,-1.67651,10.4573,-72.5305,-46.0366,-9.49625,0.565225,-1.53281,-8.75,-50.1829,-1.7378
566.178,26.8948,-4.23905,0,-2.82373,7.26649,-1.77231,0.0304878,-108.354,-66.25,-9.13221,0.5772,-1.83458,-14.7866,-38.1707,-8.90244
566.188,25.2716,-4.61038,0,-1.29571,8.38257,-2.51956,-12.6524,-133.201,-92.8049,-8.71787,0.598755,-2.12917,-23.7805,-21.9817,-15.9756
566.198,23.8426,-5.05757,0,1.59987,9.06754,-1.48731,-43.2317,-107.317,-114.665,-8.32269,0.728086,-2.27048,-32.6524,-4.60366,-20.8537
566.208,22.7115,-5.42623,0,4.15057,7.84608,0.522114,-69.0854,-67.4695,-123.659,-8.13588,0.914897,-2.07409,-42.0122,7.92683,-25.6098
566.218,21.8381,-5.7118,0,5.69057,7.00304,1.27415,-79.6951,-54.7866,-122.561,-8.14307,1.1544,-1.81303,-50.9756,17.3171,-30.7012
566.228,21.1732,-5.90861,0,7.62574,7.12518,-0.160466,-80.5793,-75.3354,-119.085,-8.23647,1.40588,-1.5376,-60.3354,21.6768,-32.561
566.238,20.6711,-6.07373,0,9.53457,7.42935,-3.01293,-83.3537,-101.86,-114.299,-8.38017,1.54958,-1.46815,-64.9085,28.5671,-36.0061
566.248,20.2676,-6.24084,0,10.2387,7.53473,-5.30497,-85.0305,-103.75,-108.476,-8.54064,1.45378,-1.51844,-72.5,42.8963,-40.9146
566.258,19.9438,-6.39862,0,10.4591,7.17308,-6.53361,-74.6341,-65.6707,-105.061,-8.83044,1.1041,-1.54958,-78.9634,55,-46.9512
566.268,19.6651,-6.50957,0,10.7273,7.2617,-6.31327,-58.3841,-3.62805,-101.829,-9.10107,0.570015,-1.42504,-80.7622,60.8841,-54.6341
566.278,19.4898,-6.65271,0,10.6411,7.27846,-5.22833,-31.8902,47.378,-91.2805,-9.46512,0.0886157,-1.6358,-77.9268,64.4512,-60.4878
566.288,19.5672,-6.79733,0,10.2028,6.31088,-5.10618,0.914634,62.7134,-71.2195,-9.91299,-0.368833,-1.74118,-68.811,69.2073,-65.1829
566.298,19.808,-6.96459,0,9.48188,6.36357,-5.32173,19.5427,55.0915,-50.061,-10.4423,-0.725691,-1.96392,-59.8171,74.6951,-62.7744
566.308,19.9708,-7.13517,0,7.17548,7.04375,-4.78525,21.372,42.9573,-35.8841,-10.9189,-0.948428,-2.09564,-51.128,82.3476,-59.7561
566.318,20.0381,-7.16432,0,5.88217,7.90596,-3.45601,8.81098,43.5061,-27.1646,-11.2781,-0.953218,-1.47533,-52.1037,84.5732,-53.5671
566.328,19.9673,-7.03794,0,5.09421,10.2674,-1.21427,-3.2622,58.0183,-20.1829,-11.7691,-0.59157,-0.740061,-61.7378,75.7012,-49.9085
566.338,19.7321,-6.87912,0,3.62366,11.7404,-0.428708,-6.25,65.9756,-18.2622,-12.2601,-0.378413,-0.574805,-75.4878,69.3293,-53.5061
566.348,19.3052,-6.58883,0,2.08127,12.3942,0.184417,-11.4024,42.5305,-22.7439,-12.2817,-0.0981958,0.162861,-95.3049,62.2866,-57.2866
566.358,18.7164,-6.18868,0,1.97829,14.5378,0.821492,-15.8537,5.79268,-36.4939,-12.2625,0.265847,0.809517,-114.177,52.7134,-55.6707
566.368,18.0955,-5.77596,0,3.753,17.4477,-0.186812,-16.9512,-12.622,-49.939,-13.2876,0.0287402,1.04183,-127.256,50.4573,-50.2134
566.378,17.6454,-5.42225,0,5.90851,17.7734,-0.910107,-27.1951,-14.2683,-46.5244,-14.9593,-0.847837,0.890947,-139.207,50.9756,-50.7317
566.388,17.3976,-5.23109,0,6.11928,14.4468,-0.344883,-32.0427,-4.78659,-36.128,-16.243,-0.890947,-0.102986,-173.018,46.7988,-51.372
566.398,17.1481,-5.19097,0,4.02603,10.392,0.0502954,-23.0793,3.62805,-33.1707,-14.5402,-1.57832,-0.984353,-152.317,69.6951,-32.561
566.408,16.5371,-4.95058,0,0.682581,7.91554,0.785566,-10.1524,-3.2622,-37.4085,-12.5571,-0.419128,0.237107,-144.177,40.8841,12.1341
566.418,15.8794,-4.54859,0,0.694556,6.445,-0.387993,0.304878,0.396341,-45.9146,-10.9548,-0.232317,1.00591,-155.183,9.35976,43.2622
566.428,15.0659,-4.0145,0,0.352068,6.35638,-1.3484,8.10976,-2.46951,-57.0732,-9.79323,-0.136516,1.52563,-173.628,-16.9817,54.0854
566.438,14.134,-3.45473,0,0.0455054,7.15632,-2.03816,8.20122,0.670732,-65.0915,-9.01725,-0.165256,1.58311,-182.104,-33.0183,52.9878
566.448,13.1027,-2.95152,0,-0.589175,7.92991,-2.21779,1.09756,13.0488,-67.7134,-8.1766,0.323328,1.30289,-205.762,-40.2134,39.7866
566.458,12.0771,-2.5734,0,-0.759221,8.11433,-2.07888,-4.48171,32.1037,-67.0122,-7.56347,-0.0694556,0.843047,-208.201,-47.8354,21.0671
566.468,11.1264,-2.28261,0,-1.10171,9.25436,-1.44659,-12.0122,32.8963,-58.5061,-7.36947,-0.464634,0.5772,-203.293,-58.872,0.27439
566.478,10.3713,-2.09133,0,-0.450264,9.56331,-1.12805,-17.1646,29.2683,-48.8415,-7.53952,-1.21427,0.289797,-187.805,-70,-19.2683
566.488,9.87841,-2.11373,0,0.701741,9.53936,-1.21427,-17.6829,23.75,-37.7134,-8.1742,-1.66933,-0.431104,-173.018,-73.1707,-33.7805
566.498,9.6367,-2.19723,0,1.70286,8.83523,-1.67172,-13.3232,19.4512,-26.7683,-8.92145,-2.43813,-0.713716,-154.878,-71.0366,-39.2073
566.507,9.52871,-2.26642,0,2.15312,8.16702,-2.48843,-6.0061,19.1463,-21.4939,-9.92736,-3.05125,-0.744851,-136.128,-69.9695,-42.3476
566.517,9.38946,-2.37079,0,1.98547,8.08319,-3.34824,2.28659,19.1159,-22.9268,-10.8686,-3.61169,-0.996328,-115.03,-67.8049,-43.0183
566.528,9.11342,-2.48145,0,1.62622,8.54064,-3.76737,10.4573,20.7927,-31.0061,-11.3189,-4.02603,-1.08494,-94.2378,-62.6524,-40.7317
566.538,8.65648,-2.59912,0,1.03225,9.3286,-3.65959,15.2744,21.8598,-40.9146,-11.1608,-3.753,-1.12087,-75.3049,-56.9512,-38.628
566.548,8.05804,-2.71192,0,0.313748,9.89862,-3.2692,14.5732,18.0183,-47.1037,-10.4662,-3.09676,-1.04423,-57.9573,-50.5488,-40.5793
566.558,7.41352,-2.79985,0,-0.124541,10.2124,-2.49082,9.14634,10.9146,-47.8963,-9.64714,-2.76146,-0.874182,-49.9085,-49.5427,-40.4573
566.568,6.81041,-2.84855,0,-0.167651,10.3153,-1.62861,1.12805,3.2622,-44.5122,-9.46512,-2.2585,-0.708926,-47.0122,-51.2805,-42.622
566.578,6.31416,-2.88074,0,0.184417,10.1094,-1.08973,-5.64024,-2.92683,-38.872,-9.37411,-2.02379,-0.64426,-44.1768,-54.5732,-46.5244
566.588,5.95981,-2.90965,0,0.895737,9.68546,-1.00351,-10.1524,-5.45732,-34.0549,-9.36453,-1.79147,-0.637075,-44.4207,-56.8293,-49.3902
566.598,5.7246,-2.94137,0,1.52563,9.45314,-1.22864,-10.9756,-2.53049,-30.5488,-9.40045,-1.70765,-0.65863,-39.8476,-60.0305,-51.3415
566.608,5.56099,-2.9629,0,1.81782,9.4268,-1.41546,-11.0366,-0.0914634,-27.2866,-9.54655,-1.70046,-0.63468,-33.1098,-64.3598,-47.2866
566.618,5.42532,-2.98624,0,1.85135,9.46033,-1.65496,-11.1585,0.304878,-25.0915,-9.69743,-1.79626,-0.65863,-24.939,-67.3171,-43.3232
566.628,5.29374,-3.01498,0,1.7771,9.47949,-1.7771,-12.378,-1.31098,-24.0244,-9.68785,-1.90644,-0.684976,-14.6646,-67.1341,-36.372
566.638,5.13266,-3.06703,0,1.46575,9.46512,-1.78429,-14.5122,-5.30488,-23.5976,-9.65193,-1.96392,-0.787961,-5.97561,-68.2317,-29.4207
566.648,4.92349,-3.10175,0,1.04183,9.41961,-1.68849,-15.5488,-10.6098,-23.75,-9.52739,-1.93997,-0.713716,2.7439,-68.75,-21.9207
566.658,4.67567,-3.11332,0,0.780776,9.39087,-1.70286,-15.122,-14.5732,-24.939,-9.36932,-1.89207,-0.613125,6.82927,-70.7622,-11.5244
566.668,4.40554,-3.12378,0,0.646655,9.41961,-1.6813,-14.0549,-16.9207,-26.0366,-9.14418,-1.7795,-0.59636,10.2744,-71.5244,-5.70122
566.677,4.1425,-3.13241,0,0.759221,9.47949,-1.69567,-13.1707,-16.189,-27.1951,-8.95019,-1.61424,-0.5772,10.8537,-70.3354,-0.853659
566.687,3.89589,-3.15587,0,0.965193,9.51062,-1.75076,-13.5976,-13.4451,-28.5366,-8.80649,-1.56874,-0.6251,10.0305,-67.7439,1.79878
566.697,3.67886,-3.20663,0,1.34121,9.49146,-1.72202,-13.9024,-7.92683,-30.6098,-8.66518,-1.53281,-0.720901,9.29878,-64.2683,2.65244
566.707,3.49346,-3.30647,0,1.75555,9.51541,-1.83458,-15.3659,-0.487805,-32.7439,-8.44244,-1.49449,-0.888552,8.9939,-56.6463,2.95732
566.717,3.33797,-3.44661,0,2.08846,9.49386,-1.86093,-15.6707,6.37195,-34.0549,-8.26042,-1.55916,-1.02507,10.5793,-46.189,5.70122
566.727,3.1979,-3.62587,0,2.27048,9.53457,-2.04774,-15.061,10,-34.8171,-8.09996,-1.69567,-1.15919,11.6159,-34.5122,9.39024
566.737,3.07313,-3.81425,0,2.33754,9.37171,-2.1172,-14.2683,10.4573,-34.7866,-8.04727,-1.88728,-1.2023,11.4634,-23.1402,13.1098
566.747,2.96668,-3.97132,0,2.43573,9.12502,-2.25611,-13.1098,8.53659,-35.0915,-8.16702,-2.01661,-1.12805,12.622,-16.8598,17.8354
566.757,2.87958,-4.04025,0,2.39741,8.93821,-2.32556,-11.4939,5.51829,-33.4756,-8.47597,-2.16031,-0.859812,11.6159,-16.25,26.7683
566.767,2.83104,-4.05056,0,2.4525,8.9454,-2.49082,-10.3049,4.08537,-30.3659,-8.91187,-2.33514,-0.682581,11.372,-16.0061,33.7805
566.778,2.82236,-4.05423,0,2.50759,9.16334,-2.49322,-9.26829,4.08537,-26.3415,-9.23999,-2.37586,-0.677791,11.9207,-10.5183,41.0061
566.788,2.84892,-4.27981,0,2.49082,9.3765,-2.3567,-9.26829,5.73171,-21.8902,-9.28789,-2.20102,-0.955613,16.7988,0.121951,51.0976
566.797,2.87924,-4.40405,0,2.29922,9.46272,-2.05972,-10.0915,8.32317,-18.9634,-9.25436,-1.91362,-1.19272,26.1585,14.7866,64.6037
566.807,2.86146,-4.52563,0,1.88728,9.46033,-1.62861,-10.061,8.71951,-18.9634,-9.22562,-1.64538,-1.19272,36.8293,21.7683,76.9817
566.817,2.7982,-4.57652,0,1.58311,9.2831,-1.33403,-9.11585,8.90244,-20.3659,-9.29268,-1.22864,-0.929268,43.4146,20.2134,87.8963
566.827,2.68647,-4.49418,0,1.27655,9.00048,-1.18553,-8.62805,7.34756,-22.1646,-9.39087,-0.871787,-0.399968,39.9085,11.8293,97.439
566.837,2.56074,-4.19998,0,1.18553,9.06036,-1.12087,-8.65854,6.95122,-22.561,-9.59445,-0.5772,0.0910107,31.9512,1.61585,99.8781
566.847,2.44781,-3.99782,0,1.21427,9.36692,-1.22625,-7.86585,8.44512,-21.372,-10.016,-0.282612,0.136516,18.2927,-4.35976,94.7866
566.857,2.37515,-3.86017,0,1.32684,9.45554,-1.40827,-6.43293,11.0061,-18.7195,-10.2243,-0.165256,-0.395178,10.5793,-0.304878,89.2683
566.867,2.33492,-3.74715,0,1.31247,9.35974,-1.51365,-4.42073,11.5549,-15.5488,-9.79563,-1.16637,-0.179626,18.0488,-5.82317,95.8537
566.877,2.34535,-3.6216,0,1.35319,9.58008,-1.75315,-3.93293,10.6402,-10.5793,-10.974,0.0239502,-0.119751,-8.2622,-9.7561,86.5854
566.887,2.42927,-3.54731,0,1.51605,9.8603,-1.8753,-4.11585,9.20732,-4.66463,-10.847,-0.423918,-0.328118,-9.32927,4.78659,82.5915
566.897,2.64775,-3.40641,0,1.88009,9.90101,-2.23455,-5.12195,7.19512,1.7378,-11.0219,-0.878972,-0.0550855,-15.5793,1.79878,77.6829
566.907,2.90763,-3.2712,0,2.15552,9.78126,-2.49801,-6.64634,4.60366,6.52439,-11.0937,-1.0586,0.00718506,-18.4756,6.43293,72.439
566.917,3.22817,-3.19943,0,2.30161,9.51302,-2.85007,-7.68293,4.17683,10.8841,-11.5416,-1.13284,-0.285007,-22.2561,8.96341,69.1159
566.927,3.59001,-3.23338,0,2.37825,9.2304,-2.9315,-6.82927,5.33537,14.0244,-11.7595,-1.08494,-0.819097,-20.5793,14.6037,66.6768
566.937,3.96385,-3.30392,0,2.20581,8.95258,-2.75427,-4.48171,7.22561,17.2256,-11.8458,-1.00591,-1.02028,-13.3841,18.5976,64.8476
566.947,4.35984,-3.34242,0,2.05972,8.8951,-2.4549,-0.518293,7.95732,21.8902,-11.6087,-1.09452,-0.850232,-1.89024,17.622,60.8841
566.957,4.79386,-3.34107,0,1.91602,8.83044,-2.14833,3.71951,6.21951,28.2012,-11.2326,-1.41067,-0.63468,11.0671,15.0305,52.7439
566.967,5.29308,-3.31977,0,1.94955,9.09628,-2.03816,6.92073,2.43902,36.0366,-10.6602,-1.66214,-0.507744,20.6402,15.3963,42.439
566.977,5.86635,-3.28833,0,1.83698,9.27352,-2.07888,9.26829,-1.92073,46.4329,-10.2435,-1.81542,-0.438289,32.1037,15.3354,32.9573
566.987,6.51721,-3.23507,0,1.76273,9.22562,-2.00224,8.81098,-7.40854,56.311,-9.93933,-1.82021,-0.325723,42.0732,13.3841,27.8354
566.997,7.24456,-3.14628,0,1.74118,9.17053,-1.88249,6.85976,-13.872,65.5793,-9.80281,-1.65256,-0.162861,50.6707,8.47561,28.7195
567.007,8.05608,-2.98319,0,1.87051,9.23999,-1.63101,4.48171,-19.5732,74.2378,-9.63995,-1.44659,-0.00958008,59.3902,1.82927,33.2012
567.017,8.94027,-2.68521,0,2.0214,9.33818,-1.37474,2.92683,-23.1707,81.7378,-9.4747,-1.28373,0.0981958,64.6037,-0.823171,38.689
567.028,9.89266,-2.5181,0,2.22018,9.38369,-1.03225,3.14024,-25.6402,88.2622,-9.43638,-1.08015,0.244292,73.5976,-6.31098,43.3841
567.037,10.9043,-2.34059,0,2.48124,9.41722,-0.682581,3.9939,-27.4085,93.2927,-9.41961,-0.771196,0.311353,83.2927,-14.3902,47.7134
567.047,11.9665,-2.11822,0,2.81415,9.69983,-0.411943,5.15244,-27.9268,97.6219,-9.59445,-0.474214,0.529299,93.9024,-23.6585,49.7561
567.057,13.0757,-1.90751,0,3.16861,10.1142,-0.323328,5.67073,-28.872,102.104,-9.62319,-0.306563,0.512534,102.591,-31.128,52.0427
567.067,14.2417,-1.73425,0,3.62606,10.0519,-0.00479004,8.29268,-30,105.183,-9.81,-0.0550855,0.392783,109.482,-35.3354,49.7256
567.077,15.4166,-1.60321,0,3.68594,9.76928,0.155676,10.2134,-30.5183,106.768,-9.93933,0.182021,0.239502,113.659,-39.2988,44.1768
567.087,16.5277,-1.51389,0,3.31231,9.41243,0.579595,12.5305,-22.4695,105.274,-9.97047,0.502954,0.0790356,111.707,-40.061,38.1402
567.097,17.4942,-1.4407,0,2.59381,9.86269,0.459844,12.7439,-7.68293,102.287,-9.92736,0.931663,0.0263452,107.165,-36.7988,35.1524
567.107,18.3067,-1.39894,0,2.05253,10.2603,0.256267,12.1341,7.83537,95.5183,-9.9561,1.14242,-0.0958008,97.8354,-33.3841,29.9085
567.117,18.927,-1.38097,0,1.34361,10.6435,-0.464634,13.2622,9.63415,85.9756,-9.9537,1.32684,-0.189207,86.189,-29.0549,25.6098
567.127,19.4462,-1.35318,0,1.51605,11.3859,-0.682581,8.2622,3.32317,76.1281,-9.89862,1.53521,-0.141306,72.3781,-28.0183,25.0305
567.137,19.9121,-1.33144,0,2.03337,11.1967,-1.59269,10.7012,1.06707,66.2195,-9.96089,1.67172,-0.162861,57.3476,-26.7988,26.3415
567.147,20.3174,-1.33292,0,2.46687,10.9045,-2.02619,15.0305,1.43293,55.9756,-10.1621,1.71723,-0.263452,42.6829,-23.4451,29.3598
567.157,20.651,-1.34901,0,2.87163,10.7656,-1.80584,14.8476,2.80488,45.0305,-10.4016,1.67172,-0.335303,26.9207,-21.6768,32.9268
567.167,20.8617,-1.39122,0,2.77822,10.6075,-1.2023,14.3293,5.97561,33.689,-10.5692,1.40588,-0.462239,17.622,-18.0183,35.9146
567.177,20.9664,-1.41523,0,2.68721,10.3106,-0.811912,15.7622,10.8537,23.4451,-10.5237,1.10889,-0.383203,10.8537,-17.7439,39.4817
567.187,20.9532,-1.46076,0,2.3088,10.0351,-0.385598,16.9512,17.8659,15,-10.3417,0.862207,-0.479004,7.34756,-17.5915,43.0793
567.197,20.8191,-1.51983,0,1.97589,9.67109,-0.129331,17.1037,22.1037,5.64024,-10.119,0.5772,-0.536484,8.9939,-16.6463,47.1951
567.207,20.5485,-1.58809,0,1.74118,9.47949,-0.0215552,15.6402,23.811,-2.59146,-9.98484,0.399968,-0.579595,12.1341,-15.8841,48.3232
567.217,20.2558,-1.65344,0,1.77231,9.41243,-0.00479004,14.0549,23.5976,-9.69512,-9.83874,0.311353,-0.570015,18.1098,-15.6402,46.8902
567.228,19.9319,-1.72422,0,2.05014,9.39566,-0.141306,10.9146,24.7866,-16.8293,-9.64474,0.275427,-0.59157,24.5122,-13.9329,43.9634
567.237,19.5735,-1.77684,0,2.17947,9.45554,-0.215552,6.98171,27.2561,-22.378,-9.61121,0.332908,-0.524509,29.6646,-14.2988,39.7866
567.247,19.1848,-1.8164,0,2.32556,9.44117,-0.129331,3.32317,29.939,-27.9573,-9.56571,0.320933,-0.476609,34.4207,-15.4573,35.8841
567.257,18.7728,-1.81541,0,2.51717,9.41482,-0.0526904,1.03659,33.1707,-33.4451,-9.59205,0.380808,-0.313748,36.4024,-16.5549,31.2195
567.267,18.3253,-1.80101,0,2.6441,9.3789,-0.0311353,1.52439,35.8537,-39.4817,-9.67588,0.500559,-0.258662,35.8537,-16.0671,29.2683
567.277,17.8411,-1.79225,0,2.84289,9.56331,-0.335303,2.83537,36.2805,-45.7927,-9.75012,0.58678,-0.280217,35.7012,-13.4451,26.9512
567.287,17.3133,-1.77856,0,3.04886,9.73815,-0.756826,0.914634,32.9573,-52.9268,-9.72617,0.656235,-0.253872,32.2561,-9.81707,26.4939
567.297,16.7086,-1.74063,0,2.94108,9.88664,-1.43941,-5.4878,23.689,-60.1829,-9.77886,0.785566,-0.146096,29.878,-6.58537,27.1951
567.307,15.9816,-1.68266,0,2.21779,9.87467,-1.88249,-15,4.45122,-65.9146,-9.74054,0.953218,-0.146096,26.9817,-1.12805,25.8232
567.317,15.1901,-1.65796,0,1.65256,9.26873,-1.59269,-17.2866,-21.7683,-68.7805,-9.59684,1.12326,-0.170046,23.1402,8.87195,25.2134
567.327,14.4125,-1.69103,0,1.40348,8.68674,-1.69328,-15.3659,-37.5,-67.0732,-9.43638,1.19511,-0.392783,10.9146,22.1341,20.4268
567.337,13.6973,-1.79565,0,1.36037,8.14307,-1.88009,-17.5915,-42.622,-62.9268,-9.22801,1.36516,-0.66821,-4.84756,38.628,10.6707
567.347,13.0256,-1.93653,0,1.25739,7.82692,-1.61185,-20.4573,-42.2256,-59.2073,-9.16813,1.55676,-0.819097,-19.878,50.122,0.884146
567.357,12.4213,-2.06928,0,1.56155,7.75268,-1.03465,-23.6585,-35.7317,-58.3232,-9.34537,1.72441,-0.821492,-31.9207,53.5671,-7.83537
567.367,11.9151,-2.19146,0,2.15791,7.67604,-0.524509,-23.0793,-25.3659,-58.3537,-9.63756,1.75794,-0.823887,-40.7622,54.2378,-16.25
567.378,11.5668,-2.28065,0,3.10155,7.26888,-0.730481,-20.9756,-20.4268,-58.3841,-9.95131,1.58311,-0.728086,-47.3171,52.3476,-22.3476
567.387,11.3522,-2.35976,0,3.65719,7.01501,-1.16398,-20.1829,-21.5854,-54.4817,-10.0447,1.22864,-0.708926,-53.1707,48.7805,-30.3659
567.397,11.1952,-2.39671,0,3.45841,7.19943,-1.27655,-23.9634,-26.2195,-45.2134,-9.93454,0.526904,-0.529299,-54.4817,49.1159,-43.872
567.407,11.1392,-2.34001,0,3.63564,7.85806,-1.48252,-27.6524,-26.5854,-33.5366,-9.8124,0.148491,-0.126936,-54.3598,45.2134,-58.8415
567.417,11.1229,-2.28577,0,3.559,9.25436,-1.42504,-25.7317,-28.0488,-21.8598,-9.81479,-0.241897,-0.126936,-55.4878,46.311,-74.3598
567.428,11.1225,-2.25717,0,3.74342,10.8231,-1.5879,-22.9573,-27.6524,-16.2805,-9.94891,-0.673001,-0.227527,-59.9695,51.189,-87.8659
567.437,11.0529,-2.25764,0,3.6069,12.0278,-1.67891,-21.5244,-23.4756,-18.4756,-10.1525,-0.895737,-0.356858,-63.689,51.7073,-95.9756
567.447,10.8661,-2.30521,0,3.13987,12.1499,-1.7316,-20.3659,-21.4634,-26.0671,-10.2315,-0.766406,-0.57241,-65.9756,51.8902,-92.439
567.457,10.5924,-2.38458,0,3.00814,11.5488,-1.46336,-23.4756,-23.2317,-35.5488,-10.3106,-0.63947,-0.730481,-71.8902,51.9512,-77.3781
567.467,10.2419,-2.46151,0,2.76625,10.7057,-0.838257,-28.1707,-24.4207,-43.7195,-10.2363,-0.416733,-0.728086,-74.939,52.2561,-55.5183
567.478,9.85821,-2.51072,0,2.78062,10.0375,-0.117356,-30.3354,-21.4024,-49.8476,-10.1549,-0.237107,-0.613125,-80,50.3354,-32.1951
567.487,9.49352,-2.55552,0,2.9339,9.35734,0.251477,-29.878,-14.4207,-52.622,-9.96089,-0.119751,-0.59636,-86.2195,43.5671,-18.0488
567.497,9.14605,-2.60291,0,3.00814,8.67237,0.227527,-27.2256,-4.54268,-55.122,-9.84593,0.0335303,-0.613125,-91.3719,38.2012,-11.6463
567.508,8.77904,-2.63201,0,2.85247,8.11193,0.0191602,-22.2256,6.85976,-58.3232,-9.76928,0.172441,-0.543669,-89.1159,30.8232,-8.93293
567.517,8.37546,-2.61683,0,2.64171,8.02332,-0.364043,-14.878,16.7683,-60.4573,-9.88425,0.210762,-0.368833,-82.3476,22.561,-11.25
567.527,7.87815,-2.55493,0,1.85614,8.43047,-0.608335,-6.06707,22.2866,-58.9939,-10.0663,-0.0670605,-0.174836,-70.2439,11.8293,-17.1646
567.537,7.35217,-2.47798,0,1.14242,9.25675,-1.03465,3.93293,22.8659,-51.9512,-10.2148,-0.565225,-0.134121,-57.7439,2.71341,-25.3049
567.547,6.91923,-2.37785,0,0.759221,9.94891,-1.53521,14.8476,17.1037,-38.0793,-10.4734,-1.13045,-0.00239502,-47.622,-3.9939,-32.0122
567.557,6.72159,-2.28452,0,1.23823,10.2363,-1.9735,21.5549,7.13415,-20.122,-10.5046,-1.7316,-0.0143701,-36.8902,-11.5549,-35.6707
567.567,6.88751,-2.2165,0,2.72553,10.2363,-2.20581,18.628,-1.46341,-1.79878,-10.5501,-2.10762,-0.119751,-31.2805,-16.8598,-32.6524
567.578,7.29979,-2.1889,0,4.02363,9.93454,-2.14833,9.35976,-9.57317,11.128,-10.4231,-2.12438,-0.292192,-26.7988,-17.4085,-24.6951
567.587,7.84945,-2.19965,0,4.711,9.39087,-2.03577,4.14634,-11.9512,16.6159,-10.2028,-1.81063,-0.452659,-25.4268,-16.189,-13.2622
567.597,8.41533,-2.23181,0,4.72058,8.97893,-1.83458,2.95732,-3.5061,17.1646,-9.88185,-1.26218,-0.531694,-27.0732,-13.75,5.06098
567.607,8.91029,-2.28443,0,4.28469,8.86397,-1.49928,3.71951,11.1585,15.0305,-9.7142,-0.687371,-0.613125,-27.8354,-10.3049,18.2317
567.617,9.28005,-2.32503,0,3.6069,8.9454,-0.974773,5.73171,25.9451,11.0976,-9.73575,-0.162861,-0.57241,-35.4573,-11.1585,26.311
567.627,9.4873,-2.33037,0,2.71595,9.19927,-0.373623,7.56098,36.7073,6.46341,-9.71899,0.114961,-0.426313,-38.0793,-10.4268,28.9329
567.637,9.51108,-2.39475,0,1.62861,9.5226,0.0934058,9.48171,40.6707,1.82927,-9.7621,0.63468,-0.694556,-53.1402,-22.9268,26.0366
567.647,9.34177,-2.49911,0,0.536484,9.93694,0.227527,11.0366,39.3293,-2.80488,-9.70222,0.696951,-0.871787,-56.2805,-21.0976,16.7073
567.657,9.06976,-2.60105,0,-0.205972,10.3177,0.136516,12.1037,33.689,-6.31098,-9.73815,0.536484,-0.883762,-61.4024,-22.6829,6.70732
567.667,8.75195,-2.70397,0,-0.452659,10.5477,-0.256267,11.5549,26.8598,-8.90244,-9.78844,0.285007,-0.910107,-67.439,-22.5915,-2.53049
567.678,8.43304,-2.80943,0,-0.378413,10.5501,-0.811912,9.29878,18.5061,-10.4878,-9.8076,0.0191602,-0.941243,-70.7317,-23.2317,-7.9878
567.687,8.14112,-2.93938,0,-0.138911,10.3369,-1.35558,6.18902,8.59756,-11.0061,-9.8124,-0.277822,-1.06339,-72.3781,-18.9939,-7.43902
567.697,7.90133,-3.08267,0,0.201182,9.96328,-1.88488,3.47561,-2.16463,-10.2134,-9.81,-0.579595,-1.14003,-74.1768,-14.3293,-5.36585
567.707,7.72575,-3.22972,0,0.548459,9.6663,-2.12199,0.0914634,-10.7927,-8.41463,-9.8124,-0.756826,-1.17835,-73.75,-10.4878,-0.731707
567.717,7.60106,-3.36904,0,0.893342,9.46512,-2.07648,-1.76829,-15.3354,-7.95732,-9.82677,-0.790356,-1.16637,-73.75,-6.37195,4.32927
567.728,7.49257,-3.5013,0,1.13284,9.48907,-1.99745,-1.98171,-14.4817,-9.45122,-9.89622,-0.766406,-1.14482,-70.0915,-3.71951,7.40854
567.737,7.39835,-3.62327,0,1.42025,9.58487,-1.75794,-2.04268,-9.60366,-11.5244,-9.9537,-0.747246,-1.13524,-65.3354,-3.90244,9.05488
