time,angle1,angle2,intgangle,accX1,accY1,accZ1,gyroX1,gyroY1,gyroZ1,accX2,accY2,accZ2,gyroX2,gyroY2,gyroZ2
419.375,84.6994,6.2075,0,9.46512,0.795146,-2.18665,-0.0304878,-0.884146,-1.52439,-9.82916,-0.316143,1.04423,-15.122,-3.75,4.11585
419.385,84.7017,6.19363,0,9.45075,0.766406,-2.25611,-0.0914634,-0.487805,-1.67683,-9.78366,-0.318538,1.00351,-13.6585,-3.62805,4.93902
419.395,84.7056,6.19274,0,9.46512,0.768801,-2.19863,-0.0609756,-0.426829,-1.55488,-9.78844,-0.335303,1.0562,-14.4207,-2.95732,5.21341
419.405,84.7088,6.19757,0,9.45314,0.754431,-2.22976,-0.213415,0,-1.7378,-9.82677,-0.318538,1.08255,-14.2988,-2.5,4.42073
419.415,84.704,6.19988,0,9.46512,0.785566,-2.19623,-0.335366,-0.0914634,-1.95122,-9.84114,-0.294587,1.07536,-14.6341,-2.62195,5.27439
419.425,84.7035,6.20096,0,9.46272,0.761616,-2.26808,-0.121951,-0.27439,-1.92073,-9.83635,-0.311353,1.07057,-15.2439,-2.40854,4.08537
419.435,84.6992,6.20313,0,9.46512,0.780776,-2.19863,-0.0304878,0.0304878,-1.98171,-9.81958,-0.323328,1.07297,-15.2439,-3.35366,4.29878
419.445,84.6988,6.20215,0,9.4747,0.773591,-2.213,0,0.213415,-1.79878,-9.83874,-0.330513,1.06339,-15.4268,-2.56098,4.66463
419.455,84.6986,6.1975,0,9.4747,0.792751,-2.22258,-0.0609756,0.152439,-1.55488,-9.8124,-0.342488,1.04662,-15.6707,-2.46951,5.7622
419.465,84.6961,6.19094,0,9.43398,0.773591,-2.20581,0.152439,0.27439,-1.92073,-9.80042,-0.289797,1.03704,-14.2683,-2.56098,4.90854
419.475,84.6901,6.18217,0,9.45554,0.795146,-2.19863,-0.152439,0.121951,-1.95122,-9.81958,-0.292192,1.03225,-15.3963,-2.07317,5.21341
419.485,84.684,6.18816,0,9.46751,0.807122,-2.17947,-0.213415,-0.0304878,-1.82927,-9.87946,-0.294587,1.09213,-14.6646,-3.35366,4.2378
419.495,84.6773,6.19423,0,9.49625,0.821492,-2.19623,-0.213415,0.0609756,-1.7378,-9.84593,-0.299377,1.08973,-13.628,-3.35366,5.67073
419.505,84.6741,6.20101,0,9.48907,0.799937,-2.18665,0,-0.0304878,-1.7378,-9.8555,-0.294587,1.09452,-13.8415,-3.04878,5.88415
419.515,84.6689,6.20376,0,9.44596,0.795146,-2.22018,-0.0609756,0.243902,-1.92073,-9.81958,-0.270637,1.07536,-15.1829,-2.80488,5.36585
419.525,84.6636,6.19566,0,9.45554,0.795146,-2.22737,-0.243902,-0.0609756,-1.95122,-9.79323,-0.311353,1.02746,-15.4573,-3.75,5.12195
419.535,84.6584,6.19408,0,9.4723,0.787961,-2.27287,0.27439,0.335366,-2.04268,-9.80521,-0.296982,1.0562,-13.811,-2.56098,5.39634
419.545,84.6535,6.18471,0,9.50583,0.799937,-2.24413,0.0609756,0.823171,-1.92073,-9.79563,-0.306563,1.02507,-14.4512,-2.59146,4.81707
419.555,84.6506,6.18305,0,9.47709,0.811912,-2.17707,-0.0609756,0.579268,-1.61585,-9.84114,-0.325723,1.0562,-14.8476,-3.78049,5.67073
419.565,84.6468,6.17741,0,9.46991,0.802332,-2.1627,-0.0304878,0.152439,-1.79878,-9.82916,-0.294587,1.03704,-13.9024,-4.29878,6.55488
419.575,84.646,6.18156,0,9.43877,0.795146,-2.23216,0.0304878,0.0609756,-1.64634,-9.8076,-0.287402,1.07536,-14.2683,-2.71341,6.09756
419.585,84.6424,6.19057,0,9.43638,0.811912,-2.21779,0.182927,-0.213415,-1.64634,-9.8076,-0.263452,1.09692,-14.6037,-3.90244,5.21341
419.595,84.6414,6.18175,0,9.43877,0.799937,-2.20821,-0.0914634,-0.487805,-1.61585,-9.84114,-0.308958,1.02507,-14.6341,-4.87805,5.4878
419.605,84.6433,6.18755,0,9.45075,0.775986,-2.17947,-0.152439,-0.518293,-1.70732,-9.80042,-0.268242,1.08255,-14.2988,-3.56707,5.60976
419.615,84.6442,6.19273,0,9.45793,0.797541,-2.22737,-0.152439,-0.731707,-1.52439,-9.79323,-0.311353,1.08015,-14.6037,-3.59756,5.2439
419.625,84.6508,6.19303,0,9.4723,0.768801,-2.213,-0.182927,-0.548781,-1.4939,-9.81479,-0.318538,1.06339,-14.5427,-3.29268,5.64024
419.635,84.6526,6.19728,0,9.47709,0.778381,-2.26808,-0.213415,-0.579268,-1.67683,-9.84114,-0.301772,1.08255,-14.939,-3.78049,4.54268
419.645,84.647,6.2015,0,9.5202,0.816702,-2.20342,-0.0914634,-0.457317,-1.79878,-9.83635,-0.292192,1.08255,-14.3293,-4.02439,4.35976
419.655,84.6509,6.19465,0,9.48667,0.780776,-2.27766,-0.182927,0.152439,-1.52439,-9.81719,-0.332908,1.03465,-14.0244,-3.84146,5.15244
419.665,84.6542,6.19989,0,9.43877,0.795146,-2.19384,0,0.0609756,-1.37195,-9.83635,-0.332908,1.08494,-15.2134,-2.22561,5.51829
419.675,84.6546,6.19901,0,9.44356,0.768801,-2.20821,-0.121951,-0.243902,-1.85976,-9.8076,-0.313748,1.06099,-14.0549,-1.76829,4.2378
419.685,84.6613,6.20808,0,9.44356,0.792751,-2.19144,-0.182927,-0.0304878,-1.18902,-9.84832,-0.311353,1.1041,-14.2378,-3.20122,4.93902
419.695,84.6683,6.20504,0,9.46512,0.728086,-2.16989,-0.152439,-0.487805,-1.85976,-9.82677,-0.280217,1.05381,-15.1829,-3.20122,6.25
419.705,84.6723,6.1898,0,9.45793,0.778381,-2.19623,-0.0304878,-0.396341,-1.4939,-9.82916,-0.268242,1.01788,-15.2134,-1.64634,4.08537
419.715,84.6717,6.17909,0,9.43638,0.797541,-2.22258,-0.335366,-0.670732,-1.55488,-9.83395,-0.316143,1.02267,-14.7256,-2.65244,5.33537
419.725,84.6703,6.17646,0,9.45554,0.785566,-2.2585,-0.335366,-0.762195,-1.76829,-9.80521,-0.289797,1.04902,-14.6951,-2.71341,4.81707
419.735,84.6635,6.18138,0,9.46512,0.809517,-2.2609,-0.152439,-0.762195,-1.89024,-9.81479,-0.328118,1.07776,-13.9329,-2.04268,4.17683
419.745,84.6604,6.18754,0,9.48428,0.783171,-2.23934,-0.213415,-0.914634,-1.95122,-9.77647,-0.289797,1.08015,-14.4512,-2.59146,5.60976
419.755,84.6542,6.20326,0,9.45314,0.809517,-2.25611,-0.243902,-0.335366,-1.85976,-9.78605,-0.304167,1.11368,-13.9634,-1.98171,6.0061
419.765,84.6483,6.20584,0,9.45793,0.785566,-2.23216,-0.121951,-0.0609756,-2.13415,-9.80042,-0.304167,1.07297,-14.8476,-3.29268,6.03659
419.775,84.6496,6.19743,0,9.46033,0.756826,-2.22497,-0.0609756,-0.0914634,-1.95122,-9.81958,-0.316143,1.03944,-13.9939,-1.61585,5.91463
419.785,84.6437,6.19659,0,9.50104,0.807122,-2.24174,-0.396341,0.121951,-1.92073,-9.79084,-0.323328,1.0586,-15.122,-1.95122,5.85366
419.795,84.6447,6.18688,0,9.47949,0.787961,-2.22976,-0.243902,0.0304878,-1.64634,-9.82677,-0.311353,1.03225,-15.1524,-1.85976,5.21341
419.805,84.6374,6.19673,0,9.4747,0.833467,-2.29203,0.0914634,0.27439,-1.67683,-9.84593,-0.318538,1.10171,-14.939,-2.22561,5.94512
419.815,84.6297,6.21108,0,9.46991,0.823887,-2.28006,0.0609756,-0.213415,-1.85976,-9.82916,-0.323328,1.12326,-15.3963,-3.2622,5.03049
419.825,84.6215,6.21457,0,9.45075,0.828677,-2.22258,0.304878,0.0914634,-1.82927,-9.81958,-0.328118,1.08015,-14.2683,-3.53659,5
419.835,84.6175,6.21956,0,9.46033,0.809517,-2.27527,0,0.152439,-1.76829,-9.82916,-0.330513,1.08734,-13.0793,-2.59146,5.70122
419.845,84.6123,6.22114,0,9.4723,0.826282,-2.22976,-0.213415,-0.27439,-1.67683,-9.8124,-0.287402,1.07297,-14.2073,-3.38415,5.82317
419.855,84.6062,6.21972,0,9.4268,0.835862,-2.16989,-0.182927,-0.27439,-1.58537,-9.78366,-0.261057,1.0586,-15.3659,-2.77439,5.70122
419.865,84.6047,6.2156,0,9.45075,0.809517,-2.23934,0,-0.0914634,-1.61585,-9.82677,-0.268242,1.04902,-14.1159,-4.81707,5.60976
419.875,84.6107,6.22029,0,9.45793,0.783171,-2.26329,-0.243902,-0.0304878,-1.43293,-9.8124,-0.285007,1.08494,-14.1463,-4.48171,4.96951
419.885,84.605,6.22202,0,9.46272,0.840652,-2.20342,-0.121951,-0.152439,-1.52439,-9.79323,-0.282612,1.07057,-14.6646,-4.96951,6.40244
419.895,84.6116,6.21843,0,9.45554,0.814307,-2.24413,-0.121951,-0.304878,-1.03659,-9.79803,-0.280217,1.04902,-15.2134,-4.48171,5.18293
419.905,84.6167,6.21737,0,9.48188,0.814307,-2.24892,-0.0914634,-0.335366,-1.12805,-9.81479,-0.294587,1.06099,-15.3659,-4.54268,5.85366
419.915,84.6223,6.19874,0,9.46272,0.797541,-2.22258,0.0914634,-0.426829,-1.28049,-9.83635,-0.332908,0.989143,-14.4207,-3.9939,4.78659
419.925,84.6305,6.18704,0,9.48428,0.807122,-2.25611,-0.27439,-0.426829,-1.0061,-9.89143,-0.328118,1.02028,-15.3354,-4.26829,4.84756
419.935,84.6426,6.17356,0,9.46033,0.764011,-2.26329,0,-0.548781,-1.25,-9.86988,-0.335303,1.0083,-15.0305,-4.32927,5.15244
419.945,84.6546,6.16636,0,9.45075,0.773591,-2.23455,0,-0.0914634,-1.12805,-9.88904,-0.316143,1.03465,-13.9939,-4.48171,5.03049
419.955,84.6634,6.16102,0,9.46991,0.768801,-2.2609,-0.27439,-0.0304878,-1.34146,-9.86988,-0.273032,1.03944,-14.2988,-4.5122,5.70122
419.965,84.6684,6.15247,0,9.45314,0.799937,-2.23934,-0.0304878,0.182927,-1.18902,-9.82437,-0.246687,1.02028,-15.3049,-4.29878,5.42683
419.975,84.6758,6.15048,0,9.4747,0.742456,-2.22737,-0.304878,0.213415,-1.67683,-9.79563,-0.282612,1.04662,-14.2683,-2.31707,3.9939
419.985,84.6888,6.15062,0,9.45793,0.742456,-2.24413,-0.243902,0.0914634,-1.34146,-9.78844,-0.256267,1.05381,-14.3293,-1.70732,4.78659
419.995,84.6923,6.15416,0,9.46272,0.744851,-2.22497,-0.182927,-0.152439,-1.85976,-9.77407,-0.287402,1.06339,-16.3415,-1.76829,4.81707
420.005,84.6961,6.15148,0,9.44356,0.749641,-2.22737,0.0304878,-0.121951,-1.76829,-9.76689,-0.294587,1.04423,-16.0061,-1.34146,6.06707
420.015,84.6991,6.15393,0,9.46991,0.749641,-2.22737,0.0914634,0.396341,-1.82927,-9.77168,-0.270637,1.0586,-16.9817,-1.0061,5.27439
420.025,84.6937,6.16083,0,9.45793,0.785566,-2.24413,0.213415,0.335366,-2.0122,-9.79803,-0.270637,1.07536,-16.189,-1.31098,5.33537
420.035,84.6884,6.14888,0,9.44356,0.795146,-2.24174,0.243902,0.426829,-1.89024,-9.82437,-0.277822,1.01788,-17.5915,-1.89024,4.66463
420.045,84.6805,6.13318,0,9.43877,0.804727,-2.18665,0,0.304878,-1.98171,-9.81719,-0.270637,1.01788,-16.7683,-0.884146,4.5122
420.055,84.6711,6.13498,0,9.45793,0.826282,-2.20342,0,0.304878,-1.85976,-9.8124,-0.277822,1.0586,-16.311,-1.40244,5.09146
420.065,84.6596,6.12709,0,9.45554,0.838257,-2.22018,-0.0914634,0.182927,-1.89024,-9.84593,-0.258662,1.02507,-17.4085,-2.71341,4.54268
420.075,84.6543,6.14396,0,9.4747,0.835862,-2.23695,-0.152439,0.0304878,-1.46341,-9.81958,-0.280217,1.1065,-17.378,-1.58537,5.39634
420.085,84.6478,6.13903,0,9.45793,0.828677,-2.19144,0.243902,-0.365854,-1.64634,-9.8579,-0.273032,1.03944,-16.0366,-2.71341,3.78049
420.095,84.6494,6.15611,0,9.47709,0.807122,-2.20821,0.0914634,-0.426829,-1.37195,-9.82677,-0.285007,1.12087,-16.8598,-2.62195,5.09146
420.105,84.6596,6.1485,0,9.4723,0.790356,-2.25611,0.365854,-0.243902,-1.03659,-9.8579,-0.354463,1.02746,-16.6463,-3.9939,5.09146
420.115,84.6635,6.14992,0,9.49625,0.792751,-2.23455,0.243902,-0.152439,-1.37195,-9.84593,-0.337698,1.06339,-16.7073,-3.78049,5.67073
420.125,84.6728,6.15066,0,9.46512,0.799937,-2.25371,0.213415,-0.152439,-0.945122,-9.85072,-0.328118,1.06099,-16.7988,-4.17683,5.4878
420.135,84.6754,6.14337,0,9.45075,0.819097,-2.24174,0.457317,-0.121951,-1.06707,-9.85311,-0.304167,1.02746,-15.3659,-3.93293,4.54268
420.145,84.6893,6.12316,0,9.44835,0.771196,-2.20102,0,-0.335366,-1.0061,-9.82677,-0.301772,0.969983,-17.7744,-3.68902,5
420.155,84.7039,6.10877,0,9.4723,0.766406,-2.19384,0.0609756,-0.518293,-1.0061,-9.80521,-0.292192,0.989143,-15.4268,-3.56707,6.03659
420.165,84.7179,6.10482,0,9.46033,0.754431,-2.21779,0.182927,-0.609756,-1.12805,-9.83635,-0.258662,1.03225,-16.6463,-4.20732,5.12195
420.175,84.7249,6.10995,0,9.48667,0.802332,-2.23455,0.0914634,-0.243902,-0.945122,-9.80281,-0.296982,1.06578,-15.3354,-5.82317,4.39024
420.185,84.7411,6.1044,0,9.4723,0.761616,-2.22018,0.365854,-0.304878,-0.914634,-9.84114,-0.301772,1.02507,-14.9695,-5,4.72561
420.195,84.7593,6.09702,0,9.48907,0.759221,-2.23455,-0.0609756,-0.335366,-0.823171,-9.82916,-0.304167,1.01549,-14.9085,-4.63415,3.87195
420.205,84.7641,6.08706,0,9.48188,0.773591,-2.23216,-0.121951,-0.0304878,-1.34146,-9.81479,-0.301772,1.00112,-15.9756,-4.96951,4.63415
420.215,84.7695,6.0847,0,9.41961,0.764011,-2.20342,-0.213415,0,-1.37195,-9.81719,-0.325723,1.03225,-16.2195,-5.18293,4.5122
420.225,84.7749,6.09057,0,9.45314,0.795146,-2.19384,0,0.0609756,-1.0061,-9.81958,-0.299377,1.06818,-15.7622,-3.87195,4.78659
420.235,84.7781,6.09051,0,9.44596,0.783171,-2.18186,0.0914634,-0.213415,-1.28049,-9.86269,-0.308958,1.04902,-15.3354,-3.59756,4.63415
420.245,84.7864,6.08245,0,9.48188,0.771196,-2.19623,0.152439,0.0304878,-1.12805,-9.85072,-0.261057,1.01309,-15.2439,-4.17683,4.66463
420.255,84.7927,6.07514,0,9.44356,0.761616,-2.28006,0.182927,-0.121951,-1.31098,-9.86509,-0.296982,1.01788,-15.3659,-3.41463,3.78049
420.265,84.8057,6.07363,0,9.46272,0.747246,-2.23695,-0.182927,0.0609756,-1.09756,-9.86269,-0.311353,1.03944,-15.0915,-4.39024,4.11585
420.275,84.805,6.07007,0,9.44356,0.768801,-2.2106,-0.152439,0,-1.64634,-9.81719,-0.318538,1.02507,-14.4817,-4.84756,4.29878
420.285,84.8103,6.06139,0,9.46033,0.752036,-2.18665,-0.0609756,-0.0304878,-1.46341,-9.79084,-0.308958,1.00112,-15.7317,-4.02439,4.05488
420.295,84.8105,6.05727,0,9.45075,0.778381,-2.21539,0.182927,-0.27439,-1.46341,-9.82916,-0.282612,1.02267,-16.0366,-4.11585,4.66463
420.305,84.8149,6.05851,0,9.45314,0.773591,-2.24174,0.152439,-0.548781,-1.25,-9.85072,-0.330513,1.04662,-15.7927,-4.69512,4.96951
420.315,84.8109,6.06152,0,9.4723,0.792751,-2.2609,-0.213415,-0.426829,-1.58537,-9.84593,-0.285007,1.05381,-15.3963,-4.93902,4.42073
420.325,84.8104,6.06206,0,9.4723,0.773591,-2.24413,0.121951,-0.518293,-1.58537,-9.8579,-0.287402,1.04423,-15.1829,-5.73171,5.2439
420.335,84.8041,6.05587,0,9.46272,0.797541,-2.24413,0.0304878,-0.182927,-1.70732,-9.80281,-0.316143,1.0107,-15.9756,-4.5122,4.57317
420.345,84.8023,6.05404,0,9.46272,0.775986,-2.27287,0.0914634,0.0609756,-1.64634,-9.82437,-0.332908,1.02986,-16.0366,-5.21341,5.15244
420.355,84.8065,6.03848,0,9.49386,0.754431,-2.20581,0.121951,0,-1.52439,-9.82677,-0.311353,0.969983,-15.0915,-5.45732,4.84756
420.365,84.8032,6.03068,0,9.46991,0.790356,-2.22976,-0.0914634,0,-1.58537,-9.82916,-0.323328,1.00112,-15.1524,-5.51829,5.03049
420.375,84.7957,6.03989,0,9.46033,0.816702,-2.24892,0.0609756,-0.121951,-1.55488,-9.82197,-0.294587,1.07297,-15.1524,-5.4878,4.32927
420.385,84.7907,6.04699,0,9.46272,0.816702,-2.22258,-0.0609756,0.0609756,-1.37195,-9.84832,-0.316143,1.06818,-15.8841,-5.57927,5.64024
420.395,84.7861,6.05472,0,9.45793,0.804727,-2.18426,0.0304878,-0.365854,-1.52439,-9.81479,-0.292192,1.06818,-15.2134,-6.06707,4.08537
420.405,84.7827,6.05922,0,9.45075,0.795146,-2.24653,-0.0609756,-0.243902,-1.55488,-9.83874,-0.311353,1.0586,-16.0366,-5.30488,4.84756
420.415,84.7819,6.06352,0,9.44596,0.780776,-2.2609,-0.243902,-0.457317,-1.55488,-9.86269,-0.306563,1.06099,-16.4329,-5.45732,4.45122
420.425,84.7797,6.05482,0,9.46512,0.795146,-2.24653,0,-0.426829,-1.4939,-9.84593,-0.330513,1.00351,-16.7988,-5.30488,5.30488
420.435,84.7812,6.05684,0,9.48667,0.778381,-2.213,-0.0304878,-0.27439,-1.46341,-9.83156,-0.311353,1.04662,-15.7012,-5.82317,4.84756
420.445,84.7826,6.05811,0,9.45554,0.768801,-2.21779,0.0609756,-0.27439,-1.55488,-9.82197,-0.308958,1.04183,-15.9146,-6.89024,3.9939
420.455,84.7821,6.06836,0,9.4747,0.775986,-2.24174,0.152439,-0.27439,-1.61585,-9.85311,-0.325723,1.08494,-15.4878,-6.61585,4.17683
420.465,84.7876,6.06901,0,9.47949,0.771196,-2.22737,-0.0304878,-0.121951,-1.28049,-9.83156,-0.308958,1.04183,-15.2439,-7.22561,5.45732
420.475,84.7822,6.0687,0,9.45793,0.797541,-2.23216,-0.152439,0,-1.67683,-9.83874,-0.337698,1.03944,-15.7927,-6.15854,5.06098
420.485,84.7786,6.06537,0,9.46751,0.771196,-2.21539,-0.548781,-0.0914634,-1.89024,-9.82677,-0.282612,1.02507,-16.2195,-6.0061,5.03049
420.495,84.7831,6.06729,0,9.45554,0.737666,-2.24413,0,-0.579268,-1.70732,-9.83874,-0.304167,1.04902,-16.7683,-5.57927,4.08537
420.505,84.7801,6.06865,0,9.44117,0.783171,-2.25371,0.152439,-0.213415,-1.67683,-9.83395,-0.301772,1.04662,-15.7012,-5.27439,5.42683
420.515,84.7765,6.0741,0,9.46751,0.768801,-2.24892,-0.121951,-0.152439,-1.92073,-9.82437,-0.325723,1.06339,-16.1585,-5.60976,4.29878
420.525,84.7754,6.06847,0,9.48428,0.773591,-2.22497,-0.304878,-0.426829,-1.70732,-9.80042,-0.332908,1.01309,-14.4512,-6.18902,3.9939
420.535,84.7705,6.07141,0,9.46033,0.766406,-2.28724,-0.0914634,0.0914634,-2.04268,-9.82197,-0.313748,1.05141,-16.0671,-6.58537,4.29878
420.545,84.7677,6.07625,0,9.48667,0.764011,-2.23216,0.152439,0.304878,-1.95122,-9.82197,-0.265847,1.06099,-15.4268,-5.51829,5.4878
420.556,84.7644,6.07428,0,9.48907,0.756826,-2.27287,0.121951,0.365854,-2.07317,-9.80521,-0.316143,1.02986,-15.8841,-6.21951,5.70122
420.565,84.7615,6.07745,0,9.49865,0.771196,-2.28964,0.0914634,0.518293,-1.89024,-9.81958,-0.292192,1.05381,-15.7012,-5.73171,5.12195
420.575,84.7545,6.0821,0,9.45554,0.792751,-2.22497,0.243902,0.853659,-1.92073,-9.81479,-0.328118,1.06099,-15.6707,-4.66463,4.72561
420.585,84.7492,6.091,0,9.45793,0.775986,-2.22018,0.0304878,0.823171,-2.0122,-9.80281,-0.342488,1.07776,-14.4512,-6.4939,4.81707
420.595,84.7433,6.09962,0,9.45554,0.790356,-2.18905,-0.0914634,0.518293,-1.89024,-9.79084,-0.342488,1.07776,-15.061,-4.69512,5.12195
420.605,84.7404,6.10788,0,9.44835,0.766406,-2.23695,0.152439,0.0914634,-1.95122,-9.8124,-0.294587,1.08015,-14.8171,-4.14634,4.72561
420.615,84.7373,6.12375,0,9.46272,0.790356,-2.24892,-0.304878,0.213415,-1.70732,-9.81,-0.301772,1.11368,-15.2439,-4.17683,5.51829
420.625,84.734,6.1412,0,9.49625,0.783171,-2.25132,-0.0914634,-0.0609756,-1.82927,-9.78844,-0.308958,1.12087,-14.3902,-6.12805,5.70122
420.635,84.7272,6.14177,0,9.44596,0.807122,-2.21779,-0.213415,-0.243902,-1.76829,-9.81,-0.294587,1.05381,-14.7866,-4.81707,5.4878
420.645,84.7241,6.15515,0,9.45314,0.771196,-2.25611,-0.457317,-0.0304878,-1.95122,-9.76689,-0.311353,1.1041,-15.2744,-4.2378,6.03659
420.655,84.7191,6.17665,0,9.44117,0.811912,-2.20821,-0.213415,-0.0914634,-1.58537,-9.81479,-0.301772,1.14721,-15.122,-5.18293,5.7622
420.665,84.7145,6.17574,0,9.46272,0.811912,-2.19384,-0.0609756,-0.152439,-1.58537,-9.79803,-0.299377,1.05141,-14.6646,-5.85366,4.54268
420.675,84.7125,6.19024,0,9.46033,0.807122,-2.22976,0.0304878,-0.0914634,-1.46341,-9.81,-0.265847,1.11847,-15.6402,-7.46951,4.05488
420.685,84.7138,6.20043,0,9.43877,0.792751,-2.23695,0.152439,-0.0609756,-1.40244,-9.82437,-0.270637,1.1041,-15.5183,-7.07317,4.60366
420.695,84.7095,6.21749,0,9.4747,0.814307,-2.19384,0.182927,-0.213415,-1.55488,-9.78126,-0.294587,1.13045,-14.6646,-7.71341,4.48171
420.705,84.7124,6.21549,0,9.48188,0.795146,-2.1627,0,-0.335366,-1.31098,-9.81,-0.325723,1.05381,-16.2805,-7.2561,5.06098
420.715,84.7175,6.21802,0,9.47709,0.792751,-2.19384,0.304878,-0.426829,-1.18902,-9.82437,-0.376018,1.07536,-15.7012,-6.55488,5.54878
420.725,84.7258,6.22578,0,9.44596,0.792751,-2.17468,-0.0914634,-0.792683,-0.97561,-9.84114,-0.337698,1.09931,-14.4207,-8.10976,5.09146
420.735,84.7282,6.23109,0,9.46272,0.811912,-2.29443,0.121951,-0.579268,-1.06707,-9.86269,-0.359253,1.09213,-14.2073,-8.2622,4.96951
420.745,84.7419,6.24675,0,9.48667,0.766406,-2.3088,0.304878,-0.457317,-0.97561,-9.83395,-0.292192,1.13524,-15.061,-8.35366,5.85366
420.755,84.7589,6.25197,0,9.45793,0.771196,-2.27048,0.213415,0.243902,-0.731707,-9.83635,-0.277822,1.09213,-13.7805,-8.65854,4.39024
420.765,84.7716,6.25897,0,9.50583,0.787961,-2.29443,0.0304878,0.365854,-0.731707,-9.83874,-0.282612,1.10171,-14.4817,-7.9878,3.90244
420.775,84.7843,6.25055,0,9.45075,0.759221,-2.32077,0.335366,0.762195,-1.0061,-9.83156,-0.275427,1.03465,-15.2744,-7.83537,3.90244
420.785,84.8067,6.25354,0,9.44835,0.754431,-2.21539,0.243902,0.823171,-0.609756,-9.81,-0.316143,1.08015,-14.5122,-8.65854,3.87195
420.795,84.8289,6.2484,0,9.4723,0.740061,-2.22976,0.518293,1.37195,-0.731707,-9.80521,-0.313748,1.04423,-13.7805,-9.05488,4.32927
420.805,84.8421,6.24592,0,9.46751,0.756826,-2.31119,0.914634,1.34146,-0.914634,-9.79803,-0.356858,1.05381,-13.1402,-9.5122,4.63415
420.815,84.8515,6.24946,0,9.46751,0.756826,-2.23934,0.823171,1.85976,-1.09756,-9.81719,-0.347278,1.08015,-13.1707,-11.4024,5.4878
420.825,84.8519,6.26413,0,9.43638,0.797541,-2.21779,0.792683,1.92073,-1.09756,-9.83635,-0.325723,1.13045,-13.2317,-12.8963,5.4878
420.835,84.8581,6.27943,0,9.42919,0.780776,-2.25371,1.21951,2.07317,-0.945122,-9.87706,-0.294587,1.13763,-12.0122,-16.2195,5.45732
420.845,84.8551,6.29825,0,9.42919,0.811912,-2.23216,1.15854,2.56098,-1.09756,-9.87946,-0.275427,1.1544,-13.628,-18.1402,5.60976
420.855,84.8541,6.33236,0,9.44596,0.797541,-2.22976,1.46341,2.56098,-1.18902,-9.85311,-0.225132,1.22146,-12.561,-18.7805,6.58537
420.865,84.8524,6.37257,0,9.45793,0.802332,-2.20581,1.34146,2.56098,-1.18902,-9.82677,-0.241897,1.2502,-14.0549,-19.6646,5.42683
420.875,84.8634,6.41579,0,9.47709,0.761616,-2.2106,1.55488,2.68293,-0.945122,-9.81719,-0.251477,1.26697,-15.3354,-22.2866,4.66463
420.885,84.8798,6.44353,0,9.47709,0.735271,-2.20102,1.61585,2.5,-0.945122,-9.82197,-0.282612,1.20709,-15.5488,-22.1951,4.72561
420.895,84.896,6.4803,0,9.49865,0.759221,-2.17947,1.55488,2.68293,-0.670732,-9.8124,-0.285007,1.2502,-14.5122,-22.4695,5.30488
420.905,84.9341,6.51086,0,9.51302,0.716111,-2.20581,1.92073,3.01829,-0.27439,-9.82197,-0.301772,1.22864,-14.3293,-24.6037,5.06098
420.915,84.9649,6.53305,0,9.51781,0.730481,-2.23695,1.82927,3.44512,-0.304878,-9.89622,-0.320933,1.20469,-14.5122,-26.372,5
420.925,84.9958,6.54728,0,9.50823,0.742456,-2.19863,1.58537,3.14024,-0.121951,-9.90101,-0.352068,1.17116,-13.811,-29.6037,4.5122
420.935,85.0143,6.57666,0,9.46751,0.778381,-2.18186,1.85976,2.9878,0.335366,-9.93454,-0.301772,1.24302,-13.9024,-31.7988,6.21951
420.945,85.0404,6.56377,0,9.45075,0.752036,-2.17468,1.92073,2.80488,0.213415,-9.9561,-0.306563,1.06099,-13.689,-33.9634,5.27439
420.955,85.0684,6.55978,0,9.44117,0.740061,-2.12199,1.4939,2.37805,0.304878,-9.96089,-0.285007,1.09931,-14.0854,-33.4146,6.06707
420.965,85.0987,6.56633,0,9.44356,0.732876,-2.08846,1.37195,1.61585,0.152439,-9.97526,-0.301772,1.14482,-13.9024,-36.0061,4.69512
420.975,85.1201,6.55076,0,9.45075,0.752036,-2.04535,1.03659,0.762195,0.396341,-10.0088,-0.292192,1.04902,-14.0244,-38.3232,4.78659
420.985,85.1678,6.52781,0,9.45793,0.682581,-2.0693,0.579268,0.27439,0.0304878,-9.97047,-0.320933,1.0083,-14.4512,-39.7256,4.42073
420.995,85.2007,6.51662,0,9.45554,0.708926,-2.10283,0.335366,-0.701219,-0.0609756,-9.95849,-0.347278,1.05381,-15.4573,-41.3415,4.60366
421.005,85.2382,6.53167,0,9.45793,0.696951,-2.10043,0.0304878,-1.31098,0,-9.87706,-0.330513,1.15679,-15.7317,-43.7805,4.17683
421.015,85.263,6.54092,0,9.46272,0.689766,-2.08606,-0.0304878,-2.28659,-0.426829,-9.9058,-0.270637,1.13524,-15.0305,-45.9756,4.2378
421.025,85.2942,6.55626,0,9.45554,0.651445,-2.05732,-0.335366,-2.71341,-0.548781,-9.90341,-0.287402,1.16158,-14.2683,-48.2012,4.32927
421.035,85.3204,6.58522,0,9.51541,0.63468,-2.1172,-0.365854,-3.32317,-0.823171,-9.89383,-0.289797,1.22146,-15.0915,-50.4268,4.26829
421.045,85.3386,6.60106,0,9.48907,0.641865,-2.22018,-0.396341,-3.14024,-1.03659,-9.92736,-0.311353,1.17116,-15.9451,-51.8902,6.58537
421.055,85.359,6.60525,0,9.53218,0.61552,-2.18905,-0.27439,-3.14024,-1.15854,-9.93694,-0.361648,1.12326,-15.4268,-52.0732,6.7378
421.065,85.3669,6.6034,0,9.4723,0.63468,-2.10043,-0.457317,-3.17073,-1.58537,-9.8603,-0.387993,1.08734,-14.8476,-53.6585,6.70732
421.075,85.3664,6.61668,0,9.46033,0.62989,-2.16749,-0.335366,-3.65854,-2.16463,-9.83874,-0.380808,1.14961,-15.122,-55.3963,7.95732
421.085,85.3556,6.63793,0,9.41722,0.665815,-2.17947,-0.304878,-3.62805,-2.53049,-9.86269,-0.392783,1.18793,-14.1463,-57.6524,8.47561
421.095,85.3389,6.6958,0,9.46512,0.682581,-2.24413,-0.396341,-3.29268,-2.89634,-9.86269,-0.383203,1.35079,-12.8963,-60.7317,10.3659
421.105,85.316,6.73765,0,9.51541,0.716111,-2.26808,-0.182927,-3.07927,-3.14024,-9.97047,-0.385598,1.3005,-12.8659,-64.9085,9.45122
421.115,85.293,6.80949,0,9.53697,0.699346,-2.35191,-0.152439,-2.16463,-3.41463,-9.99442,-0.373623,1.4442,-13.1402,-66.5549,9.42073
421.125,85.2631,6.8814,0,9.55134,0.711321,-2.33993,-0.0914634,-1.28049,-3.9939,-9.99442,-0.376018,1.45378,-12.6829,-70.5488,9.2378
421.135,85.2375,6.94598,0,9.53936,0.708926,-2.32077,-0.0304878,-0.365854,-3.65854,-9.92975,-0.373623,1.42264,-11.7073,-72.5305,9.45122
421.145,85.213,7.02006,0,9.51781,0.677791,-2.31838,-0.0914634,0.884146,-3.96341,-9.84114,-0.330513,1.46336,-10.8537,-72.5305,9.90854
421.155,85.1884,7.10285,0,9.53218,0.670605,-2.37825,0.27439,1.79878,-4.11585,-9.81958,-0.294587,1.51126,-11.7683,-73.0183,11.372
421.165,85.1593,7.20741,0,9.50104,0.689766,-2.20102,0.152439,2.22561,-4.35976,-9.78366,-0.337698,1.61664,-11.1585,-72.8049,11.8293
421.175,85.1316,7.30974,0,9.51062,0.670605,-2.22976,0.396341,2.46951,-4.5122,-9.81479,-0.380808,1.62861,-11.2805,-74.7866,12.2866
421.185,85.0979,7.43227,0,9.55134,0.696951,-2.24653,-0.0304878,2.59146,-4.87805,-9.86748,-0.383203,1.74357,-12.9878,-77.439,10.8841
421.195,85.0647,7.56023,0,9.54176,0.682581,-2.25371,-0.182927,2.9878,-5.06098,-9.87706,-0.409548,1.78908,-12.0427,-80.1219,11.25
421.205,85.0277,7.67096,0,9.57529,0.696951,-2.28245,-0.396341,3.44512,-5.36585,-9.88185,-0.402363,1.73399,-11.4024,-81.5854,13.5671
421.215,84.9859,7.78055,0,9.58966,0.747246,-2.22737,-0.365854,3.68902,-5.33537,-9.87467,-0.359253,1.74597,-9.90854,-83.1402,15.5183
421.225,84.9472,7.89039,0,9.49865,0.723296,-2.18905,-0.548781,3.23171,-5.30488,-9.83395,-0.395178,1.75794,-10.4268,-84.6646,15.1524
421.235,84.9022,7.99753,0,9.44835,0.771196,-2.16031,-0.914634,3.38415,-5.39634,-9.84353,-0.354463,1.76273,-11.4024,-89.5732,16.128
421.245,84.8491,8.06197,0,9.41243,0.831072,-2.15312,-1.09756,3.01829,-5.51829,-9.84114,-0.294587,1.5879,-11.2805,-92.7134,16.6768
421.255,84.7942,8.12281,0,9.38608,0.838257,-2.12199,-1.06707,2.95732,-5.70122,-9.84832,-0.258662,1.58311,-12.3476,-94.2073,16.25
421.265,84.7368,8.23098,0,9.40285,0.855022,-2.14115,-1.15854,2.80488,-5.88415,-9.86988,-0.241897,1.80584,-11.189,-98.1402,15.9146
421.275,84.6779,8.37557,0,9.46991,0.850232,-2.11241,-1.76829,2.19512,-6.28049,-9.89862,-0.239502,1.99026,-12.8049,-103.811,13.5976
421.285,84.6164,8.51514,0,9.4747,0.857417,-2.13875,-2.07317,1.79878,-6.58537,-9.92975,-0.246687,1.99745,-12.8963,-106.311,12.439
421.295,84.5666,8.6438,0,9.49865,0.744851,-2.17707,-2.5,1.82927,-6.92073,-9.90341,-0.258662,1.96631,-13.1402,-107.957,11.311
421.305,84.5142,8.77816,0,9.52978,0.749641,-2.17947,-2.71341,2.13415,-7.2561,-9.83635,-0.253872,1.99984,-14.5732,-109.97,12.622
421.315,84.4609,8.91079,0,9.4747,0.752036,-2.14833,-3.44512,2.04268,-7.37805,-9.71899,-0.241897,1.99026,-16.25,-112.012,14.8171
421.325,84.4048,9.04799,0,9.46033,0.730481,-2.13636,-3.56707,1.61585,-8.01829,-9.68546,-0.285007,2.02619,-18.0488,-113.079,15.1829
421.335,84.3378,9.1787,0,9.40045,0.771196,-2.10522,-4.57317,0.97561,-8.68902,-9.68785,-0.311353,2.0214,-18.0793,-113.75,16.1585
421.345,84.2568,9.31616,0,9.41482,0.878972,-2.08846,-4.5122,1.89024,-8.93293,-9.77168,-0.241897,2.09085,-18.0183,-115.64,16.4024
421.355,84.1794,9.43797,0,9.58247,0.838257,-2.15312,-4.48171,2.28659,-9.42073,-9.79563,-0.237107,2.04774,-17.3171,-118.14,17.1341
421.365,84.0906,9.54361,0,9.53936,0.866997,-2.2106,-4.72561,1.92073,-10.3354,-9.81,-0.191602,1.99984,-18.4451,-117.835,15.2134
421.375,83.9959,9.67133,0,9.52978,0.878972,-2.18186,-4.96951,2.56098,-10.9756,-9.81479,-0.205972,2.11959,-17.1037,-117.713,14.0854
421.385,83.8934,9.81368,0,9.55852,0.917292,-2.29443,-5.27439,3.68902,-11.5244,-9.8076,-0.210762,2.20821,-18.1402,-116.616,11.0366
421.395,83.7924,9.9639,0,9.53936,0.864602,-2.32796,-5.18293,6.15854,-12.1951,-9.74054,-0.182021,2.25611,-18.1402,-114.421,10.3963
421.405,83.6947,10.132,0,9.46751,0.768801,-2.25132,-4.72561,9.11585,-13.1707,-9.72617,-0.100591,2.36149,-18.9634,-113.262,9.11585
421.415,83.5881,10.308,0,9.59205,0.811912,-2.07169,-4.14634,9.29878,-13.872,-9.71899,-0.0598755,2.42376,-20.1524,-115.884,9.11585
421.425,83.4726,10.4841,0,9.60642,0.898132,-2.05493,-3.35366,8.68902,-13.9634,-9.75731,-0.0215552,2.46208,-20.4878,-120.122,10.3049
421.435,83.3502,10.6291,0,9.63037,0.936453,-2.15791,-2.0122,9.29878,-14.4817,-9.81479,-0.0790356,2.36149,-20.3963,-124.726,9.39024
421.445,83.2216,10.7302,0,9.63756,0.981958,-2.1148,-1.7378,9.60366,-14.8171,-9.78126,-0.165256,2.17947,-19.3902,-125.183,8.9939
421.455,83.0816,10.8246,0,9.53697,1.03944,-2.07169,-2.65244,9.17683,-15.4268,-9.7621,-0.251477,2.1627,-17.7744,-125.671,8.17073
421.465,82.9417,10.9491,0,9.50823,1.0083,-2.01182,-2.9878,9.42073,-16.0366,-9.78605,-0.356858,2.31838,-18.1707,-129.451,6.15854
421.475,82.7911,11.1192,0,9.5681,1.0562,-1.98547,-2.7439,10,-16.9207,-9.82197,-0.457449,2.55309,-19.4817,-136.098,1.43293
421.485,82.615,11.3181,0,9.62798,1.22864,-2.05253,-3.53659,9.69512,-17.8354,-9.83635,-0.409548,2.71595,-18.4756,-143.049,0.670732
421.495,82.4341,11.5421,0,9.55134,1.22386,-2.11241,-4.48171,10.3963,-18.628,-9.7597,-0.304167,2.84289,-19.9085,-148.232,1.46341
421.505,82.2547,11.7719,0,9.63995,1.23583,-2.16989,-4.93902,11.6159,-18.8415,-9.69264,-0.165256,2.88839,-20.7622,-151.768,2.37805
421.515,82.082,12.0103,0,9.57529,1.22386,-2.019,-4.96951,12.0122,-18.5671,-9.62079,-0.0958008,2.94348,-22.6829,-157.866,3.04878
421.525,81.9052,12.258,0,9.46991,1.28613,-1.85854,-5.64024,11.8598,-18.4146,-9.55613,-0.00479004,3.00575,-26.2805,-162.439,5.21341
421.535,81.7391,12.4888,0,9.45554,1.22386,-1.8777,-5.94512,12.9573,-18.4146,-9.50823,-0.0694556,2.95545,-26.9512,-165.762,3.2622
421.545,81.5727,12.7226,0,9.55373,1.25739,-1.91602,-5.4878,14.5427,-18.5366,-9.46991,-0.110171,2.99617,-27.439,-168.598,1.7378
421.555,81.4096,12.9704,0,9.59684,1.27415,-1.83219,-5.54878,13.7195,-18.4146,-9.47949,-0.155676,3.10395,-28.5671,-171.677,-0.548781
421.565,81.2437,13.2079,0,9.4747,1.30289,-1.75555,-5.73171,10.7012,-18.4756,-9.46991,-0.220342,3.09437,-26.6159,-176.311,-1.25
421.575,81.0913,13.4369,0,9.67827,1.19511,-1.79626,-5.21341,10.2744,-19.0549,-9.45314,-0.287402,3.08958,-23.9634,-180.335,-2.77439
421.585,80.9171,13.6726,0,9.53697,1.36037,-1.77231,-5.60976,7.7439,-19.3902,-9.46991,-0.383203,3.16622,-19.4512,-181.951,-2.56098
421.595,80.7505,13.9236,0,9.48667,1.24781,-1.73639,-5.39634,9.05488,-20.2439,-9.39327,-0.416733,3.25244,-15.9756,-184.543,-2.95732
421.605,80.5689,14.1824,0,9.48907,1.32205,-1.7771,-5.70122,11.4024,-21.2195,-9.34297,-0.380808,3.31471,-14.2988,-186.982,-2.46951
421.615,80.3956,14.4628,0,9.45793,1.23104,-1.78668,-3.87195,12.9878,-21.7988,-9.22562,-0.306563,3.41769,-11.7988,-189.085,-1.37195
421.625,80.202,14.766,0,9.54176,1.28852,-1.84656,-2.34756,14.9695,-23.6585,-9.20885,-0.210762,3.56618,-10.4268,-191.982,0.914634
421.635,79.9888,15.0833,0,9.58247,1.41067,-1.67891,-3.17073,14.9695,-24.6646,-9.21364,-0.186812,3.68594,-10.2744,-196.829,2.04268
421.645,79.7722,15.4062,0,9.63037,1.40588,-1.55916,-3.5061,14.2073,-25.5793,-9.22801,-0.155676,3.77455,-10.2744,-200.183,0.426829
421.655,79.5361,15.7205,0,9.64953,1.47533,-1.45617,-3.35366,13.5976,-27.2256,-9.25436,-0.138911,3.80329,-10.6707,-202.744,0.396341
421.665,79.2778,16.0454,0,9.4268,1.59748,-1.45857,-3.90244,11.0061,-28.0793,-9.19687,-0.179626,3.88712,-10.5793,-204.451,-0.304878
421.675,79.0382,16.3772,0,9.69983,1.51126,-1.75315,-3.93293,13.6585,-28.2622,-9.18969,-0.179626,3.97573,-10.5488,-208.232,0.640244
421.685,78.7832,16.7068,0,9.80042,1.61185,-1.57832,-3.87195,12.3171,-29.3293,-9.17772,-0.273032,4.01884,-9.29878,-212.5,1.98171
421.695,78.5028,17.0389,0,9.63037,1.8274,-1.43222,-4.20732,10.3354,-29.5732,-9.11065,-0.282612,4.06435,-7.89634,-212.348,2.56098
421.705,78.2117,17.3832,0,9.52978,1.8777,-1.37953,-3.84146,8.5061,-30.4268,-9.13221,-0.296982,4.19368,-7.80488,-215.671,2.95732
421.715,77.9203,17.7513,0,9.40285,1.94715,-1.39151,-3.53659,6.61585,-29.9085,-9.12263,-0.261057,4.36852,-5.12195,-220.244,2.59146
421.725,77.6296,18.1259,0,9.39087,1.96631,-1.43222,-3.14024,5.51829,-30.1829,-9.12023,-0.258662,4.46911,-5.33537,-223.323,3.5061
421.735,77.3516,18.5223,0,9.72617,1.98068,-1.59269,-2.07317,6.06707,-30.122,-9.05796,-0.215552,4.61999,-4.81707,-224.909,1.95122
421.745,77.0696,18.9102,0,9.6184,2.07169,-1.49689,-2.5,3.68902,-29.7866,-9.01485,-0.225132,4.63197,-5.18293,-226.86,1.12805
421.755,76.7947,19.2785,0,9.70941,2.04056,-1.42504,-3.62805,2.10366,-30.2134,-8.90468,-0.208367,4.55533,-2.95732,-225.915,-0.304878
421.765,76.5048,19.6741,0,9.58726,2.09325,-1.56155,-4.2378,1.95122,-31.4024,-8.82804,-0.244292,4.72298,-1.64634,-226.463,-0.152439
421.775,76.2105,20.1069,0,9.6663,2.08606,-1.62622,-5.21341,4.84756,-32.7134,-8.75859,-0.335303,4.95051,-1.09756,-227.988,-1.46341
421.785,75.9044,20.5442,0,9.76449,2.19623,-1.54718,-5.09146,5.45732,-33.5061,-8.64363,-0.373623,4.99362,-0.335366,-229.024,-1.18902
421.795,75.6026,20.9774,0,9.67109,2.19384,-1.49928,-5.15244,3.62805,-33.4756,-8.54782,-0.373623,5.00559,0.579268,-228.476,-0.213415
421.805,75.3018,21.4374,0,9.65672,2.24653,-1.50168,-4.54268,3.65854,-33.3537,-8.45202,-0.258662,5.17085,-0.762195,-229.116,-0.640244
421.815,74.9904,21.9208,0,9.53697,2.3088,-1.46815,-3.87195,2.86585,-33.9939,-8.42089,-0.205972,5.36245,-1.85976,-233.415,0.609756
421.825,74.6582,22.4031,0,9.46033,2.43334,-1.56395,-4.29878,3.65854,-35.0915,-8.41849,-0.134121,5.45346,-3.53659,-235.793,1.85976
421.835,74.3258,22.8808,0,9.70701,2.60818,-1.55676,-4.66463,3.9939,-34.5427,-8.39454,-0.131726,5.51333,-3.29268,-236.341,0.152439
421.845,73.9926,23.3573,0,9.68306,2.68482,-1.48491,-3.96341,2.04268,-34.3598,-8.3179,-0.138911,5.55645,-3.47561,-236.159,-0.609756
421.855,73.6549,23.838,0,9.79323,2.82373,-1.55437,-4.45122,1.28049,-34.2988,-8.25084,-0.189207,5.63548,-2.19512,-234.939,-4.05488
421.865,73.3257,24.3249,0,9.86509,2.80696,-1.4921,-2.59146,-1.76829,-34.5427,-8.15504,-0.241897,5.70494,-0.762195,-234.238,-6.46341
421.875,72.9942,24.8417,0,9.60882,2.8357,-1.44899,-2.0122,-6.06707,-34.2988,-8.02332,-0.270637,5.87738,0.914634,-232.744,-8.35366
421.885,72.6501,25.3793,0,9.60403,2.93629,-1.4921,-1.40244,-5.39634,-35.122,-7.92512,-0.285007,6.02826,1.28049,-233.902,-10.122
421.895,72.3074,25.9459,0,9.59205,3.0273,-1.51365,-1.85976,-4.26829,-34.6341,-7.79818,-0.280217,6.20789,1.28049,-235.457,-9.93902
421.905,71.9722,26.5501,0,9.65193,2.98659,-1.38911,-1.70732,-6.58537,-35.2134,-7.67843,-0.222737,6.44979,-1.70732,-237.195,-8.10976
421.915,71.6248,27.1402,0,9.4268,3.06802,-1.37714,-1.34146,-10.0915,-35.4573,-7.57066,-0.172441,6.41386,-4.08537,-238.201,-6.43293
421.925,71.2543,27.7283,0,9.36932,3.28118,-1.40109,-1.25,-11.7378,-35.9146,-7.51318,-0.141306,6.4905,-4.63415,-236.067,-4.05488
421.935,70.9055,28.3271,0,9.44117,3.25483,-1.50407,-0.396341,-12.9878,-35.0305,-7.42696,-0.112566,6.61265,-6.06707,-236.463,-4.45122
421.945,70.55,28.9261,0,9.45554,3.38656,-1.40109,-1.09756,-13.1098,-35.0305,-7.33115,-0.119751,6.66773,-6.21951,-235.61,-4.26829
421.955,70.1911,29.5103,0,9.36453,3.52307,-1.48252,-1.98171,-12.0427,-34.2378,-7.22817,-0.158071,6.62702,-5.30488,-235.03,-4.45122
421.965,69.8417,30.1113,0,9.32381,3.52547,-1.42264,-1.7378,-12.561,-33.811,-7.02938,-0.174836,6.67971,-4.42073,-231.982,-3.20122
421.975,69.4941,30.7218,0,9.21843,3.54942,-1.346,-1.7378,-13.4756,-33.628,-6.83539,-0.220342,6.68929,-5.33537,-231.768,-3.38415
421.985,69.1622,31.3526,0,9.30226,3.59253,-1.26457,-1.70732,-15.9756,-32.622,-6.65576,-0.320933,6.77791,-5.82317,-228.079,-2.46951
421.995,68.8386,32.0012,0,9.34058,3.61169,-1.38193,-1.70732,-15.9451,-32.4085,-6.48092,-0.390388,6.85934,-7.37805,-223.445,-2.95732
422.005,68.5199,32.6484,0,9.12263,3.54702,-1.57592,-1.98171,-14.8171,-32.3476,-6.35399,-0.428708,6.8761,-8.41463,-219.207,-1.4939
422.015,68.2036,33.3169,0,9.19927,3.62127,-1.56155,-0.853659,-13.3841,-32.2561,-6.21029,-0.399968,7.01262,-6.92073,-213.72,0.579268
422.025,67.882,33.9807,0,9.16334,3.70989,-1.57592,-1.06707,-11.3415,-32.3171,-6.20071,-0.419128,7.13955,-6.58537,-212.957,2.31707
422.035,67.5588,34.6194,0,9.00527,3.75539,-1.47054,-2.53049,-12.3476,-31.9207,-6.1576,-0.414338,7.10123,-6.28049,-209.939,3.20122
422.045,67.2448,35.2438,0,8.85678,3.71228,-1.43941,-1.95122,-14.5732,-31.4329,-6.14083,-0.347278,7.15632,-4.08537,-206.037,3.87195
422.055,66.9205,35.8454,0,8.75859,3.81766,-1.52563,-2.31707,-14.5427,-31.4634,-6.13843,-0.263452,7.16829,-3.47561,-204.024,4.72561
422.065,66.5935,36.4329,0,8.66279,3.87275,-1.46815,-3.47561,-13.872,-31.311,-6.057,-0.210762,7.13955,-2.80488,-200.183,3.9939
422.075,66.2822,37.0526,0,8.74422,3.91825,-1.61185,-4.7561,-14.0244,-30.2744,-5.92049,-0.138911,7.33834,-3.38415,-197.561,5.4878
422.085,65.9902,37.6589,0,8.81367,3.92544,-1.83698,-3.68902,-10.6707,-29.2073,-5.87498,-0.201182,7.3599,-4.84756,-194.482,5.94512
422.095,65.6809,38.2619,0,8.56699,4.0404,-1.79147,-3.01829,-9.48171,-29.0244,-5.75763,-0.205972,7.3575,-7.83537,-188.293,5.36585
422.105,65.3804,38.8825,0,8.7059,4.09069,-1.70286,-2.56098,-8.90244,-28.9329,-5.6738,-0.227527,7.53713,-9.69512,-182.591,4.66463
422.115,65.0879,39.4935,0,8.79451,4.15057,-1.6837,-3.5061,-9.63415,-28.5366,-5.6762,-0.275427,7.64969,-11.2195,-179.817,4.2378
422.125,64.8054,40.089,0,8.93103,4.17691,-1.78189,-4.14634,-6.18902,-28.5061,-5.65225,-0.261057,7.68322,-12.4695,-175.884,2.89634
422.135,64.5279,40.6636,0,8.98611,4.25595,-1.8274,-4.84756,-6.03659,-28.0183,-5.62111,-0.268242,7.66406,-10.7317,-173.293,4.20732
422.145,64.2607,41.2215,0,9.35255,4.40205,-1.93997,-6.21951,-3.20122,-27.8049,-5.63069,-0.296982,7.72394,-7.80488,-170.335,4.54268
422.155,63.9723,41.7804,0,9.29268,4.47869,-1.93997,-7.19512,3.14024,-29.4512,-5.6738,-0.337698,7.95625,-7.5,-167.439,4.87805
422.165,63.688,42.336,0,9.43638,4.48827,-1.81782,-7.19512,4.11585,-30.2134,-5.62111,-0.385598,8.02571,-7.31707,-165.427,4.63415
422.175,63.3574,42.8887,0,9.25675,4.75411,-1.76513,-6.89024,5.85366,-31.9512,-5.63069,-0.428708,8.19097,-4.93902,-160.915,3.17073
422.185,63.0232,43.4511,0,9.17772,4.73256,-1.82261,-5.82317,5.88415,-32.8049,-5.6259,-0.447869,8.43765,-5.15244,-158.689,4.93902
422.195,62.6849,43.9949,0,9.25436,4.78764,-1.99266,-5.67073,8.93293,-33.75,-5.68338,-0.390388,8.55501,-2.86585,-157.591,6.15854
422.205,62.3277,44.5321,0,8.73464,4.73735,-1.62622,-6.43293,4.69512,-34.0854,-5.69057,-0.292192,8.69392,-2.83537,-155.427,9.96951
422.215,61.9714,45.0537,0,8.61968,4.70382,-1.71004,-6.25,3.47561,-34.4207,-5.73368,-0.172441,8.81128,-3.9939,-152.5,14.3293
422.225,61.6292,45.5763,0,8.94779,4.93614,-1.84896,-6.06707,5.06098,-33.1707,-5.65704,-0.00958008,8.88313,-5.91463,-149.787,17.3171
422.235,61.3336,46.0952,0,9.11784,4.8092,-1.81782,-5.67073,4.48171,-31.311,-5.6283,0.0790356,8.98851,-6.4939,-148.323,19.5427
422.245,61.0377,46.6208,0,9.53936,5.17085,-2.49322,-5.57927,12.439,-30.6098,-5.58279,0.0191602,9.16095,-5.67073,-146.555,19.2683
422.255,60.6722,47.1311,0,9.45075,5.54926,-2.61057,-5.15244,3.78049,-34.3293,-5.54447,-0.0479004,9.15137,-5.82317,-145.183,18.3537
422.265,60.2594,47.6387,0,8.67716,5.50615,-1.89925,-1.64634,-5.60976,-35.8537,-5.48938,-0.117356,9.22322,-4.20732,-143.14,17.5
422.275,59.8194,48.1428,0,8.93342,5.70733,-2.03337,-0.518293,-6.82927,-39.1159,-5.51333,-0.179626,9.4244,-3.75,-140.823,17.0122
422.285,59.3914,48.6206,0,8.8951,5.5804,-1.74357,0.762195,-7.37805,-39.7561,-5.55405,-0.193997,9.43159,-4.48171,-141.555,17.9268
422.295,58.9374,49.087,0,8.74182,5.74326,-1.89686,0.335366,-6.15854,-40.8232,-5.59716,-0.150886,9.58008,-7.16463,-140.122,18.8415
422.305,58.4946,49.5339,0,8.96695,5.70494,-2.24892,-0.0304878,-2.92683,-42.3171,-5.63788,-0.0550855,9.64474,-9.93902,-137.652,20.2134
422.315,58.0331,49.9553,0,8.91426,5.8175,-1.98068,-0.762195,-7.40854,-43.7805,-5.65704,0.0143701,9.60403,-12.3171,-136.28,22.1951
422.325,57.567,50.3715,0,8.92384,5.86061,-1.80345,-1.95122,-10.9451,-44.8476,-5.54208,0.117356,9.52499,-13.2012,-133.079,23.4146
422.335,57.0926,50.795,0,8.96456,6.0091,-1.6813,-2.16463,-12.4085,-45.5488,-5.46543,0.0934058,9.62798,-13.3537,-130.884,24.7256
422.345,56.6097,51.2219,0,8.98372,6.03305,-1.86812,-2.46951,-12.1951,-47.2866,-5.36963,0.0646655,9.6639,-12.8354,-127.927,25.4268
422.355,56.1089,51.6546,0,8.81607,6.06179,-1.91362,-2.53049,-10.6707,-48.811,-5.20917,-0.00718506,9.60882,-13.0183,-123.415,24.9085
422.365,55.5799,52.0762,0,8.48555,6.09293,-1.77471,-3.04878,-12.7439,-50.3354,-5.12295,-0.0981958,9.5226,-12.0427,-117.226,24.6341
422.375,55.0524,52.5035,0,8.42328,6.05221,-2.08367,-3.71951,-11.5549,-51.2195,-5.04391,-0.146096,9.60882,-12.2256,-113.933,23.5061
422.385,54.5085,52.9145,0,8.16702,6.09772,-1.94236,-5.51829,-12.0122,-51.8293,-4.91937,-0.124541,9.38848,-12.7439,-108.476,22.9878
422.395,53.9684,53.3136,0,8.05206,6.03066,-1.90165,-6.64634,-12.1646,-52.378,-4.8571,-0.124541,9.32142,-13.3232,-104.146,22.8963
422.405,53.4346,53.7227,0,8.00416,5.99473,-2.00463,-6.31098,-12.3476,-52.8354,-4.72058,-0.112566,9.32621,-14.4817,-98.8415,24.4512
422.415,52.905,54.1398,0,7.75747,5.86301,-1.96871,-5.51829,-15.2744,-52.9878,-4.54575,-0.0646655,9.23999,-14.5732,-91.4634,25.5793
422.425,52.4058,54.5571,0,7.85566,5.79834,-2.06451,-5.03049,-16.9207,-52.2866,-4.39726,-0.0215552,9.12263,-14.8476,-83.0183,26.8902
422.435,51.8983,54.9693,0,7.59461,5.80553,-2.01661,-5.97561,-17.8963,-52.1951,-4.30146,-0.0359253,9.05796,-16.4024,-74.6951,27.1646
422.445,51.3883,55.3707,0,7.5036,5.94683,-1.88728,-7.89634,-18.9329,-51.4329,-4.15775,-0.0455054,8.83044,-18.1402,-64.4817,25.9146
422.455,50.8868,55.773,0,7.44612,5.90133,-1.97829,-10.3963,-16.128,-51.6159,-4.07153,-0.0598755,8.83523,-19.1159,-54.878,25.8232
422.465,50.4035,56.1516,0,7.39103,5.79355,-1.95434,-10.9146,-15.7012,-51.4024,-3.98771,-0.0862207,8.59093,-19.2683,-46.7988,25.4268
422.475,49.9268,56.5207,0,7.25212,5.82708,-1.95913,-9.72561,-15.4878,-50.3049,-3.91346,-0.102986,8.50232,-17.1341,-37.8963,24.4512
422.485,49.4525,56.8831,0,7.06052,5.86301,-1.83698,-10.5183,-17.622,-49.1463,-3.82964,-0.136516,8.4161,-17.4085,-28.2317,24.4512
422.495,48.9787,57.2548,0,6.79946,5.89654,-1.70046,-9.63415,-20.7317,-47.561,-3.74102,-0.201182,8.47358,-17.8049,-18.3232,25.2439
422.505,48.5315,57.6108,0,6.72042,5.82708,-1.69567,-9.39024,-24.2378,-45.8232,-3.69791,-0.186812,8.38257,-16.3415,-9.35976,25.2134
422.515,48.1053,58.782,0,6.66773,5.78637,-1.85854,-9.87805,-25.3049,-44.5427,-3.63803,-0.193997,8.32509,-13.9939,0.518293,26.5244
422.525,47.6932,59.0822,0,6.69168,5.89414,-1.92799,-11.2195,-24.1463,-43.1098,-3.62845,-0.193997,8.30832,-13.9329,9.57317,26.3415
422.535,47.3013,59.3602,0,6.70126,5.93486,-2.00703,-14.0549,-23.0793,-41.5854,-3.64282,-0.182021,8.26042,-11.5244,20.0305,27.0122
422.545,46.9025,59.6158,0,6.59588,6.12646,-1.94715,-15.7622,-21.5854,-40.3049,-3.69073,-0.198787,8.27479,-10.9756,29.7256,25.7012
422.555,46.5243,59.8518,0,6.62941,6.14802,-2.03577,-16.7988,-23.75,-39.1159,-3.70989,-0.107776,8.24366,-10.5183,39.3598,25.0915
422.565,46.1494,60.0546,0,6.52643,6.3013,-1.96152,-17.6524,-24.1159,-37.1951,-3.76497,-0.102986,8.15744,-10.6402,51.2195,24.1159
422.575,45.7901,60.2447,0,6.38991,6.2534,-1.9735,-18.1098,-24.5427,-35.5793,-3.76737,-0.117356,8.13828,-10.6707,61.4939,23.811
422.585,45.4446,60.4264,0,6.21029,6.17676,-1.88967,-17.9878,-29.6951,-33.9634,-3.78892,-0.112566,8.19576,-11.189,71.5854,22.7744
422.595,45.1457,60.5933,0,6.45697,6.17197,-2.19863,-18.0793,-29.9085,-32.2256,-3.81766,-0.146096,8.20773,-6.7378,83.811,21.128
422.605,44.7071,60.7277,0,5.15887,6.58391,-2.16749,-21.4939,-41.5244,-30.3354,-3.89191,-0.193997,8.14546,-6.34146,95.9756,20.7012
422.615,44.4511,60.8314,0,6.52164,6.2989,-2.66087,-20.3049,-26.4634,-28.75,-4.00926,-0.289797,8.1766,-5.94512,107.896,17.3476
422.625,44.2898,60.9128,0,7.55868,6.29411,-2.96024,-20.9451,-17.9878,-28.2317,-4.06435,-0.215552,8.13828,-5.36585,115.976,16.4329
422.635,44.0971,60.9636,0,7.2617,6.43063,-2.82612,-22.9573,-20.4878,-28.2012,-4.16973,-0.253872,8.12151,-3.53659,126.555,14.9085
422.645,43.832,60.9833,0,6.40907,6.63181,-2.51238,-23.5366,-29.5122,-26.8902,-4.26074,-0.186812,8.06164,-3.38415,137.805,14.2683
422.655,43.5647,60.9907,0,5.98036,6.44739,-2.43813,-24.0854,-32.5915,-25.2744,-4.32541,-0.122146,8.09996,-2.95732,146.951,11.9512
422.665,43.3214,60.9745,0,5.81032,6.31088,-2.12438,-24.6037,-36.4634,-22.9268,-4.39965,-0.0622705,8.05206,-3.59756,155.152,11.311
422.675,43.1215,60.9306,0,6.12167,6.3468,-2.27766,-24.6646,-38.689,-21.7073,-4.52659,0.0263452,8.06164,-6.28049,165.518,11.0671
422.685,42.9409,60.8636,0,6.06898,6.30609,-2.45969,-24.9085,-37.9878,-20.0305,-4.56491,0.122146,7.94428,-7.40854,177.652,10.3659
422.695,42.7772,60.7695,0,6.057,6.31088,-2.42376,-25.6402,-41.0061,-18.5061,-4.67508,0.170046,7.91075,-7.71341,187.744,8.65854
422.705,42.6309,60.6377,0,6.18873,6.37315,-2.48124,-24.4512,-42.7744,-17.7439,-4.81638,0.179626,7.83411,-9.17683,197.378,5.73171
422.715,42.4548,60.5028,0,5.98276,6.6342,-2.47645,-24.1768,-44.2988,-16.7683,-4.86668,0.141306,7.86285,-10.6707,204.878,4.57317
422.725,42.2658,60.347,0,5.77439,6.71803,-2.48843,-25.1524,-47.1951,-15.6707,-5.03673,0.0718506,7.94188,-12.622,211.555,1.43293
422.735,42.1014,60.1505,0,6.04024,6.80186,-2.46208,-25.3659,-46.9207,-15.4268,-5.1469,0.0622705,7.76944,-14.9085,220.945,0.335366
422.745,41.9272,59.9252,0,6.03305,6.99585,-2.35909,-26.128,-46.1585,-15.061,-5.27144,0.0287402,7.69759,-17.6524,229.207,-2.40854
422.755,41.8139,59.6802,0,6.67013,7.03178,-2.70877,-26.7073,-38.689,-14.7561,-5.38879,0.0814307,7.67125,-20.9451,237.348,-1.70732
422.765,41.678,59.4015,0,6.21987,6.98148,-2.56507,-26.7378,-41.5549,-13.628,-5.49657,0.105381,7.52755,-22.439,246.921,-1.58537
422.775,41.5534,59.122,0,6.09532,6.91921,-2.52196,-25.9756,-42.7439,-12.1037,-5.60674,0.155676,7.60419,-24.7561,253.11,0.152439
422.785,41.4481,58.8089,0,6.38752,6.95514,-2.65847,-26.7378,-39.2988,-12.8049,-5.73607,0.160466,7.47725,-27.5,260.945,1.03659
422.795,41.3385,58.4658,0,6.45458,6.95993,-2.51956,-27.6524,-38.3841,-14.0244,-5.85822,0.146096,7.3575,-29.9695,268.354,2.80488
422.805,41.2287,58.0927,0,6.64857,7.01501,-2.31119,-28.811,-37.3171,-15.5488,-5.93007,0.160466,7.17069,-24.2988,275.701,3.68902
422.815,41.0855,57.7083,0,6.59109,7.1635,-2.43573,-30.0915,-33.689,-17.439,-6.07856,0.0814307,7.18745,-27.1037,281.585,4.7561
422.825,40.9311,57.2681,0,6.73958,7.28086,-2.50519,-29.878,-28.9329,-19.2378,-6.20071,-0.0383203,6.89047,-26.5244,287.652,4.69512
422.835,40.742,56.8032,0,6.67252,7.43175,-2.51238,-30,-26.128,-21.311,-6.32285,-0.138911,6.77551,-30.061,293.323,2.68293
422.845,40.5423,56.3458,0,6.76593,7.50839,-2.62734,-30.6402,-22.378,-22.9878,-6.39231,-0.0718506,6.78988,-31.6463,297.744,3.41463
422.855,40.3216,55.8655,0,6.75395,7.52515,-2.55309,-31.6463,-18.9024,-25.3049,-6.49769,-0.0766406,6.66055,-34.4817,301.524,2.62195
422.865,40.0653,55.3597,0,6.53601,7.5515,-2.29922,-31.2195,-16.9512,-27.2866,-6.57672,-0.0814307,6.4905,-37.439,308.78,3.71951
422.875,39.7938,54.8291,0,6.48571,7.58982,-2.25611,-31.8902,-15.2439,-28.628,-6.62702,-0.0431104,6.29411,-40.0305,316.159,4.69512
422.885,39.4934,54.3108,0,6.2534,7.5491,-2.42136,-31.189,-14.3293,-30.3354,-6.63181,-0.0574805,6.25819,-42.8049,322.744,7.28659
422.895,39.1581,53.7628,0,6.01868,7.60179,-2.24413,-31.2805,-14.878,-31.9207,-6.67492,-0.124541,6.03066,-45.6098,328.262,8.59756
422.905,38.7849,53.1604,0,5.82948,7.68322,-2.15073,-32.1646,-13.811,-34.0549,-6.74677,-0.148491,5.70254,-46.4939,334.482,9.39024
422.915,38.3663,52.5467,0,5.53489,7.67604,-2.06451,-31.8902,-13.628,-36.6159,-6.77312,-0.160466,5.54926,-46.8902,336.402,8.35366
422.925,37.8893,51.9131,0,5.2403,7.75268,-2.08846,-32.6524,-14.8171,-39.878,-6.81862,-0.246687,5.36724,-44.2683,335.884,7.65244
422.935,37.3834,51.3177,0,5.20917,7.76944,-2.28245,-32.561,-14.1159,-43.3537,-6.84257,-0.273032,5.45106,-38.689,336.341,5.88415
422.945,36.8781,50.7031,0,5.12055,7.56587,-1.98547,-31.8293,-17.1341,-44.8476,-6.87371,-0.328118,5.27144,-36.4939,340.457,4.81707
422.955,36.3595,50.0364,0,5.20438,7.66406,-2.07169,-31.25,-18.3232,-47.4085,-6.94316,-0.299377,4.96967,-31.4939,349.024,4.20732
422.965,35.7979,49.3231,0,5.03912,7.95146,-1.89686,-31.25,-19.0549,-49.1463,-7.03417,-0.263452,4.70621,-25.9451,355.488,6.55488
422.975,35.2411,48.5905,0,5.17564,8.04487,-1.8753,-30.4878,-20.3354,-50.6098,-7.15871,-0.301772,4.57688,-23.1402,357.53,6.98171
422.985,34.6864,47.8645,0,5.08702,7.95386,-2.03816,-30.122,-20.5183,-51.2195,-7.25691,-0.330513,4.53617,-20.061,353.963,8.2622
422.995,34.1377,47.1498,0,5.15408,7.97062,-1.88488,-28.7195,-21.0671,-52.3171,-7.30002,-0.328118,4.48348,-16.7073,351.982,7.95732
423.005,33.5901,46.4726,0,5.06786,7.85087,-1.9232,-28.3537,-16.5549,-53.2317,-7.3551,-0.258662,4.55772,-16.2195,350.518,7.71341
423.015,33.026,45.7601,0,4.77806,7.67125,-1.84417,-27.5915,-13.3537,-54.1463,-7.34313,-0.258662,4.2799,-14.7866,354.817,4.48171
423.025,32.4721,45.0392,0,4.8092,7.87003,-1.91841,-28.3841,-13.5061,-53.2622,-7.39822,-0.282612,4.15775,-15.1829,359.604,1.58537
423.035,31.9219,44.3317,0,4.63676,7.91075,-1.9711,-28.2927,-13.1098,-51.8598,-7.50599,-0.273032,4.15296,-13.5366,360.244,-2.92683
423.045,31.3678,43.6105,0,4.49545,7.98739,-1.75794,-27.7744,-12.9878,-51.3415,-7.63053,-0.203577,4.038,-13.2012,357.043,-3.87195
423.055,30.8101,42.8653,0,4.39726,8.10714,-1.62622,-28.7195,-10.3354,-51.0061,-7.75747,-0.110171,3.87514,-10.7012,353.689,-2.95732
423.065,30.251,42.1357,0,4.24637,8.01134,-1.56155,-27.1646,-8.07927,-51.1585,-7.92991,-0.0311353,3.8967,-8.10976,349.451,-2.10366
423.075,29.6529,41.4439,0,3.83203,8.0329,-1.82261,-25.2134,-7.89634,-51.3415,-8.05685,0.0574805,3.99489,-9.57317,345.03,-0.823171
423.085,29.0323,40.7605,0,3.54223,8.10235,-1.82261,-23.5976,-12.378,-51.0061,-8.15265,0.0431104,3.95418,-12.1341,340.762,-0.853659
423.095,28.3876,40.0757,0,3.35303,8.45681,-1.77231,-25.3963,-15.4268,-50.6707,-8.18857,0.134121,3.84401,-15.7622,339.543,-3.65854
423.105,27.7531,39.3365,0,3.24286,8.43047,-1.67891,-24.4817,-16.4634,-49.7561,-8.21492,0.100591,3.50391,-16.372,341.646,-3.81098
423.115,27.1673,38.5915,0,3.48715,8.56219,-1.62861,-23.3841,-18.4146,-48.3537,-8.25324,0.0670605,3.36979,-14.7561,340.427,-5.09146
423.125,26.6276,37.9008,0,3.58534,8.44963,-1.46336,-22.1951,-20.8232,-46.5549,-8.30114,-0.00718506,3.48954,-15.8537,333.72,-7.7439
423.135,26.1026,37.2244,0,3.59492,8.50232,-1.50886,-21.25,-22.0732,-46.0061,-8.35622,-0.0383203,3.45122,-17.6829,327.774,-10.9146
423.145,25.5733,36.4988,0,3.49912,8.77775,-1.79387,-21.2195,-18.2927,-45.0915,-8.3658,-0.0455054,3.13029,-19.7256,325.884,-11.8598
423.155,25.0773,35.7792,0,3.48236,8.6053,-1.56634,-21.5854,-17.5,-43.3841,-8.44963,-0.0766406,3.06323,-20.3354,323.232,-12.1951
423.165,24.6033,35.0904,0,3.46799,8.57417,-1.47054,-21.8902,-14.5122,-42.1341,-8.59573,-0.0455054,3.11832,-20.3659,314.146,-10.8537
423.175,24.1061,34.4162,0,3.18298,8.80888,-1.25978,-22.0122,-12.9878,-41.0671,-8.73464,-0.0670605,3.10634,-24.8476,305.427,-11.1585
423.185,23.6312,33.7287,0,3.16861,8.78014,-1.41306,-21.9207,-10.5793,-39.7561,-8.8472,-0.100591,2.96743,-29.5427,300.488,-12.378
423.195,23.1841,32.9837,0,3.23807,8.91426,-1.45617,-20.6707,-11.1585,-38.1402,-8.85918,-0.0814307,2.60818,-34.5122,300.549,-13.8415
423.205,22.7732,32.2426,0,3.33626,8.97653,-1.33403,-21.4024,-10.5793,-36.2195,-8.87594,-0.100591,2.5028,-37.4695,298.994,-13.3232
423.215,22.4086,31.5398,0,3.559,8.76098,-1.04423,-21.189,-6.06707,-35.8537,-8.90468,-0.138911,2.54112,-34.1463,289.146,-13.1707
423.225,22.06,30.8568,0,3.48236,8.58854,-0.864602,-19.2988,-0.548781,-34.878,-8.98372,-0.122146,2.52196,-31.3415,280.244,-12.2866
423.235,21.6844,30.1826,0,3.18538,8.73943,-0.799937,-17.7744,0.579268,-34.1768,-9.0388,-0.0862207,2.4525,-28.1402,272.561,-10.8232
423.245,21.2878,29.5026,0,2.89079,8.91905,-1.19751,-17.0732,2.56098,-32.8659,-9.05796,-0.0694556,2.31598,-28.0488,269.299,-7.92683
423.255,20.9117,28.8586,0,2.81175,8.92863,-1.25978,-15.3049,1.61585,-30.6098,-9.0891,-0.0431104,2.36149,-28.3841,267.683,-7.04268
423.265,20.58,28.2011,0,3.12071,9.07233,-0.946033,-14.5732,0.914634,-29.9085,-9.16574,-0.0646655,2.2106,-26.189,263.354,-6.25
423.275,20.2409,27.519,0,3.01533,9.2807,-0.680186,-15.7927,2.2561,-29.3293,-9.24238,-0.0790356,2.00703,-26.4634,257.713,-6.79878
423.285,19.9299,26.8442,0,3.14706,9.28789,-0.682581,-14.4817,7.71341,-28.628,-9.3765,-0.158071,1.94715,-28.2927,253.415,-7.80488
423.295,19.5989,26.1909,0,2.86205,9.2807,-0.890947,-12.5305,10.4268,-28.0793,-9.51302,-0.148491,1.94715,-29.8476,246.555,-6.85976
423.305,19.2366,25.5353,0,2.56986,9.30705,-0.883762,-11.189,8.41463,-28.4756,-9.70941,-0.0958008,1.85375,-30.122,236.799,-5.33537
423.315,18.8774,24.8898,0,2.6441,9.25436,-0.347278,-11.0671,5.18293,-29.939,-9.87467,-0.107776,1.80584,-25.9146,228.506,-2.04268
423.325,18.4662,24.2449,0,2.17707,9.27112,-0.467029,-11.4939,6.98171,-30.3963,-9.91778,-0.129331,1.69567,-24.4207,221.646,0.762195
423.335,18.0566,23.5613,0,1.9711,9.21843,-0.498164,-10.9451,7.65244,-28.75,-9.91299,-0.117356,1.40348,-21.8293,217.378,3.53659
423.345,17.7284,22.9194,0,2.33035,9.14179,-0.646655,-8.47561,5.4878,-25.8232,-9.9058,-0.129331,1.46336,-18.5976,212.561,5.64024
423.355,17.4415,22.3036,0,2.4022,9.2807,-0.833467,-7.9878,0.701219,-22.7134,-9.89143,-0.249082,1.45617,-15.7622,203.079,5.85366
423.365,17.1972,21.6838,0,2.49322,9.35495,-1.01549,-8.14024,-0.762195,-19.7866,-9.86509,-0.265847,1.32205,-14.939,198.354,2.9878
423.375,16.9547,21.0775,0,2.24413,9.51062,-0.893342,-9.78659,-7.07317,-16.7378,-9.82916,-0.287402,1.26697,-13.5366,196.22,1.61585
423.385,16.7681,20.4701,0,2.48124,9.49625,-0.986748,-12.2561,-9.60366,-14.3293,-9.80042,-0.229922,1.152,-13.2012,194.817,-0.27439
423.395,16.6045,19.8545,0,2.61776,9.31184,-0.790356,-11.4634,-11.9817,-14.5122,-9.82677,-0.158071,1.0107,-13.75,191.799,-0.121951
423.405,16.453,19.26,0,2.73272,9.20166,-0.58199,-9.63415,-10.4268,-15.3354,-9.89622,-0.0479004,0.998723,-13.1098,185.884,3.35366
423.415,16.2984,18.6893,0,2.82373,9.12502,-0.56762,-6.03659,-5.36585,-17.2866,-9.9561,0.0167651,0.996328,-17.0122,175.183,4.57317
423.425,16.0984,18.1233,0,2.51717,9.19687,-0.761616,-2.16463,-2.83537,-18.3841,-10.0639,0.0167651,0.922083,-21.128,169.207,6.67683
423.435,15.9156,17.5586,0,2.63692,9.30944,-0.809517,-1.25,-1.76829,-18.0793,-10.1453,0.0550855,0.828677,-26.311,162.927,7.68293
423.445,15.7266,16.9954,0,2.57225,9.48188,-0.677791,-2.19512,-1.31098,-17.7744,-10.0519,0.0574805,0.725691,-29.5122,160.061,8.5061
423.455,15.5515,16.4161,0,2.65129,9.55852,-0.752036,-3.71951,2.92683,-17.4085,-10.0375,0.0574805,0.550855,-29.2683,156.585,9.35976
423.465,15.4059,15.8332,0,2.87881,9.42919,-0.852627,-2.83537,8.32317,-17.7744,-9.99442,0.00718506,0.428708,-31.7683,153.659,9.57317
423.475,15.2576,15.2822,0,2.81175,9.17053,-0.845442,-0.914634,11.0366,-18.4756,-9.98723,-0.0814307,0.464634,-30.6098,150.488,9.2378
423.485,15.0824,14.7573,0,2.56986,9.06994,-0.924478,1.52439,12.8049,-19.0244,-10.0351,-0.126936,0.481399,-29.9085,145.122,9.05488
423.495,14.8851,14.2465,0,2.33275,9.30226,-0.929268,2.95732,14.2683,-18.0793,-10.0375,-0.203577,0.447869,-28.3537,140.793,7.43902
423.505,14.6782,13.7382,0,2.18426,9.5681,-0.857417,1.15854,12.5305,-16.9817,-9.9561,-0.273032,0.364043,-27.2866,138.201,6.43293
423.515,14.4717,13.233,0,2.15073,9.53936,-0.783171,-1.40244,10.4878,-17.0427,-9.89383,-0.306563,0.287402,-26.372,138.11,6.92073
423.525,14.2808,12.7287,0,2.23695,9.74054,-0.488584,-4.17683,8.47561,-16.3415,-9.83874,-0.311353,0.203577,-26.0366,138.811,6.25
423.535,14.1123,12.2523,0,2.28006,9.64953,-0.766406,-4.20732,10.4573,-15.1829,-9.87467,-0.277822,0.237107,-25.9756,136.585,9.42073
423.545,13.9506,11.7839,0,2.24174,9.62558,-0.847837,-3.65854,13.8415,-14.4512,-9.88664,-0.277822,0.186812,-24.7561,133.232,9.60366
423.555,13.8026,11.3397,0,2.2609,9.46272,-0.730481,-2.28659,15.061,-14.0549,-9.96807,-0.263452,0.208367,-24.6341,127.409,9.81707
423.565,13.6614,10.9119,0,2.28006,9.39566,-0.708926,-1.52439,15.7622,-14.0854,-10.0064,-0.196392,0.198787,-25.1524,121.524,12.6829
423.575,13.4881,10.4812,0,1.99266,9.37171,-0.560435,-0.640244,15.3963,-14.2988,-10.0256,-0.138911,0.107776,-25.1829,117.256,13.9329
423.585,13.3369,10.0569,0,2.13636,9.36932,-0.546064,0.762195,16.8598,-14.1159,-10.0782,-0.179626,0.0574805,-25.8537,113.232,14.6341
423.595,13.1268,9.62686,0,1.6358,9.44596,-0.66342,1.70732,14.8476,-14.2683,-10.1142,-0.237107,-0.0455054,-29.0244,109.97,12.622
423.605,12.9176,9.17207,0,1.55916,9.47709,-0.682581,2.2561,13.4451,-13.628,-10.0926,-0.335303,-0.232317,-28.1402,108.933,9.57317
423.615,12.7359,8.71714,0,1.68609,9.42919,-0.946033,2.37805,12.5915,-12.8659,-10.1645,-0.385598,-0.318538,-25.0915,105.274,6.89024
423.625,12.5987,8.27671,0,1.89446,9.45793,-1.06339,3.01829,11.2195,-11.128,-10.1693,-0.440684,-0.337698,-21.2805,101.585,2.19512
423.635,12.4815,7.83714,0,1.89686,9.5202,-1.04662,2.04268,7.28659,-9.2378,-10.2148,-0.507744,-0.416733,-17.0427,98.4451,0.304878
423.645,12.4146,7.40978,0,2.10043,9.42919,-1.08255,0.365854,5.91463,-6.98171,-10.2195,-0.529299,-0.445474,-13.9634,92.7134,-1.67683
423.655,12.3848,6.97987,0,2.17947,9.38608,-0.893342,0.731707,5.36585,-4.42073,-10.1956,-0.60594,-0.534089,-10.7622,90.4878,-3.96341
423.665,12.3568,6.53043,0,2.22258,9.67827,-0.251477,-3.44512,3.65854,-4.02439,-10.083,-0.632285,-0.692161,-6.52439,89.4207,-3.62805
423.675,12.2854,6.10074,0,1.8274,9.41961,-0.328118,-3.32317,3.75,-4.39024,-9.91059,-0.500559,-0.673001,-3.17073,88.0183,-2.31707
423.685,12.1946,5.68953,0,1.62622,9.79563,-1.00591,-1.34146,6.25,-2.86585,-9.8603,-0.368833,-0.66342,-5,87.7134,0.823171
423.695,12.1057,5.31598,0,1.64538,9.89622,-1.26936,-1.4939,7.59146,-3.07927,-9.98244,-0.330513,-0.579595,-6.46341,84.9695,2.92683
423.705,11.9968,4.93304,0,1.57113,9.58726,-0.917292,-1.79878,4.45122,-5.33537,-10.0423,-0.241897,-0.692161,-8.65854,83.1098,2.2561
423.715,11.8825,4.5677,0,1.66214,9.53936,-0.864602,-1.09756,3.23171,-7.34756,-10.1261,-0.153281,-0.689766,-11.5549,80,2.7439
423.725,11.78,4.22547,0,1.85135,9.49865,-0.864602,-0.731707,4.93902,-8.71951,-10.21,-0.107776,-0.65863,-16.4024,77.4695,0.701219
423.735,11.7026,3.91364,0,2.1148,9.48428,-0.878972,0.243902,7.68293,-9.5122,-10.2219,-0.126936,-0.58678,-20.8537,73.5061,-1.82927
423.745,11.6343,3.6115,0,2.22497,9.48428,-0.890947,0.97561,9.78659,-10.0305,-10.1285,-0.0622705,-0.59636,-24.2073,70,-4.35976
423.755,11.5594,3.30619,0,2.16749,9.38848,-0.876577,2.68293,11.4634,-10.4268,-10.0615,-0.0670605,-0.66342,-27.1341,65.8232,-5.97561
423.765,11.4752,3.00701,0,2.0693,9.36692,-0.953218,4.05488,13.811,-10.4268,-10.0375,-0.0694556,-0.692161,-30.3049,61.4634,-5.91463
423.775,11.3962,2.72551,0,2.09325,9.42919,-0.895737,5.42683,16.7378,-10.1829,-10.0447,-0.198787,-0.66821,-32.1341,59.7256,-6.0061
423.785,11.3189,2.42615,0,2.05493,9.62079,-0.730481,3.96341,18.9939,-9.2378,-10.016,-0.313748,-0.797541,-32.2256,56.8598,-6.40244
423.795,11.2456,2.12942,0,2.02619,9.70701,-0.443079,0.365854,19.7561,-8.44512,-9.98963,-0.294587,-0.838257,-29.0549,54.6646,-4.84756
423.805,11.1634,1.8439,0,1.88728,9.7597,-0.241897,-1.92073,20.2439,-7.77439,-9.96568,-0.299377,-0.840652,-26.6463,52.3171,-2.5
423.815,11.0752,1.54609,0,1.71483,9.81479,-0.253872,-1.12805,20.3659,-6.43293,-9.91538,-0.347278,-0.941243,-25.3354,51.25,0.457317
423.825,10.9803,1.22955,0,1.59748,9.81,-0.349673,0.701219,20.2744,-5.94512,-9.91538,-0.356858,-1.07536,-23.5976,52.0427,2.7439
423.835,10.8841,0.943843,0,1.50886,9.88904,-0.548459,3.35366,18.5976,-5.06098,-9.93454,-0.320933,-0.996328,-22.622,52.1951,3.23171
423.845,10.8042,0.657575,0,1.55676,9.92736,-0.742456,4.57317,16.4024,-4.02439,-9.9537,-0.306563,-1.05141,-20.9146,51.5854,3.65854
423.855,10.738,0.379264,0,1.62143,9.87706,-0.838257,4.11585,13.0183,-3.59756,-9.93454,-0.237107,-1.06578,-20.5793,49.939,4.42073
423.865,10.674,0.0910317,0,1.62382,9.75252,-0.811912,3.59756,9.78659,-3.81098,-9.89862,-0.182021,-1.15679,-20.2744,47.2256,6.06707
423.875,10.5991,-0.212134,0,1.55676,9.65432,-0.840652,3.75,7.46951,-4.48171,-9.94652,-0.170046,-1.27894,-20.3049,48.0183,8.20122
423.885,10.4973,-0.507877,0,1.39869,9.59924,-0.787961,4.29878,4.93902,-5.64024,-9.96328,-0.177231,-1.3005,-17.9573,49.2378,10.0915
423.895,10.3766,-0.772974,0,1.27894,9.63037,-0.814307,5.06098,2.53049,-6.31098,-10.1261,-0.304167,-1.23823,-19.1768,46.6159,11.0061
423.905,10.2279,-1.03631,0,1.1065,9.77647,-0.787961,4.96951,-0.97561,-7.16463,-10.1693,-0.364043,-1.28373,-17.9573,46.0671,8.87195
423.915,10.0873,-1.27792,0,1.15679,9.89622,-0.871787,3.96341,-4.32927,-7.07317,-10.2052,-0.397573,-1.24062,-16.6463,41.7073,6.15854
423.925,9.95863,-1.5258,0,1.22386,9.95849,-0.790356,0.304878,-7.07317,-6.82927,-10.2124,-0.395178,-1.31726,-13.9024,37.9268,4.60366
423.935,9.83765,-1.76886,0,1.20948,9.83395,-0.673001,-1.46341,-9.96951,-6.31098,-10.1597,-0.352068,-1.33642,-12.5915,34.2988,3.23171
423.945,9.74588,-1.98739,0,1.36277,9.71899,-0.675395,-3.07927,-11.4939,-5.54878,-10.1381,-0.320933,-1.26936,-10.8232,30.4573,2.5
423.955,9.68258,-2.19053,0,1.47773,9.65672,-0.790356,-4.02439,-10.6402,-4.26829,-10.0711,-0.330513,-1.23104,-10.8841,29.9085,-0.152439
423.965,9.64943,-2.40863,0,1.6358,9.54655,-0.766406,-4.66463,-9.57317,-3.47561,-10.0064,-0.275427,-1.32445,-12.9878,31.9817,-0.213415
423.975,9.6392,-2.62494,0,1.79147,9.51302,-0.689766,-5.03049,-7.7439,-3.29268,-9.9537,-0.198787,-1.346,-14.1159,34.2988,-1.12805
423.985,9.6438,-2.81218,0,1.91123,9.51302,-0.64905,-3.78049,-6.25,-3.32317,-9.96328,-0.122146,-1.25739,-14.9695,32.4085,0.518293
423.995,9.64102,-2.97421,0,1.96871,9.54655,-0.58199,-2.95732,-4.32927,-4.48171,-9.92975,-0.0981958,-1.17835,-15,27.561,2.56098
424.005,9.63063,-3.14422,0,1.99026,9.58487,-0.543669,-2.34756,-1.79878,-5.36585,-9.90341,-0.160466,-1.24302,-16.128,22.9268,2.80488
424.015,9.61379,-3.28958,0,1.99745,9.63995,-0.574805,-1.98171,0.457317,-5.97561,-9.89862,-0.193997,-1.16637,-16.372,19.1159,3.20122
424.025,9.58623,-3.43313,0,1.93997,9.70222,-0.548459,-1.82927,2.43902,-6.28049,-9.86269,-0.208367,-1.18314,-15.4573,14.939,2.7439
424.035,9.54836,-3.58137,0,1.89207,9.68785,-0.543669,-1.21951,3.71951,-6.85976,-9.90101,-0.210762,-1.23583,-15.4573,12.5,2.43902
424.045,9.5086,-3.74332,0,1.81782,9.63995,-0.59636,-0.701219,4.11585,-6.37195,-9.9561,-0.253872,-1.33163,-14.3902,10.6402,2.46951
424.055,9.46841,-3.9222,0,1.76992,9.59445,-0.589175,-0.0914634,4.14634,-6.03659,-9.9561,-0.213157,-1.43701,-13.7195,9.48171,2.59146
424.065,9.42497,-4.08427,0,1.71723,9.53936,-0.627495,0.121951,3.87195,-5.94512,-9.9561,-0.182021,-1.3939,-13.3537,8.93293,4.48171
424.075,9.38034,-4.24236,0,1.67891,9.59684,-0.66821,0.426829,3.17073,-5.57927,-9.99442,-0.143701,-1.41067,-14.5427,8.2622,6.34146
424.085,9.33234,-4.38257,0,1.61664,9.64235,-0.65384,0.335366,2.53049,-5.18293,-9.9537,-0.160466,-1.35319,-14.6951,6.34146,7.46951
424.095,9.28317,-4.5366,0,1.57353,9.70941,-0.723296,-0.0914634,1.12805,-4.7561,-9.89622,-0.131726,-1.41785,-14.4512,4.14634,9.20732
424.105,9.23802,-4.68144,0,1.56395,9.72617,-0.689766,-0.731707,0.0304878,-4.29878,-9.86509,-0.114961,-1.36995,-16.4329,3.04878,12.2561
424.115,9.20284,-4.93536,0,1.61903,9.71899,-0.706531,-1.0061,-0.853659,-4.05488,-9.84593,-0.172441,-1.32205,-15.0305,0.396341,13.9939
424.125,9.18344,-5.14887,0,1.67651,9.73336,-0.716111,-1.4939,-0.853659,-3.23171,-9.81479,-0.258662,-1.37474,-15.122,-0.823171,14.3902
424.135,9.18341,-5.27202,0,1.76513,9.67348,-0.59636,-1.7378,-1.58537,-2.68293,-9.80281,-0.225132,-1.37474,-14.2073,-2.86585,15.2134
424.145,9.19615,-5.38189,0,1.80345,9.6184,-0.64905,-1.52439,-1.52439,-2.2561,-9.83395,-0.234712,-1.35558,-13.5671,-3.04878,16.0061
424.155,9.22972,-5.49471,0,1.8753,9.56571,-0.538879,-0.914634,-0.945122,-1.79878,-9.86988,-0.263452,-1.41306,-14.6341,-3.81098,16.2195
424.166,9.27192,-5.59946,0,1.88249,9.56571,-0.651445,-0.0609756,-0.243902,-1.46341,-9.96568,-0.311353,-1.42264,-15,-4.63415,16.5854
424.175,9.32173,-5.72829,0,1.84177,9.59924,-0.696951,0.518293,0.823171,-0.884146,-9.95131,-0.352068,-1.54239,-15.3659,-4.32927,13.4451
424.185,9.35934,-5.83105,0,1.78668,9.61121,-0.747246,0.701219,1.46341,-0.823171,-9.95849,-0.308958,-1.45378,-13.9939,-4.57317,13.4451
424.195,9.37044,-5.92408,0,1.72441,9.65911,-0.704136,0.548781,2.34756,-1.28049,-9.95849,-0.229922,-1.43701,-12.1646,-6.95122,13.2622
424.205,9.34893,-6.01902,0,1.57113,9.66869,-0.716111,1.0061,2.34756,-1.82927,-9.94412,-0.256267,-1.46096,-11.6768,-7.68293,12.1951
424.215,9.31314,-6.11793,0,1.4897,9.72138,-0.752036,0.853659,2.16463,-2.04268,-9.94891,-0.261057,-1.49928,-10.9756,-10.7622,12.6524
424.225,9.2703,-6.21542,0,1.4418,9.78366,-0.773591,0.609756,2.0122,-2.04268,-9.94412,-0.256267,-1.51126,-10.9146,-12.439,12.2866
424.235,9.21609,-6.31905,0,1.37953,9.75731,-0.747246,0.0914634,1.28049,-2.7439,-9.94891,-0.289797,-1.55437,-11.1585,-9.63415,10.5793
424.245,9.17281,-6.42375,0,1.43701,9.74533,-0.816702,-0.0914634,0.823171,-2.46951,-9.95849,-0.251477,-1.57832,-10.6707,-8.81098,9.96951
424.255,9.13364,-6.50142,0,1.48731,9.7118,-0.809517,-0.731707,0.335366,-2.95732,-9.92017,-0.208367,-1.47054,-11.7988,-9.48171,10.3659
424.265,9.10682,-6.57349,0,1.57832,9.65432,-0.785566,-0.762195,-0.518293,-3.07927,-9.94173,-0.225132,-1.46336,-11.4634,-10.5488,10.3049
424.275,9.08207,-6.64351,0,1.61424,9.63277,-0.775986,-0.97561,-1.12805,-3.41463,-9.90341,-0.215552,-1.46336,-12.9573,-12.8963,8.78049
424.285,9.05797,-6.71348,0,1.62622,9.6663,-0.790356,-0.853659,-1.46341,-3.47561,-9.9058,-0.251477,-1.47533,-13.3232,-12.2561,8.2622
424.295,9.03887,-6.77429,0,1.64538,9.64235,-0.740061,-0.945122,-1.89024,-3.32317,-9.93694,-0.268242,-1.45138,-12.6524,-12.2561,6.64634
424.305,9.02391,-6.8376,0,1.6837,9.65672,-0.744851,-1.18902,-2.40854,-3.38415,-9.94652,-0.217947,-1.47533,-12.3476,-12.9268,5.54878
424.315,9.01777,-6.89784,0,1.73399,9.66151,-0.766406,-1.12805,-1.76829,-3.17073,-9.96328,-0.191602,-1.47533,-12.439,-12.9878,4.2378
424.325,9.0198,-6.95296,0,1.7771,9.64474,-0.720901,-1.15854,-1.03659,-2.9878,-9.94412,-0.148491,-1.46096,-13.628,-13.7805,3.07927
424.335,9.02212,-6.97075,0,1.79626,9.63516,-0.742456,-0.792683,-0.609756,-3.17073,-9.91299,-0.122146,-1.3005,-14.5427,-14.4817,4.72561
424.345,9.02722,-7.00643,0,1.80345,9.63516,-0.737666,-0.97561,0,-3.01829,-9.89383,-0.153281,-1.38193,-15.1829,-16.0976,3.56707
424.355,9.03031,-7.03502,0,1.80584,9.60163,-0.706531,-0.548781,0.27439,-3.2622,-9.91778,-0.170046,-1.36037,-15.6707,-16.5549,2.83537
424.365,9.03529,-7.07304,0,1.79626,9.59924,-0.706531,-0.518293,0.0609756,-3.01829,-9.94652,-0.146096,-1.41067,-16.8902,-15.5488,0.945122
424.375,9.03643,-7.1227,0,1.76513,9.63516,-0.740061,-0.152439,0.152439,-2.92683,-9.92257,-0.100591,-1.46575,-18.8415,-15.3049,0.548781
424.385,9.04245,-7.15526,0,1.80345,9.63277,-0.780776,-0.182927,0.365854,-2.92683,-9.92257,-0.0814307,-1.39869,-18.8415,-15.8841,1.28049
424.395,9.04434,-7.17983,0,1.76034,9.65193,-0.740061,0.0914634,0.884146,-2.77439,-9.88904,-0.0814307,-1.36516,-19.6951,-17.0427,1.31098
424.405,9.04676,-7.21493,0,1.76992,9.66151,-0.742456,-0.0914634,0.579268,-2.80488,-9.89862,-0.126936,-1.42025,-20.8537,-19.939,2.19512
424.415,9.04193,-7.25211,0,1.7292,9.7118,-0.680186,-0.121951,0.518293,-2.86585,-9.9082,-0.225132,-1.43701,-19.1463,-19.9085,3.01829
424.425,9.03264,-7.29138,0,1.67651,9.66869,-0.677791,0.243902,1.06707,-2.77439,-9.91059,-0.285007,-1.45378,-18.3841,-20.4573,2.46951
424.435,9.02135,-7.33452,0,1.64538,9.65193,-0.723296,0.0609756,1.21951,-2.65244,-9.91299,-0.287402,-1.47773,-17.9573,-19.7866,2.13415
424.445,9.00947,-7.36575,0,1.61903,9.67348,-0.687371,0.396341,1.12805,-2.37805,-9.86269,-0.282612,-1.42504,-17.0122,-19.878,1.06707
424.455,8.99523,-7.37973,0,1.61185,9.68546,-0.673001,0.304878,1.40244,-2.5,-9.82197,-0.258662,-1.3484,-15.3963,-19.8171,1.67683
424.465,8.97831,-7.39057,0,1.59508,9.71899,-0.725691,0.396341,1.52439,-2.5,-9.80281,-0.277822,-1.33403,-14.1463,-19.4207,1.06707
424.475,8.96935,-7.43069,0,1.61664,9.68546,-0.740061,0.27439,1.89024,-2.16463,-9.84353,-0.287402,-1.47054,-13.9024,-18.7805,1.12805
424.485,8.95804,-7.46315,0,1.62622,9.63756,-0.754431,-0.0304878,1.09756,-2.59146,-9.87227,-0.287402,-1.44659,-14.1768,-17.378,0.0609756
424.495,8.94838,-7.48809,0,1.63101,9.59205,-0.737666,0.0914634,0.609756,-2.62195,-9.87227,-0.261057,-1.41785,-15,-16.1585,-0.609756
424.505,8.93402,-7.51701,0,1.63101,9.62079,-0.749641,-0.335366,0.121951,-2.9878,-9.86988,-0.270637,-1.43941,-13.5366,-15.9756,-0.426829
424.515,8.92212,-7.5417,0,1.62622,9.6663,-0.735271,-0.853659,-0.304878,-2.65244,-9.83874,-0.256267,-1.42025,-13.1707,-14.8171,-1.06707
424.525,8.90322,-7.55831,0,1.60227,9.67109,-0.775986,-1.12805,-1.12805,-3.01829,-9.80281,-0.280217,-1.38432,-13.1707,-15.5488,0.457317
424.535,8.88366,-7.59177,0,1.5879,9.69743,-0.740061,-1.34146,-1.7378,-2.89634,-9.85311,-0.268242,-1.46815,-12.3476,-14.4817,1.03659
424.545,8.86609,-7.61005,0,1.62622,9.69504,-0.814307,-1.61585,-2.16463,-3.20122,-9.84832,-0.289797,-1.40588,-12.2866,-14.2988,-0.609756
424.555,8.85527,-7.63196,0,1.68609,9.64953,-0.799937,-2.04268,-2.13415,-3.38415,-9.87706,-0.313748,-1.42983,-11.25,-14.9085,-1.06707
424.565,8.84746,-7.65166,0,1.70765,9.59924,-0.783171,-1.82927,-1.67683,-3.47561,-9.86988,-0.301772,-1.42264,-11.9817,-14.6646,-1.09756
424.575,8.84833,-7.67915,0,1.75794,9.56331,-0.771196,-1.43293,-1.15854,-3.35366,-9.8603,-0.280217,-1.45857,-11.6159,-13.872,-2.2561
424.585,8.85361,-7.70166,0,1.7771,9.58726,-0.795146,-1.12805,-0.853659,-3.14024,-9.87946,-0.229922,-1.4442,-12.622,-13.9329,-0.579268
424.595,8.85723,-7.72122,0,1.80345,9.67109,-0.785566,-1.06707,-0.762195,-3.35366,-9.89622,-0.256267,-1.43701,-12.9878,-13.4451,1.34146
424.605,8.86016,-7.73666,0,1.80345,9.65193,-0.759221,-0.731707,0,-3.44512,-9.93933,-0.258662,-1.42743,-13.2012,-12.439,1.0061
424.615,8.85906,-7.75681,0,1.81063,9.66151,-0.771196,-0.548781,0.182927,-3.84146,-9.89862,-0.277822,-1.4442,-13.9939,-11.1585,1.4939
424.625,8.84906,-7.76592,0,1.76992,9.68067,-0.725691,-0.609756,0.792683,-4.17683,-9.89622,-0.268242,-1.39869,-14.6037,-11.7073,1.58537
424.635,8.82912,-7.76291,0,1.69088,9.64474,-0.704136,-0.670732,0.762195,-4.32927,-9.88904,-0.285007,-1.346,-14.6037,-12.3171,1.61585
424.645,8.80317,-7.7593,0,1.63101,9.67348,-0.689766,-0.304878,0.670732,-4.20732,-9.87227,-0.261057,-1.34121,-13.0793,-13.0793,2.31707
424.655,8.76969,-7.74416,0,1.57353,9.65911,-0.66342,-0.0304878,0.457317,-4.35976,-9.86509,-0.270637,-1.28852,-14.1463,-13.0793,2.77439
424.665,8.72922,-7.73132,0,1.4921,9.68067,-0.752036,0,-0.243902,-4.11585,-9.87706,-0.268242,-1.2981,-14.5732,-13.5671,2.83537
424.675,8.69371,-7.71636,0,1.53042,9.65672,-0.761616,0.487805,-1.12805,-4.20732,-9.91059,-0.289797,-1.29092,-15.8232,-13.689,2.62195
424.685,8.66404,-7.69978,0,1.55437,9.68306,-0.752036,0.731707,-1.61585,-3.93293,-9.91299,-0.270637,-1.28134,-15.061,-13.628,2.77439
424.695,8.63824,-7.68122,0,1.57113,9.65193,-0.759221,0.152439,-1.7378,-3.87195,-9.9082,-0.234712,-1.26936,-15,-14.0244,2.7439
424.705,8.61861,-7.65287,0,1.59987,9.67109,-0.728086,-0.548781,-2.07317,-3.62805,-9.86988,-0.246687,-1.21906,-14.5122,-15.3354,3.65854
424.715,8.60319,-7.63288,0,1.60945,9.67109,-0.682581,-1.03659,-1.58537,-3.38415,-9.84353,-0.277822,-1.24781,-14.5732,-15.4573,3.44512
424.725,8.59481,-7.61988,0,1.64059,9.6663,-0.677791,-1.0061,-1.82927,-3.14024,-9.84593,-0.280217,-1.27655,-16.0366,-16.7073,3.56707
424.735,8.57996,-7.6154,0,1.61664,9.70941,-0.65384,-0.97561,-1.46341,-3.38415,-9.81958,-0.287402,-1.30768,-14.939,-15.9146,3.84146
424.745,8.57177,-7.60627,0,1.66214,9.70462,-0.63947,-1.09756,-1.7378,-3.32317,-9.8555,-0.280217,-1.29092,-14.6341,-15.6402,4.17683
424.755,8.55571,-7.60755,0,1.60466,9.70462,-0.622705,-1.46341,-1.46341,-3.41463,-9.88185,-0.268242,-1.33882,-13.4756,-15.5488,3.2622
424.765,8.54146,-7.59805,0,1.61903,9.62558,-0.62989,-1.15854,-0.853659,-3.59756,-9.84593,-0.222737,-1.28613,-12.7439,-15.061,5.39634
424.775,8.52964,-7.585,0,1.65017,9.63995,-0.675395,-1.46341,-0.457317,-3.71951,-9.84114,-0.222737,-1.26936,-14.7256,-16.4329,6.43293
424.785,8.50815,-7.56985,0,1.59987,9.63756,-0.677791,-1.4939,0.152439,-4.08537,-9.86269,-0.227527,-1.25978,-13.811,-15.4573,5.85366
424.795,8.4834,-7.55058,0,1.57592,9.7118,-0.716111,-1.28049,0.426829,-4.02439,-9.86748,-0.261057,-1.24062,-14.1768,-16.7683,6.12805
424.805,8.45611,-7.5425,0,1.56634,9.69743,-0.711321,-1.4939,-0.182927,-4.2378,-9.86988,-0.273032,-1.28613,-14.5122,-15.7012,6.21951
424.815,8.43377,-7.53782,0,1.59987,9.69264,-0.682581,-1.70732,-0.304878,-4.20732,-9.91059,-0.299377,-1.30529,-14.6646,-15.8841,6.89024
424.825,8.41724,-7.54456,0,1.63101,9.67348,-0.677791,-1.43293,-0.0609756,-4.08537,-9.91778,-0.292192,-1.35558,-13.9024,-15.1829,5.64024
424.835,8.40182,-7.5445,0,1.62143,9.65911,-0.718506,-1.61585,0.213415,-3.93293,-9.92017,-0.270637,-1.32684,-13.0488,-15.1829,6.18902
424.845,8.38937,-7.5374,0,1.62861,9.63756,-0.677791,-1.4939,0.640244,-3.81098,-9.91059,-0.287402,-1.29571,-11.7378,-16.8293,6.46341
424.855,8.37863,-7.52645,0,1.64538,9.6639,-0.64905,-1.55488,0.884146,-3.81098,-9.92496,-0.282612,-1.27894,-12.1037,-16.5244,7.0122
424.865,8.36587,-7.51022,0,1.64298,9.64714,-0.723296,-1.43293,0.792683,-4.02439,-9.90101,-0.296982,-1.2502,-12.622,-16.189,6.18902
424.875,8.35382,-7.49535,0,1.6358,9.67827,-0.742456,-1.12805,1.09756,-3.84146,-9.88664,-0.277822,-1.2526,-11.5244,-17.378,7.13415
424.885,8.334,-7.46789,0,1.57353,9.69025,-0.699346,-1.55488,0.457317,-3.87195,-9.88904,-0.294587,-1.19511,-12.0122,-17.9878,7.83537
424.895,8.31252,-7.43185,0,1.54479,9.68546,-0.699346,-1.4939,0.0914634,-3.75,-9.87946,-0.285007,-1.152,-10.9451,-18.811,6.92073
424.905,8.29064,-7.39972,0,1.53521,9.68546,-0.716111,-1.64634,-0.304878,-3.71951,-9.90101,-0.253872,-1.16637,-12.0732,-19.8476,8.35366
424.915,8.26734,-7.38039,0,1.51605,9.6639,-0.673001,-1.79878,-0.792683,-3.71951,-9.89622,-0.222737,-1.21667,-9.90854,-19.6646,8.01829
424.925,8.24174,-7.36259,0,1.50647,9.6663,-0.689766,-1.55488,-0.609756,-3.87195,-9.92017,-0.227527,-1.22386,-10.7317,-20.6402,7.83537
424.935,8.21333,-7.34666,0,1.4921,9.66869,-0.613125,-1.43293,-0.701219,-4.02439,-9.91538,-0.222737,-1.22864,-12.378,-20.8841,6.64634
424.945,8.1883,-7.33313,0,1.48731,9.65672,-0.641865,-1.34146,-0.457317,-3.71951,-9.92496,-0.270637,-1.23823,-10.1524,-21.4939,6.64634
424.955,8.16324,-7.33198,0,1.49928,9.69504,-0.651445,-1.40244,-0.213415,-3.84146,-9.92496,-0.261057,-1.29092,-9.78659,-21.5244,6.37195
424.965,8.13546,-7.31878,0,1.50168,9.68306,-0.65863,-1.85976,-0.182927,-4.20732,-9.94652,-0.222737,-1.24062,-7.43902,-22.4695,6.58537
424.975,8.10567,-7.2965,0,1.50407,9.65432,-0.613125,-2.13415,-0.304878,-4.54268,-10.0064,-0.237107,-1.20709,-8.29268,-24.7256,7.80488
424.985,8.07252,-7.27678,0,1.4921,9.65911,-0.603545,-2.0122,-0.0914634,-4.78659,-9.98963,-0.186812,-1.21427,-7.40854,-26.6768,7.53049
424.995,8.03939,-7.25679,0,1.47054,9.67348,-0.63947,-2.04268,-0.243902,-4.57317,-10.0878,-0.282612,-1.22386,-8.14024,-29.3598,6.67683
425.005,7.99533,-7.21095,0,1.40109,9.64235,-0.632285,-2.31707,-0.0914634,-4.96951,-10.1381,-0.292192,-1.11129,-7.68293,-31.5549,4.78659
425.015,7.95204,-7.18591,0,1.40109,9.64953,-0.6251,-3.04878,-0.670732,-4.96951,-10.2315,-0.232317,-1.21188,-7.07317,-35.6402,2.59146
425.025,7.90278,-7.14746,0,1.35319,9.61361,-0.66821,-3.59756,-1.0061,-5.15244,-10.2076,-0.172441,-1.14721,-8.20122,-39.9085,2.77439
425.035,7.85951,-7.09676,0,1.3939,9.5681,-0.759221,-4.35976,-1.43293,-5.21341,-10.1956,-0.174836,-1.08494,-9.60366,-41.7988,2.89634
425.045,7.82118,-7.04628,0,1.46815,9.64474,-0.778381,-5.27439,-1.12805,-5.54878,-10.1525,-0.201182,-1.07297,-14.5732,-42.622,0.853659
425.055,7.78211,-7.00297,0,1.48731,9.6184,-0.835862,-5.82317,-1.03659,-5.97561,-10.1237,-0.263452,-1.09213,-20.6402,-41.311,-0.457317
425.065,7.73313,-6.95606,0,1.45617,9.59205,-0.893342,-6.12805,-0.670732,-6.7378,-10.0735,-0.311353,-1.06339,-26.2805,-41.9512,-2.40854
425.075,7.67151,-6.91627,0,1.37714,9.67348,-0.831072,-6.61585,-0.884146,-7.04268,-10.0088,-0.328118,-1.08015,-31.5549,-42.1037,-3.65854
425.085,7.60538,-6.87787,0,1.36995,9.73575,-0.910107,-6.95122,-1.15854,-7.43902,-9.95849,-0.390388,-1.07536,-33.8415,-43.7805,-4.42073
425.095,7.52724,-6.84997,0,1.32445,9.71659,-0.890947,-6.85976,-1.18902,-8.29268,-9.97526,-0.486189,-1.11847,-34.9085,-45.3049,-4.63415
425.105,7.44263,-6.8357,0,1.27415,9.6663,-0.972378,-7.5,-1.4939,-8.59756,-10.0136,-0.646655,-1.17835,-35.1829,-44.8171,-4.54268
425.115,7.3534,-6.81483,0,1.25978,9.75491,-1.04183,-8.2622,-1.61585,-8.93293,-10.0782,-0.902922,-1.1544,-38.0488,-45.5793,-7.22561
425.125,7.27666,-6.81559,0,1.28134,9.80521,-1.1065,-8.87195,-1.43293,-8.01829,-10.1309,-1.06099,-1.25499,-35.6707,-45.9756,-10.9146
425.135,7.20977,-6.82958,0,1.29571,9.83874,-1.25739,-9.42073,-1.98171,-7.28659,-10.0375,-1.1041,-1.30289,-33.1707,-45.8537,-12.9878
425.145,7.15754,-6.84548,0,1.32445,9.81,-1.31487,-10.6707,-1.89024,-6.31098,-9.9058,-1.09692,-1.2981,-32.561,-47.4085,-10.5488
425.155,7.11322,-6.84439,0,1.37714,9.68785,-1.27894,-11.4939,-1.89024,-6.43293,-9.78605,-1.1041,-1.21188,-32.0732,-48.7805,-7.80488
425.165,7.06391,-6.82745,0,1.35798,9.69025,-1.18074,-11.7988,-2.2561,-6.79878,-9.70941,-1.1999,-1.13524,-30.0915,-50.9756,-3.65854
425.175,7.01204,-6.82651,0,1.32684,9.63037,-1.22864,-11.0366,-1.40244,-6.89024,-9.60403,-1.26218,-1.19032,-29.8171,-52.8354,-1.25
425.185,6.96234,-6.82822,0,1.34121,9.6639,-1.21667,-9.81707,-0.548781,-6.89024,-9.51541,-1.26218,-1.19032,-29.878,-52.6524,1.52439
425.195,6.90663,-6.83661,0,1.31487,9.68546,-1.26218,-8.87195,0.335366,-7.2561,-9.44356,-1.31726,-1.20948,-29.6646,-52.2256,3.17073
425.205,6.8419,-6.84902,0,1.25499,9.71659,-1.20469,-8.32317,0.670732,-7.53049,-9.43638,-1.36756,-1.22625,-28.9329,-51.311,6.43293
425.215,6.77034,-6.85564,0,1.19751,9.75491,-1.21188,-7.92683,0.426829,-7.62195,-9.44835,-1.35798,-1.20469,-25.0915,-50.4878,8.14024
425.225,6.69585,-6.84132,0,1.18314,9.79803,-1.27176,-8.14024,-0.97561,-7.83537,-9.50104,-1.39869,-1.12326,-24.7256,-50.2134,10.7622
425.235,6.62743,-6.84721,0,1.17356,9.81958,-1.31247,-8.93293,-2.19512,-7.22561,-9.58247,-1.37953,-1.21667,-23.7195,-49.6951,11.7073
425.245,6.56216,-6.82863,0,1.16877,9.82437,-1.36037,-10.3049,-4.90854,-6.98171,-9.62798,-1.32205,-1.11847,-21.4329,-50.1524,13.1402
425.255,6.50142,-6.78162,0,1.16158,9.8124,-1.36277,-11.189,-7.62195,-6.58537,-9.70462,-1.28613,-1.00112,-22.4695,-50.1829,12.9573
425.265,6.43958,-6.75759,0,1.10171,9.80281,-1.41306,-11.4329,-10.7012,-6.12805,-9.70462,-1.23583,-1.09213,-24.0244,-49.6951,13.1707
425.275,6.39009,-6.72997,0,1.15679,9.78605,-1.57832,-10,-13.5976,-5.67073,-9.7142,-1.20709,-1.07057,-24.6341,-46.2805,13.9024
425.285,6.38144,-6.68983,0,1.42025,9.89143,-1.59748,-11.9207,-15.6707,-4.57317,-9.7142,-1.13763,-1.0107,-26.9817,-45.122,14.6951
425.295,6.45943,-6.6462,0,1.88488,9.8555,-1.57353,-16.6159,-13.2012,-2.34756,-9.69743,-1.01309,-0.984353,-28.3841,-42.0427,15.6098
425.305,6.72833,-6.60593,0,2.15073,9.73575,-1.33642,-19.6646,-12.3171,-0.213415,-9.68306,-0.965193,-0.989143,-30.8537,-41.0671,15.3659
425.315,6.98076,-6.57039,0,2.4549,9.64714,-1.16637,-19.1159,-12.1037,0.97561,-9.68785,-0.958008,-1.00112,-34.7866,-38.689,15.3659
425.325,7.24045,-6.52392,0,2.66805,9.58487,-1.34361,-17.7134,-12.8049,1.28049,-9.6663,-0.950823,-0.943638,-38.811,-36.0976,14.5427
425.335,7.49804,-6.46544,0,2.94348,9.56092,-1.37235,-17.1951,-11.5549,1.98171,-9.67588,-0.953218,-0.883762,-43.0488,-34.6646,13.4146
425.345,7.78789,-6.39493,0,3.37219,9.41482,-1.33642,-19.0854,-6.92073,3.90244,-9.70701,-0.941243,-0.823887,-46.7988,-33.6585,13.7805
425.355,8.15796,-6.3029,0,3.69073,9.06754,-1.10889,-21.189,0.426829,8.44512,-9.79323,-0.965193,-0.725691,-49.4817,-33.7195,13.9634
425.366,8.64908,-6.20991,0,3.92304,8.49753,-0.859812,-21.4939,7.10366,16.189,-9.80042,-0.888552,-0.706531,-45.9756,-34.0854,16.4329
425.375,9.2973,-6.10312,0,4.15775,7.75986,-0.900527,-17.6524,11.5854,26.2805,-9.80042,-0.857417,-0.632285,-43.4451,-36.0061,20.3963
425.385,10.1109,-5.97109,0,4.34217,7.1156,-1.08255,-10.5183,13.5671,37.9268,-9.85072,-0.936453,-0.510139,-36.9207,-39.5122,25.061
425.395,11.1049,-5.80954,0,4.50503,6.45937,-1.31966,-1.89024,13.689,50.8537,-9.87706,-1.03225,-0.364043,-28.1098,-44.2988,30.0915
425.405,12.2897,-5.60854,0,4.82836,6.00671,-1.55197,8.32317,13.5671,64.3902,-9.83874,-1.09931,-0.170046,-18.2012,-51.8293,33.4146
425.415,13.6445,-5.37206,0,5.01517,5.73128,-1.83938,19.8171,14.7561,79.2683,-9.63516,-1.152,0.0119751,-4.84756,-58.9634,33.628
425.425,15.1408,-5.14821,0,5.34568,5.88696,-1.94715,32.439,17.0427,94.3293,-9.34537,-0.775986,-0.00718506,9.08537,-65.6098,36.0671
425.435,16.742,-4.96642,0,5.82708,6.6366,-2.24653,46.2805,24.8171,110.03,-9.19927,-0.385598,-0.143701,21.9817,-68.1707,38.5061
425.445,18.3722,-4.80255,0,6.14562,8.11912,-2.61057,62.0427,36.8902,124.756,-9.47709,-0.251477,-0.193997,33.5671,-69.5732,40.9451
425.455,19.9375,-4.63113,0,5.85822,10.5668,-2.9818,74.7561,49.0854,138.018,-10.2243,-0.277822,-0.148491,46.8902,-72.4085,39.7561
425.465,21.4761,-4.55146,0,5.93486,13.2373,-3.11353,79.5427,60.1829,148.415,-11.0602,-0.486189,-0.579595,62.7439,-76.8902,36.9512
425.475,23,-4.54058,0,5.80553,14.1761,-2.5507,85.0915,58.9024,153.872,-11.465,-0.771196,-0.934058,80.3963,-76.9512,33.2012
425.485,24.5266,-4.58287,0,5.42951,13.3139,-2.02619,87.8963,46.9817,157.439,-11.2015,-0.622705,-1.17356,92.4085,-75.2439,37.9268
425.495,26.0706,-4.66222,0,4.99841,12.5619,-1.1041,89.7561,40.9146,163.323,-10.5165,-0.153281,-1.27894,98.1402,-70.1524,54.2378
425.505,27.7403,-4.75201,0,5.73847,10.9764,-0.198787,99.939,45.5793,167.256,-9.75491,0.495769,-1.24302,96.0976,-67.0732,72.1951
425.515,29.4253,-4.89268,0,5.41993,10.9883,0.146096,102.47,58.1402,174.97,-9.09149,1.1999,-1.37474,88.9024,-59.5122,84.0244
425.525,31.0932,-5.03299,0,4.82836,10.8327,1.88009,102.896,50.8232,181.22,-8.73464,1.68609,-1.33642,75.8537,-53.1402,89.4512
425.535,32.7433,-5.19809,0,4.5194,10.792,2.28485,96.8902,24.878,185.457,-8.73703,2.05014,-1.45617,49.5732,-52.561,86.4024
425.545,34.343,-5.36902,0,4.60562,10.8949,2.07409,78.5061,9.14634,183.293,-9.14658,2.23216,-1.57353,28.9939,-49.878,72.1037
425.555,35.8222,-5.52202,0,4.46192,11.0339,0.730481,63.1707,21.9817,176.098,-9.76928,2.38065,-1.62861,14.939,-46.8293,57.0732
425.565,37.0954,-5.61504,0,4.19607,10.198,-0.186812,44.6951,36.128,157.378,-10.4806,2.41418,-1.4921,2.53049,-46.7988,43.9634
425.575,38.0378,-5.6746,0,2.89558,10.2076,0.821492,32.6829,17.561,139.543,-11.1057,2.17707,-1.43701,-8.35366,-51.2805,34.3598
425.585,38.7554,-5.70039,0,3.0273,9.60403,0.421523,22.561,-2.80488,115.152,-11.2734,1.77471,-1.30289,-16.0061,-53.872,32.9878
425.595,39.2717,-5.71269,0,3.22609,9.13221,-0.153281,18.9634,-4.60366,92.0732,-10.9931,1.42743,-1.21188,-21.128,-56.5549,41.6463
425.605,39.6844,-5.70777,0,3.82964,8.8017,-0.718506,18.5671,8.32317,74.2683,-10.4734,1.09692,-1.08015,-19.1768,-60.5793,55.8537
425.615,40.0672,-5.721,0,4.53377,8.40891,-0.730481,14.2073,19.8476,62.2256,-9.97286,0.754431,-1.11129,-11.7378,-63.9024,68.4146
425.625,40.442,-5.74117,0,4.88344,7.77663,-0.56762,12.0122,21.8293,54.4512,-9.59445,0.474214,-1.1041,1.95122,-67.561,73.5671
425.635,40.7866,-5.78068,0,4.89781,7.15392,-0.167651,13.2012,21.5854,47.5,-9.34776,0.213157,-1.16158,20.6707,-69.5732,70.2439
425.645,41.0677,-5.84952,0,4.69424,6.77072,0.00958008,16.372,19.7866,41.0366,-9.17532,0.0981958,-1.26697,38.75,-69.2988,61.6463
425.655,41.3059,-5.92882,0,4.74693,6.45697,-0.234712,18.811,19.8476,33.9939,-9.10826,0.105381,-1.31008,54.0854,-67.2256,52.5
425.665,41.4599,-6.01294,0,4.83315,6.33243,-0.752036,19.0854,24.4207,23.7805,-9.19448,0.380808,-1.35319,68.3537,-64.5427,42.1646
425.675,41.5078,-6.07584,0,4.8092,6.12646,-1.14242,18.8415,26.311,11.6768,-9.40524,0.651445,-1.30768,77.1037,-63.4756,35.9146
425.685,41.0811,-6.10274,0,4.81638,5.82469,-1.37474,17.4695,24.5732,-0.518293,-9.64953,0.936453,-1.19272,79.2073,-58.811,32.2866
425.695,40.9656,-6.10247,0,4.84752,5.5301,-1.42504,16.2195,20.2439,-12.1037,-9.74054,1.24302,-1.08494,73.689,-52.4695,31.9817
425.705,40.7936,-6.12473,0,4.81399,5.17564,-1.52323,16.1585,14.6646,-21.5549,-9.76449,1.45857,-1.17835,62.561,-43.7195,31.4024
425.715,40.5119,-6.16087,0,4.36133,4.97925,-1.42983,18.5671,4.14634,-29.6037,-9.58726,1.7316,-1.21188,49.4207,-33.7195,30.5183
425.725,40.1287,-6.24232,0,4.09788,4.96248,-1.43462,19.0854,-7.16463,-37.1341,-9.29986,1.9256,-1.36277,34.6646,-24.0244,25.4573
425.735,39.652,-6.35779,0,4.16973,5.16606,-1.39869,18.5061,-23.7195,-46.1585,-9.15616,2.16989,-1.48731,19.4207,-13.7805,21.6768
425.745,39.0149,-6.48276,0,4.14817,5.67141,-1.33163,14.5427,-45.3963,-57.9268,-9.15616,2.2609,-1.52563,4.48171,-4.63415,17.5305
425.755,38.232,-6.79022,0,4.24876,6.10969,-1.35319,8.56707,-65.0305,-71.311,-9.23999,2.22497,-1.50886,-8.84146,0.27439,11.0671
425.765,37.3383,-6.88598,0,4.56251,6.41147,-1.40588,-0.182927,-80.1829,-85.4878,-9.35255,2.05014,-1.49689,-21.7988,3.9939,1.89024
425.775,36.3486,-6.99364,0,4.75411,6.64139,-1.31008,-11.25,-92.9878,-97.439,-9.36692,1.95194,-1.57832,-31.9512,7.40854,-7.10366
425.785,35.3475,-7.11121,0,5.31215,6.6845,-1.22146,-21.8598,-97.561,-106.494,-9.40285,1.89686,-1.64059,-39.8171,13.1707,-13.4146
425.795,34.3831,-7.20578,0,6.01629,6.45458,-1.04902,-32.1646,-94.6341,-113.994,-9.45314,1.79387,-1.56634,-47.0122,18.4146,-20.8841
425.805,33.5236,-7.31362,0,7.27367,5.99473,-1.0586,-39.0244,-82.4085,-120.61,-9.5202,1.58071,-1.64298,-53.2927,27.7744,-29.5427
425.815,32.7322,-7.44909,0,8.28198,5.80074,-1.03704,-42.8659,-68.0183,-124.573,-9.56331,1.46096,-1.7795,-61.128,39.1463,-38.8415
425.825,31.9918,-7.54331,0,8.68913,5.70254,-1.346,-42.622,-54.4817,-124.512,-9.59205,1.42743,-1.62143,-69.2073,47.2561,-47.5
425.835,31.317,-7.60828,0,9.2352,6.13365,-2.15552,-36.5244,-45.8841,-118.689,-9.60403,1.55437,-1.50886,-75.5793,51.6159,-52.1341
425.845,30.7317,-7.68466,0,10.1693,6.94077,-3.14945,-30.3963,-39.3902,-109.451,-9.71659,1.61424,-1.5855,-75.9451,54.4512,-52.9573
425.855,30.2357,-7.75462,0,11.0315,7.90835,-4.19607,-25.7317,-33.0183,-98.8415,-9.90101,1.50407,-1.59508,-73.3232,60.4878,-52.7134
425.865,29.8358,-7.82843,0,11.2949,8.91187,-4.4236,-23.2927,-20,-84.6646,-10.2363,1.21667,-1.67412,-69.2988,66.7378,-53.3841
425.875,29.5159,-7.87835,0,10.4159,9.39566,-3.96615,-21.7378,-4.35976,-69.6037,-10.6075,0.946033,-1.63101,-62.7744,70.2439,-53.9634
425.885,29.2477,-7.8998,0,8.56938,9.14897,-3.3171,-14.6037,2.7439,-55.1524,-10.9261,0.752036,-1.54958,-55.3354,70.3049,-55.5793
425.895,28.9842,-7.85756,0,6.99346,8.93582,-2.27048,-4.39024,2.7439,-44.8476,-11.144,0.764011,-1.26936,-47.9268,67.6524,-54.4817
425.905,28.6764,-7.83858,0,5.68578,9.45075,-2.00463,6.89024,5.67073,-35.5793,-11.3356,0.747246,-1.39869,-45.2439,69.5427,-53.811
425.915,28.3668,-7.84466,0,5.4343,10.2411,-1.85375,12.439,13.7195,-30.122,-11.544,0.661025,-1.54,-45.7927,79.5122,-52.6524
425.925,27.9793,-7.94233,0,4.65113,10.8758,-2.15552,14.1463,20.9756,-28.9024,-11.6614,0.524509,-2.0214,-41.6463,96.3719,-55.122
425.935,27.5077,-8.06485,0,4.03082,11.2494,-2.41178,6.61585,7.9878,-31.25,-11.7093,0.63468,-2.16749,-33.2317,110.915,-54.6037
425.945,26.9784,-8.13878,0,4.39486,12.3751,-1.90165,-6.31098,-16.128,-37.7744,-11.9224,0.706531,-1.96152,-23.872,118.994,-48.1402
425.955,26.4688,-8.10824,0,5.75763,13.6947,-1.11368,-23.4146,-31.9512,-43.4756,-12.5283,0.469424,-1.4921,-11.1585,116.341,-46.0366
425.965,26.1742,-7.9393,0,7.62574,13.4385,-0.464634,-38.5061,-38.5976,-36.4024,-13.2181,0.234712,-0.764011,2.07317,107.896,-44.6646
425.975,26.1541,-7.74117,0,8.86636,12.399,-0.900527,-34.6037,-42.0427,-21.2195,-13.666,-0.0814307,-0.58199,19.1463,100.488,-44.5122
425.985,26.3116,-7.59383,0,9.1825,11.6637,-1.41546,-18.1402,-29.5732,-8.53659,-13.7833,-0.548459,-0.843047,31.311,105.122,-42.8354
425.995,26.4071,-7.52066,0,6.84257,10.4207,-2.27287,-1.79878,-15.4268,-4.5122,-13.4385,-0.946033,-1.21906,35,113.72,-43.2622
426.005,26.1682,-7.4568,0,3.30992,8.55501,-2.16031,12.3171,8.17073,-13.6585,-12.4302,-0.735271,-1.16158,36.7988,115.03,-39.2988
426.015,25.3499,-7.25777,0,0.186812,7.791,-1.79387,21.0976,24.6646,-32.8963,-10.8854,0.0598755,-0.366438,33.7805,101.585,-28.811
426.025,24.1211,-6.93892,0,-1.49449,7.84848,-1.06339,19.2988,21.6463,-51.6463,-9.73815,0.692161,0.213157,22.8659,92.9268,-21.2805
426.035,22.6818,-6.49828,0,-2.15791,7.78142,-0.632285,10.7622,6.37195,-66.0061,-8.61249,1.28134,0.694556,-1.18902,85.3049,-17.5915
426.045,21.2823,-5.91115,0,-1.48012,7.73831,-0.63947,-3.65854,-9.81707,-74.4207,-8.00176,1.72681,1.22386,-29.6037,74.2683,-14.7866
426.055,20.0109,-5.13948,0,-0.507744,7.54671,-0.821492,-17.622,-18.9024,-78.4451,-7.84848,1.94715,1.93039,-53.9329,49.0244,-15.7927
426.065,18.8744,-4.32246,0,0.143701,7.40061,-0.728086,-29.5122,-25.061,-77.4085,-7.95386,1.77471,2.21779,-70.8841,17.7134,-22.5915
426.075,17.9181,-3.49622,0,0.682581,7.94188,-0.641865,-37.8049,-32.2866,-69.0854,-8.26521,1.40109,2.28485,-92.0732,-4.72561,-33.9939
426.085,17.2004,-2.8968,0,1.57592,8.85439,-0.943638,-40.7012,-39.2988,-57.2561,-8.63405,0.723296,1.76752,-116.25,-14.3902,-53.628
426.095,16.6566,-2.37099,0,2.213,9.40524,-1.55437,-38.3232,-44.878,-47.4085,-9.05078,0.0502954,1.64059,-136.22,-21.6463,-71.6159
426.105,16.2268,-2.01363,0,2.6441,9.29986,-2.14354,-34.4817,-42.5915,-42.2561,-9.28789,-0.493374,1.06099,-148.354,-27.561,-85.3659
426.115,15.8337,-1.82436,0,2.68003,9.05557,-2.61536,-29.8171,-28.1402,-40.6402,-9.30226,-1.06818,0.428708,-151.951,-25.6707,-90.3659
426.125,15.3984,-1.68448,0,2.43813,9.17772,-2.86444,-22.5305,-3.65854,-42.4695,-9.56092,-1.88967,0.263452,-142.774,-26.189,-85.6402
426.135,14.8871,-1.62678,0,2.05732,8.79451,-2.87881,-14.4512,18.811,-47.622,-9.67588,-2.19863,-0.0574805,-125.549,-22.8049,-74.6037
426.145,14.3481,-1.65194,0,2.08606,8.7514,-2.8381,-9.02439,35.6402,-51.9817,-9.73096,-2.64171,-0.399968,-104.756,-18.5061,-62.5305
426.155,13.767,-1.70264,0,1.83458,8.7514,-2.37346,-5.21341,41.0671,-54.1768,-9.56092,-2.96743,-0.502954,-83.5671,-15.9756,-49.2988
426.165,13.1783,-1.76953,0,1.66693,8.69871,-2.04056,-0.457317,40.5183,-54.1159,-9.49625,-3.08239,-0.574805,-62.561,-14.5732,-40.5488
426.175,12.5786,-1.82588,0,1.31008,8.90708,-1.74597,2.22561,35.4573,-51.372,-9.42919,-2.80936,-0.536484,-44.6037,-12.9268,-36.7378
426.185,12.0052,-1.85817,0,1.1041,9.0412,-1.79866,3.14024,27.5,-47.0427,-9.45075,-2.29203,-0.445474,-37.378,-11.5854,-36.4024
426.195,11.4666,-1.90131,0,0.926873,9.30705,-1.84417,2.83537,16.9817,-42.0732,-9.62558,-1.74836,-0.505349,-32.3476,-11.6463,-38.3841
426.205,10.9559,-1.95759,0,0.766406,9.4244,-1.84896,1.55488,5.2439,-38.2012,-9.79563,-1.27655,-0.5772,-30,-10.0915,-38.4756
426.215,10.4783,-2.00719,0,0.811912,9.55852,-1.91602,-0.762195,-6.0061,-36.2805,-9.9561,-0.881367,-0.570015,-32.5,-13.4756,-38.811
426.225,10.0166,-2.07804,0,0.876577,9.70941,-1.78189,-4.45122,-17.1037,-36.25,-9.91059,-0.63947,-0.670605,-34.8476,-15.061,-40.6707
426.235,9.57237,-2.19612,0,0.929268,9.74773,-1.67412,-8.87195,-24.8476,-36.0061,-9.3286,-1.05381,-0.838257,-38.2622,-15.1524,-35.7317
426.245,9.12768,-2.29539,0,0.850232,9.69743,-1.59987,-13.5061,-29.939,-36.0671,-9.26873,-0.512534,-0.773591,-40.0915,-13.75,-35.2744
426.255,8.69587,-2.38824,0,0.754431,9.5681,-1.48252,-16.7683,-31.5549,-34.6341,-9.03401,-0.706531,-0.744851,-41.7988,-14.7866,-33.2622
426.265,8.29711,-2.49308,0,0.804727,9.46033,-1.50886,-18.9024,-29.9695,-32.8659,-8.81607,-0.811912,-0.790356,-41.5549,-17.5915,-31.4939
426.275,7.96195,-2.60888,0,1.10889,9.29028,-1.32205,-20.061,-26.9817,-31.1585,-8.72506,-1.03465,-0.843047,-40.2744,-20.5793,-29.3902
426.285,7.6662,-2.69339,0,1.2526,9.18011,-1.36756,-19.5122,-25.5183,-29.7866,-8.67955,-1.18553,-0.740061,-39.2683,-26.372,-26.4329
426.295,7.40033,-2.78359,0,1.4418,9.15137,-1.41306,-18.8415,-25.6098,-29.7561,-8.7538,-1.19511,-0.785566,-36.4939,-31.6768,-22.1341
426.305,7.17484,-2.87178,0,1.74357,9.11784,-1.51365,-17.5,-23.5671,-30,-8.82325,-1.14003,-0.799937,-35,-34.3293,-17.2866
426.315,6.95604,-2.97784,0,1.85854,9.19448,-1.44899,-18.3841,-21.4939,-31.0061,-8.943,-1.06818,-0.898132,-30.5183,-37.3171,-7.2561
426.325,6.73608,-3.11331,0,1.9711,9.34297,-1.46815,-18.9329,-16.5549,-32.561,-9.10586,-1.12566,-1.05141,-24.939,-37.9573,0.914634
426.335,6.48886,-3.25841,0,1.89207,9.3286,-1.46096,-18.0183,-11.4024,-34.878,-9.26154,-1.22146,-1.13045,-19.0854,-36.6768,8.5061
426.345,6.19674,-3.42131,0,1.71483,9.26873,-1.43222,-16.7073,-8.47561,-37.9573,-9.40045,-1.39151,-1.24781,-12.378,-38.2012,13.3841
426.355,5.84417,-3.58609,0,1.42743,9.33818,-1.40588,-15.1524,-5.91463,-41.0671,-9.48907,-1.50647,-1.29331,-6.40244,-36.128,15.3963
426.365,5.49081,-3.7963,0,1.53042,9.29986,-1.71723,-13.4756,-4.02439,-43.2012,-9.44117,-1.60706,-1.50647,-1.58537,-34.6646,17.3476
426.375,5.00249,-4.03125,0,0.58678,9.39806,-1.65735,-12.622,-5.82317,-45.9146,-9.26633,-1.5376,-1.61424,4.35976,-30.8232,19.1463
426.385,4.48632,-4.28601,0,0.476609,9.64953,-2.10522,-12.8354,-2.65244,-48.2317,-9.06515,-1.47294,-1.69567,9.90854,-26.372,22.2256
426.395,3.96373,-4.61312,0,0.60594,9.70222,-2.28485,-12.9268,-3.62805,-51.4634,-8.88073,-1.44659,-1.99266,13.6585,-20.2134,24.5732
426.405,3.42267,-4.93539,0,0.61552,9.72378,-2.17707,-15.0915,-6.64634,-54.5122,-8.68434,-1.40348,-1.97589,16.8598,-13.4756,24.6646
426.415,2.89399,-5.26897,0,0.814307,9.81,-2.08846,-17.439,-11.4024,-56.6463,-8.52866,-1.4921,-2.03098,20.2744,-8.65854,27.1951
426.425,2.41682,-5.63462,0,1.32924,9.78844,-2.21779,-18.5671,-12.1951,-58.5671,-8.49034,-1.51126,-2.04774,21.7073,-3.78049,28.1098
426.435,1.96741,-6.84491,0,1.52802,9.82677,-2.25371,-18.811,-13.1707,-58.9634,-8.464,-1.47773,-1.91123,20.7927,-0.457317,29.939
426.445,1.55095,-7.07761,0,1.7316,9.58008,-2.26569,-20.9451,-14.2378,-59.3902,-8.54303,-1.52323,-1.91362,19.3902,6.09756,33.0793
426.455,1.20698,-7.32871,0,2.10283,9.51062,-2.27287,-22.0122,-14.4207,-57.378,-8.62446,-1.65735,-2.04535,21.9512,15.5793,35.8841
426.465,0.899739,-7.53026,0,2.16749,9.40764,-2.14594,-24.4207,-16.4329,-55.3659,-8.76817,-1.78189,-1.91123,25.9146,24.6037,38.7195
426.475,0.645132,-7.69747,0,2.14115,9.41003,-2.08127,-25.3354,-16.6159,-50.3049,-9.06994,-1.87291,-1.86333,34.5427,28.9634,43.5366
426.485,0.456026,-7.85764,0,2.24892,9.52499,-1.84656,-26.0671,-17.2866,-45.0915,-9.50583,-1.76752,-1.94476,44.4512,36.311,48.6585
426.495,0.335917,-7.88948,0,2.26808,9.62558,-1.78189,-26.8902,-14.1463,-38.3841,-10.2579,-1.54479,-1.52563,50.9756,40.8841,55.061
426.505,0.300503,-7.81935,0,2.42615,9.85311,-1.89686,-28.2317,-10.9451,-31.1585,-10.8279,-1.20469,-1.12087,47.8963,42.1341,59.4512
426.515,0.357722,-7.79892,0,2.55788,9.66151,-2.05014,-28.689,-7.95732,-23.811,-11.0842,-0.783171,-1.37474,36.2195,47.1341,63.7195
426.525,0.474503,-7.93757,0,2.37825,9.31423,-2.23695,-27.0732,-6.03659,-16.5854,-11.0219,-0.574805,-2.14115,28.3232,61.9207,60.8232
426.535,0.686906,-8.17402,0,2.4525,8.89989,-2.52675,-23.0183,-3.41463,-8.81098,-10.6435,-0.560435,-2.55549,29.3293,82.3476,58.689
426.545,1.50002,-8.35498,0,2.38304,8.75619,-2.75188,-18.0793,-4.2378,-0.426829,-10.5956,-0.725691,-2.31359,31.7683,86.0976,52.2256
426.555,1.89128,-8.4588,0,2.55549,8.83523,-3.03688,-13.1402,-7.04268,10.061,-10.8446,-1.17835,-2.019,37.439,86.9512,43.3841
426.565,2.42579,-8.44437,0,2.79738,9.04359,-3.57097,-10.7927,-12.9878,23.3232,-11.5871,-1.32924,-1.56395,47.6829,82.3476,36.311
426.575,3.14214,-8.34518,0,3.25004,9.57529,-3.92783,-9.81707,-14.2683,39.7866,-12.4757,-0.888552,-1.20709,56.311,83.4756,39.0244
426.585,4.05228,-8.15601,0,3.69552,10.2052,-3.83922,-9.48171,-13.3537,58.6585,-13.3091,-0.445474,-0.730481,54.2073,86.1585,46.0671
426.595,5.13972,-7.95794,0,3.9925,10.2794,-3.21651,-8.20122,-14.4512,75.9146,-13.6923,-0.0191602,-0.646655,40.6707,91.0061,49.9085
426.605,6.39293,-7.57499,0,4.39247,10.186,-2.60818,-5.64024,-18.9939,90.7622,-14.1618,0.352068,0.531694,20.7317,88.3841,52.2256
426.615,7.78578,-7.07618,0,4.69184,9.80521,-2.77104,0.701219,-19.939,102.988,-15.0695,0.766406,1.41546,-9.05488,69.6951,49.1159
426.625,9.2643,-6.79554,0,4.58167,9.44835,-2.39502,9.84756,-18.4146,113.963,-15.491,1.27655,0.0958008,-22.5915,69.3902,45.0915
426.635,10.7486,-6.66263,0,4.10506,9.83874,-2.17468,13.3232,-11.0366,124.146,-14.3198,1.41546,-0.761616,-28.7195,79.7561,43.5671
426.645,12.1927,-6.49851,0,2.9339,9.58726,-1.61185,11.9512,-5.94512,134.573,-12.0206,0.486189,-0.450264,-35.122,75.3659,40.4878
426.655,13.7205,-6.27812,0,2.73032,8.52627,-0.61552,11.7378,-14.939,144.543,-9.96328,-0.701741,-0.110171,-25.122,60.5488,29.2378
426.665,15.358,-5.95124,0,2.84289,7.69041,0.438289,14.4512,-24.2988,153.689,-8.57656,-1.36516,0.325723,-3.93293,40.122,18.9634
426.675,16.9891,-5.59852,0,2.36149,8.03769,1.80584,18.9329,-22.8354,164.36,-7.69999,-1.55916,0.416733,26.4634,28.689,14.0244
426.685,18.4614,-4.83247,0,0.838257,8.04966,1.81782,28.2317,-15.3963,172.774,-7.52755,-1.1065,1.79626,40.5488,6.64634,15.0915
426.695,19.7697,-4.1078,0,-0.428708,9.32621,1.42504,42.7744,-13.4451,176.555,-7.70957,-1.35319,0.768801,66.9207,-2.92683,9.39024
426.705,21.0696,-3.67932,0,-0.217947,12.1188,0.534089,48.9329,-19.6646,175.091,-7.92512,-1.44899,0.924478,81.1585,-11.7073,4.87805
426.715,22.3285,-3.26377,0,0.0862207,13.8648,-1.22386,51.6463,-26.8902,170.732,-8.27719,-1.06099,0.974773,79.6341,-19.7561,1.58537
426.725,23.5405,-2.90523,0,1.03465,13.8983,-1.98068,56.2805,-34.5732,160.549,-8.79451,-0.340093,0.876577,73.2927,-19.8171,1.98171
426.735,24.7402,-2.62532,0,2.94827,13.1966,-2.68482,65.0915,-39.6951,144.756,-9.34537,0.469424,0.65863,62.7439,-26.6463,7.62195
426.745,26.0014,-2.45308,0,5.36005,11.8482,-2.88121,75.3354,-34.5427,129.512,-9.79084,1.28373,0.273032,50.8841,-25.6402,22.378
426.755,27.2468,-2.3326,0,6.10011,10.9333,-2.01421,82.9268,-22.3171,120.64,-10.0878,1.99505,0.0838257,36.7683,-22.8659,39.0854
426.765,28.4266,-2.23734,0,5.82708,10.1836,-0.998723,84.8781,-8.65854,115.213,-10.1046,2.12199,-0.00479004,20.0305,-20.2439,54.1463
426.775,29.4677,-2.13724,0,4.79243,10.4183,0.0718506,88.2012,10.1829,113.841,-9.93454,1.82021,0.0311353,2.46951,-22.4085,62.2256
426.785,30.4492,-2.04655,0,4.21763,10.3321,0.285007,95.8841,36.128,114.97,-9.62798,1.40588,0.00239502,-13.7805,-27.9878,62.622
426.795,31.3833,-1.97983,0,4.70861,10.471,-0.467029,96.3719,69.8171,108.049,-9.36453,1.06339,-0.0886157,-20.3354,-36.4634,57.1341
426.805,32.2348,-1.95253,0,3.35782,10.756,-0.490979,96.5549,87.8963,115.549,-9.25915,0.828677,-0.244292,-25.1829,-44.6646,49.8171
426.815,33.0405,-1.99526,0,3.28118,10.2124,-0.280217,90.9451,98.2012,111.646,-9.27591,0.790356,-0.531694,-27.5305,-50.2744,44.2683
426.825,33.7986,-2.11214,0,3.51349,10.0567,-0.519719,81.311,105.884,105.488,-9.37171,0.701741,-0.855022,-27.5305,-53.7805,40.122
426.835,34.4595,-2.25257,0,3.20693,9.83156,-0.387993,73.689,107.652,99.5427,-9.55134,0.603545,-0.991538,-25.5488,-54.2073,39.4817
426.845,35.0241,-2.39334,0,2.90995,9.83156,-0.519719,67.6219,106.555,94.2988,-9.71659,0.479004,-1.03465,-22.378,-54.7256,41.2195
426.855,35.5184,-2.53538,0,2.71356,9.59924,-0.708926,61.9817,101.86,89.6951,-9.62798,0.342488,-1.05381,-18.3232,-53.75,41.5854
426.865,35.9171,-2.67111,0,2.42615,9.23759,-0.785566,53.5976,89.9085,83.1402,-9.46272,0.0670605,-1.03225,-17.622,-53.0793,41.3415
426.875,36.2448,-2.81746,0,2.36628,8.51908,-0.792751,48.5976,74.5732,75.061,-9.20406,-0.107776,-1.06818,-17.5915,-51.0976,36.6768
426.885,36.5151,-2.95723,0,2.54591,8.4137,-1.06578,44.4512,60.7622,67.1951,-8.9933,-0.225132,-1.03944,-18.2622,-49.7256,31.6463
426.895,36.6959,-3.08734,0,2.56986,7.81734,-0.989143,38.2317,48.811,55.8232,-8.7514,-0.222737,-0.996328,-18.0183,-50.9451,25.2134
426.905,36.7595,-3.25638,0,2.39741,7.18985,-0.953218,35.3963,37.5,43.75,-8.59573,0.0239502,-1.14961,-18.4756,-52.8354,20.7012
426.915,36.6732,-3.45501,0,2.1651,6.83299,-0.890947,32.6829,24.6646,30.3354,-8.60052,0.318538,-1.29092,-18.9329,-53.3232,18.3841
426.925,36.3823,-3.6483,0,1.75794,6.61504,-0.876577,28.9329,13.2012,14.7866,-8.79451,0.613125,-1.32924,-20.4878,-52.3171,15.3049
426.935,36.3857,-3.83557,0,1.20948,6.62702,-0.783171,22.6524,0.548781,0.335366,-9.05078,0.926873,-1.37474,-21.0976,-52.4085,14.0854
426.945,35.6084,-3.99513,0,0.510139,6.67971,-0.790356,13.4756,-14.4207,-13.9634,-9.28789,1.16158,-1.32684,-21.9817,-53.5671,10.1524
426.955,34.6833,-4.18571,0,0.270637,6.51206,-0.814307,2.65244,-35.7622,-26.5854,-9.4244,1.18074,-1.49928,-22.7134,-46.7683,4.81707
426.965,33.6777,-4.38874,0,0.277822,6.08574,-1.06818,-11.2195,-54.6037,-37.1646,-9.38848,1.09452,-1.57113,-25.7317,-37.8963,-4.35976
426.975,32.5364,-4.6266,0,0.136516,5.72889,-1.38672,-10,-88.0793,-50.5183,-9.21843,1.09452,-1.71483,-31.25,-28.811,-14.9085
426.985,31.4083,-4.89615,0,1.22625,6.67971,-2.37586,-8.68902,-118.537,-69.939,-9.02922,1.12326,-1.84177,-37.1037,-19.2988,-22.8354
426.995,30.2429,-5.17914,0,2.68242,8.07601,-2.8357,-27.6829,-126.189,-92.3171,-8.86876,1.22386,-1.90165,-42.439,-12.1037,-28.872
427.005,29.0927,-5.41143,0,4.16733,8.53585,-1.99745,-55.0305,-117.713,-108.75,-8.81607,1.27176,-1.71483,-49.4207,-5.88415,-32.2561
427.015,28.0765,-6.09806,0,5.58758,8.09038,-1.42025,-70.2134,-112.348,-115,-8.76577,1.25499,-1.67891,-55.061,-0.670732,-32.7134
427.025,27.2503,-6.31252,0,7.40301,7.65927,-2.29203,-70.2744,-110.976,-116.86,-8.72027,1.14482,-1.76752,-62.2561,11.189,-33.0488
427.035,26.5506,-6.60384,0,9.11305,7.80058,-3.77695,-68.8415,-98.9634,-116.677,-8.66518,0.984353,-2.08606,-70.3354,26.8902,-33.9634
427.045,25.9803,-6.90375,0,10.4159,7.78621,-4.79722,-61.6768,-77.2866,-112.622,-8.79691,0.787961,-2.18665,-81.0061,44.1159,-35.3659
427.055,25.5291,-7.17869,0,11.2231,7.87482,-5.28341,-51.8902,-50.0305,-105.152,-9.15616,0.6251,-2.2106,-85.7317,55.1829,-35.9451
427.065,25.2425,-7.38668,0,11.8697,7.72873,-4.84033,-41.9817,-12.3476,-93.3232,-9.78126,0.584385,-2.10283,-83.3232,60.2134,-34.8476
427.075,25.1857,-7.50218,0,11.9727,7.18506,-4.29427,-23.3232,20.6707,-74.7561,-10.6459,0.58678,-1.88009,-73.0183,58.2012,-31.0366
427.085,25.3363,-7.57398,0,11.1297,6.81144,-4.35894,-1.52439,32.561,-52.6829,-11.4674,0.522114,-1.8274,-53.0183,52.7134,-23.9024
427.095,25.7004,-7.67288,0,10.3034,6.64139,-5.40556,26.5549,28.4756,-27.8659,-12.2817,0.0670605,-2.11959,-29.3598,56.4939,-18.1402
427.105,26.1379,-7.84367,0,9.15137,7.18506,-5.28581,39.1463,34.3902,-8.75,-12.5283,-0.708926,-2.58183,-12.8049,68.9634,-20.9146
427.115,26.4768,-8.04063,0,7.47725,8.50711,-4.16494,36.4024,46.372,3.38415,-12.0254,-0.713716,-2.65129,-5.18293,77.6219,-29.4817
427.125,26.6719,-8.2229,0,6.23903,9.40764,-3.04407,28.4756,51.5854,5.45732,-11.3428,-0.246687,-2.4501,-3.07927,91.7988,-39.2683
427.135,26.6192,-8.31424,0,5.30736,10.9261,-1.20709,21.8293,54.3598,-3.81098,-11.3787,0.179626,-2.01421,-15.1829,99.2378,-51.4939
427.145,26.2332,-8.33872,0,4.00447,11.6494,-0.941243,19.4817,62.1646,-23.7805,-11.5919,0.617915,-1.71962,-35.0915,99.8781,-63.0183
427.155,25.4273,-8.24251,0,1.84656,11.9368,-1.53042,15.7317,48.811,-46.6463,-11.8362,1.12326,-1.11847,-57.7439,103.262,-68.8415
427.165,24.3544,-8.01308,0,1.71004,15.0455,-1.36756,-4.69512,26.8902,-70.8232,-12.2362,1.57353,-0.419128,-79.6341,98.3841,-66.1281
427.175,23.2778,-7.67167,0,3.365,17.2202,-0.349673,-33.9939,6.09756,-82.7134,-13.1415,1.2981,0.234712,-91.7683,83.811,-59.0549
427.185,22.5055,-7.26217,0,5.77918,16.9232,-0.275427,-59.0854,-5.51829,-69.7866,-14.2863,0.490979,0.744851,-92.0427,63.689,-54.939
427.195,22.0306,-6.81047,0,5.78637,14.0636,-0.821492,-62.3476,-22.8963,-48.1707,-15.6538,-1.08015,1.18793,-86.7988,39.4817,-57.3476
427.205,21.6377,-6.57097,0,4.44037,11.0291,-0.191602,-41.6159,-41.2805,-39.878,-14.9737,-2.24413,-0.141306,-87.3171,44.8171,-63.689
427.215,20.9665,-6.43484,0,1.73639,8.49034,0.102986,-18.5366,-17.7134,-47.9268,-13.3834,-2.09564,-0.687371,-78.4756,39.0244,-52.7744
427.225,19.7509,-6.04261,0,-1.18553,7.65927,-0.831072,-5.51829,6.40244,-63.2927,-11.0865,-0.783171,0.687371,-76.4329,15.7622,-24.0549
427.235,18.123,-5.44823,0,-2.76864,7.06052,-1.46336,-1.40244,15.122,-82.1037,-9.37411,-0.399968,1.47054,-87.561,-8.20122,5.03049
427.245,16.4552,-4.79253,0,-2.37586,7.31678,-2.02619,-5.45732,14.0549,-96.4939,-8.2245,-0.0958008,1.59748,-102.378,-23.811,20.4268
427.255,14.9231,-4.08647,0,-1.12087,7.53713,-2.07888,-16.2195,16.2805,-105.488,-7.41019,0.308958,1.69088,-120.213,-37.0427,26.3415
427.265,13.584,-3.42148,0,0.0383203,7.66646,-1.54479,-27.1037,22.1341,-106.768,-6.86173,0.364043,1.52563,-129.695,-34.5427,29.2073
427.275,12.4155,-2.95648,0,0.495769,8.07361,-0.958008,-33.9939,27.1341,-98.689,-6.98867,0.888552,0.993933,-133.933,-45.7927,28.811
427.285,11.4876,-2.73615,0,0.948428,8.43047,-0.725691,-34.6951,22.5915,-82.439,-7.31199,0.469424,0.304167,-121.768,-45.5183,20.3354
427.295,10.7437,-2.53125,0,0.773591,8.80649,-0.914897,-27.3476,6.40244,-62.7134,-8.19815,-0.316143,0.313748,-105.549,-49.7866,9.02439
427.305,10.1706,-2.40444,0,0.696951,8.60052,-1.70765,-16.9817,-9.7561,-46.0061,-9.17292,-1.30529,0.0670605,-86.2195,-50.9756,-7.22561
427.315,9.80699,-2.36934,0,1.55197,8.39933,-3.04886,-7.40854,-10.3963,-37.7134,-10.0735,-2.35909,-0.306563,-66.6768,-45.4573,-23.1707
427.325,9.51928,-2.3991,0,2.019,8.41131,-3.74102,-0.579268,-4.14634,-36.8902,-10.7441,-3.26202,-0.62031,-45.1524,-37.0732,-36.9207
427.335,9.20655,-2.49107,0,2.12438,8.62207,-3.69073,1.0061,3.59756,-40.7317,-10.9165,-3.68833,-0.931663,-21.6768,-31.5854,-46.9207
427.345,8.78174,-2.62211,0,1.63101,9.01485,-3.21891,-0.97561,6.06707,-45.4878,-10.2243,-3.78413,-1.06339,-0.548781,-27.8049,-50.4878
427.355,8.29151,-2.71594,0,1.15679,9.06036,-2.45729,-2.40854,1.61585,-46.9512,-9.21603,-3.13029,-0.826282,15.3963,-26.6463,-48.1402
427.365,7.80335,-2.81876,0,1.01549,9.16574,-1.80584,-5.36585,-1.79878,-45.7927,-8.44005,-2.34233,-0.804727,22.378,-27.0427,-40.8537
427.375,7.37559,-2.91075,0,1.19751,9.25196,-1.2502,-10.061,-6.52439,-42.7744,-8.34664,-1.69807,-0.768801,29.3293,-24.4512,-37.622
427.385,7.05178,-2.98287,0,1.62622,9.18729,-0.938848,-14.6951,-9.93902,-38.4756,-8.27,-1.29571,-0.704136,24.5732,-27.1951,-33.5976
427.395,6.77219,-3.10372,0,1.62622,9.2807,-0.886157,-17.9573,-17.1646,-34.4207,-8.72745,-0.792751,-0.948428,16.4329,-33.811,-30.2439
427.405,6.5085,-3.2093,0,1.49689,9.30465,-1.15919,-19.939,-25.5183,-31.7378,-9.16095,-0.447869,-0.953218,13.2927,-34.4512,-28.2927
427.415,6.21943,-3.28472,0,1.22386,9.44596,-1.65496,-21.4939,-35.3963,-31.2805,-9.51541,-0.172441,-0.881367,9.96951,-35.9756,-24.9085
427.425,5.89936,-3.39109,0,1.0107,9.65432,-2.2585,-22.7134,-43.689,-32.1646,-9.56092,-0.158071,-1.02746,5.73171,-32.9573,-20.6707
427.435,5.54362,-3.58672,0,0.833467,9.59684,-2.70637,-23.7805,-49.2073,-34.3902,-9.0388,-1.24302,-1.34361,5.21341,-24.9695,-6.82927
427.445,5.15918,-3.73431,0,0.716111,9.34297,-2.78301,-23.4146,-50.122,-36.8598,-9.57529,-0.263452,-1.24781,4.39024,-22.439,-7.43902
427.455,4.79648,-3.88389,0,0.984353,9.07473,-2.54591,-22.5915,-44.878,-39.1159,-9.29268,-0.488584,-1.24302,11.2195,-21.6768,-5.42683
427.465,4.47685,-4.02896,0,1.48491,9.01246,-2.25611,-22.4085,-35.122,-41.9207,-9.0412,-0.799937,-1.21667,14.2683,-23.628,-5.2439
427.475,4.20916,-4.13844,0,1.96871,8.9909,-1.94236,-21.6768,-22.9573,-43.3841,-9.08431,-1.01549,-1.10171,16.8902,-24.4817,-6.18902
427.485,3.97439,-4.22496,0,2.29922,9.00288,-1.62861,-20.3659,-11.189,-44.6037,-9.09149,-1.19272,-1.02986,17.622,-28.1707,-7.80488
427.495,3.75348,-4.31125,0,2.46927,8.95737,-1.35319,-18.2927,-2.56098,-45.8841,-9.20166,-1.32924,-1.0562,18.5671,-29.1159,-8.84146
427.505,3.52099,-4.41241,0,2.4525,8.97414,-1.2502,-16.1585,3.81098,-47.2561,-9.1825,-1.17835,-1.13045,17.6829,-30.7927,-8.07927
427.515,3.24543,-4.52543,0,2.18426,9.0388,-1.22625,-14.6341,6.79878,-48.6585,-9.31902,-1.45378,-1.21427,16.25,-31.7988,-5.94512
427.525,2.9003,-4.65018,0,1.65017,9.18011,-1.3939,-13.2317,5.42683,-49.3902,-9.331,-1.50407,-1.28373,15.6707,-31.8598,-1.25
427.535,2.47687,-4.79267,0,1.00351,9.42201,-1.54,-13.689,2.53049,-49.6951,-9.25915,-1.48012,-1.36756,17.1646,-31.0061,3.87195
427.545,2.00679,-4.92436,0,0.529299,9.63516,-1.81063,-15.9146,-4.26829,-49.3293,-9.20166,-1.42983,-1.33882,18.2012,-32.3476,9.87805
427.555,1.52085,-5.07515,0,0.225132,9.81958,-1.98787,-19.0854,-10.122,-48.1707,-9.04838,-1.31487,-1.41306,20.3049,-29.0549,15.6707
427.565,1.03994,-5.30494,0,0.141306,9.81719,-2.09085,-22.2561,-15.5488,-47.6524,-8.80649,-1.23583,-1.71244,22.0122,-25.4573,24.1768
427.575,0.564287,-5.59055,0,0.114961,9.65911,-1.95434,-25.5488,-21.0976,-47.8049,-8.57417,-1.21427,-1.91841,26.8902,-19.0854,29.6037
427.585,0.154637,-5.92619,0,0.584385,9.66151,-1.95913,-28.4756,-23.7805,-47.7134,-8.27719,-1.15679,-2.08367,33.5061,-12.8659,35.3354
427.595,-0.204874,-6.33048,0,0.931663,9.57289,-1.74357,-31.0061,-26.311,-47.7134,-8.05206,-1.152,-2.25132,42.1037,-4.93902,38.5976
427.605,-0.46623,-8.31039,0,1.68849,9.64714,-1.74836,-33.2317,-26.0061,-47.3476,-7.97542,-1.23344,-2.08127,47.5915,0.487805,40.4878
427.615,-0.672605,-8.52303,0,2.11959,9.78605,-1.78668,-35.4878,-26.372,-46.9512,-8.05445,-1.37714,-1.93518,50.9146,5.70122,42.1341
427.625,-0.817464,-8.74434,0,2.67763,9.79803,-1.96392,-36.5549,-24.5122,-47.3476,-8.21013,-1.51126,-2.05493,52.622,12.0122,42.1037
427.635,-0.944628,-8.98427,0,2.83091,9.59205,-1.96871,-35.3354,-23.9634,-48.2012,-8.35622,-1.64538,-2.18905,58.628,24.9695,41.9512
427.645,-1.01512,-9.14751,0,3.18538,9.41003,-2.29922,-34.5427,-20.8232,-47.2866,-8.71069,-1.69328,-2.00224,63.2622,32.5915,43.2622
427.655,-1.02324,-9.29778,0,3.45362,9.32142,-2.27527,-31.6159,-19.0549,-44.3902,-9.17772,-1.54958,-2.07409,65.3354,41.9817,45.2439
427.665,-0.96555,-9.37673,0,3.53984,9.30944,-2.53393,-29.2378,-16.8902,-38.689,-9.85072,-1.31008,-1.92081,60.0915,52.0732,48.0793
427.675,-0.825055,-9.3007,0,3.73863,9.137,-2.82852,-27.1951,-10.061,-33.0488,-10.6818,-0.986748,-1.3484,47.2561,52.9878,48.75
427.685,-0.609282,-9.15274,0,3.79371,9.07952,-2.9818,-25.2439,-3.90244,-25.9451,-11.6039,-0.641865,-1.08015,26.6768,49.7256,44.2378
427.695,-0.2804,-9.21903,0,3.98531,8.90468,-3.10874,-20.5488,3.65854,-16.8902,-11.9009,-0.268242,-2.21539,6.21951,56.8902,40.7317
427.705,0.110759,-9.4737,0,3.72426,8.78254,-3.2716,-17.7439,7.10366,-7.59146,-11.6997,0.107776,-3.19256,-4.2378,78.2012,36.4024
427.715,0.647441,-9.87399,0,3.26681,8.83283,-3.23088,-15.8232,7.46951,1.79878,-10.8518,-0.146096,-3.75779,-8.65854,97.4085,33.1707
427.725,1.10487,-10.2083,0,2.9818,9.10107,-3.13748,-14.4207,6.03659,10.9756,-10.4159,-0.59636,-3.34584,-7.9878,102.744,31.1585
427.735,1.61955,-10.4398,0,2.85486,9.70222,-3.20214,-13.3232,3.2622,21.311,-10.5836,-1.03944,-2.94587,-6.46341,100.671,29.6646
427.745,2.22179,-10.5463,0,2.84528,10.2028,-3.32668,-12.5915,2.0122,32.9573,-11.1967,-1.25739,-2.50998,0.884146,99.8781,28.7195
427.755,2.95593,-10.5891,0,3.11592,10.3273,-3.09676,-12.561,-2.80488,45.1829,-11.8817,-1.07536,-2.33035,8.90244,107.165,33.1402
427.765,3.84527,-10.4929,0,3.36979,10.0447,-2.51956,-12.3476,-9.54268,58.9329,-12.6074,-0.929268,-1.68609,10.7012,109.512,35.4268
427.775,4.94637,-10.2173,0,3.87514,9.27591,-2.42855,-10.9756,-16.1585,73.9329,-13.1223,-0.728086,-0.694556,4.02439,102.165,33.3841
427.785,6.25895,-9.6777,0,4.24876,8.49753,-2.66326,-7.37805,-21.128,89.8171,-13.6923,-0.366438,0.912502,-4.84756,81.3719,29.0854
427.795,7.72688,-9.08057,0,4.3278,8.09996,-3.16143,-5.91463,-16.4329,105.183,-14.6887,0.0383203,1.46336,-20.4878,58.2012,22.3171
427.805,9.28832,-8.72386,0,3.72905,7.70238,-2.63692,-2.40854,-9.84756,122.378,-15.0862,0.670605,0.0646655,-23.2317,64.2988,12.2561
427.815,10.9479,-8.5002,0,3.09197,7.47486,-1.20948,1.37195,-15.0305,142.439,-14.0061,1.29092,-0.677791,-15.5793,61.6768,14.3902
427.825,12.7061,-8.1557,0,2.80696,7.42935,-0.402363,5.94512,-17.4695,159.512,-12.138,0.637075,0.0862207,1.98171,41.9817,11.8598
427.835,14.5367,-7.74953,0,2.61776,7.69759,1.06339,12.439,-18.628,174.39,-10.2148,-0.433499,0.397573,21.0976,25.8232,0.792683
427.845,16.3412,-7.33992,0,2.06451,7.98979,2.03577,23.4146,-16.0061,184.238,-8.78254,-1.04183,0.407153,42.9268,12.1951,-11.7378
427.855,17.8824,-6.85412,0,0.143701,9.14658,0.708926,35.8841,-7.10366,188.78,-8.16941,-1.60945,0.632285,67.9573,5.2439,-19.878
427.865,19.2959,-5.69316,0,-1.07776,12.5643,0.804727,42.9268,-27.0427,190.732,-7.96584,-1.67412,0.63468,85.7012,1.85976,-25.2744
427.875,20.7503,-5.2049,0,0.419128,15.115,-0.847837,46.4634,-46.6463,184.543,-8.11912,-1.51844,0.708926,94.2073,-4.08537,-25.7317
427.885,22.0779,-4.80345,0,0.692161,14.7054,-2.73272,60.9756,-48.2927,172.317,-8.55262,-1.08734,0.728086,92.1037,-13.4756,-19.4512
427.895,23.3081,-4.47616,0,1.78429,14.236,-3.51589,84.6951,-50.7622,156.006,-9.2807,-0.402363,0.546064,77.2256,-19.0244,-7.5
427.905,24.5129,-4.29768,0,3.8943,13.3235,-3.77934,92.6524,-52.8659,137.256,-9.7621,0.00958008,-0.00958008,59.6951,-17.622,11.189
427.915,25.6461,-4.14197,0,4.69903,12.5643,-2.03816,93.3232,-57.0732,123.811,-10.6387,1.16877,-0.0838257,47.378,-17.3171,28.8415
427.925,26.7471,-4.083,0,4.84991,10.9979,-0.366438,94.8781,-52.8049,116.128,-10.3968,1.51605,-0.493374,32.1646,-12.9268,47.5305
427.935,27.8486,-4.07077,0,5.40077,9.95131,0.752036,102.409,-32.7439,108.841,-9.97765,1.83938,-0.670605,17.4695,-14.3598,60.0305
427.945,28.9052,-4.06962,0,5.48699,10.1142,0.766406,113.963,1.55488,106.524,-9.44356,1.79387,-0.682581,2.89634,-18.689,69.6646
427.955,29.9331,-4.07744,0,5.0511,10.1693,0.728086,120.335,41.372,109.97,-8.85918,1.50886,-0.680186,-8.41463,-24.9085,72.1037
427.965,30.9272,-4.07855,0,5.04391,10.0495,0.306563,115.122,77.9573,108.14,-8.53824,1.14721,-0.637075,-15.6098,-32.6524,69.2988
427.975,31.9114,-4.03086,0,4.53856,10.2746,0.0311353,109.604,108.293,114.909,-8.51429,0.902922,-0.459844,-22.2561,-43.9024,63.2012
427.985,32.8466,-3.97045,0,4.38289,9.95849,0.239502,100.793,125.854,112.073,-8.62926,0.819097,-0.419128,-29.3598,-55.6098,54.0549
427.995,33.6837,-3.90402,0,4.00208,9.59684,-0.0311353,93.2012,137.348,106.25,-8.88073,0.840652,-0.404758,-36.4329,-63.9939,47.7744
428.005,34.3867,-3.85891,0,3.2692,9.5202,-0.201182,83.3537,142.591,101.799,-9.22322,0.998723,-0.498164,-45.122,-66.0366,44.3293
428.015,34.9965,-3.86051,0,3.04646,9.05317,-0.304167,73.811,140.457,94.4512,-9.47709,1.09692,-0.696951,-55.9451,-61.9512,42.8659
428.025,35.4755,-3.90459,0,2.49801,9.35734,-0.60594,65.9146,130.701,89.7866,-9.58487,1.06578,-0.881367,-65.0915,-56.5854,43.2622
428.035,35.8722,-3.98268,0,2.51238,9.00527,-0.840652,58.4146,117.713,81.0671,-9.52499,0.900527,-1.02267,-73.7805,-50.8537,42.4085
428.045,36.1291,-4.10476,0,2.22976,8.72985,-0.969983,51.5549,99.3293,70.1829,-9.43159,0.598755,-1.20709,-79.0244,-46.0061,37.622
428.055,36.2272,-4.25802,0,1.96631,8.61249,-1.21906,44.3902,81.7073,57.5,-9.40524,0.153281,-1.35319,-81.0061,-42.8963,29.8476
428.065,36.1595,-4.45705,0,1.60706,8.1766,-1.3939,38.2012,67.2256,44.3293,-9.30944,-0.347278,-1.55676,-78.5061,-42.3171,18.811
428.075,35.8541,-4.70877,0,0.869392,8.01853,-1.42025,31.7988,48.9634,30,-9.09628,-0.447869,-1.77231,-75.9451,-42.7744,7.31707
428.085,35.3338,-4.99019,0,0.368833,7.77184,-1.3939,23.7805,29.8171,14.5427,-8.9909,-0.407153,-1.91602,-66.4939,-43.3841,1.46341
428.095,25.583,-5.24626,0,-0.134121,7.38624,-1.28134,15.9451,8.20122,-0.487805,-8.99809,-0.249082,-1.85854,-55.5793,-43.1707,-2.2561
428.105,24.7724,-5.46743,0,-0.943638,6.96232,-1.06818,8.14024,-16.9512,-14.7561,-9.0412,-0.170046,-1.76752,-45.9146,-46.5244,-4.42073
428.115,23.7887,-5.71141,0,-1.27176,6.50008,-1.11129,0.853659,-48.5061,-27.2256,-9.05078,-0.0790356,-1.89925,-38.9024,-45,-7.77439
428.125,22.7204,-5.97431,0,-1.26697,6.29172,-1.15679,-6.03659,-76.7683,-37.2256,-8.97893,0.0670605,-1.99745,-33.5061,-38.6585,-11.6159
428.135,21.6423,-6.29104,0,-0.589175,6.67731,-1.55676,-1.95122,-109.848,-53.3537,-8.82325,0.201182,-2.22018,-29.939,-30.6098,-15
428.145,20.6094,-6.64351,0,0.938848,7.82692,-1.99984,-4.20732,-125.488,-75.1829,-8.66758,0.445474,-2.36867,-31.311,-18.75,-16.2195
428.155,19.6564,-6.98886,0,3.0273,8.73224,-1.86812,-21.0366,-122.53,-94.2073,-8.68434,0.59157,-2.39502,-38.4451,-10.9756,-18.2012
428.165,18.8008,-7.23418,0,4.72777,8.58854,-1.27415,-39.2988,-112.073,-106.037,-8.93342,0.699346,-2.10043,-41.8598,-9.78659,-21.8293
428.175,18.0624,-7.35556,0,5.69296,8.10235,-0.871787,-53.5366,-106.006,-108.598,-9.22083,0.883762,-1.69088,-49.6341,-18.5671,-24.6951
428.185,17.5194,-7.47368,0,7.31199,7.68083,-1.33403,-58.7195,-105.244,-107.5,-9.34776,1.08734,-1.72441,-52.2256,-22.9878,-27.4085
428.195,17.1312,-7.61264,0,9.11065,7.41498,-2.77104,-58.5671,-99.1768,-107.652,-9.46272,1.36756,-1.85375,-57.8963,-20.4268,-28.1402
428.205,16.865,-7.76964,0,10.3249,7.09405,-4.39007,-53.0183,-80.8841,-105.488,-9.60642,1.48491,-1.97589,-62.9573,-9.29878,-27.7134
428.215,16.6981,-7.94236,0,10.4064,6.59349,-5.44148,-40.1829,-60.6098,-100.244,-9.84114,1.37235,-2.10043,-68.3232,4.60366,-28.872
428.225,16.5966,-8.07183,0,10.3537,6.74917,-6.13604,-27.2256,-38.4146,-92.4085,-10.1285,1.07297,-1.99505,-71.9817,13.9024,-31.8902
428.235,16.5603,-8.18997,0,10.8423,7.52515,-6.49529,-17.2866,-11.0671,-82.561,-10.404,0.534089,-2.01182,-75.1219,22.4085,-41.128
428.245,16.6329,-8.32413,0,11.2374,8.1742,-6.02587,-11.4634,19.3293,-68.9329,-10.562,0.0167651,-2.13396,-71.0366,31.4024,-51.5854
428.255,16.8432,-8.50793,0,10.3656,7.99697,-4.75411,-1.61585,27.561,-51.4329,-10.6746,-0.364043,-2.41657,-64.3902,42.378,-58.0793
428.265,17.2169,-8.74953,0,9.06275,7.38864,-4.54096,11.6768,18.9634,-31.189,-10.8279,-0.845442,-2.76385,-53.7195,58.5366,-62.9268
428.275,17.6692,-9.01391,0,7.94907,6.99346,-4.31582,16.311,17.6829,-18.0183,-10.8566,-1.11608,-2.92432,-48.2927,70.8232,-64.3293
428.285,18.0391,-9.27413,0,6.53122,7.49162,-3.55181,18.3232,24.1159,-10.0305,-10.6962,-0.912502,-2.90755,-48.1098,76.311,-62.7439
428.295,18.2365,-9.48743,0,5.23551,8.46879,-3.36979,18.75,32.9878,-7.80488,-10.6722,-0.459844,-2.71116,-54.0244,82.1646,-59.2378
428.305,18.2531,-9.52705,0,5.0008,10.4255,-2.02619,16.7988,39.878,-13.3841,-10.9548,-0.0119751,-1.95434,-69.1463,75.3049,-60.7622
428.315,18.03,-9.50481,0,4.97206,11.9583,-1.56634,12.8354,45.6707,-31.5854,-11.6111,0.308958,-1.76034,-87.439,69.6037,-67.3171
428.325,17.4954,-9.39611,0,3.8967,12.8948,-1.95913,1.89024,33.9634,-52.0732,-12.5164,0.65863,-1.40827,-105.213,68.75,-77.8049
428.335,16.7602,-9.22913,0,4.09788,14.5976,-1.64777,-19.1463,20.0305,-71.311,-13.3043,0.989143,-1.12566,-116.159,69.3598,-85.7622
428.345,16.0343,-8.90838,0,5.88696,16.1544,-0.304167,-43.4756,15.6402,-80.7317,-14.1881,1.02028,-0.208367,-121.22,58.1707,-90.7317
428.355,15.5372,-8.50604,0,7.55389,16.2885,-0.141306,-57.0427,21.7378,-68.7805,-14.7078,0.711321,0.366438,-122.774,35.4573,-90.2439
428.365,15.2973,-8.13318,0,6.79228,13.8911,-0.723296,-52.622,12.622,-45.9451,-14.7964,-0.359253,0.258662,-119.634,18.5976,-82.7439
428.375,15.2091,-7.9809,0,6.06658,11.7212,-1.11608,-30.122,3.5061,-33.628,-13.7187,-1.9711,-0.981958,-121.22,39.1159,-70.5183
428.385,14.7761,-7.6514,0,2.14354,8.88552,-0.0646655,-4.87805,2.56098,-40.8232,-12.5451,-2.00224,0.100591,-124.299,24.1463,-47.1037
428.395,13.7444,-7.16684,0,-1.43222,7.61616,-0.696951,9.35976,22.9268,-53.3841,-10.9812,-1.51126,0.866997,-122.652,-14.2988,-20
428.405,12.3274,-6.56699,0,-3.01533,7.25451,-0.914897,12.378,28.2622,-70.4878,-9.20406,-1.21906,1.25978,-123.598,-37.8049,10.9146
428.415,10.8833,-5.829,0,-2.52914,7.48923,-1.42264,10.1524,29.7256,-84.1159,-8.11193,-0.651445,1.69567,-135.305,-52.9573,32.8659
428.425,9.5527,-5.10235,0,-1.43222,7.5515,-1.80584,0.426829,35.6402,-91.6463,-7.31918,-0.471819,1.5855,-145.854,-60.2439,43.628
428.435,8.38029,-4.58705,0,-0.332908,7.35271,-1.95673,-9.78659,46.5244,-94.8476,-6.96951,-0.0431104,0.931663,-153.415,-59.878,45.1829
428.445,7.25242,-4.31255,0,-0.373623,7.65927,-1.59748,-15.9146,49.8171,-92.2866,-7.03896,0.910107,0.249082,-157.683,-64.2378,47.2866
428.455,6.25715,-4.03134,0,-0.225132,8.32988,-1.18553,-23.4146,41.7378,-83.5976,-7.66646,-0.0694556,0.332908,-138.476,-61.0976,39.2988
428.465,5.3909,-3.95642,0,-0.330513,9.0867,-0.687371,-26.6768,22.7744,-71.3719,-8.64123,-0.598755,-0.361648,-116.372,-51.9512,23.8415
428.475,4.69929,-3.93974,0,-0.325723,9.46512,-0.917292,-24.2988,-0.548781,-55.5488,-9.75731,-1.4418,-0.641865,-100.945,-46.1585,1.43293
428.485,4.16378,-4.00905,0,-0.114961,9.04599,-1.58311,-19.6341,-14.7866,-43.5671,-10.5405,-2.27048,-1.08494,-80.7622,-37.7439,-24.0549
428.495,3.71799,-4.11524,0,0.251477,8.63405,-2.72553,-13.0793,-13.811,-40.3963,-10.8327,-2.93629,-1.3005,-59.7561,-31.3415,-43.628
428.505,3.29697,-4.25307,0,0.701741,8.66997,-3.49912,-7.83537,-7.68293,-44.8171,-10.4686,-3.15424,-1.42025,-37.8354,-26.311,-54.4512
428.515,2.81675,-4.38249,0,0.819097,9.01725,-3.68594,-6.03659,-3.84146,-52.8659,-9.7118,-3.29555,-1.30768,-18.2622,-29.7866,-60.5488
428.525,2.30162,-4.4866,0,1.03704,9.18011,-3.30273,-6.21951,-2.9878,-59.9695,-8.86636,-3.27399,-1.11608,-3.68902,-32.9268,-59.2073
428.535,1.77024,-4.57634,0,1.04662,9.19687,-2.59381,-8.14024,-6.21951,-62.7744,-8.34425,-2.692,-1.0107,13.7805,-31.0366,-57.5
428.545,1.26029,-4.62186,0,0.929268,9.331,-1.82021,-12.5915,-11.311,-60.0305,-8.11433,-2.27287,-0.838257,17.8354,-34.7866,-55.7622
428.555,0.823767,-4.64874,0,0.950823,9.50583,-1.02746,-16.9817,-16.8293,-53.628,-8.10475,-2.213,-0.780776,19.2988,-40.8232,-47.7744
