time,angle1,angle2,intgangle,accX1,accY1,accZ1,gyroX1,gyroY1,gyroZ1,accX2,accY2,accZ2,gyroX2,gyroY2,gyroZ2
633.379,88.9344,-0.906764,0,9.61121,0.0383203,-1.58071,-0.0914634,-0.182927,-1.76829,-9.92257,-0.529299,-0.186812,-14.4512,-3.04878,6.15854
633.389,88.9364,-0.904624,0,9.62558,0.0766406,-1.56395,-0.365854,-0.0304878,-1.58537,-9.9082,-0.519719,-0.150886,-15.7622,-3.35366,5.21341
633.399,88.937,-0.917185,0,9.65911,0.0766406,-1.5855,-0.243902,0.121951,-1.67683,-9.91299,-0.481399,-0.208367,-15.8537,-2.77439,5.21341
633.409,88.9357,-0.915641,0,9.60642,0.0886157,-1.59508,0,0.152439,-1.67683,-9.92257,-0.519719,-0.155676,-15.7622,-3.90244,4.39024
633.419,88.9379,-0.914913,0,9.65432,0.0694556,-1.59269,-0.0609756,-0.0304878,-1.64634,-9.92257,-0.493374,-0.158071,-14.2378,-2.7439,5.79268
633.429,88.9398,-0.901348,0,9.65672,0.0479004,-1.57832,-0.121951,-0.0914634,-1.89024,-9.95849,-0.56283,-0.107776,-15.7317,-2.71341,5.73171
633.439,88.9384,-0.906957,0,9.64953,0.0934058,-1.57832,-0.0304878,0.213415,-1.61585,-9.93215,-0.490979,-0.182021,-16.6159,-3.23171,4.87805
633.449,88.9333,-0.906362,0,9.65432,0.0910107,-1.56874,0.0304878,0.27439,-1.92073,-9.91299,-0.522114,-0.158071,-16.4329,-4.29878,4.63415
633.459,88.9346,-0.911635,0,9.63516,0.0622705,-1.51605,0.0609756,0.182927,-1.79878,-9.9082,-0.498164,-0.182021,-15.5183,-3.71951,5.57927
633.469,88.9297,-0.916903,0,9.63277,0.0742456,-1.54718,0.0609756,0.0914634,-2.10366,-9.87467,-0.510139,-0.184417,-16.4024,-5.33537,4.93902
633.479,88.925,-0.92667,0,9.63756,0.0742456,-1.55437,-0.0304878,0,-2.10366,-9.9058,-0.548459,-0.203577,-15.3354,-4.14634,4.96951
633.489,88.9217,-0.930584,0,9.65911,0.0814307,-1.59987,0.152439,-0.121951,-1.92073,-9.96089,-0.593965,-0.182021,-16.7378,-4.63415,5.51829
633.499,88.9207,-0.929278,0,9.6639,0.0910107,-1.59748,0,-0.396341,-1.64634,-9.94652,-0.60594,-0.160466,-15.5488,-5.33537,5.54878
633.509,88.9217,-0.925316,0,9.6639,0.0622705,-1.60466,0,-0.0304878,-1.82927,-9.96328,-0.570015,-0.148491,-16.189,-4.66463,5
633.519,88.9219,-0.927083,0,9.67109,0.0862207,-1.55916,-0.121951,-0.0914634,-1.61585,-9.92257,-0.510139,-0.172441,-15.122,-5.27439,6.37195
633.529,88.9264,-0.929076,0,9.6663,0.0718506,-1.52802,-0.365854,0.152439,-1.4939,-9.92257,-0.493374,-0.172441,-15.8537,-3.9939,5.30488
633.539,88.9354,-0.933563,0,9.63516,0.0670605,-1.5376,-0.304878,0.304878,-1.28049,-9.93454,-0.493374,-0.182021,-15.3659,-3.10976,4.78659
633.549,88.9415,-0.940527,0,9.63516,0.0646655,-1.54239,-0.213415,0.0914634,-1.46341,-9.92017,-0.514929,-0.191602,-15.0305,-2.80488,5.09146
633.559,88.942,-0.94382,0,9.64474,0.0790356,-1.56634,-0.152439,0.121951,-1.64634,-9.93454,-0.548459,-0.179626,-15.5793,-3.38415,4.93902
633.569,88.9487,-0.945627,0,9.63037,0.0766406,-1.55197,-0.487805,0.335366,-1.28049,-9.9082,-0.536484,-0.174836,-15.0305,-4.5122,3.81098
633.579,88.9511,-0.969289,0,9.64953,0.0550855,-1.55916,-0.304878,0.243902,-1.76829,-9.88425,-0.522114,-0.265847,-14.5732,-3.87195,4.20732
633.589,88.9521,-0.971604,0,9.64235,0.0718506,-1.58311,-0.426829,0.27439,-1.67683,-9.88664,-0.538879,-0.179626,-14.6037,-3.35366,4.93902
633.599,88.9485,-0.962888,0,9.60882,0.0790356,-1.57353,0.0609756,-0.0304878,-1.92073,-9.86988,-0.502954,-0.134121,-15.2744,-3.96341,4.84756
633.609,88.946,-0.967138,0,9.62079,0.0862207,-1.55676,0.0304878,-0.213415,-1.76829,-9.86748,-0.490979,-0.186812,-15.7622,-3.78049,4.96951
633.619,88.9404,-0.967645,0,9.63037,0.102986,-1.55437,0.213415,-0.243902,-1.79878,-9.9058,-0.493374,-0.172441,-14.4817,-3.62805,4.81707
633.629,88.9397,-0.970227,0,9.62079,0.0766406,-1.50407,-0.243902,-0.0609756,-1.76829,-9.88904,-0.464634,-0.179626,-15.6098,-2.83537,4.7561
633.639,88.9373,-0.967128,0,9.62798,0.0814307,-1.53042,-0.182927,-0.213415,-1.82927,-9.91778,-0.500559,-0.158071,-16.0061,-3.41463,3.10976
633.649,88.9351,-0.964847,0,9.64474,0.0934058,-1.56155,0,-0.121951,-1.67683,-9.89383,-0.483794,-0.160466,-16.1585,-3.10976,4.29878
633.659,88.937,-0.948999,0,9.67109,0.0766406,-1.56634,0,-0.335366,-1.58537,-9.91059,-0.524509,-0.105381,-17.2561,-3.10976,3.71951
633.669,88.9346,-0.948911,0,9.6663,0.0814307,-1.53042,-0.0304878,-0.426829,-1.82927,-9.91059,-0.507744,-0.167651,-15,-4.5122,3.96341
633.679,88.9297,-0.944367,0,9.68067,0.124541,-1.54958,0.152439,-0.457317,-1.4939,-9.91299,-0.476609,-0.148491,-14.6341,-3.01829,3.75
633.689,88.9335,-0.948253,0,9.62319,0.0838257,-1.54958,0,-0.27439,-1.40244,-9.94652,-0.541274,-0.182021,-16.0061,-2.89634,4.69512
633.699,88.9357,-0.946006,0,9.64235,0.0886157,-1.5855,-0.0914634,-0.0609756,-1.43293,-9.91299,-0.555645,-0.158071,-15.8841,-4.14634,4.39024
633.709,88.9353,-0.946144,0,9.64714,0.0934058,-1.51365,0,-0.518293,-1.55488,-9.91538,-0.534089,-0.167651,-15.8232,-3.90244,4.26829
633.719,88.9395,-0.949065,0,9.63037,0.0958008,-1.59987,-0.0609756,-0.518293,-1.21951,-9.88904,-0.510139,-0.179626,-14.4512,-4.48171,3.75
633.729,88.9498,-0.947996,0,9.64235,0.0455054,-1.59508,0,-0.579268,-1.40244,-9.91059,-0.495769,-0.162861,-14.9085,-3.68902,5.57927
633.739,88.961,-0.947069,0,9.64714,0.0263452,-1.56155,-0.0609756,-0.152439,-1.52439,-9.88664,-0.538879,-0.162861,-15.4573,-3.65854,5.03049
633.749,88.965,-0.950992,0,9.63756,0.0598755,-1.61185,0,-0.304878,-1.58537,-9.91538,-0.548459,-0.184417,-15.7927,-4.35976,4.90854
633.759,88.9662,-0.954577,0,9.64235,0.0766406,-1.55676,-0.365854,-0.487805,-1.58537,-9.92496,-0.536484,-0.184417,-17.3476,-4.87805,4.66463
633.769,88.9634,-0.953138,0,9.64474,0.0766406,-1.54239,-0.152439,-0.518293,-1.85976,-9.89862,-0.534089,-0.162861,-15.2439,-4.81707,4.48171
633.779,88.9679,-0.95918,0,9.65672,0.0646655,-1.6358,0,-0.0609756,-1.4939,-9.88904,-0.546064,-0.193997,-14.7256,-4.35976,4.42073
633.789,88.9726,-0.953165,0,9.65193,0.0742456,-1.58071,0.0304878,-0.27439,-1.37195,-9.89622,-0.55804,-0.143701,-15.0305,-4.08537,3.90244
633.799,88.9749,-0.95856,0,9.63516,0.0790356,-1.62861,0.152439,-0.243902,-1.46341,-9.89383,-0.55325,-0.189207,-14.8171,-3.17073,4.39024
633.809,88.9762,-0.966923,0,9.64235,0.0766406,-1.59508,-0.152439,-0.0609756,-1.55488,-9.88904,-0.519719,-0.203577,-15.3049,-3.71951,4.39024
633.819,88.983,-0.959451,0,9.62079,0.0598755,-1.52802,-0.213415,-0.243902,-1.40244,-9.88425,-0.534089,-0.138911,-14.9695,-3.53659,4.42073
633.829,88.9861,-0.966327,0,9.61361,0.0431104,-1.55437,0.121951,-0.121951,-1.79878,-9.9058,-0.534089,-0.193997,-15.2744,-2.43902,5.42683
633.839,88.9896,-0.962757,0,9.65432,0.0670605,-1.60945,0.0304878,0.121951,-1.4939,-9.88425,-0.543669,-0.155676,-14.7866,-2.16463,4.93902
633.849,88.9894,-0.953855,0,9.64953,0.0670605,-1.55916,-0.0914634,0.0609756,-1.7378,-9.87706,-0.531694,-0.136516,-15.1524,-2.0122,5.70122
633.859,88.9867,-0.957414,0,9.65672,0.0718506,-1.52323,-0.213415,0.182927,-1.85976,-9.88185,-0.512534,-0.182021,-16.1585,-3.38415,5.45732
633.869,88.9848,-0.965011,0,9.64714,0.0670605,-1.62622,0.0609756,-0.121951,-1.85976,-9.87946,-0.55325,-0.193997,-15.4878,-2.10366,4.54268
633.879,88.989,-0.970047,0,9.62558,0.0359253,-1.57832,0.0304878,0.243902,-1.79878,-9.87467,-0.541274,-0.184417,-15.6707,-1.7378,5.45732
633.889,88.993,-0.971249,0,9.64474,0.0383203,-1.59029,0.0914634,0.335366,-1.76829,-9.93694,-0.543669,-0.174836,-15,-2.37805,5.39634
633.899,88.986,-0.98309,0,9.66151,0.0934058,-1.55916,-0.243902,0.0304878,-1.92073,-9.91059,-0.512534,-0.213157,-15.4268,-2.19512,5.18293
633.909,88.9882,-0.977552,0,9.64714,0.0502954,-1.57832,0.304878,0.121951,-1.76829,-9.92975,-0.541274,-0.150886,-13.9939,-2.77439,5.67073
633.919,88.9895,-0.985169,0,9.65193,0.0550855,-1.59269,0.243902,0.243902,-1.76829,-9.94412,-0.500559,-0.198787,-15.0305,-2.04268,4.84756
633.929,88.9837,-0.977527,0,9.64474,0.0838257,-1.58311,0.0914634,0.213415,-1.95122,-9.94652,-0.507744,-0.143701,-14.7256,-2.53049,3.59756
633.939,88.9809,-0.97307,0,9.64235,0.0766406,-1.58071,0,0.243902,-1.82927,-9.88185,-0.55804,-0.153281,-15.8841,-3.14024,3.41463
633.949,88.9717,-0.971664,0,9.62079,0.117356,-1.53521,0.152439,0.27439,-1.82927,-9.92017,-0.510139,-0.165256,-14.7256,-2.5,4.5122
633.959,88.9688,-0.98243,0,9.65911,0.0838257,-1.60466,0.0914634,0.27439,-1.76829,-9.92496,-0.548459,-0.210762,-15.5183,-2.34756,4.93902
633.969,88.9706,-0.987354,0,9.64714,0.0694556,-1.56874,-0.27439,0.27439,-1.61585,-9.90341,-0.55325,-0.186812,-16.0061,-1.55488,5.06098
633.979,88.9678,-0.985958,0,9.6184,0.0790356,-1.54479,0.213415,0.243902,-1.82927,-9.91538,-0.555645,-0.167651,-14.9085,-2.10366,4.90854
633.989,88.9769,-0.976902,0,9.6184,0.0359253,-1.59987,0.0304878,0.182927,-1.52439,-9.90341,-0.524509,-0.136516,-15.3659,-3.07927,6.06707
633.999,88.9804,-0.958343,0,9.63037,0.0694556,-1.56634,0.213415,0.213415,-1.4939,-9.93694,-0.486189,-0.100591,-15.6707,-2.46951,5.54878
634.009,88.9802,-0.959022,0,9.64474,0.0742456,-1.54479,0.0304878,-0.0914634,-1.67683,-9.94652,-0.502954,-0.172441,-15.0915,-3.71951,5.36585
634.019,88.9827,-0.96927,0,9.62558,0.0694556,-1.51365,0.27439,-0.0609756,-1.55488,-9.92496,-0.500559,-0.208367,-15.5488,-2.65244,5
634.029,88.9792,-0.980254,0,9.65911,0.0934058,-1.52323,0.304878,-0.0914634,-1.67683,-9.93454,-0.526904,-0.215552,-15.9146,-3.14024,3.81098
634.039,88.9734,-0.978504,0,9.68306,0.100591,-1.58071,-0.0304878,0,-1.76829,-9.91299,-0.531694,-0.165256,-15.7622,-3.29268,4.96951
634.049,88.9702,-0.978476,0,9.65193,0.0981958,-1.54479,0.335366,0,-1.61585,-9.91059,-0.541274,-0.172441,-14.3902,-3.84146,4.63415
634.059,88.9743,-0.9664,0,9.64714,0.0694556,-1.5879,0.243902,-0.27439,-1.46341,-9.90341,-0.543669,-0.124541,-14.9695,-2.65244,5.30488
634.069,88.9827,-0.962305,0,9.64714,0.0502954,-1.56155,0.27439,0,-1.40244,-9.91538,-0.498164,-0.153281,-14.6951,-3.75,4.66463
634.079,88.9827,-0.977777,0,9.62558,0.0646655,-1.54718,0.182927,-0.182927,-1.76829,-9.9058,-0.519719,-0.232317,-15.8841,-3.23171,5.45732
634.089,88.9861,-0.969785,0,9.60642,0.0670605,-1.55676,0.121951,-0.396341,-1.52439,-9.87946,-0.526904,-0.143701,-15.7317,-1.7378,4.45122
634.099,88.9895,-0.963461,0,9.63995,0.0622705,-1.59269,0.0304878,-0.182927,-1.55488,-9.91538,-0.534089,-0.146096,-15.4878,-2.37805,5.15244
634.109,88.9884,-0.986796,0,9.63995,0.0646655,-1.5376,0.0609756,0.0304878,-1.82927,-9.91538,-0.550855,-0.268242,-15.1524,-3.81098,4.42073
634.119,88.9917,-1.00308,0,9.64714,0.0622705,-1.61664,0,-0.182927,-1.55488,-9.93454,-0.517324,-0.239502,-16.9817,-3.01829,4.5122
634.129,88.9972,-1.03054,0,9.62558,0.0694556,-1.58311,-0.0609756,-0.27439,-1.34146,-9.92257,-0.548459,-0.280217,-15.3049,-2.43902,5.15244
634.139,88.9933,-1.01981,0,9.63995,0.0910107,-1.65256,0.0304878,0.0304878,-1.70732,-9.92257,-0.593965,-0.138911,-14.3293,-2.65244,5.4878
634.149,88.9939,-1.03051,0,9.62558,0.0670605,-1.59508,0.0609756,-0.0914634,-1.67683,-9.91299,-0.56762,-0.222737,-14.0854,-3.17073,5.51829
634.159,88.9973,-1.03944,0,9.65911,0.0718506,-1.53521,0.213415,-0.213415,-1.43293,-9.93215,-0.543669,-0.205972,-12.8354,-1.25,6.0061
634.169,88.9956,-1.03801,0,9.68067,0.0718506,-1.5376,0.121951,0.0609756,-1.76829,-9.93694,-0.531694,-0.177231,-13.9634,-1.09756,6.18902
634.179,89.0005,-1.02651,0,9.64953,0.0431104,-1.59269,-0.152439,-0.0304878,-1.64634,-9.91778,-0.514929,-0.136516,-15.4878,-2.83537,5.15244
634.189,89.0066,-1.02974,0,9.62319,0.0215552,-1.54718,-0.121951,0,-1.79878,-9.92975,-0.529299,-0.193997,-15.5488,-3.2622,4.32927
634.199,89.01,-1.02754,0,9.616,0.0622705,-1.57832,-0.0609756,0.213415,-1.52439,-9.92975,-0.507744,-0.172441,-15.8232,-3.75,4.93902
634.209,89.0082,-1.0371,0,9.63037,0.0742456,-1.57113,-0.0304878,-0.0304878,-1.7378,-9.90101,-0.474214,-0.220342,-15.4268,-3.56707,5.42683
634.219,89.0088,-1.04498,0,9.616,0.0407153,-1.49928,0.152439,0,-1.95122,-9.89383,-0.505349,-0.215552,-15.1524,-3.87195,5.06098
634.229,89.0049,-1.05605,0,9.62798,0.0790356,-1.54239,0.396341,-0.243902,-1.82927,-9.92975,-0.55804,-0.232317,-14.5122,-4.35976,3.9939
634.24,89.0038,-1.06479,0,9.64714,0.0622705,-1.56155,0.0609756,-0.0304878,-1.82927,-9.93694,-0.579595,-0.222737,-14.939,-3.56707,5.7622
634.249,88.9988,-1.07308,0,9.65911,0.0838257,-1.6334,-0.0914634,-0.0304878,-1.85976,-9.9561,-0.593965,-0.222737,-15.4268,-3.5061,5.36585
634.259,89.0012,-1.05345,0,9.64714,0.0550855,-1.61903,-0.0609756,-0.0609756,-1.67683,-9.93694,-0.543669,-0.107776,-15.2439,-3.38415,4.96951
634.269,89.0036,-1.04669,0,9.64235,0.0598755,-1.59269,0.0304878,0.152439,-1.61585,-9.96568,-0.550855,-0.158071,-15.3963,-4.7561,5.64024
634.279,89.0111,-1.04475,0,9.6639,0.0431104,-1.64298,-0.152439,-0.0914634,-1.46341,-9.93694,-0.517324,-0.177231,-15.1829,-4.72561,6.34146
634.289,89.0146,-1.06339,0,9.66151,0.0431104,-1.55916,-0.304878,0.152439,-1.70732,-9.94891,-0.493374,-0.258662,-15.3049,-2.89634,5.2439
634.299,89.0206,-1.07736,0,9.64714,0.0431104,-1.52802,-0.213415,0.457317,-1.55488,-9.93454,-0.550855,-0.239502,-13.75,-2.40854,4.45122
634.309,89.0247,-1.09221,0,9.63037,0.0239502,-1.54718,-0.335366,0.243902,-1.85976,-9.92257,-0.565225,-0.251477,-14.8171,-3.53659,4.87805
634.319,89.0237,-1.08637,0,9.64953,0.0550855,-1.58071,-0.396341,0.152439,-1.85976,-9.90341,-0.550855,-0.167651,-14.939,-4.45122,3.32317
634.329,89.0202,-1.086,0,9.6184,0.0694556,-1.56155,-0.27439,0.0914634,-1.89024,-9.9058,-0.541274,-0.189207,-15.1829,-3.35366,5.42683
634.339,89.0148,-1.09506,0,9.62079,0.0742456,-1.60227,-0.152439,0.152439,-1.98171,-9.88664,-0.529299,-0.227527,-15.4573,-3.38415,5.94512
634.349,89.0113,-1.08393,0,9.63756,0.0622705,-1.58311,0.0304878,0.335366,-1.98171,-9.87227,-0.529299,-0.146096,-14.6646,-3.32317,5.64024
634.359,89.0107,-1.0822,0,9.63516,0.0215552,-1.55197,0.0914634,-0.0914634,-2.22561,-9.83156,-0.517324,-0.182021,-13.811,-3.78049,4.2378
634.369,89.0053,-1.08199,0,9.63756,0.0838257,-1.5376,0,0.365854,-1.89024,-9.86509,-0.514929,-0.189207,-14.878,-4.39024,5.21341
634.379,88.9969,-1.07539,0,9.64474,0.0886157,-1.56395,-0.121951,-0.152439,-2.07317,-9.91059,-0.507744,-0.162861,-15,-3.38415,4.7561
634.389,88.9881,-1.08016,0,9.616,0.102986,-1.54,0.0914634,0.396341,-1.95122,-9.9082,-0.536484,-0.208367,-14.7866,-3.29268,5.45732
634.399,88.986,-1.07477,0,9.63037,0.0790356,-1.4921,-0.0914634,0,-1.7378,-9.9082,-0.522114,-0.167651,-14.939,-3.07927,4.90854
634.409,88.9822,-1.0743,0,9.60642,0.0958008,-1.53281,-0.182927,0,-1.67683,-9.92257,-0.526904,-0.186812,-15.2744,-2.95732,5.03049
634.419,88.9809,-1.08164,0,9.66869,0.0694556,-1.59269,0.182927,-0.152439,-1.79878,-9.94173,-0.538879,-0.220342,-15.3963,-3.62805,4.45122
634.429,88.9787,-1.08075,0,9.66151,0.0910107,-1.51844,0.121951,-0.0914634,-1.61585,-9.93215,-0.531694,-0.186812,-13.4756,-3.47561,5.97561
634.439,88.9792,-1.08432,0,9.61121,0.0622705,-1.60466,0.182927,0,-1.76829,-9.98005,-0.546064,-0.205972,-15.8841,-3.32317,5.21341
634.449,88.9784,-1.0731,0,9.64714,0.0910107,-1.55916,0.304878,-0.304878,-1.52439,-9.92975,-0.543669,-0.143701,-14.3598,-4.05488,5.33537
634.459,88.9826,-1.07377,0,9.64474,0.0502954,-1.57353,-0.121951,-0.0914634,-1.64634,-9.92736,-0.548459,-0.191602,-13.628,-3.35366,4.66463
634.469,88.9851,-1.06669,0,9.6639,0.0622705,-1.59269,-0.0609756,-0.213415,-1.61585,-9.93454,-0.565225,-0.160466,-13.8415,-2.83537,6.25
634.479,88.9861,-1.06906,0,9.64235,0.0574805,-1.60227,-0.396341,-0.335366,-1.76829,-9.93454,-0.512534,-0.196392,-14.6646,-2.59146,5.51829
634.489,88.9824,-1.08226,0,9.6663,0.0790356,-1.59508,-0.304878,-0.335366,-1.85976,-9.92017,-0.538879,-0.241897,-15.2744,-3.23171,4.87805
634.499,88.9848,-1.07342,0,9.63037,0.0550855,-1.55197,-0.182927,-0.304878,-1.70732,-9.91538,-0.524509,-0.153281,-14.9695,-4.17683,5.12195
634.509,88.9915,-1.07601,0,9.62558,0.0383203,-1.56155,-0.152439,-0.121951,-1.61585,-9.92496,-0.531694,-0.201182,-14.9695,-4.72561,4.20732
634.519,88.9913,-1.09025,0,9.63037,0.0646655,-1.56395,0,-0.0609756,-1.76829,-9.89383,-0.541274,-0.251477,-15.0915,-5,5.03049
634.529,88.9833,-1.09015,0,9.60642,0.0934058,-1.57113,0.0914634,0.152439,-2.0122,-9.88664,-0.519719,-0.191602,-13.6585,-4.54268,5.57927
634.539,88.986,-1.08506,0,9.66151,0.0502954,-1.56395,0.182927,-0.121951,-1.7378,-9.87706,-0.550855,-0.170046,-13.811,-4.48171,5.67073
634.549,88.9876,-1.08373,0,9.65672,0.0479004,-1.57353,0.0914634,0.0304878,-1.82927,-9.87467,-0.524509,-0.184417,-13.628,-3.29268,4.48171
634.56,88.9886,-1.09223,0,9.67109,0.0646655,-1.5879,0.0304878,0.152439,-1.67683,-9.87706,-0.536484,-0.222737,-14.4207,-2.83537,4.7561
634.57,88.9919,-1.09332,0,9.67588,0.0502954,-1.56874,0.0914634,-0.152439,-1.67683,-9.88425,-0.56762,-0.196392,-14.5122,-3.96341,4.96951
634.579,88.9934,-1.09285,0,9.64474,0.0335303,-1.58311,-0.0609756,0,-1.98171,-9.9058,-0.517324,-0.191602,-14.4817,-5.36585,5.57927
634.589,88.9978,-1.09213,0,9.62558,0.0335303,-1.51844,-0.243902,0.304878,-1.79878,-9.9082,-0.526904,-0.189207,-14.2073,-3.75,6.0061
634.599,88.9963,-1.09026,0,9.63756,0.0790356,-1.56395,0,0.0304878,-1.67683,-9.91778,-0.534089,-0.184417,-14.5732,-3.68902,5.70122
634.609,88.9889,-1.0905,0,9.6184,0.0934058,-1.54958,0.152439,-0.182927,-1.95122,-9.92017,-0.546064,-0.193997,-15.3354,-4.87805,6.18902
634.62,88.987,-1.10096,0,9.6184,0.0622705,-1.57832,-0.0914634,0.335366,-1.92073,-9.90101,-0.57241,-0.237107,-14.5427,-4.5122,5.70122
634.629,88.9822,-1.10017,0,9.62079,0.0814307,-1.57592,-0.0304878,-0.0304878,-1.92073,-9.92257,-0.541274,-0.191602,-12.6829,-5.03049,5.21341
634.639,88.9769,-1.10171,0,9.63037,0.0718506,-1.53042,0.0304878,0.152439,-2.07317,-9.92017,-0.548459,-0.201182,-12.9573,-4.72561,5.60976
634.649,88.9755,-1.09945,0,9.6639,0.0766406,-1.55916,0.0609756,-0.0609756,-1.7378,-9.91299,-0.584385,-0.184417,-13.5061,-3.84146,5.94512
634.659,88.9813,-1.0921,0,9.68067,0.0431104,-1.61185,-0.121951,0.0304878,-1.61585,-9.92496,-0.541274,-0.162861,-13.4756,-4.81707,5.42683
634.669,88.9843,-1.09786,0,9.67348,0.0646655,-1.60706,-0.213415,-0.152439,-1.55488,-9.93694,-0.510139,-0.217947,-13.689,-4.42073,4.35976
634.679,88.9876,-1.09808,0,9.6639,0.0335303,-1.60945,-0.121951,-0.152439,-1.85976,-9.96807,-0.514929,-0.196392,-14.6341,-5.09146,5.18293
634.689,88.9853,-1.09519,0,9.65672,0.0981958,-1.55197,-0.182927,0.0304878,-1.52439,-9.9082,-0.531694,-0.182021,-14.2683,-5.39634,5.79268
634.699,88.9862,-1.10329,0,9.62798,0.0670605,-1.57832,-0.152439,-0.0914634,-1.67683,-9.92017,-0.55804,-0.229922,-13.628,-5.88415,4.60366
634.709,88.9875,-1.09887,0,9.62558,0.0694556,-1.58071,0.27439,-0.0304878,-1.61585,-9.91299,-0.541274,-0.177231,-12.561,-6.4939,5.45732
634.719,88.9808,-1.07703,0,9.59205,0.102986,-1.54239,-0.0914634,-0.27439,-1.79878,-9.91538,-0.519719,-0.100591,-13.5366,-6.58537,6.98171
634.729,88.9783,-1.05879,0,9.64474,0.0646655,-1.56155,0.152439,0,-1.95122,-9.92257,-0.548459,-0.112566,-13.2927,-6.52439,5
634.739,88.9824,-1.05523,0,9.63277,0.0574805,-1.54,0.182927,-0.426829,-1.58537,-9.90101,-0.536484,-0.172441,-12.2256,-5.7622,5.88415
634.749,88.9812,-1.05764,0,9.67109,0.0790356,-1.56874,-0.182927,-0.121951,-1.67683,-9.92257,-0.546064,-0.198787,-13.2012,-6.43293,5.21341
634.759,88.9824,-1.0536,0,9.65193,0.0311353,-1.61903,-0.182927,-0.0914634,-2.04268,-9.9058,-0.517324,-0.170046,-13.5976,-5.45732,5.42683
634.769,88.9842,-1.05053,0,9.67109,0.0718506,-1.60227,-0.213415,-0.213415,-1.55488,-9.93215,-0.55325,-0.174836,-12.8963,-6.4939,6.12805
634.779,88.9835,-1.05772,0,9.63277,0.0766406,-1.51365,-0.182927,0.152439,-1.67683,-9.91778,-0.546064,-0.217947,-13.7805,-5.67073,6.03659
634.789,88.9853,-1.06387,0,9.64474,0.0502954,-1.55197,-0.213415,-0.121951,-1.79878,-9.92496,-0.541274,-0.215552,-14.6646,-6.34146,6.18902
634.799,88.9861,-1.05754,0,9.64235,0.0622705,-1.54718,-0.0609756,0,-1.7378,-9.89383,-0.531694,-0.162861,-13.4451,-7.86585,5.70122
634.809,88.9829,-1.05018,0,9.66151,0.0958008,-1.58071,0.27439,0.121951,-1.61585,-9.9082,-0.536484,-0.155676,-13.9024,-5.4878,6.09756
634.819,88.9837,-1.05111,0,9.67827,0.0694556,-1.55197,0.213415,-0.243902,-1.64634,-9.93694,-0.534089,-0.191602,-13.2012,-6.28049,6.4939
634.829,88.9773,-1.05858,0,9.66869,0.0814307,-1.57592,0.0304878,-0.0609756,-2.04268,-9.91778,-0.529299,-0.220342,-14.2683,-6.7378,4.87805
634.839,88.9769,-1.07403,0,9.65193,0.0670605,-1.63819,0.0609756,-0.0914634,-1.76829,-9.92017,-0.565225,-0.256267,-11.9817,-6.4939,5.67073
634.849,88.9769,-1.06774,0,9.6663,0.0622705,-1.58071,0.121951,-0.243902,-1.79878,-9.95849,-0.560435,-0.165256,-12.6829,-7.10366,5.33537
634.859,88.9776,-1.05098,0,9.68306,0.0598755,-1.60466,0.396341,0.27439,-1.76829,-9.94891,-0.55325,-0.119751,-12.8049,-9.11585,4.96951
634.869,88.9695,-1.02455,0,9.68067,0.0934058,-1.58311,0.518293,0.243902,-2.04268,-10.0088,-0.534089,-0.0766406,-12.2866,-11.128,5.67073
634.879,88.9648,-1.0052,0,9.65672,0.102986,-1.55676,0.548781,0.457317,-1.67683,-9.98963,-0.526904,-0.102986,-13.1707,-11.0976,5.85366
634.889,88.9697,-0.99376,0,9.64953,0.0455054,-1.55676,0.304878,0.27439,-1.67683,-9.96568,-0.469424,-0.134121,-13.4451,-11.0366,6.25
634.899,88.9692,-0.965723,0,9.65193,0.0694556,-1.59987,0.213415,0.365854,-1.76829,-9.94173,-0.495769,-0.0598755,-13.872,-11.9817,6.55488
634.909,88.971,-0.956937,0,9.68306,0.0598755,-1.59748,0.152439,0.0304878,-1.70732,-9.93694,-0.481399,-0.138911,-15.7317,-11.5244,4.32927
634.919,88.97,-0.941116,0,9.63516,0.0646655,-1.58311,0.426829,-0.243902,-1.85976,-9.91299,-0.481399,-0.107776,-15.6402,-13.2317,5
634.929,88.9703,-0.937241,0,9.6184,0.0790356,-1.54479,0.548781,0.121951,-1.61585,-9.89143,-0.476609,-0.158071,-15.7927,-14.6037,5.2439
634.939,88.9695,-0.94145,0,9.60882,0.0718506,-1.51126,0.518293,-0.121951,-1.76829,-9.92017,-0.536484,-0.193997,-16.7988,-15.5183,4.11585
634.949,88.9618,-0.968337,0,9.60642,0.122146,-1.45378,0.365854,-0.457317,-1.67683,-9.98723,-0.55325,-0.296982,-16.8598,-16.7378,5.03049
634.959,88.9532,-0.980589,0,9.65432,0.138911,-1.55197,-0.0609756,-0.213415,-1.52439,-10.0615,-0.589175,-0.239502,-17.0732,-17.3476,4.84756
634.969,88.9481,-0.970436,0,9.71659,0.122146,-1.51126,-0.304878,0.121951,-1.4939,-10.1142,-0.598755,-0.146096,-15,-20.8841,4.11585
634.979,88.9426,-0.973167,0,9.66869,0.131726,-1.52563,-0.335366,-0.121951,-1.40244,-10.1453,-0.57241,-0.203577,-14.3902,-22.2561,4.32927
634.989,88.9471,-0.95839,0,9.65193,0.0742456,-1.54,-0.243902,-0.457317,-1.43293,-10.1094,-0.560435,-0.126936,-13.7195,-24.1159,4.35976
634.999,88.9552,-0.958309,0,9.63516,0.0359253,-1.54718,-0.365854,-1.06707,-1.61585,-10.0639,-0.529299,-0.189207,-13.4146,-24.3902,4.96951
635.009,88.9634,-0.942123,0,9.68546,0.0383203,-1.59508,-0.27439,-0.823171,-1.55488,-10.0423,-0.55804,-0.117356,-12.8659,-24.2378,4.66463
635.019,88.9742,-0.928452,0,9.6639,0.0311353,-1.59508,-0.0609756,-0.27439,-1.46341,-9.98723,-0.55325,-0.126936,-12.4695,-26.5244,4.72561
635.029,88.9916,-0.94159,0,9.63756,0,-1.59508,0,-0.121951,-1.40244,-9.94652,-0.522114,-0.241897,-13.4146,-26.8598,5.03049
635.039,89.008,-0.955088,0,9.64474,-0.0215552,-1.5855,0.0914634,-0.213415,-1.61585,-9.95849,-0.490979,-0.246687,-13.3232,-27.5915,4.29878
635.049,89.0168,-0.961761,0,9.63277,-0.00958008,-1.57832,0.0914634,-0.365854,-1.92073,-9.92736,-0.498164,-0.220342,-14.9695,-29.878,4.54268
635.059,89.0173,-0.949194,0,9.60642,0.00239502,-1.51844,0.152439,-0.396341,-2.34756,-9.97286,-0.514929,-0.138911,-16.0061,-31.0366,5.30488
635.069,89.0135,-0.942617,0,9.62319,0,-1.59029,0.487805,0.0304878,-2.68293,-10.004,-0.476609,-0.165256,-15.9146,-32.9878,5.42683
635.079,89.0042,-0.935945,0,9.59924,0.0287402,-1.57592,0.640244,-0.27439,-2.83537,-10.016,-0.517324,-0.165256,-16.128,-34.5732,4.17683
635.089,88.9947,-0.921717,0,9.59684,0.00718506,-1.5879,0.518293,-0.426829,-3.10976,-10.0136,-0.514929,-0.131726,-14.939,-35.7622,4.39024
635.099,88.9777,-0.898957,0,9.60882,0.0167651,-1.54,0.97561,-0.97561,-3.68902,-10.0064,-0.490979,-0.0934058,-15.3963,-37.9573,4.87805
635.109,88.9671,-0.874658,0,9.62079,-0.00479004,-1.55916,1.43293,-1.21951,-3.38415,-10.0088,-0.488584,-0.0838257,-15.0305,-39.2988,5.06098
635.119,88.9513,-0.857263,0,9.65432,-0.00239502,-1.61185,1.64634,-1.52439,-3.84146,-10.0208,-0.502954,-0.110171,-15.0305,-39.2988,5.4878
635.129,88.9337,-0.82634,0,9.69983,0.0359253,-1.60706,1.21951,-1.76829,-3.59756,-9.99202,-0.526904,-0.0479004,-14.6341,-40.061,5.27439
635.139,88.9192,-0.808444,0,9.7142,0.0143701,-1.61185,1.12805,-1.58537,-3.59756,-9.99202,-0.55325,-0.100591,-15.122,-40.8841,4.48171
635.149,88.9021,-0.791227,0,9.69743,0.0239502,-1.69088,1.15854,-1.58537,-3.75,-9.98963,-0.548459,-0.100591,-14.9695,-41.0671,4.7561
635.159,88.8824,-0.757401,0,9.65432,0.0407153,-1.61424,0.670732,-1.43293,-3.84146,-9.9561,-0.560435,-0.0263452,-14.6951,-43.3537,4.72561
635.169,88.854,-0.718617,0,9.65432,0.0910107,-1.55676,0.365854,-0.97561,-4.11585,-9.96328,-0.534089,0,-14.6646,-44.8476,3.32317
635.179,88.8232,-0.662518,0,9.58726,0.0670605,-1.58071,-0.0609756,-0.487805,-4.69512,-9.99681,-0.570015,0.0814307,-15.0915,-46.7378,3.23171
635.189,88.7854,-0.609421,0,9.61361,0.112566,-1.58071,0.0609756,-0.609756,-4.90854,-10.0303,-0.534089,0.0766406,-16.0976,-48.5976,3.5061
635.199,88.7516,-0.562436,0,9.60882,0.0886157,-1.5376,0,-1.21951,-4.87805,-10.0519,-0.538879,0.0574805,-17.2866,-50.3963,2.7439
635.209,88.7143,-0.507339,0,9.59205,0.167651,-1.64298,0,-1.31098,-4.32927,-10.0399,-0.541274,0.100591,-17.6829,-51.4939,2.22561
635.219,88.6787,-0.452348,0,9.63037,0.167651,-1.57113,-0.579268,-2.31707,-4.2378,-10.0064,-0.565225,0.107776,-18.2317,-53.3841,2.22561
635.229,88.6494,-0.388507,0,9.63277,0.162861,-1.49689,-0.884146,-3.04878,-3.75,-9.98723,-0.574805,0.153281,-18.2317,-56.6768,2.40854
635.239,88.6277,-0.324772,0,9.58008,0.131726,-1.48012,-1.09756,-4.11585,-3.44512,-9.98723,-0.555645,0.162861,-18.2927,-57.9268,2.95732
635.249,88.6058,-0.274992,0,9.61361,0.153281,-1.52802,-1.46341,-5.12195,-3.2622,-9.99442,-0.56762,0.112566,-17.6829,-57.9878,3.2622
635.26,88.5904,-0.222959,0,9.616,0.126936,-1.47054,-1.34146,-5.97561,-3.01829,-9.96568,-0.560435,0.129331,-16.1585,-59.6951,3.07927
635.269,88.5766,-0.171807,0,9.58726,0.158071,-1.54239,-1.89024,-7.22561,-2.53049,-9.93694,-0.512534,0.134121,-16.372,-59.6951,2.77439
635.279,88.5754,-0.125617,0,9.69025,0.102986,-1.60227,-2.16463,-8.47561,-2.16463,-9.92017,-0.469424,0.119751,-16.0671,-61.2195,3.87195
635.289,88.5824,-0.0735171,0,9.67588,0.0790356,-1.61424,-2.59146,-10.2134,-1.85976,-9.93215,-0.507744,0.153281,-15.3963,-61.7988,3.62805
635.299,88.5961,-0.00149436,0,9.69504,0.0335303,-1.64538,-3.35366,-11.9207,-1.85976,-9.91538,-0.514929,0.246687,-15.9756,-64.6646,5.33537
635.309,88.5986,0.0808727,0,9.69983,0.0981958,-1.59029,-3.93293,-12.7439,-1.92073,-9.92736,-0.514929,0.304167,-13.5671,-65.3659,6.61585
635.319,88.5932,0.159225,0,9.61121,0.129331,-1.60227,-4.63415,-12.1037,-2.16463,-9.93694,-0.502954,0.299377,-15.6098,-67.439,6.46341
635.329,88.5813,0.203081,0,9.49625,0.131726,-1.48731,-4.84756,-10.7622,-2.68293,-9.8579,-0.500559,0.162861,-14.0854,-64.6951,8.84146
635.339,88.5626,0.262562,0,9.36453,0.131726,-1.55437,-4.48171,-9.57317,-3.29268,-9.86988,-0.481399,0.237107,-12.9878,-66.4634,7.86585
635.349,88.5391,0.333385,0,9.3286,0.0981958,-1.66454,-4.29878,-9.45122,-4.17683,-9.94173,-0.481399,0.296982,-11.7073,-68.689,7.92683
635.359,88.5184,0.404936,0,9.40524,0.0263452,-1.84417,-4.20732,-8.96341,-4.81707,-10.004,-0.507744,0.313748,-11.0366,-69.4817,8.10976
635.369,88.4963,0.498653,0,9.55134,-0.0191602,-1.90165,-3.87195,-8.5061,-5.54878,-10.0423,-0.524509,0.423918,-9.57317,-71.5854,6.34146
635.379,88.4661,0.613531,0,9.64953,0,-1.83698,-3.20122,-8.56707,-6.15854,-10.0687,-0.517324,0.534089,-11.5854,-73.3841,3.84146
635.389,88.4255,0.711626,0,9.67109,0.0574805,-1.79866,-3.71951,-8.56707,-6.58537,-10.0112,-0.507744,0.476609,-14.5122,-73.75,2.53049
635.399,88.3861,0.809811,0,9.60642,0.0335303,-1.85135,-4.14634,-8.59756,-6.82927,-9.94891,-0.447869,0.490979,-14.9085,-73.9024,2.89634
635.409,88.3359,0.913083,0,9.57289,0.105381,-1.88728,-4.26829,-7.89634,-7.13415,-9.91059,-0.423918,0.526904,-16.2805,-75.6402,2.9878
635.419,88.2799,1.02951,0,9.64474,0.150886,-1.97829,-4.78659,-7.2561,-7.28659,-9.96568,-0.423918,0.603545,-19.5427,-78.2927,4.45122
635.429,88.2185,1.14508,0,9.74054,0.184417,-2.04535,-4.48171,-6.09756,-7.56098,-9.99202,-0.505349,0.62031,-18.5976,-79.9085,4.66463
635.439,88.1464,1.28017,0,9.69025,0.285007,-2.10043,-4.14634,-5.30488,-7.56098,-10.0399,-0.555645,0.728086,-18.75,-82.561,5.33537
635.449,88.0666,1.41837,0,9.66151,0.332908,-2.07409,-3.62805,-4.45122,-7.89634,-10.0471,-0.66821,0.764011,-18.2622,-85.1829,4.87805
635.459,87.9881,1.55843,0,9.58008,0.330513,-1.97589,-3.41463,-3.84146,-7.92683,-10.0136,-0.673001,0.792751,-16.8598,-86.5854,5.18293
635.469,87.9096,1.68266,0,9.55134,0.356858,-1.88728,-3.23171,-3.17073,-7.7439,-9.98005,-0.771196,0.742456,-13.628,-89.0854,3.75
635.479,87.8306,1.81523,0,9.46751,0.378413,-1.83458,-2.31707,-2.89634,-7.65244,-10.004,-0.732876,0.799937,-8.96341,-92.6829,4.08537
635.489,87.7643,1.94962,0,9.50583,0.335303,-1.94476,-3.01829,-3.71951,-7.07317,-10.0208,-0.713716,0.831072,-8.81098,-94.5122,2.22561
635.499,87.7073,2.08539,0,9.58247,0.311353,-2.01661,-3.17073,-4.29878,-6.58537,-9.99202,-0.656235,0.855022,-6.12805,-98.4451,1.28049
635.509,87.647,2.23312,0,9.67827,0.404758,-2.15552,-3.44512,-2.80488,-5.94512,-9.96328,-0.6251,0.926873,-5.42683,-101.28,0.884146
635.52,87.5877,2.39651,0,9.80281,0.452659,-2.16749,-3.75,-0.853659,-5.45732,-9.97526,-0.565225,1.02028,-3.59756,-104.878,-1.37195
635.529,87.5365,2.55757,0,9.73096,0.395178,-2.15312,-4.11585,-0.0304878,-5.39634,-10.0232,-0.538879,1.03944,-3.23171,-109.726,-1.67683
635.539,87.4931,2.74203,0,9.70462,0.335303,-2.11001,-3.32317,1.12805,-5.42683,-10.0232,-0.495769,1.16877,-5.03049,-114.085,-4.08537
635.549,87.4482,2.93413,0,9.43638,0.316143,-1.97829,-2.04268,1.28049,-5.79268,-10.004,-0.510139,1.23104,-5.94512,-116.738,-5.2439
635.559,87.3931,3.13201,0,9.31663,0.280217,-1.81063,-0.579268,1.82927,-7.31707,-10.0303,-0.512534,1.29331,-5.33537,-117.957,-7.28659
635.569,87.3379,3.3203,0,9.13221,0.213157,-1.70525,0.609756,2.16463,-8.23171,-10.016,-0.543669,1.28134,-5,-120.518,-6.34146
635.579,87.2705,3.51615,0,9.12981,0.215552,-1.75794,1.12805,2.16463,-9.54268,-10.0399,-0.500559,1.35079,-7.95732,-121.89,-5.21341
635.589,87.1868,3.72515,0,9.24957,0.285007,-1.88488,1.25,1.85976,-10.5183,-10.0208,-0.550855,1.43941,-7.28659,-125.244,-4.5122
635.599,87.0911,3.9133,0,9.39566,0.371228,-1.80824,1.89024,1.70732,-10.8841,-10.0471,-0.60594,1.38193,-8.68902,-130.274,-4.60366
635.609,86.9961,4.11582,0,9.62558,0.383203,-1.90644,1.58537,1.34146,-10.9756,-10.0543,-0.59636,1.47773,-7.9878,-134.604,-5.30488
635.619,86.9024,4.33745,0,9.7597,0.493374,-2.05014,0.518293,-0.487805,-9.78659,-10.016,-0.57241,1.59029,-10.5793,-139.543,-7.53049
635.629,86.8159,4.54915,0,9.82916,0.58199,-2.03337,-0.701219,-3.10976,-8.23171,-9.94891,-0.541274,1.57113,-10.8537,-143.354,-11.5854
635.639,86.7344,4.74792,0,9.90101,0.651445,-2.0214,-1.76829,-3.87195,-7.13415,-9.80521,-0.55325,1.52563,-13.5366,-146.372,-13.9939
635.649,86.6645,4.93862,0,9.8124,0.61073,-1.89925,-1.76829,-3.59756,-6.52439,-9.68546,-0.514929,1.50647,-14.0854,-146.037,-15.3354
635.659,86.604,5.11904,0,9.50104,0.495769,-1.69807,-0.97561,-2.10366,-6.89024,-9.6663,-0.59157,1.4921,-13.7195,-145.396,-14.9085
635.669,86.5468,5.32729,0,9.19209,0.402363,-1.7292,-1.18902,-1.0061,-7.65244,-9.69264,-0.637075,1.64777,-14.7256,-147.439,-15.8232
635.679,86.4791,5.53855,0,9.06515,0.349673,-1.80105,-1.7378,-0.762195,-9.45122,-9.8076,-0.617915,1.71483,-15.2744,-150.366,-13.0793
635.689,86.4049,5.75354,0,9.11305,0.301772,-1.82979,-1.15854,-0.213415,-10.8841,-9.9082,-0.622705,1.78429,-16.4329,-153.384,-13.811
635.699,86.3203,5.97924,0,9.26154,0.330513,-1.82261,0.426829,-0.609756,-11.7988,-9.98244,-0.62031,1.88249,-15.6402,-156.28,-13.2622
635.709,86.2113,6.23406,0,9.54415,0.546064,-1.88249,1.76829,-1.52439,-11.9512,-10.0687,-0.64905,2.0693,-16.2805,-161.768,-11.7683
635.719,86.0938,6.477,0,9.73336,0.665815,-1.88249,2.0122,-2.80488,-11.7378,-10.1309,-0.692161,2.0693,-16.3415,-166.616,-12.8354
635.729,85.9841,6.7233,0,9.8603,0.737666,-1.86093,1.79878,-3.04878,-10.4268,-10.0998,-0.744851,2.1172,-17.4085,-173.232,-15.5488
635.739,85.8892,6.97149,0,10.0016,0.730481,-2.10283,1.4939,-3.10976,-9.35976,-10.0279,-0.761616,2.15073,-18.4146,-178.933,-18.7805
635.749,85.8293,7.18959,0,10.0615,0.5772,-2.36388,2.0122,-1.12805,-7.80488,-9.95131,-0.778381,2.03816,-19.7256,-182.683,-19.4817
635.76,85.7663,7.42191,0,9.98005,0.6251,-2.52914,3.65854,3.23171,-7.62195,-9.78605,-0.737666,2.10283,-20.3963,-187.683,-21.128
635.769,85.711,7.68371,0,9.78366,0.479004,-2.58183,5.7622,7.40854,-8.56707,-9.73336,-0.737666,2.26329,-22.8963,-190.457,-21.5854
635.779,85.6381,7.96235,0,9.53936,0.512534,-2.4501,3.96341,10.4268,-9.90854,-9.79084,-0.730481,2.39502,-22.8659,-196.86,-21.5854
635.789,85.5551,8.2549,0,9.41961,0.488584,-2.15552,3.14024,11.9817,-11.311,-9.89143,-0.747246,2.52914,-23.0488,-203.537,-20.4268
635.799,85.4516,8.5453,0,9.51541,0.589175,-1.94955,2.22561,12.0732,-12.4085,-9.89383,-0.716111,2.56746,-22.4085,-210.274,-16.2805
635.809,85.3312,8.8251,0,9.60642,0.761616,-1.82261,2.22561,10.2439,-12.3171,-9.9082,-0.718506,2.56986,-21.25,-216.311,-16.25
635.819,85.2138,9.11485,0,9.73096,0.850232,-1.79626,2.0122,7.5,-11.311,-9.84353,-0.747246,2.6441,-18.3841,-223.598,-13.628
635.829,85.1138,9.40651,0,9.7621,0.852627,-1.93039,3.47561,6.0061,-9.78659,-9.76689,-0.706531,2.67763,-14.3598,-232.104,-14.1463
635.839,85.0261,9.71766,0,9.70941,0.866997,-1.84656,4.60366,5.54878,-8.5061,-9.67827,-0.747246,2.7878,-12.378,-241.402,-13.5976
635.849,84.9516,10.0341,0,9.6184,0.792751,-1.84656,4.39024,5.4878,-8.14024,-9.54415,-0.723296,2.82373,-11.5549,-247.866,-14.7561
635.859,84.8743,10.357,0,9.46512,0.838257,-1.77471,2.65244,5.30488,-7.86585,-9.39327,-0.680186,2.85965,-9.05488,-253.628,-15.6707
635.869,84.8048,10.6812,0,9.48188,0.804727,-1.94236,0.579268,6.70732,-7.65244,-9.33818,-0.66342,2.90276,-10.3354,-257.957,-16.8293
635.879,84.7569,11.0143,0,9.48907,0.627495,-1.85614,1.15854,7.04268,-7.77439,-9.27112,-0.63947,2.97461,-8.59756,-263.384,-17.9878
635.889,84.7149,11.3588,0,9.47949,0.55804,-1.65975,2.2561,6.70732,-8.10976,-9.2352,-0.66342,3.06802,-7.86585,-270,-17.6524
635.899,84.6687,11.6956,0,9.55613,0.579595,-1.72441,2.62195,3.87195,-8.41463,-9.2352,-0.766406,3.08958,-6.64634,-276.128,-18.2927
635.909,84.625,12.0554,0,9.77168,0.579595,-1.78668,3.41463,2.28659,-8.41463,-9.17292,-0.821492,3.22849,-5.45732,-281.402,-17.5915
635.919,84.5556,12.4281,0,9.79084,0.819097,-1.89686,2.34756,3.23171,-8.29268,-9.17053,-0.850232,3.34584,-3.93293,-287.439,-15.061
635.929,84.4946,12.8047,0,9.82437,0.730481,-1.79626,-0.0914634,4.17683,-8.65854,-9.16813,-0.917292,3.42488,-1.70732,-293.963,-14.2378
635.94,84.4447,13.185,0,9.98484,0.598755,-1.80824,-0.243902,5.30488,-9.32927,-9.18011,-0.907712,3.51349,-1.85976,-295.671,-11.25
635.949,84.3927,13.5841,0,9.8603,0.488584,-1.74597,-0.335366,4.57317,-10.8537,-9.17292,-0.895737,3.66438,-0.731707,-300.732,-9.17683
635.959,84.309,14.0074,0,9.6639,0.64426,-1.65256,-2.56098,4.81707,-12.1951,-9.14658,-0.843047,3.83682,-1.82927,-306.555,-7.10366
635.969,84.2172,14.4397,0,9.69264,0.65863,-1.91841,-4.08537,7.04268,-13.0488,-9.12263,-0.771196,3.9422,-1.43293,-313.811,-4.14634
635.979,84.1513,14.8603,0,9.82677,0.337698,-2.05253,-0.701219,10,-14.5122,-9.11305,-0.701741,3.96136,-2.0122,-316.463,-1.40244
635.989,84.0299,15.288,0,9.58487,0.675395,-1.78908,-0.792683,10.5488,-16.0976,-9.10586,-0.63468,4.06914,-3.14024,-319.36,2.86585
635.999,83.876,15.7461,0,9.43638,0.838257,-1.45857,-3.84146,6.67683,-17.5305,-9.09628,-0.613125,4.29187,-3.53659,-323.11,6.43293
636.009,83.7497,16.2371,0,9.60163,0.673001,-1.29092,-3.35366,0.335366,-17.1951,-9.16095,-0.711321,4.5697,-2.04268,-330.122,7.53049
636.019,83.6261,16.7327,0,9.92736,0.682581,-1.53521,-2.43902,-5.39634,-17.3476,-9.19448,-0.828677,4.70382,0.152439,-334.665,6.95122
636.029,83.501,17.1744,0,10.3273,0.682581,-1.80824,-3.81098,-7.10366,-18.0488,-9.24957,-1.02986,4.55533,4.87805,-336.89,4.87805
636.039,83.3671,17.5893,0,10.4495,0.62031,-1.94955,-5.42683,-6.18902,-20,-9.15856,-1.16637,4.46911,10.2439,-331.341,1.55488
636.049,83.2136,18.0483,0,10.1477,0.505349,-1.86572,-5.42683,-6.0061,-23.3841,-9.05317,-1.24541,4.72058,14.0244,-331.89,-1.34146
636.059,83.0177,18.564,0,9.86748,0.651445,-1.81542,-7.37805,-5.12195,-26.128,-8.96456,-1.24541,5.0511,16.128,-337.835,-3.65854
636.069,82.8071,19.1043,0,10.0232,0.62031,-1.64538,-8.10976,-6.21951,-28.5061,-8.81128,-1.17116,5.19001,16.6768,-345.335,-2.40854
636.079,82.5631,19.6337,0,9.91299,0.787961,-1.4921,-7.56098,-4.96951,-30.3049,-8.63644,-1.07776,5.13971,17.8049,-346.402,0.762195
636.089,82.3076,20.2292,0,9.86269,0.752036,-1.39151,-9.14634,-6.92073,-32.3476,-8.45921,-0.993933,5.48699,15.2134,-343.872,6.15854
636.099,82.0377,20.8728,0,10.4447,0.778381,-1.60227,-11.189,-3.71951,-34.5427,-8.37299,-0.984353,5.81511,12.6829,-343.75,11.7073
636.109,81.7611,21.5266,0,10.4207,0.761616,-1.81303,-13.8415,-0.884146,-35.9451,-8.25324,-0.953218,5.93007,9.63415,-340.671,14.4207
636.119,81.4676,22.1774,0,10.2579,0.747246,-1.95434,-13.9329,-1.61585,-38.2622,-8.16223,-0.998723,5.99713,10.1829,-334.146,15.061
636.129,81.1251,22.8326,0,9.62558,0.953218,-1.57592,-14.7256,-7.0122,-40.8232,-8.00895,-1.00112,6.057,11.4024,-328.018,14.1768
636.139,80.7674,23.4734,0,9.96568,1.07536,-1.55197,-16.6159,-7.04268,-42.0427,-7.81255,-1.06578,5.97797,17.2256,-321.921,11.8902
636.149,80.3831,24.1504,0,9.86988,1.38911,-1.61185,-16.4634,-10.3354,-41.7073,-7.48683,-1.08973,6.06419,24.5427,-315.701,9.87805
636.16,79.9802,24.8917,0,10.1453,1.61903,-1.72202,-16.0671,-8.53659,-42.2256,-7.20901,-1.17356,6.34201,28.4756,-309.177,8.01829
636.169,79.5532,25.7088,0,10.0495,1.86812,-1.79626,-15.8232,-8.84146,-42.5305,-6.94316,-1.19032,6.70845,28.0793,-304.97,7.46951
636.179,79.1272,26.5784,0,9.7597,1.9256,-1.81303,-17.5915,-8.07927,-42.0122,-6.60546,-1.1544,6.88568,29.8476,-298.628,7.7439
636.189,78.7215,27.4998,0,9.3789,1.79626,-1.74118,-17.378,-10.9146,-41.4634,-6.2534,-1.13045,7.04615,30.1524,-289.878,8.07927
636.199,78.3356,28.4599,0,9.62558,1.88488,-1.72441,-17.0427,-10.7622,-39.7866,-5.98276,-1.06818,7.22098,32.3171,-280.488,9.96951
636.209,77.9447,29.4569,0,10.095,2.20821,-1.90644,-16.3415,-6.18902,-38.5061,-5.78158,-1.06578,7.47246,34.6951,-276.098,11.0061
636.219,77.6276,30.4365,0,10.4854,1.89686,-1.8777,-14.5427,-2.83537,-36.0366,-5.58519,-1.00591,7.37427,36.4024,-269.36,11.5549
636.229,77.4002,31.3985,0,10.1237,1.42983,-1.76273,-13.9329,3.10976,-32.0427,-5.3361,-0.898132,7.19464,41.5244,-261.341,12.8354
636.239,77.1562,32.3649,0,9.55852,1.7316,-1.51605,-14.2683,4.5122,-29.6646,-5.16366,-0.754431,7.25451,44.878,-251.799,14.6951
636.249,76.8796,33.3054,0,8.86157,1.99505,-1.55676,-15.122,4.66463,-28.5366,-5.06307,-0.62989,7.20661,45.9146,-243.14,16.6463
636.26,76.5751,34.1951,0,8.66039,2.20342,-1.67891,-15.7317,0.243902,-28.7195,-5.05349,-0.589175,7.1156,47.2866,-233.659,16.6159
636.269,76.2785,35.0413,0,8.66279,2.15073,-1.6334,-17.439,0.792683,-29.2073,-5.08942,-0.6251,7.12279,47.0122,-224.207,14.2988
636.279,76.0221,35.8542,0,8.81607,1.94715,-1.52084,-16.0976,2.92683,-28.75,-5.0966,-0.60594,7.14913,46.0366,-213.201,11.8598
636.289,75.761,36.6642,0,8.78254,2.05014,-1.54479,-13.8415,0.945122,-28.3537,-5.12774,-0.476609,7.40301,42.8659,-205.671,9.54268
636.299,75.5129,37.4603,0,9.11305,2.12199,-1.78189,-13.5366,2.56098,-27.622,-5.01278,-0.328118,7.37427,38.5976,-196.524,10.7622
636.309,75.2617,38.2157,0,9.10107,2.22737,-1.71244,-12.0122,-0.182927,-27.1341,-4.93853,-0.198787,7.21619,36.372,-186.524,13.5366
636.319,74.9935,38.9658,0,8.94061,2.42615,-1.61903,-10.3963,-5.94512,-26.4634,-4.88105,-0.112566,7.3096,37.9573,-179.878,17.3476
636.329,74.7029,39.6761,0,8.86636,2.67284,-1.42983,-10.2744,-7.10366,-26.0366,-4.90739,-0.146096,7.28565,37.8963,-174.726,21.8902
636.339,74.4267,40.3822,0,8.96216,2.62973,-1.51605,-10.2134,-5.51829,-26.0366,-4.93614,-0.186812,7.5036,39.0549,-170.915,21.6463
636.349,74.168,41.1069,0,9.16813,2.56507,-1.90404,-10.7927,0.121951,-26.2805,-5.01278,-0.287402,7.97302,36.0671,-169.817,21.9817
636.359,73.9219,41.8143,0,9.16095,2.40939,-1.92081,-10.8232,3.41463,-27.3476,-5.03433,-0.356858,8.10235,28.628,-166.616,20.1524
636.369,73.6701,42.5116,0,9.22562,2.5028,-1.76273,-9.20732,3.47561,-27.5305,-4.97925,-0.268242,8.16702,19.8476,-160.549,18.7195
636.379,73.4017,43.1668,0,9.19927,2.61536,-1.85135,-8.5061,2.80488,-28.3232,-4.98643,-0.124541,8.06882,14.5427,-155.762,19.8171
636.389,73.0996,43.8055,0,9.05557,2.88839,-2.04295,-7.86585,1.03659,-28.5976,-5.04391,-0.0383203,8.24126,10.061,-154.329,22.7134
636.399,72.7657,44.3952,0,9.137,3.2692,-1.92081,-6.61585,-2.65244,-28.3841,-5.19719,0.00718506,8.29156,8.65854,-157.012,25.1524
636.409,72.4129,44.9067,0,9.12023,3.40811,-1.70765,-6.43293,-5.94512,-29.3598,-5.40556,-0.0287402,8.18139,8.20122,-154.665,25.3659
636.419,72.0672,45.4025,0,9.38129,3.51589,-1.72441,-6.28049,-7.13415,-29.2378,-5.48459,-0.0598755,8.33946,7.68293,-153.201,22.7134
636.429,71.7417,45.9055,0,9.34537,3.32429,-1.68609,-4.72561,-3.96341,-29.8476,-5.42711,-0.0814307,8.46639,8.96341,-154.39,20.3963
636.439,71.4173,46.453,0,9.41482,3.26441,-2.00224,-5.06098,-1.46341,-31.3415,-5.22833,-0.119751,8.69153,8.78049,-153.75,16.0976
636.449,71.1116,47.0251,0,9.45075,3.14466,-1.99745,-5.94512,1.03659,-31.5549,-5.07265,-0.179626,8.83762,5.03049,-152.5,16.6159
636.46,70.8364,47.6384,0,9.33339,2.80696,-1.97589,-4.39024,1.98171,-32.4695,-4.88344,-0.0838257,9.10107,-5.18293,-147.47,19.0854
636.469,70.5635,48.2566,0,9.28549,2.80457,-1.98068,-3.5061,0.304878,-32.6524,-4.74932,-0.0143701,9.13939,-18.628,-143.323,21.2195
636.479,70.283,48.838,0,9.3286,2.94827,-2.04535,-3.2622,-0.884146,-32.5,-4.75651,0.160466,9.0388,-30.8232,-140.061,24.2988
636.489,69.9719,49.3729,0,9.09149,3.17101,-1.75076,-2.5,-2.71341,-32.7439,-4.77327,0.318538,8.85439,-37.4695,-135.915,28.0793
636.499,69.6208,49.8685,0,8.91426,3.38416,-1.53521,-2.22561,-5.30488,-34.2683,-4.87626,0.330513,8.87834,-40.9146,-134.482,31.0366
636.509,69.2596,50.3317,0,9.2831,3.64043,-1.79866,-0.487805,-7.10366,-34.7561,-4.96727,0.251477,8.92384,-41.5549,-134.604,31.189
636.519,68.8928,50.7854,0,9.40285,3.80808,-1.93039,-1.03659,-6.55488,-34.7561,-4.94811,0.0838257,8.97893,-39.7256,-131.037,27.5915
636.529,68.538,51.2691,0,9.53697,3.73144,-2.41418,-1.58537,-1.85976,-35.6707,-4.90979,-0.0862207,9.37411,-39.7866,-129.878,23.6585
636.539,68.1783,51.7818,0,9.39327,3.74102,-2.10283,-1.43293,-1.37195,-36.189,-4.78525,-0.155676,9.62798,-43.7805,-130.183,20.4268
636.549,67.8226,52.2947,0,9.30944,3.63324,-2.03816,-2.0122,-1.03659,-37.3171,-4.59844,-0.191602,9.4747,-46.25,-125.793,18.4756
636.559,67.4693,52.7993,0,9.44596,3.63564,-1.95673,-1.98171,-1.0061,-38.3537,-4.49785,-0.220342,9.41243,-49.8171,-116.677,20.0915
636.569,67.111,53.3123,0,9.69743,3.77934,-2.19384,-0.792683,-0.518293,-39.0854,-4.44276,-0.208367,9.616,-55.1524,-111.89,23.1707
636.579,66.724,53.8186,0,9.63516,4.01884,-2.02379,-0.27439,-1.61585,-40,-4.42121,-0.210762,9.72857,-59.8476,-108.323,25.7927
636.589,66.2939,54.2954,0,9.35255,4.24637,-1.98547,2.10366,-2.31707,-41.5549,-4.53138,-0.220342,9.86748,-62.8354,-105.793,30.2134
636.599,65.8106,54.7446,0,8.95977,4.57928,-1.84417,1.52439,-5,-42.439,-4.57928,-0.205972,9.87227,-66.6159,-105.915,32.561
636.609,65.3317,55.1625,0,9.04599,4.52898,-2.14833,0.701219,-1.76829,-43.9634,-4.63197,-0.179626,9.83156,-68.5671,-105.701,32.9573
636.619,64.8756,55.5642,0,9.30226,4.45713,-2.15073,1.98171,-3.23171,-44.6341,-4.60323,-0.141306,9.77886,-67.4695,-104.116,33.5366
636.629,64.394,55.984,0,9.41003,4.80201,-2.33035,1.89024,-7.5,-45.2439,-4.55772,-0.182021,10.0758,-65.3659,-102.134,32.622
636.639,63.889,56.397,0,9.45314,5.02954,-2.11959,1.76829,-8.04878,-46.6159,-4.50982,-0.344883,10.0854,-63.9634,-102.043,31.372
636.649,63.3676,56.805,0,9.35495,5.10139,-2.09564,2.2561,-10.3049,-48.1098,-4.48108,-0.455054,10.1645,-63.689,-99.0854,28.5061
636.659,62.8039,57.2202,0,9.11544,5.30257,-1.95913,2.53049,-12.1037,-50.2744,-4.34457,-0.55325,10.1429,-63.0183,-96.4024,26.9512
636.669,62.2277,57.6367,0,9.137,5.45346,-1.92081,1.06707,-12.4695,-51.372,-4.22721,-0.560435,10.0878,-64.2073,-95.6098,27.5
636.679,61.6427,58.0547,0,9.07952,5.49417,-1.91602,0.548781,-10.4268,-52.7439,-4.12183,-0.60115,10.0591,-67.5915,-95.7622,27.5915
636.689,61.0938,58.4695,0,9.51302,5.384,-2.13157,-0.213415,-1.37195,-53.6585,-3.95657,-0.55325,9.82916,-64.5427,-92.0732,29.9695
636.699,60.5085,58.8911,0,9.15856,5.56124,-2.62494,-2.10366,-0.579268,-54.9085,-3.84401,-0.5772,9.84832,-63.5976,-88.4451,32.5915
636.709,59.8741,59.3134,0,8.35622,5.66662,-2.07888,-3.29268,-7.5,-55.2439,-3.74581,-0.62031,9.82197,-58.2622,-86.9512,34.5122
636.719,59.2149,59.7032,0,7.9826,5.73368,-1.83698,-4.54268,-13.2622,-55.9146,-3.71947,-0.65384,9.56571,-54.8476,-81.9207,34.8476
636.729,58.5702,60.0882,0,8.09756,5.83666,-1.75076,-4.81707,-17.0427,-55.5793,-3.67396,-0.730481,9.59205,-53.872,-77.2866,32.7134
636.739,57.9312,60.4761,0,8.17899,5.9612,-1.86093,-6.25,-19.5427,-55.7012,-3.59732,-0.809517,9.62798,-50.3049,-75.1829,27.8354
636.749,57.315,60.8628,0,8.32509,6.00671,-1.91362,-7.2561,-21.7073,-55.2439,-3.49673,-0.852627,9.55373,-51.4329,-69.5122,22.8049
636.759,56.6808,61.2578,0,8.06164,6.08095,-1.74597,-8.68902,-21.7073,-55.8537,-3.37937,-0.902922,9.55373,-50.4878,-63.9024,20.8537
636.769,56.073,61.6658,0,8.19576,6.01629,-1.89925,-10.2744,-18.3841,-55.9756,-3.24046,-0.902922,9.55373,-47.5915,-59.939,18.3232
636.779,55.4726,62.0851,0,8.08559,5.90851,-2.17947,-10.7622,-15.2744,-56.7073,-3.10395,-0.823887,9.54655,-44.9085,-53.689,19.939
636.789,54.8488,62.4926,0,7.60898,5.96599,-1.96152,-12.561,-16.4939,-56.372,-3.05604,-0.761616,9.48428,-44.5732,-47.8049,20.6098
636.799,54.2262,62.8678,0,7.3551,5.93725,-2.09804,-14.3598,-17.1646,-55.8537,-3.05365,-0.730481,9.27352,-46.4329,-38.75,22.7744
636.809,53.6177,63.2432,0,7.20422,5.87019,-2.04295,-14.878,-19.4817,-55.1524,-2.98659,-0.711321,9.29268,-45.5183,-33.3232,23.5671
636.819,53.0321,63.5919,0,7.25451,5.87019,-1.97589,-12.9878,-23.0488,-54.4512,-2.96982,-0.689766,9.09389,-41.7073,-27.561,22.1646
636.829,52.4237,63.9299,0,7.04375,6.17676,-2.07648,-12.5915,-26.4329,-53.3537,-2.93629,-0.701741,9.05557,-34.5427,-18.3537,23.0793
636.839,51.8096,64.2508,0,6.88808,6.29411,-2.1172,-13.4451,-29.4817,-52.7744,-2.92432,-0.833467,8.98611,-30.4268,-12.1951,21.128
636.849,51.2263,64.6225,0,7.0222,6.30369,-2.08127,-13.5061,-32.622,-51.9207,-2.79738,-0.936453,8.90468,-25.8841,-3.17073,19.7561
636.859,50.6629,64.9617,0,7.05333,6.32285,-2.07648,-14.8171,-32.4085,-51.1585,-2.72074,-1.00351,8.86876,-23.5366,4.60366,17.6829
636.869,50.1002,65.2961,0,6.88568,6.32525,-2.27766,-16.9207,-27.378,-50.8232,-2.67524,-0.993933,9.00527,-19.7561,10.061,16.7378
636.879,49.5465,65.6186,0,6.76593,6.2989,-2.18665,-16.5854,-27.1341,-50.2744,-2.62015,-0.972378,8.86157,-16.9207,17.9878,17.0122
636.889,48.9821,65.9112,0,6.50487,6.33962,-1.94476,-16.4939,-29.0244,-49.8171,-2.62015,-0.934058,8.65081,-14.1768,28.5671,17.0122
636.899,48.4239,66.1809,0,6.45218,6.42344,-2.12199,-17.0122,-31.2195,-49.0854,-2.68242,-0.910107,8.72266,-13.3841,37.0122,17.8659
636.909,47.8834,66.4182,0,6.54559,6.61744,-2.06211,-18.2622,-33.9329,-47.5305,-2.75188,-0.816702,8.66758,-12.2866,43.0183,16.8598
636.919,47.3615,66.6309,0,6.33243,6.42105,-1.83698,-18.9329,-35.3049,-46.5549,-2.73272,-0.752036,8.43526,-9.2378,52.8049,16.4329
636.929,46.8714,66.826,0,6.45458,6.36596,-2.32556,-18.9329,-34.3902,-46.0061,-2.79738,-0.675395,8.54064,-8.35366,61.9207,16.4329
636.939,46.3844,67.0059,0,6.37554,6.33483,-2.28964,-19.5427,-36.1585,-46.25,-2.83091,-0.560435,8.56699,-4.87805,69.4207,16.7988
636.95,45.8668,67.1679,0,5.87498,6.35159,-2.27766,-20.0915,-37.8963,-45.4268,-2.88839,-0.500559,8.62207,-5.79268,77.561,16.6768
636.96,45.3633,67.3034,0,5.77918,6.41386,-2.53393,-21.0671,-38.2012,-43.5366,-2.9818,-0.512534,8.66758,-9.26829,86.0671,14.3902
636.969,44.9183,67.4065,0,6.08095,6.22466,-2.65608,-21.8293,-39.3598,-43.2927,-3.06083,-0.502954,8.58136,-11.2805,93.2012,12.3171
636.979,44.4831,67.4777,0,6.04024,6.26537,-2.42615,-21.9512,-43.8415,-42.439,-3.10155,-0.462239,8.38736,-13.2012,101.494,7.04268
636.989,44.0792,67.5437,0,6.14802,6.19113,-2.68482,-21.9817,-39.8476,-41.8598,-3.13748,-0.359253,8.47358,-15.5488,108.872,6.43293
636.999,43.6965,67.606,0,6.16718,6.17915,-2.71116,-19.5732,-38.0488,-40.8232,-3.10395,-0.299377,8.38736,-16.3415,115.976,5.73171
637.009,43.3043,67.6498,0,5.90612,6.30369,-2.47885,-18.5976,-37.3476,-38.872,-3.13987,-0.335303,8.3203,-17.9573,123.811,5.73171
637.019,42.921,67.686,0,5.73128,6.38033,-2.69919,-18.0793,-40.4573,-36.311,-3.16861,-0.378413,8.34425,-18.4146,129.634,7.95732
637.029,42.5588,67.6941,0,5.70973,6.30369,-2.7423,-18.4146,-42.9573,-35.4268,-3.27878,-0.476609,8.34664,-19.2073,134.36,7.56098
637.039,42.2219,67.6617,0,5.83187,6.35638,-2.70158,-18.0488,-42.439,-34.3293,-3.33626,-0.541274,8.08798,-20.4878,142.774,7.5
637.049,41.8696,67.6094,0,5.6283,6.47613,-2.76146,-18.2927,-41.128,-33.4451,-3.41051,-0.627495,8.06882,-23.5366,150.915,6.58537
637.06,41.5251,67.543,0,5.61153,6.5887,-2.33993,-19.5122,-46.6159,-32.1951,-3.53505,-0.656235,8.20773,-20.6098,154.787,7.19512
637.069,41.2243,67.4457,0,6.09532,6.73958,-2.70877,-19.2988,-46.4939,-31.9207,-3.65959,-0.761616,8.17181,-16.311,159.482,6.7378
637.079,40.9162,67.3186,0,6.02826,6.93837,-2.55549,-19.7561,-42.4085,-30.9451,-3.78892,-0.785566,8.14546,-12.4695,165.152,6.58537
637.089,40.6111,67.1519,0,6.10251,7.18506,-2.73751,-19.6037,-37.2256,-29.9695,-3.97813,-0.828677,8.13828,-10.0915,170,5.91463
637.099,40.2929,66.9654,0,5.88696,7.23535,-2.81654,-20.2439,-37.9573,-29.4512,-4.13859,-0.845442,8.22929,-10.3963,173.872,3.04878
637.109,39.9659,66.7581,0,5.76242,7.34313,-2.89558,-20.2439,-35.9756,-28.9329,-4.28469,-0.823887,8.26761,-13.7195,176.25,2.16463
637.119,39.6343,66.5154,0,5.60435,7.37906,-2.7878,-19.9695,-34.8476,-28.2317,-4.34696,-0.725691,8.01613,-14.7866,182.226,1.31098
637.129,39.287,66.2877,0,5.31455,7.22338,-2.76864,-20.7317,-36.7073,-28.7195,-4.3781,-0.57241,8.1287,-13.9634,187.378,2.89634
637.139,38.9403,66.0236,0,5.42472,7.24733,-2.45969,-20.3354,-38.2317,-30.3354,-4.52419,-0.531694,8.01374,-8.87195,188.689,6.28049
637.149,38.5986,65.73,0,5.6738,7.46767,-2.36867,-20.6098,-37.5,-31.372,-4.60562,-0.519719,7.84129,-5.06098,194.299,12.439
637.159,38.255,65.4184,0,5.76481,7.59221,-2.50519,-21.0366,-33.9329,-32.2256,-4.7589,-0.661025,7.86764,-1.4939,196.25,13.5976
637.169,37.8915,65.0927,0,5.76002,7.83171,-2.71835,-21.6463,-31.5244,-33.1707,-4.85949,-0.852627,7.83171,2.65244,199.451,16.4329
637.179,37.5162,64.7752,0,5.66901,7.90356,-2.66326,-22.6829,-32.3171,-33.7195,-4.90979,-0.910107,7.8844,2.04268,204.848,15.6098
637.189,37.1259,64.4669,0,5.58279,8.02571,-2.76146,-23.2012,-32.6829,-34.3293,-4.91219,-0.986748,7.87003,4.81707,209.634,13.9939
637.199,36.7479,64.1582,0,5.6738,8.06643,-2.62973,-25.4878,-33.1402,-34.4817,-4.84033,-0.926873,7.67125,6.70732,218.079,13.6585
637.209,36.3775,63.8669,0,5.57321,7.80537,-2.80936,-27.1646,-28.0793,-35.3049,-4.89781,-0.910107,7.81016,8.90244,223.14,11.5549
637.219,36.0148,63.5612,0,5.41753,7.60898,-2.70877,-27.3476,-22.6829,-35.122,-4.8571,-0.780776,7.56108,12.7744,230,11.1585
637.229,35.6651,63.2203,0,5.4319,7.58982,-2.62973,-27.2256,-24.0244,-34.8171,-4.905,-0.684976,7.3072,16.5854,237.348,12.378
637.239,35.3035,62.8795,0,5.2403,7.5036,-2.79978,-27.0122,-24.7866,-35.3963,-4.96967,-0.548459,7.31678,19.7866,242.561,12.1646
637.249,34.9074,62.4863,0,5.0008,7.52515,-2.71356,-27.5915,-24.8476,-36.9512,-5.08463,-0.459844,7.04375,22.4695,247.744,14.3598
637.259,34.5196,62.0535,0,5.03673,7.33115,-2.90516,-26.311,-23.4756,-38.7195,-5.22354,-0.443079,6.88568,26.0366,254.299,16.4329
637.269,34.0954,61.6023,0,4.91698,7.46528,-2.76625,-25.5488,-23.5976,-40.9451,-5.37442,-0.469424,6.86413,25.8537,258.811,16.7683
637.279,33.6772,61.1307,0,4.98404,7.47007,-2.65129,-24.9695,-25.1524,-41.8902,-5.50376,-0.522114,6.79467,28.7195,262.378,15.9451
637.289,33.258,60.661,0,4.92656,7.44372,-2.69919,-25,-27.3476,-42.4085,-5.60195,-0.507744,6.81862,27.5,267.622,14.4817
637.299,32.8356,60.1729,0,4.89542,7.42935,-2.90755,-24.7866,-26.0976,-43.3537,-5.64506,-0.438289,6.65576,25.4268,275.122,12.8049
637.309,32.3898,59.6948,0,4.84273,7.68801,-2.82133,-25.5488,-26.2195,-44.2073,-5.69057,-0.318538,6.66294,21.7378,283.049,14.0854
637.319,31.9623,59.1691,0,5.06068,7.64251,-2.69919,-24.3902,-25.6098,-45.9146,-5.79834,-0.325723,6.40428,19.4207,287.835,15.4573
637.329,31.5477,58.6508,0,5.11337,7.52515,-2.77583,-23.5976,-23.3537,-46.8598,-5.8654,-0.263452,6.40907,18.0488,293.78,16.5854
637.339,31.1197,58.134,0,4.99122,7.56347,-2.65129,-23.4451,-19.3902,-47.5,-6.02347,-0.270637,6.47374,16.4329,295.488,18.75
637.349,30.7002,57.5566,0,4.91458,7.49402,-2.83331,-22.2256,-14.3598,-47.1646,-6.16239,-0.308958,6.16957,15.4878,299.512,19.5732
637.36,30.2424,56.939,0,4.44276,7.45809,-2.7423,-20.7317,-15.4573,-46.8902,-6.27016,-0.340093,5.94683,13.628,307.683,17.4695
637.369,29.7751,56.3128,0,4.38768,7.69041,-2.97701,-19.878,-14.6341,-46.5854,-6.35399,-0.414338,5.85822,13.2622,312.683,14.7866
637.379,29.2952,55.686,0,4.14817,7.80297,-2.90037,-19.7866,-14.6646,-45.3354,-6.3971,-0.390388,5.772,11.6463,318.384,10.5488
637.389,28.8303,55.0637,0,4.1817,7.84608,-2.89079,-19.0244,-12.7439,-44.9085,-6.51445,-0.426313,5.77918,6.4939,324.299,7.37805
637.399,28.3546,54.4255,0,4.16254,7.99697,-2.72553,-19.4207,-10.8537,-45.8232,-6.63181,-0.399968,5.67859,6.79878,328.262,5.51829
637.409,27.8841,53.8041,0,4.21284,8.12151,-2.49082,-18.4451,-12.7744,-46.0976,-6.67492,-0.292192,5.6738,6.85976,329.848,4.29878
637.419,27.4115,53.2241,0,4.20326,8.23168,-2.47406,-17.9268,-16.25,-46.5244,-6.77791,-0.186812,5.85103,2.34756,332.226,4.93902
637.429,26.8834,52.5825,0,3.86556,8.64123,-2.38065,-18.5366,-19.0549,-47.1341,-6.88568,-0.170046,5.51573,-2.04268,338.201,6.76829
637.44,26.3111,51.8625,0,3.67157,8.92145,-2.15552,-20.061,-24.0244,-49.1768,-6.95514,-0.146096,5.07744,-2.83537,349.726,11.6159
637.449,25.7369,51.1182,0,3.77934,9.05557,-2.019,-22.8049,-22.3171,-51.128,-7.14434,-0.208367,4.97206,-0.304878,357.287,16.2195
637.459,25.1274,50.3461,0,3.47757,8.96216,-2.07888,-24.939,-18.7805,-52.9573,-7.31199,-0.316143,4.81878,1.34146,356.738,21.1585
637.469,24.4917,49.5495,0,3.13508,8.78014,-2.27287,-23.3841,-19.2988,-53.689,-7.48923,-0.414338,4.67747,4.42073,354.634,23.3841
637.479,23.8585,48.7219,0,3.11113,8.83762,-2.47406,-24.9085,-19.6646,-54.2073,-7.70717,-0.500559,4.5194,10.8232,351.128,25.4878
637.489,23.2546,47.8941,0,3.12311,8.58615,-2.53393,-26.2195,-18.9634,-53.7195,-7.81255,-0.514929,4.42839,14.6341,349.146,24.2683
637.499,22.7066,47.1102,0,3.34105,8.32748,-2.51477,-26.7988,-20.2744,-53.0793,-7.80058,-0.481399,4.4739,15.5793,351.098,21.9512
637.509,22.174,46.3385,0,3.18538,8.24845,-2.52435,-26.9512,-22.439,-51.0976,-7.66406,-0.399968,4.31582,14.2988,355.976,17.6524
637.519,21.6777,45.5535,0,3.28357,8.11193,-2.36867,-26.311,-22.2256,-50.3659,-7.5036,-0.256267,4.04279,12.8659,363.445,11.372
637.529,21.2564,44.8158,0,3.68594,8.05924,-2.13875,-25.2134,-17.6829,-48.9024,-7.52276,-0.182021,4.12422,12.5,365.457,6.98171
637.539,20.8508,44.1261,0,3.52068,8.01613,-2.01182,-19.8171,-12.7744,-46.4024,-7.65927,-0.0790356,4.2775,8.44512,359.939,4.35976
637.549,20.4553,43.4371,0,3.47278,8.31072,-2.886,-17.1646,-5.09146,-44.0854,-7.88201,-0.0910107,4.27511,3.93293,353.567,0.121951
637.559,20.065,42.7119,0,3.40572,8.61489,-3.08239,-16.8293,-3.10976,-42.1037,-8.08559,-0.0742456,4.09548,-0.609756,351.037,-2.28659
637.569,19.6765,41.9712,0,3.30513,8.81367,-2.96024,-15.1829,1.95122,-40.6402,-8.2724,0.0335303,3.98771,-7.16463,349.36,-5.33537
637.579,19.2976,41.2344,0,3.25962,8.88313,-2.86444,-14.7866,9.87805,-39.6341,-8.51908,0.0886157,3.98771,-16.0366,347.47,-6.79878
637.589,18.8963,40.4944,0,2.93629,8.84241,-2.56507,-13.5366,13.2927,-39.0549,-8.64842,0.134121,3.8967,-26.5549,345.03,-8.62805
637.599,18.4572,39.7475,0,2.43813,8.96695,-2.13636,-14.3293,16.8598,-37.2866,-8.65081,0.280217,3.73144,-37.1646,343.018,-8.17073
637.609,18.0147,38.956,0,2.26329,9.01246,-2.47166,-15.3963,20.5488,-36.25,-8.71069,0.229922,3.42488,-45.4878,344.329,-5.97561
637.619,17.5928,38.2036,0,2.28006,8.82565,-2.17228,-14.1463,18.9634,-35.8537,-8.84241,0.153281,3.50631,-51.189,338.018,-4.87805
637.629,17.1291,37.4852,0,1.85614,9.11305,-1.86093,-12.2866,16.8598,-34.9085,-8.96695,0.0862207,3.56618,-56.7073,328.72,-2.95732
637.639,16.6449,36.7366,0,1.71004,9.45554,-1.84656,-12.6829,18.4756,-35.3659,-9.10826,-0.0311353,3.34584,-61.25,320.915,-2.71341
637.649,16.181,35.9811,0,1.7316,9.5705,-1.74357,-13.7805,15.9451,-34.2988,-9.2304,-0.138911,3.2213,-64.4512,319.024,-2.10366
637.659,15.7467,35.2386,0,1.7795,9.46751,-1.84896,-14.8171,13.5671,-33.0183,-9.29028,-0.174836,3.15903,-66.8902,313.049,-4.17683
637.669,15.3694,34.4773,0,2.0693,9.23759,-1.54,-15.5183,14.6951,-32.1341,-9.35734,-0.275427,2.95545,-66.5244,306.189,-5.30488
637.679,14.9841,33.7311,0,1.85614,9.56331,-1.42025,-14.7561,18.7805,-30.3659,-9.35255,-0.352068,2.88121,-66.2195,300.823,-6.92073
637.689,14.5531,33.0095,0,1.25499,9.52499,-1.54479,-14.4512,25.0915,-28.7195,-9.3286,-0.313748,2.84528,-66.3415,293.537,-7.19512
637.699,14.1024,32.2805,0,0.986748,9.52499,-1.52802,-12.2866,18.9939,-28.3537,-9.31423,-0.335303,2.67524,-64.8781,287.622,-8.78049
637.709,13.656,31.544,0,0.946033,9.39806,-1.55197,-11.311,13.5976,-28.5061,-9.28549,-0.364043,2.5004,-62.3171,280.579,-6.92073
637.719,13.2095,30.8003,0,0.866997,9.51062,-1.55437,-11.6463,8.87195,-28.3232,-9.28549,-0.407153,2.33754,-59.0854,276.159,-5.33537
637.729,12.748,30.0579,0,0.65863,9.70941,-1.41306,-14.1159,5.79268,-28.0488,-9.35016,-0.471819,2.22497,-55.7012,269.268,-4.08537
637.739,12.3066,29.3357,0,0.65863,9.62798,-1.35079,-15.3659,4.39024,-27.0122,-9.43877,-0.560435,2.20102,-51.372,263.963,-4.08537
637.749,11.9061,28.6431,0,0.866997,9.5202,-1.33163,-16.189,2.10366,-26.372,-9.59205,-0.56283,2.23695,-49.4207,258.811,-6.79878
637.759,11.5499,27.9524,0,1.09692,9.39327,-1.39869,-15.3049,-0.0609756,-25.6402,-9.67109,-0.555645,2.13396,-49.5427,250.762,-7.28659
637.769,11.2446,27.2391,0,1.48491,9.26633,-1.10889,-13.689,2.16463,-26.1585,-9.75731,-0.519719,1.9232,-47.8354,244.512,-11.0366
637.779,10.9577,26.5484,0,1.60706,9.31184,-0.850232,-13.7805,1.64634,-26.311,-9.78605,-0.490979,1.89686,-47.0732,236.982,-11.2195
637.789,10.7091,25.8833,0,1.78429,9.30944,-1.29331,-13.4146,-0.518293,-25.1524,-9.78366,-0.402363,1.88249,-47.2866,230.061,-11.4329
637.799,10.4599,25.2261,0,1.6813,9.4723,-1.49928,-13.0183,-3.56707,-24.1159,-9.81479,-0.431104,1.80105,-46.9207,224.665,-10.8537
637.809,10.2372,24.5429,0,1.79387,9.55373,-1.65017,-13.811,-2.22561,-23.0793,-9.91299,-0.428708,1.58311,-42.7744,222.256,-9.96951
637.819,9.98943,23.8691,0,1.41785,9.50344,-1.55437,-12.9268,-0.0304878,-21.7073,-9.93454,-0.483794,1.50647,-39.9085,220.854,-11.0061
637.829,9.76626,23.2011,0,1.43701,9.5681,-1.54718,-12.6524,-0.182927,-19.8171,-9.94412,-0.59636,1.41067,-34.878,217.256,-12.378
637.839,9.58552,22.5492,0,1.59508,9.62558,-1.81063,-12.6829,2.46951,-17.7134,-9.98244,-0.728086,1.36756,-31.6768,214.421,-14.4817
637.849,9.45945,21.9289,0,1.77471,9.46751,-1.83698,-11.8293,3.35366,-14.9695,-10.0567,-0.783171,1.39869,-30.2744,208.598,-16.8293
637.859,9.40086,21.3194,0,2.03337,9.34058,-1.84656,-10.6707,2.43902,-11.7378,-10.0663,-0.843047,1.33163,-26.8902,201.616,-17.5915
637.869,9.38851,20.7164,0,2.13636,9.26873,-1.73878,-9.2378,1.37195,-8.56707,-10.1908,-0.895737,1.26457,-26.0671,198.537,-20.3659
637.879,9.43019,20.12,0,2.34233,9.14418,-1.45138,-6.15854,0.670732,-5.97561,-10.2651,-0.910107,1.19032,-25.7012,193.659,-23.0183
637.889,9.48121,19.533,0,2.31119,9.24957,-1.18074,-3.29268,-0.365854,-4.45122,-10.2483,-0.821492,1.12087,-26.2195,190.976,-22.7744
637.899,9.5221,18.9494,0,2.26569,9.58726,-1.0107,-3.17073,1.76829,-3.90244,-10.1381,-0.66342,1.01549,-28.4146,186.768,-22.6524
637.909,9.54683,18.3695,0,2.22737,9.63277,-1.16158,-3.53659,6.37195,-4.72561,-10.0064,-0.423918,0.912502,-28.811,182.47,-19.5122
637.919,9.54449,17.7753,0,2.02619,9.55373,-1.16637,-2.95732,8.53659,-5.2439,-9.91059,-0.316143,0.737666,-31.8293,180.305,-16.372
637.929,9.51168,17.1796,0,1.84656,9.48188,-1.08734,-1.76829,13.1098,-6.37195,-9.88664,-0.220342,0.6251,-32.8354,179.207,-12.5915
637.939,9.42579,16.6043,0,1.45378,9.48428,-0.974773,0.640244,14.2988,-7.13415,-9.86509,-0.155676,0.60594,-36.5854,174.421,-9.5122
637.949,9.30989,16.0541,0,1.26218,9.41482,-0.979563,1.21951,15.2439,-8.17073,-9.88185,-0.0934058,0.613125,-38.9329,169.543,-7.80488
637.959,9.19653,15.5071,0,1.29331,9.46512,-1.13524,2.71341,16.4024,-8.44512,-9.94173,-0.136516,0.531694,-41.0976,165.549,-5.06098
637.969,9.05582,14.9715,0,1.07776,9.53457,-1.12087,5.36585,18.1707,-8.75,-9.99202,-0.256267,0.483794,-43.1402,159.97,-5.67073
637.979,8.91674,14.444,0,1.14242,9.65432,-1.18074,3.75,17.1951,-9.48171,-10.004,-0.380808,0.421523,-41.6768,153.994,-5.39634
637.989,8.78454,13.9168,0,1.16158,9.58726,-1.05381,2.46951,16.9512,-9.39024,-10.0782,-0.55804,0.328118,-40.1829,147.988,-6.76829
637.999,8.65584,13.3848,0,1.10889,9.616,-0.62989,1.40244,14.7561,-8.62805,-10.095,-0.754431,0.208367,-35.3354,141.463,-7.77439
638.009,8.52648,12.8731,0,0.981958,9.60642,-0.522114,1.18902,12.561,-7.43902,-10.119,-0.878972,0.201182,-29.0854,136.677,-8.90244
638.019,8.40756,12.3905,0,0.958008,9.72617,-0.443079,0.945122,11.9817,-6.18902,-10.1381,-0.946033,0.234712,-25.0305,129.421,-8.62805
638.029,8.31091,11.9304,0,1.04423,9.80042,-0.57241,2.40854,12.5915,-5.06098,-10.1046,-1.03225,0.244292,-18.3537,123.689,-9.26829
638.039,8.23058,11.467,0,1.05381,9.89862,-0.876577,4.02439,13.1098,-3.38415,-10.1214,-1.07057,0.143701,-13.2622,118.354,-8.78049
638.049,8.18468,11.01,0,1.24781,9.99442,-1.12566,3.56707,13.628,-1.95122,-10.1118,-1.1065,0.0862207,-6.03659,113.201,-8.29268
638.059,8.13159,10.56,0,1.17356,9.86988,-1.09213,2.7439,12.1646,-1.67683,-10.1166,-1.07057,0.0311353,2.80488,107.409,-6.76829
638.069,8.05801,10.1049,0,1.03944,9.68067,-0.972378,2.95732,11.7988,-1.43293,-10.1022,-0.998723,-0.0766406,9.90854,100.579,-4.7561
638.079,7.95882,9.67136,0,0.912502,9.66869,-0.902922,3.53659,11.5549,-1.18902,-10.1094,-0.831072,-0.0646655,16.5549,96.1585,-0.0914634
638.089,7.77861,9.24304,0,0.742456,9.65193,-1.13045,3.81098,11.5854,0.304878,-10.1429,-0.740061,-0.124541,20.3354,89.1463,4.69512
638.099,7.66163,8.81539,0,0.63468,9.7142,-1.17116,3.87195,11.7378,1.21951,-10.2124,-0.730481,-0.203577,23.5366,83.7195,6.25
638.109,7.54642,8.37134,0,0.371228,9.80042,-1.2526,2.68293,11.2195,2.07317,-10.3297,-0.764011,-0.359253,23.3841,82.0732,6.25
638.119,7.41327,7.91689,0,0.143701,9.9058,-1.16158,0.945122,9.02439,2.34756,-10.4351,-0.713716,-0.493374,22.5915,80.3354,2.65244
638.129,7.29587,7.47195,0,0.0455054,10.0208,-1.0083,-0.792683,6.28049,3.38415,-10.4016,-0.60594,-0.534089,22.9573,76.6768,1.31098
638.139,7.17711,7.0463,0,0.0407153,10.095,-0.989143,-3.29268,3.04878,3.17073,-10.3345,-0.510139,-0.526904,25.6098,72.3476,2.80488
638.149,7.0608,6.65111,0,0.0598755,10.0902,-0.917292,-4.78659,-0.762195,3.04878,-10.2435,-0.474214,-0.467029,25.5183,65.2439,4.5122
638.16,6.96312,6.2787,0,0.275427,10.0399,-0.866997,-5.45732,-4.72561,2.56098,-10.1333,-0.507744,-0.435894,24.3293,58.5671,5.82317
638.17,6.87418,5.91878,0,0.507744,10.0327,-0.960403,-6.0061,-8.78049,1.64634,-10.0663,-0.495769,-0.450264,24.5122,50.3354,7.83537
638.179,6.76644,5.57209,0,0.749641,9.91538,-1.12087,-5.2439,-12.1037,0.335366,-10.107,-0.474214,-0.462239,25.3354,43.9329,9.14634
638.189,6.71518,5.22709,0,0.948428,9.79803,-1.1544,-5.54878,-14.1159,-0.945122,-10.1214,-0.426313,-0.522114,24.8476,37.7744,11.9817
638.199,6.68535,4.8857,0,1.11368,9.72857,-1.1041,-5.09146,-15.3963,-2.62195,-10.186,-0.431104,-0.574805,26.5854,33.1707,13.1098
638.209,6.65889,4.56424,0,1.16398,9.60642,-1.09213,-4.54268,-15.2439,-3.20122,-10.2195,-0.419128,-0.55325,23.3841,26.9207,16.2805
638.219,6.64254,4.2702,0,1.27655,9.59205,-1.0562,-3.81098,-13.6585,-3.65854,-10.1908,-0.447869,-0.488584,20.5183,23.4756,17.0122
638.229,6.62929,3.98217,0,1.3005,9.58487,-1.05141,-2.83537,-11.5854,-3.68902,-10.1453,-0.486189,-0.514929,17.4695,19.7256,18.0793
638.239,6.62987,3.69713,0,1.35558,9.60882,-1.13524,-2.83537,-9.69512,-3.07927,-10.0806,-0.474214,-0.550855,15.0915,17.7744,17.2561
638.249,6.64692,3.42566,0,1.41306,9.68785,-1.10889,-3.44512,-8.44512,-2.31707,-10.0591,-0.522114,-0.543669,13.628,13.0183,17.8963
638.259,6.68554,3.1626,0,1.49449,9.7142,-1.15679,-4.54268,-7.28659,-1.7378,-10.0256,-0.538879,-0.555645,11.25,8.81098,18.0793
638.27,6.74166,2.90714,0,1.53042,9.64953,-1.17116,-5.27439,-7.04268,-1.37195,-9.97765,-0.505349,-0.555645,8.38415,4.90854,18.9634
638.279,6.85076,2.57116,0,1.54958,9.57768,-1.1544,-5.39634,-6.43293,-0.457317,-9.97765,-0.488584,-0.651445,6.58537,1.76829,21.5244
638.289,6.95188,2.06189,0,1.59029,9.52978,-1.29331,-4.93902,-5.7622,-0.701219,-9.99681,-0.486189,-0.713716,3.71951,-0.518293,23.0793
638.299,7.07763,1.81503,0,1.64298,9.52499,-1.30289,-4.29878,-5.03049,-0.487805,-10.0423,-0.457449,-0.730481,3.10976,-5.4878,24.4207
638.309,7.13247,1.59642,0,1.54479,9.53936,-1.35558,-3.75,-4.84756,-1.28049,-10.0232,-0.450264,-0.656235,1.58537,-8.53659,24.0549
638.319,7.16383,1.36317,0,1.48252,9.55613,-1.33403,-3.2622,-4.84756,-1.64634,-10.0447,-0.435894,-0.764011,0.365854,-11.311,25.3354
638.329,7.16844,1.14326,0,1.36995,9.5202,-1.31008,-3.14024,-4.87805,-2.16463,-10.0543,-0.435894,-0.749641,-2.40854,-14.939,24.2378
638.34,7.1583,0.902578,0,1.31008,9.57529,-1.21667,-3.29268,-4.60366,-2.53049,-10.0591,-0.517324,-0.883762,-3.90244,-17.439,24.1768
638.349,7.1501,0.659495,0,1.31008,9.63277,-1.2981,-3.04878,-4.84756,-2.28659,-10.0351,-0.519719,-0.936453,-5.36585,-19.2683,23.0793
638.359,7.13802,0.442708,0,1.30529,9.72857,-1.32445,-3.5061,-4.42073,-2.40854,-10.0543,-0.5772,-0.864602,-5.45732,-20.2134,22.3476
638.369,7.13167,0.222596,0,1.30768,9.7621,-1.31008,-3.87195,-4.54268,-1.92073,-9.98963,-0.613125,-0.912502,-6.31098,-20.9146,21.4939
638.379,7.14366,0.00279917,0,1.39151,9.6663,-1.26457,-4.57317,-4.63415,-1.70732,-9.91778,-0.60115,-0.943638,-4.48171,-21.6768,21.7683
638.389,7.14984,-0.22641,0,1.3939,9.64953,-1.21906,-5.36585,-4.42073,-2.10366,-9.97526,-0.58678,-1.02986,-5,-22.0427,21.9207
638.399,7.161,-0.461923,0,1.43701,9.58008,-1.2502,-5.30488,-5.03049,-2.28659,-9.97526,-0.565225,-1.09931,-2.95732,-23.2622,21.9817
638.409,7.16042,-0.705783,0,1.39151,9.52978,-1.13763,-5.42683,-5.45732,-2.7439,-9.99202,-0.507744,-1.17835,-2.5,-21.372,22.4695
638.419,7.15269,-0.959903,0,1.35079,9.5202,-1.19272,-5.33537,-6.06707,-2.89634,-10.0208,-0.467029,-1.26936,-1.52439,-19.4817,24.1159
638.429,7.12793,-1.19568,0,1.30289,9.53457,-1.2526,-5.51829,-6.43293,-3.87195,-10.0782,-0.459844,-1.24062,-1.70732,-21.0061,23.2927
638.439,7.09898,-1.4234,0,1.28373,9.59924,-1.25978,-6.28049,-6.46341,-3.9939,-10.0711,-0.457449,-1.24541,-2.77439,-20.8537,23.9024
638.449,7.06773,-1.62705,0,1.28613,9.66151,-1.26218,-7.43902,-5.7622,-4.20732,-10.0303,-0.457449,-1.17356,-3.53659,-21.6768,23.628
638.459,7.02531,-1.80491,0,1.26457,9.64953,-1.19272,-8.47561,-5.67073,-5.15244,-10.0447,-0.455054,-1.09452,-4.78659,-20.2439,21.5854
638.469,6.98187,-1.94657,0,1.30768,9.68785,-1.22386,-9.69512,-5.97561,-5.79268,-10.0758,-0.536484,-0.969983,-7.43902,-23.5671,18.811
638.479,6.94036,-2.08181,0,1.34121,9.73336,-1.24781,-10.6707,-6.15854,-6.0061,-10.0303,-0.5772,-0.962798,-10.3963,-24.4817,15.4878
638.489,6.92779,-2.21925,0,1.59748,9.65432,-1.36995,-10.6098,-5.60976,-6.31098,-9.92975,-0.617915,-0.986748,-13.2927,-24.7561,13.7195
638.499,6.87044,-2.34639,0,1.27176,9.76449,-1.1999,-11.4939,-5.85366,-6.85976,-9.86748,-0.687371,-0.958008,-14.4817,-23.3232,11.0671
638.509,6.82434,-2.48515,0,1.39151,9.73575,-1.37474,-12.8659,-5.82317,-7.28659,-9.87706,-0.747246,-1.02986,-15.9146,-20.6707,10.061
638.519,6.79109,-2.61911,0,1.4921,9.68306,-1.38432,-13.1707,-5.4878,-7.34756,-9.87946,-0.720901,-1.02986,-16.8293,-16.7988,9.39024
638.529,6.77149,-2.71924,0,1.60706,9.62079,-1.52563,-13.2012,-5.2439,-7.5,-9.81,-0.701741,-0.898132,-15.9756,-16.8293,8.01829
638.539,6.76042,-2.79613,0,1.69567,9.57768,-1.48491,-12.5305,-4.69512,-7.80488,-9.73096,-0.651445,-0.809517,-17.1341,-19.0854,8.32317
638.549,6.75814,-2.8551,0,1.78189,9.54655,-1.57353,-11.6159,-3.38415,-8.01829,-9.62319,-0.63947,-0.737666,-17.1951,-19.8476,8.93293
638.56,6.77054,-2.92728,0,1.8777,9.48428,-1.49449,-10.7622,-1.4939,-7.80488,-9.58487,-0.661025,-0.802332,-19.5122,-21.6463,10.2134
638.57,6.79312,-2.98396,0,1.94476,9.4747,-1.51605,-10.0915,-0.426829,-7.56098,-9.5681,-0.723296,-0.747246,-22.1037,-21.6159,10.2134
638.579,6.82815,-3.04911,0,1.98787,9.4747,-1.49689,-9.45122,0.335366,-6.76829,-9.55613,-0.744851,-0.790356,-25.1524,-20,11.4939
638.589,6.87041,-3.12413,0,2.019,9.48667,-1.50647,-9.08537,1.12805,-6.31098,-9.55134,-0.747246,-0.840652,-25.8841,-17.439,11.5549
638.599,6.91544,-3.20013,0,1.99505,9.54655,-1.53042,-8.9939,1.40244,-5.54878,-9.57768,-0.696951,-0.857417,-28.6585,-14.6037,12.9268
638.609,6.96071,-3.28715,0,1.9711,9.53218,-1.51365,-8.44512,2.0122,-5.21341,-9.57768,-0.65863,-0.914897,-29.1159,-11.9207,13.0488
638.619,7.00232,-3.36998,0,1.9735,9.62798,-1.49449,-7.86585,1.85976,-5.27439,-9.58247,-0.627495,-0.910107,-31.7378,-9.48171,14.8476
638.629,7.04655,-3.44343,0,2.019,9.67348,-1.49689,-7.56098,2.19512,-5.33537,-9.68067,-0.60594,-0.890947,-33.9939,-7.31707,16.2195
638.639,7.10294,-3.5214,0,2.08367,9.72378,-1.5376,-8.04878,3.2622,-4.69512,-9.74533,-0.63468,-0.926873,-34.6646,-6.03659,16.311
638.649,7.17956,-3.59122,0,2.14354,9.7142,-1.45138,-8.68902,4.05488,-3.56707,-9.69264,-0.6251,-0.893342,-38.2622,-4.48171,17.2256
638.659,7.30194,-3.64989,0,2.22018,9.7621,-1.50168,-9.60366,3.68902,-1.79878,-9.68546,-0.661025,-0.840652,-39.8476,-3.10976,18.7195
638.67,7.62045,-3.67786,0,2.44531,9.77886,-1.51365,-9.7561,4.90854,0,-9.67588,-0.65384,-0.737666,-42.4695,-4.39024,19.0854
638.679,7.81901,-3.67869,0,2.65129,9.64714,-1.43222,-11.0366,7.2561,2.46951,-9.68067,-0.694556,-0.62989,-43.6585,-4.90854,21.25
638.689,8.04143,-3.67172,0,2.72793,9.41243,-1.48491,-11.9512,8.62805,5.54878,-9.7142,-0.718506,-0.60115,-44.3902,-7.77439,22.6829
638.699,8.30812,-3.65952,0,2.80936,9.24238,-1.4921,-10.6402,6.85976,9.11585,-9.72138,-0.742456,-0.579595,-46.0671,-9.72561,26.128
638.709,8.63528,-3.64419,0,2.86444,9.06275,-1.49449,-9.05488,3.71951,14.5427,-9.74773,-0.778381,-0.565225,-45.6402,-9.35976,28.2622
638.719,9.06097,-3.627,0,3.05365,8.63405,-1.45378,-4.60366,2.92683,21.311,-9.80521,-0.799937,-0.55804,-43.0183,-9.5122,31.0061
638.729,9.58493,-3.61471,0,3.21412,8.36341,-1.50168,1.82927,5.12195,29.0549,-9.88185,-0.809517,-0.58199,-38.689,-10.8841,33.872
638.739,10.2106,-3.55383,0,3.37698,8.24126,-1.48252,5.79268,7.07317,37.9268,-9.99202,-0.881367,-0.376018,-32.5305,-15.7317,36.1585
638.749,10.9705,-3.4811,0,3.6045,7.88201,-1.57113,8.41463,5.4878,48.2317,-9.98005,-0.965193,-0.320933,-25.6707,-25.1829,36.7378
638.759,11.9133,-3.42096,0,4.03321,7.47486,-1.71483,13.5671,2.22561,60.7317,-9.84353,-1.04662,-0.364043,-17.439,-31.4329,38.8415
638.769,13.0768,-3.35949,0,4.63436,7.08447,-2.06211,20.8232,0.396341,75.3049,-9.76689,-1.12805,-0.349673,-3.10976,-36.7073,37.622
638.779,14.4503,-3.29754,0,5.24988,6.7348,-2.49801,29.9085,1.28049,89.4207,-9.60882,-1.05141,-0.337698,12.0122,-43.9939,37.1037
638.789,15.9714,-3.24764,0,5.68099,6.61265,-2.7902,40.9146,7.19512,101.707,-9.51302,-0.845442,-0.380808,29.6951,-51.4939,36.0061
638.799,17.5397,-3.20427,0,5.98755,7.2138,-2.89797,51.0061,17.5915,111.616,-9.55134,-0.548459,-0.407153,47.2561,-58.2622,36.7683
638.809,19.1056,-3.16941,0,6.03305,8.09996,-2.76146,59.8476,30.8841,120.732,-9.54176,-0.548459,-0.440684,64.4512,-64.7561,36.8293
638.819,20.6316,-3.11616,0,6.00671,9.55613,-2.88839,67.0427,43.2927,129.085,-9.88664,-0.296982,-0.373623,78.3841,-68.5976,34.5427
638.829,22.1095,-3.13677,0,5.92288,11.3165,-2.76146,69.7561,51.311,136.524,-10.3321,-0.318538,-0.718506,88.3841,-68.9329,27.9878
638.839,23.5475,-3.25622,0,5.44627,12.0326,-2.22018,73.7805,54.7561,142.165,-10.5477,-0.239502,-1.19272,95.6098,-60.3049,18.689
638.849,24.9431,-3.43074,0,4.67987,12.2433,-1.2981,68.4756,46.7073,147.774,-10.4231,0.00718506,-1.44899,98.0183,-50.7012,15.0915
638.859,26.3655,-3.65,0,4.59604,11.4051,-0.675395,66.6159,43.8415,151.25,-10.0303,0.431104,-1.61664,96.3415,-38.0488,17.2866
638.869,27.8129,-3.89591,0,4.55293,10.7512,-0.58678,66.8598,45.4878,154.665,-9.62798,0.996328,-1.69807,84.8476,-28.811,24.4512
638.879,29.2273,-4.13902,0,4.30146,10.8183,-0.55325,61.8293,50.5183,156.829,-9.34776,1.25499,-1.67172,67.8963,-21.0671,30.9756
638.889,30.5395,-4.38295,0,3.85359,10.8351,-0.0598755,54.4207,42.5305,153.598,-9.2807,1.61424,-1.70046,48.9024,-16.9817,32.7744
638.899,31.7186,-4.62881,0,3.25723,10.6291,0.855022,44.6646,18.2317,147.866,-9.44835,1.81063,-1.7771,31.372,-12.2561,32.8354
638.909,32.7744,-4.8535,0,2.82373,10.3656,0.761616,39.6646,1.82927,141.372,-9.83156,1.88728,-1.79626,17.3171,-10.3963,30.4878
638.919,33.7469,-5.06375,0,3.15185,10.1309,-0.704136,39.4817,8.2622,130.854,-10.3273,1.77231,-1.86093,6.70732,-10.4878,27.9878
638.929,34.6108,-5.25608,0,3.88472,10.083,-1.91841,34.939,22.1341,114.024,-10.8015,1.5376,-1.89925,-0.823171,-10.5183,26.25
638.939,35.313,-5.42966,0,4.2775,9.65911,-2.13875,29.6951,24.5732,93.5366,-11.1009,1.18793,-1.89925,-4.39024,-13.9939,26.8598
638.949,35.8857,-5.5662,0,4.63197,8.88313,-1.82261,27.1037,20.3963,74.2988,-11.1177,0.795146,-1.75555,-2.95732,-19.3293,29.5427
638.959,36.2965,-5.65204,0,4.2775,8.88792,-1.18314,27.7439,13.811,62.7134,-10.8878,0.524509,-1.50407,0.609756,-26.5244,33.872
638.969,36.6277,-5.70942,0,4.22481,9.11305,-0.807122,27.1341,12.0427,57.1037,-10.5932,0.294587,-1.35079,9.87805,-33.5061,39.3598
638.979,36.9549,-5.75927,0,4.6176,8.95498,-0.795146,22.8659,16.5854,52.4695,-10.3177,0.198787,-1.2981,20.4268,-40.9451,43.5671
638.989,37.2747,-5.81931,0,4.93134,8.38975,-0.560435,18.9329,27.7744,45.9146,-9.92017,0.153281,-1.30529,29.5732,-44.5122,47.439
638.999,37.5425,-5.88178,0,4.98883,7.89398,-0.416733,19.4512,40.1829,37.5,-9.65672,0.229922,-1.29331,38.2012,-46.7378,49.7866
639.009,37.7622,-5.92279,0,5.12055,7.31918,-0.570015,20.8537,47.8659,27.6524,-9.53697,0.304167,-1.1999,47.2256,-51.2805,49.4817
639.02,37.8965,-5.94744,0,5.17324,6.95274,-0.905317,21.5854,54.6037,15.9756,-9.54176,0.452659,-1.14242,53.689,-56.9817,49.1159
639.029,37.8996,-5.99195,0,4.78046,7.18266,-1.40588,24.7561,61.5549,8.9939,-9.60403,0.59636,-1.24302,58.5366,-61.25,47.2866
639.039,37.4569,-6.03528,0,4.46432,6.90245,-1.48491,24.8171,61.5854,-0.945122,-9.7118,0.768801,-1.25978,58.811,-61.6159,44.2683
639.049,37.2308,-6.07005,0,4.15536,6.74917,-1.70765,24.6341,55.2134,-11.1585,-9.88904,0.969983,-1.2526,57.5305,-61.7378,41.5244
639.059,36.9105,-6.1004,0,4.01405,6.6366,-1.8274,24.1768,44.6951,-20.3049,-9.96328,1.15919,-1.24781,53.4451,-61.0366,36.372
639.069,36.4551,-6.12893,0,3.60929,6.66534,-1.9256,22.3476,29.7256,-29.1768,-10.016,1.20948,-1.2502,48.2012,-59.3902,31.9512
639.079,35.9076,-6.17193,0,3.4153,6.71803,-2.03098,18.3232,12.0427,-36.4634,-9.9537,1.28613,-1.30768,41.5549,-54.5122,28.3537
639.089,35.2144,-6.25384,0,2.89558,6.7348,-2.03816,16.189,-13.0793,-44.939,-9.93694,1.37714,-1.48012,36.0976,-46.7683,23.5671
639.099,34.3426,-6.34001,0,2.57465,7.20422,-2.09325,12.3476,-42.8963,-57.2256,-9.97286,1.2981,-1.51126,29.4817,-37.8049,18.3537
639.109,33.2976,-6.41025,0,2.44052,7.81255,-1.9735,4.63415,-66.9817,-71.9512,-9.99681,1.15679,-1.45378,23.0793,-32.4085,10.8841
639.119,32.1332,-6.46468,0,2.44052,8.04248,-1.68609,-5.82317,-85.1219,-85.3049,-9.91538,1.152,-1.37953,14.2683,-27.5,1.98171
639.129,30.9627,-6.52438,0,2.94587,7.92991,-1.04902,-14.7561,-98.2927,-95.4573,-9.73096,1.15919,-1.38193,6.15854,-22.3171,-6.89024
639.139,29.8712,-6.59808,0,4.11464,8.06882,-0.476609,-24.8171,-108.963,-103.323,-9.55134,1.24781,-1.42025,-2.37805,-14.5427,-11.9512
639.149,28.8996,-6.70031,0,5.50136,7.9323,-0.170046,-35.3659,-111.555,-109.085,-9.46991,1.27415,-1.53042,-8.2622,-5.39634,-16.4024
639.159,28.0702,-6.80574,0,6.69168,7.23535,-0.136516,-42.8659,-106.402,-112.927,-9.53936,1.36995,-1.54,-14.4207,3.38415,-20.5488
639.169,27.3729,-6.88145,0,7.47486,6.62941,-0.948428,-47.7439,-96.7988,-112.713,-9.63277,1.44659,-1.46815,-21.1585,10.3963,-24.1159
639.179,26.8288,-6.93144,0,8.17181,6.19592,-1.73639,-49.2073,-91.311,-107.47,-9.66151,1.53521,-1.36756,-27.2866,17.6829,-26.6159
639.189,26.4363,-6.97534,0,8.90229,6.13125,-2.58902,-44.7866,-87.2256,-98.4451,-9.70701,1.52084,-1.35079,-33.0793,23.7805,-30.0305
639.199,26.1804,-7.03847,0,9.66151,6.4426,-3.47517,-36.5549,-72.9878,-87.0732,-9.79803,1.2981,-1.44899,-35.4878,31.7683,-35.0305
639.209,25.9732,-7.12052,0,10.1357,7.2617,-4.00447,-25.4878,-50.3963,-78.689,-9.88664,0.893342,-1.54958,-38.5976,40.9756,-42.378
639.219,25.7462,-7.22331,0,9.4747,8.15504,-4.82117,-15.6098,-34.7866,-70.7317,-9.92975,0.598755,-1.65496,-39.4817,51.311,-49.2378
639.229,25.4892,-7.33213,0,8.02332,8.51429,-4.85231,-9.29878,-28.628,-62.0427,-9.88185,0.500559,-1.68609,-41.189,58.2317,-54.2073
639.239,25.2183,-7.41727,0,6.58391,8.51908,-4.22721,-5.2439,-22.8659,-52.561,-9.92017,0.62031,-1.59987,-43.872,64.8171,-51.8598
639.249,24.9794,-7.48295,0,5.89893,8.18378,-3.54942,-1.58537,-16.5244,-45.9451,-9.98723,0.737666,-1.53521,-48.8415,68.0793,-48.3537
639.259,24.7325,-7.54975,0,5.24988,8.09038,-3.1279,1.06707,-7.77439,-41.5244,-10.1429,0.768801,-1.57113,-50.7012,73.6585,-44.3598
639.269,24.4688,-7.56281,0,5.37921,8.83762,-1.96871,0.701219,8.10976,-40.3659,-10.2603,0.878972,-1.35079,-56.6768,76.6768,-40
639.279,24.0836,-7.59871,0,4.86189,9.98005,-1.60945,-1.82927,25.0915,-42.378,-10.3968,0.979563,-1.47294,-60.5793,82.0122,-37.7134
639.289,23.599,-7.61318,0,4.21284,10.4686,-1.94955,-6.15854,28.0488,-45.0305,-10.5884,0.922083,-1.3963,-60.0305,91.2805,-35.9756
639.299,23.0884,-7.6009,0,4.48827,11.1009,-1.9735,-13.3232,20.122,-48.872,-10.8997,0.869392,-1.30529,-58.4146,95.7927,-33.4146
639.309,22.6457,-7.50812,0,5.6738,11.9032,-2.01421,-22.4695,16.1585,-50.061,-11.35,0.579595,-0.946033,-53.872,99.6646,-31.9512
639.319,22.4018,-7.32467,0,7.05812,11.841,-1.90883,-30.6707,15.9451,-41.5244,-11.9464,0.203577,-0.500559,-48.5976,96.25,-31.4939
639.329,22.3391,-7.10625,0,7.26649,11.5248,-2.39023,-30.8232,11.6463,-26.4634,-12.514,-0.153281,-0.294587,-39.7866,93.0183,-32.4695
639.339,22.3883,-6.92747,0,6.81862,10.9572,-2.77822,-23.5671,10.3049,-14.4817,-12.7104,-0.59636,-0.467029,-36.128,98.4756,-34.0549
639.349,22.4164,-6.74122,0,5.48938,9.81479,-2.23695,-9.66463,15.3354,-11.0671,-12.5978,-1.0586,-0.373623,-39.0854,106.128,-36.3415
639.359,22.2544,-6.52373,0,3.68114,8.49513,-1.83458,3.07927,25.5183,-18.5976,-11.853,-1.01788,-0.150886,-44.8171,105,-40.061
639.37,21.7189,-6.26344,0,1.57832,8.07361,-1.48012,12.0122,34.939,-31.7988,-10.6674,-0.301772,0.100591,-50.4573,99.2378,-34.0854
639.379,20.8006,-5.85151,0,-0.376018,8.49513,-1.01788,17.0732,33.2317,-44.2073,-9.9082,0.275427,0.795146,-64.6951,90.7927,-29.3598
639.39,19.6806,-5.40857,0,-1.32924,8.60052,-1.06818,12.9878,21.1585,-53.9024,-9.2328,0.838257,0.924478,-85.4573,77.5915,-26.4024
639.4,18.4763,-4.88631,0,-1.62622,8.61728,-0.996328,3.20122,7.65244,-60.9146,-8.7538,1.27415,1.24541,-109.116,64.1159,-24.5122
639.41,17.2895,-4.24474,0,-1.42025,8.77535,-1.22386,-9.35976,-3.93293,-64.6341,-8.64602,1.19272,1.76034,-131.128,39.0549,-27.378
639.42,16.2416,-3.61364,0,-0.661025,9.03641,-1.33403,-21.6159,-11.7378,-63.1098,-8.49992,0.807122,1.76992,-149.238,14.2073,-35.9146
639.429,15.3793,-2.84822,0,0.0814307,9.41003,-1.16637,-31.0061,-18.9024,-55.8537,-8.37059,0.263452,1.37714,-165.183,-2.71341,-47.9573
639.439,14.7749,-2.47484,0,1.26457,9.55613,-1.07297,-35.6098,-25.1524,-45.6707,-8.45681,-0.313748,0.967588,-175.518,-10.3354,-61.0976
639.449,14.3652,-2.21021,0,2.09564,9.30226,-1.16398,-35.9756,-29.3902,-37.561,-8.64602,-0.787961,0.622705,-180.488,-17.8659,-70.9756
639.459,14.0788,-2.07042,0,2.58902,8.88792,-1.50407,-29.3902,-30.1829,-33.0488,-8.85199,-1.20948,0.186812,-176.463,-22.378,-71.0061
639.47,13.809,-2.08802,0,2.61536,8.69632,-1.99745,-19.8476,-24.5427,-32.9573,-9.12981,-1.71962,-0.419128,-165.183,-22.9573,-62.1951
639.479,13.4827,-2.15233,0,2.34472,8.7514,-2.50998,-11.2195,-10.0915,-35.7317,-9.75012,-1.76752,-0.651445,-153.293,-22.3171,-51.6463
639.489,13.079,-2.37287,0,2.0693,8.83283,-2.80217,-5.67073,8.23171,-40.5793,-9.79323,-2.42855,-1.34121,-131.037,-15.5183,-38.5366
639.499,12.5622,-2.59539,0,1.54958,8.92145,-2.72793,-2.7439,25.1524,-46.1585,-9.95849,-2.56746,-1.40588,-105.549,-8.93293,-25.3354
639.509,11.9453,-2.82086,0,1.08494,9.03641,-2.39262,-1.92073,37.2561,-51.2805,-10.0854,-2.57944,-1.47294,-82.439,-6.25,-18.8415
639.519,11.2478,-3.02843,0,0.443079,9.08191,-1.90404,0.213415,40.0915,-52.5,-10.2531,-2.58902,-1.45138,-61.4634,-4.96951,-20.4268
639.529,10.5585,-3.16637,0,0.280217,9.41482,-1.83219,0.823171,35.5183,-50.8537,-10.2818,-2.34712,-1.18074,-40.8232,-8.14024,-26.8293
639.539,9.89192,-3.24038,0,0.0550855,9.75252,-1.72441,-0.0609756,25.8232,-47.1341,-10.4111,-2.14354,-0.934058,-32.5,-18.4451,-34.1463
639.549,9.27885,-3.32559,0,0.0335303,9.70941,-1.71244,-1.37195,14.1463,-42.7744,-10.4495,-1.85135,-1.0083,-24.9695,-24.1159,-40.2744
639.559,8.7564,-3.41017,0,0.462239,9.65432,-1.73399,-3.29268,2.46951,-39.9695,-10.4111,-1.52323,-1.02028,-18.5366,-27.4085,-43.0793
639.569,8.32114,-3.48888,0,0.958008,9.57768,-1.81782,-6.37195,-7.16463,-38.2012,-10.2315,-1.31247,-0.993933,-16.0671,-30.4268,-43.3841
639.579,7.92797,-3.53488,0,1.16877,9.50823,-1.86333,-8.04878,-14.9695,-37.439,-10.0184,-1.21427,-0.845442,-13.0488,-35.0305,-42.6829
639.589,7.54014,-3.57411,0,1.04902,9.45793,-2.00703,-8.93293,-23.872,-36.311,-9.75012,-1.06339,-0.804727,-14.2378,-38.9329,-40.3659
639.599,7.16504,-3.64328,0,0.900527,9.40045,-2.12438,-11.4634,-33.2927,-34.0549,-9.48667,-1.00112,-0.917292,-13.5976,-40.8232,-39.4207
639.609,6.81406,-3.72627,0,0.766406,9.34297,-2.04535,-16.128,-40.5488,-30.7622,-9.24238,-0.969983,-0.962798,-13.628,-42.0732,-38.689
639.619,6.50003,-3.82861,0,0.740061,9.16334,-1.97589,-20.2439,-41.8902,-27.561,-9.07233,-0.910107,-1.03944,-11.7378,-45.5183,-38.0183
639.629,6.21731,-3.94881,0,0.778381,9.13939,-1.89925,-22.9268,-40.2744,-25.5183,-8.88552,-0.850232,-1.1065,-10.2439,-47.3476,-37.8354
639.639,5.99191,-4.04259,0,1.03225,9.17292,-1.74597,-24.1463,-37.3171,-23.4146,-8.83044,-0.826282,-1.01788,-7.71341,-52.2561,-36.4939
639.649,5.82471,-4.13632,0,1.37953,9.18969,-1.6813,-25.4268,-34.6341,-22.2561,-8.87355,-0.826282,-1.04183,-4.42073,-57.9268,-34.4512
639.659,5.72545,-4.22505,0,1.88249,9.09628,-1.55676,-26.0061,-32.439,-22.1037,-8.91426,-0.934058,-1.04183,-3.29268,-58.4451,-31.128
639.669,5.65876,-4.28833,0,2.19863,9.09149,-1.52323,-25.6707,-30.9146,-22.8659,-9.07473,-1.00591,-0.974773,-3.65854,-62.1951,-28.811
639.679,5.61643,-4.38164,0,2.49082,9.0867,-1.70046,-24.6646,-27.9268,-24.0549,-9.14658,-1.05141,-1.11608,-6.43293,-63.1098,-24.5427
639.689,5.55715,-4.52241,0,2.46208,9.09868,-1.79387,-22.0732,-23.8415,-25.4878,-9.23999,-1.17356,-1.33882,-8.53659,-62.2256,-20.4878
639.699,5.47655,-4.64564,0,2.47885,9.22083,-1.98547,-20.5488,-15.9146,-27.5915,-9.40285,-1.28852,-1.31008,-12.6829,-60.122,-16.128
639.709,5.37016,-4.78685,0,2.48843,9.30226,-2.26808,-17.8963,-4.93902,-30.2439,-9.50104,-1.37714,-1.42025,-14.3902,-58.628,-14.2378
639.719,5.21918,-4.97215,0,2.4046,9.46512,-2.32317,-15.2439,3.75,-33.5366,-9.47709,-1.33163,-1.62622,-16.4634,-54.6951,-9.26829
639.729,5.02594,-5.2066,0,2.49801,9.45554,-2.48364,-11.189,13.5061,-39.2683,-9.32142,-1.28852,-1.83219,-16.4329,-45.9756,-3.23171
639.739,4.72473,-5.47745,0,2.08606,9.29986,-2.5004,-7.19512,22.8963,-46.2805,-9.10586,-1.15679,-1.9735,-13.1098,-36.8293,3.96341
639.749,4.28284,-5.77219,0,1.48731,9.2831,-2.4549,-2.28659,29.878,-54.0244,-8.90468,-1.07297,-2.0669,-7.83537,-29.7561,11.4939
639.759,3.71735,-6.12083,0,0.948428,9.51541,-2.07409,-2.86585,26.0671,-60.5793,-8.71308,-1.12326,-2.28485,-2.65244,-23.7805,18.9024
639.769,3.06618,-6.43812,0,0.524509,9.69025,-1.79147,-1.79878,24.7561,-65.1829,-8.6556,-1.29331,-2.19384,3.59756,-18.0488,22.5
639.779,2.3631,-6.75375,0,0.0838257,10.0136,-1.34121,-2.13415,15.4573,-66.4634,-8.59093,-1.69328,-2.21779,11.4329,-13.4451,25.5183
639.789,1.73482,-6.98893,0,0.268242,10.0495,-1.32205,-6.43293,8.96341,-62.4085,-8.71069,-1.95194,-1.96871,18.3232,-9.14634,24.2378
639.799,1.22378,-7.13713,0,0.689766,10.21,-1.60706,-10.061,2.7439,-56.4939,-8.85678,-2.07648,-1.6813,23.4756,-6.70732,25.6402
639.809,0.801029,-7.39108,0,0.907712,10.1525,-1.63101,-14.4207,-4.08537,-51.0671,-8.90229,-2.34472,-1.88249,28.9939,2.19512,26.8293
639.819,0.464054,-7.6049,0,1.27655,9.94173,-1.65017,-18.2622,-10.4268,-47.6829,-8.98132,-2.44052,-2.02619,36.2195,15.6402,29.878
639.829,0.211439,-7.78173,0,1.66214,10.0998,-1.67651,-20.7622,-15.122,-43.9024,-9.20885,-2.51477,-1.94715,41.6463,26.5549,31.6159
639.839,0.0579689,-7.86801,0,2.16031,10.4686,-1.93039,-23.2012,-15.061,-39.0244,-9.72857,-2.33035,-1.6813,46.4329,31.4329,32.622
639.849,-0.0275604,-7.85122,0,2.42136,10.8566,-2.10283,-27.622,-11.9817,-34.2683,-10.2866,-1.9735,-1.31487,45.2439,32.2561,35.0305
639.859,-0.0573269,-7.7869,0,2.5962,11.0698,-2.33275,-33.1098,-12.0122,-30.0305,-10.7848,-1.5879,-1.14242,37.1037,36.4329,36.9512
639.869,-0.028526,-7.75793,0,2.39741,10.7369,-2.44771,-36.8293,-14.9695,-22.8659,-11.1608,-1.26936,-1.33882,23.8415,43.4146,37.9268
639.879,0.0921052,-7.89912,0,2.56267,10.2818,-2.78062,-38.2317,-19.6646,-16.311,-11.077,-0.907712,-2.15791,14.9695,60.5488,37.9268
639.889,0.316035,-8.16624,0,2.66805,9.68067,-3.26441,-38.3841,-25.8841,-8.41463,-10.7129,-0.534089,-2.71835,11.4939,82.1341,38.9329
639.899,0.793535,-8.47879,0,2.60339,9.16334,-3.82964,-37.1646,-31.0976,0.914634,-10.3465,-0.608335,-2.8836,14.2683,98.1098,41.8902
639.909,1.22517,-8.73688,0,2.61536,8.81846,-3.80569,-31.7683,-34.2073,11.9512,-10.3537,-0.737666,-2.67045,21.4024,107.774,48.0183
639.919,1.81106,-8.87643,0,2.96982,8.72027,-3.71228,-25,-34.3293,23.9024,-10.7848,-0.953218,-2.23695,29.7866,109.695,50.7012
639.929,2.56052,-8.88893,0,3.3674,8.658,-3.43925,-19.1159,-33.4146,36.7988,-11.5105,-0.948428,-1.75315,40.4878,107.5,53.5366
639.939,3.52297,-8.80727,0,4.15296,8.95977,-3.18298,-15.0305,-29.2683,52.6829,-12.2122,-0.859812,-1.34361,45.061,110.732,56.6159
639.949,4.70354,-8.67014,0,5.02475,9.20646,-2.78301,-11.8293,-24.9085,69.2378,-12.7343,-0.855022,-1.06099,43.2317,117.53,51.189
639.959,6.07883,-8.45289,0,5.77439,9.26873,-2.52675,-8.07927,-20.4573,84.7866,-11.9152,-1.80824,-0.522114,35.9756,136.402,53.5671
639.969,7.58808,-8.03468,0,6.13843,9.22801,-2.56986,-3.5061,-16.2805,97.7744,-12.6601,-1.3005,0.59636,14.0244,118.994,48.628
639.979,9.18484,-7.58407,0,5.92049,8.74661,-2.70637,6.64634,-12.439,108.841,-13.9797,0.277822,0.936453,-3.87195,98.5671,41.4024
639.989,10.7726,-7.33321,0,5.18522,9.03162,-2.08127,12.5915,-8.65854,119.817,-13.5558,0.253872,-0.179626,-13.3537,99.0244,44.6951
639.999,12.2392,-7.14088,0,3.4129,9.83635,-2.03337,10.3049,-1.70732,132.591,-12.4804,0.364043,-0.435894,-16.5854,96.1585,49.5427
640.009,13.6881,-6.77699,0,2.04295,9.15856,-1.14482,10.5793,-11.372,147.165,-11.271,-0.335303,0.476609,-7.16463,75.4268,44.4512
640.019,15.2346,-6.34642,0,1.92799,7.95386,-0.617915,12.2256,-27.4085,157.927,-9.88425,-0.752036,0.752036,8.35366,51.4939,36.5549
640.029,16.8594,-5.87887,0,1.8777,7.66885,0.646655,16.372,-34.2988,168.811,-8.66758,-0.823887,0.857417,27.8963,38.2012,31.0976
640.039,18.4215,-5.49697,0,0.833467,7.5994,1.67651,28.872,-41.0976,181.037,-7.91314,-0.608335,0.541274,37.6829,29.9085,30.4268
640.049,19.8184,-5.15398,0,-0.483794,7.86045,1.12566,46.2195,-41.1585,187.317,-7.65688,-1.14482,0.443079,68.9024,29.7561,28.5366
640.059,21.1476,-4.7578,0,-1.0083,9.33818,1.0562,59.6951,-47.1951,188.659,-7.63053,-1.08494,0.661025,87.3781,20.3354,24.3598
640.069,22.5089,-4.38047,0,-0.416733,11.9032,0.00479004,68.0488,-55.1524,186.159,-8.04966,-1.04662,0.677791,97.2256,9.72561,17.0122
640.079,23.902,-4.06476,0,1.11608,13.6277,-1.80105,68.7805,-56.4634,178.537,-8.59333,-0.759221,0.531694,95.0915,6.40244,9.42073
640.089,25.2781,-3.82167,0,2.98659,14.4539,-2.4022,68.0488,-60.6098,165.366,-9.11544,-0.201182,0.325723,86.8598,6.03659,7.19512
640.099,26.5768,-3.66192,0,4.66789,14.1282,-2.6465,68.1707,-60.7622,146.799,-9.63756,0.464634,0.0287402,78.9939,4.93902,12.8354
640.109,27.8126,-3.52303,0,5.87738,12.4206,-1.90165,71.7988,-50.5488,128.659,-9.92736,1.06099,-0.0383203,67.0122,4.17683,22.5305
640.119,28.9857,-3.36826,0,5.99234,10.6267,-1.20469,80.2439,-33.0793,116.433,-10.2052,1.39151,-0.0191602,54.4207,2.10366,34.6951
640.129,30.1004,-3.11242,0,5.80553,10.0327,-0.613125,88.8719,-10.5488,111.555,-10.3082,1.45617,-0.0191602,37.0122,0.0914634,46.4024
640.139,31.1676,-2.99925,0,5.68338,9.9537,-0.428708,96.9817,13.1707,109.665,-10.1549,1.36995,-0.0550855,22.0122,-4.69512,52.7134
640.149,32.2286,-2.91899,0,5.91091,10.0663,-0.469424,102.165,38.5976,109.787,-9.94652,1.24062,-0.177231,8.14024,-9.72561,58.872
640.159,33.2264,-2.90425,0,5.25707,10.5908,-0.249082,103.72,67.8049,113.72,-9.73575,1.07536,-0.447869,-1.89024,-17.5915,62.5305
640.169,34.1642,-2.94468,0,4.86428,10.5213,-0.239502,97.6829,95.9756,112.866,-9.58247,0.948428,-0.677791,-6.61585,-24.4207,62.1951
640.179,35.0011,-3.00434,0,4.11943,10.3585,-0.0766406,87.9878,116.951,110.854,-9.5202,0.845442,-0.766406,-9.11585,-30.5793,59.8171
640.189,35.768,-3.05448,0,3.76737,9.91299,-0.0263452,76.0976,128.415,107.226,-9.49386,0.795146,-0.740061,-11.2195,-37.7134,53.1707
640.199,36.4573,-3.09198,0,3.6045,9.46033,-0.129331,68.0488,129.848,100.762,-9.56092,0.747246,-0.706531,-16.311,-45.4268,46.7378
640.209,37.0419,-3.10843,0,3.13748,9.29986,-0.313748,63.1707,128.537,96.0061,-9.60403,0.740061,-0.62989,-19.5427,-49.5427,41.372
640.219,37.5293,-3.16214,0,2.79499,8.98372,-0.699346,58.0488,120.152,90.061,-9.63516,0.665815,-0.795146,-24.6951,-51.0976,36.8293
640.229,37.9199,-3.22137,0,2.56267,8.74182,-1.06099,55.3049,107.073,83.1098,-9.56571,0.574805,-0.821492,-29.2378,-50.6098,33.628
640.239,38.217,-3.2954,0,2.55549,8.66758,-1.35079,53.3537,94.8781,74.1768,-9.51781,0.428708,-0.890947,-33.1402,-51.9207,31.6159
640.249,38.3747,-3.37111,0,2.13396,8.5598,-1.42983,53.3841,77.3781,65.5183,-9.4268,0.313748,-0.902922,-35.9756,-53.3232,28.9024
640.26,38.3479,-3.50134,0,1.67651,8.21492,-1.18074,49.9085,60.3049,52.0427,-9.32381,0.261057,-1.13284,-40.2439,-54.1159,26.4634
640.269,38.1025,-3.67812,0,1.14482,7.83411,-1.19511,44.6951,43.0488,36.25,-9.33339,0.210762,-1.35079,-41.2195,-54.4817,23.3232
640.279,37.5952,-3.85997,0,0.225132,8.49753,-1.16877,34.6951,21.5244,22.8963,-9.35495,0.320933,-1.40588,-42.1341,-55.7927,20.3963
640.289,36.9713,-4.04474,0,0.330513,7.43893,-1.34121,32.6524,7.68293,8.23171,-9.45554,0.438289,-1.46575,-38.9329,-57.7439,17.8354
640.299,36.1047,-4.20013,0,-0.270637,7.48204,-1.48731,23.5671,-15.4268,-8.44512,-9.63756,0.483794,-1.40109,-33.7805,-61.1585,13.2012
640.309,35.027,-4.36564,0,-0.64426,7.03178,-1.13284,17.2866,-48.689,-25.6098,-9.69983,0.435894,-1.48252,-30.2134,-62.6829,5.06098
640.319,33.7755,-4.54234,0,-0.938848,6.96232,-1.33882,4.96951,-75.1219,-40.5488,-9.60163,0.431104,-1.54239,-28.9939,-60.2439,-3.81098
640.329,32.3995,-4.76628,0,-0.979563,6.98627,-1.46815,-0.243902,-107.591,-55.1829,-9.45554,0.493374,-1.74597,-27.8963,-53.4451,-10.7012
640.339,31.0817,-5.03243,0,0.318538,7.58503,-2.38065,-6.21951,-134.787,-73.2622,-9.24957,0.541274,-1.91602,-29.5732,-43.5671,-16.372
640.349,29.8907,-5.3432,0,2.54112,8.2221,-2.24892,-21.6159,-134.36,-93.1402,-9.01964,0.66821,-2.09085,-38.2927,-34.6037,-20.7622
640.359,28.8162,-5.61013,0,4.58407,8.15744,-1.43701,-39.3293,-117.226,-108.506,-8.86876,0.855022,-1.92081,-44.7256,-27.5915,-22.561
640.369,27.8832,-5.80708,0,6.36357,7.60179,-0.541274,-51.8293,-97.8354,-117.896,-8.93582,1.00591,-1.68849,-54.0549,-23.5671,-24.5732
640.379,27.0743,-6.00038,0,7.93709,7.39343,-0.55804,-54.7561,-81.0366,-121.616,-8.96456,1.16398,-1.70765,-61.8598,-19.5427,-28.1402
640.389,26.3633,-6.20532,0,9.44835,7.22577,-1.52802,-52.8354,-68.0793,-124.634,-8.92145,1.27415,-1.76992,-67.3781,-9.48171,-28.9634
640.399,25.7641,-6.45813,0,10.3824,7.0198,-3.23807,-49.8171,-50.3963,-121.494,-8.91187,1.53042,-1.93997,-74.2378,4.29878,-28.5061
640.409,25.2676,-6.67259,0,10.1333,6.46655,-4.46192,-39.878,-42.0122,-115.335,-9.12742,1.66693,-1.90404,-80.5793,18.2622,-26.5854
640.419,24.8333,-6.85354,0,10.0663,6.80904,-5.74565,-30.2744,-30.2439,-106.89,-9.48428,1.52084,-1.85854,-85.9756,31.2805,-26.6159
640.429,24.4359,-6.97619,0,10.5309,7.58503,-5.93965,-27.7439,1.18902,-100.549,-10.0735,1.08015,-1.73399,-86.4634,37.1646,-30.5488
640.439,24.1204,-7.07471,0,10.5668,8.1287,-5.58279,-18.4451,32.5305,-89.3293,-10.6051,0.500559,-1.7316,-82.2561,38.5061,-38.75
640.449,23.9405,-7.17451,0,9.76689,8.14546,-5.41514,-5,42.5305,-71.5244,-10.9524,-0.0239502,-1.81303,-69.6037,39.5427,-44.9695
640.459,23.9567,-7.31186,0,8.72745,7.83411,-5.25946,8.71951,28.4146,-47.622,-11.2015,-0.522114,-2.05972,-51.2805,45.2134,-45.061
640.469,24.175,-7.50473,0,8.23887,7.3096,-5.35047,20.9146,15.2134,-27.6524,-11.2781,-1.17116,-2.37586,-38.75,57.8354,-45.3963
640.479,24.4113,-7.71145,0,6.77312,7.24493,-4.54096,23.3537,17.3171,-14.4512,-11.1344,-1.49449,-2.44292,-33.7805,70.7927,-48.1707
640.489,24.504,-7.92926,0,5.22593,7.94667,-3.45841,22.9573,27.9878,-8.75,-10.8183,-1.22625,-2.46208,-35,78.8719,-49.5427
640.499,24.449,-8.07756,0,4.8068,9.40524,-2.02858,14.939,35.2439,-10.8537,-10.5477,-0.65863,-2.10043,-42.1037,83.2012,-52.0732
640.509,24.2097,-8.16926,0,5.00799,11.3093,-0.833467,6.67683,42.1037,-23.2622,-10.7608,-0.0455054,-1.89446,-54.2378,82.5305,-53.75
640.519,23.6898,-8.2265,0,4.12422,12.4325,-1.15919,1.92073,33.7805,-41.0976,-11.2159,0.359253,-1.81542,-63.2012,84.9695,-56.4329
640.529,22.9482,-8.25125,0,3.93741,14.0827,-1.61185,-11.7683,19.2683,-59.2073,-11.7907,0.63468,-1.73878,-69.6951,93.4146,-58.75
640.539,22.1447,-8.21357,0,4.92177,14.897,-0.926873,-33.2012,6.85976,-72.4695,-12.5643,0.60594,-1.50168,-74.4207,97.8049,-61.5244
640.549,21.5592,-8.02474,0,6.82102,13.8456,0.318538,-57.8963,3.9939,-68.0793,-13.4408,0.419128,-0.706531,-72.1341,88.1402,-63.4756
640.559,21.1682,-7.70495,0,6.5384,12.9882,0.570015,-67.1341,1.82927,-50.4268,-14.236,-0.0335303,0.0934058,-65.9146,65.7012,-63.0488
640.57,20.8945,-7.31558,0,4.90979,12.0517,-0.352068,-55.4573,-11.7683,-29.9695,-14.6815,-0.656235,0.60115,-66.189,43.8415,-61.6768
640.58,20.6261,-6.99891,0,3.67157,10.2148,-0.859812,-37.5305,-26.5854,-25.0915,-13.7522,-1.13284,0.210762,-71.25,39.7866,-56.7988
640.59,20.1807,-6.69262,0,2.41657,8.23168,-0.64905,-16.189,-23.1707,-36.7378,-12.035,-0.783171,0.189207,-79.4207,33.3232,-41.9207
640.6,19.3422,-6.222,0,0.66821,8.21013,-1.71483,0.396341,0.121951,-53.872,-10.6123,-0.232317,0.977168,-90.3659,13.9634,-23.6585
640.61,18.0144,-5.64144,0,-1.88009,8.49513,-2.55549,5.51829,19.1159,-70.5488,-9.50823,-0.165256,1.39869,-99.7866,-6.89024,-5.70122
640.62,16.412,-4.96393,0,-3.40572,8.61728,-2.44531,0.914634,23.5366,-82.7439,-8.69632,-0.119751,1.74597,-117.226,-23.2317,0.731707
640.629,14.8366,-4.22301,0,-2.65608,8.26042,-2.26808,-9.87805,25.2134,-90.8841,-8.01613,-0.0742456,1.93278,-136.159,-38.4756,3.75
640.639,13.4231,-3.56398,0,-1.47294,8.21252,-1.78189,-19.1463,27.5305,-93.2012,-7.47486,0.102986,1.61185,-151.982,-50.6098,5.33537
640.649,12.2608,-3.06849,0,-0.0790356,8.26761,-1.16877,-23.9329,32.0732,-90.0915,-7.29283,0.0862207,1.11129,-155.457,-57.4085,6.03659
640.659,11.3252,-2.74669,0,0.787961,8.52387,-0.651445,-25.4573,31.5549,-81.2195,-7.50839,-0.232317,0.622705,-151.311,-63.9939,6.31098
640.669,10.5873,-2.54134,0,1.11368,8.72027,-0.443079,-25.4878,18.9024,-67.0427,-8.03529,-0.948428,0.296982,-132.104,-65.1219,4.14634
640.679,9.99078,-2.41717,0,1.12326,8.73943,-0.759221,-22.2561,-0.335366,-54.2073,-8.91187,-1.73878,0.0407153,-110.823,-67.1646,-3.81098
640.689,9.51881,-2.41601,0,1.32924,8.60052,-1.55437,-15.3049,-11.6463,-45.7012,-9.75012,-2.48843,-0.457449,-92.5305,-60.3049,-14.7866
640.699,9.10873,-2.49209,0,1.4897,8.56219,-2.55309,-6.67683,-8.53659,-42.561,-10.5165,-3.1758,-0.845442,-69.5427,-52.3171,-27.439
640.709,8.69306,-2.60832,0,1.51126,8.71548,-3.20693,0.121951,1.7378,-43.9024,-10.768,-3.44404,-1.06818,-43.5976,-48.0488,-37.0122
640.719,8.23609,-2.73034,0,1.37474,8.93582,-3.44164,2.68293,8.78049,-46.7378,-10.3872,-3.28836,-1.07536,-17.9268,-44.6951,-41.4024
640.729,7.70949,-2.85896,0,0.977168,9.13221,-3.13269,1.58537,8.5061,-49.3902,-9.52499,-2.8357,-1.03465,0.640244,-44.6646,-41.0061
640.739,7.16365,-2.96421,0,0.787961,9.15856,-2.65129,-0.182927,4.48171,-50,-8.92863,-2.37107,-0.900527,13.689,-48.9939,-38.5366
640.749,6.61453,-3.07365,0,0.464634,9.29028,-1.94476,-3.01829,-3.9939,-47.2561,-8.74422,-2.07648,-0.912502,21.9512,-46.4024,-38.4451
640.759,6.18293,-3.13966,0,0.941243,9.46272,-1.40348,-6.21951,-7.34756,-42.1341,-8.83762,-1.85854,-0.768801,22.6829,-46.7073,-39.2073
640.769,5.87163,-3.22482,0,1.48491,9.54415,-1.02746,-10.0915,-14.6646,-37.1951,-9.12742,-1.64538,-0.886157,21.6768,-51.5244,-39.939
640.779,5.66301,-3.32183,0,1.98308,9.5681,-0.929268,-14.878,-20.6098,-33.2012,-9.36692,-1.49449,-0.974773,22.4085,-53.9024,-41.372
640.789,5.50095,-3.39614,0,2.14594,9.53936,-0.991538,-19.4207,-26.7378,-30.8537,-9.45314,-1.22625,-0.905317,20.7012,-54.9695,-38.4756
640.799,5.35521,-3.45475,0,2.17947,9.53936,-1.42025,-23.75,-33.4451,-29.9085,-9.4747,-0.996328,-0.852627,18.628,-53.7195,-32.8659
640.809,5.17968,-3.5367,0,1.93518,9.37171,-1.72441,-25.7622,-38.9634,-30.7927,-9.34776,-0.847837,-0.946033,17.4085,-51.4634,-26.2195
640.819,4.95115,-3.63112,0,1.58071,9.16813,-2.15552,-25.2134,-43.3232,-32.7134,-9.12742,-0.65863,-0.984353,19.878,-47.3171,-17.7439
640.829,4.66217,-3.74375,0,1.20709,9.01964,-2.51717,-22.9268,-44.6951,-34.939,-8.97414,-0.538879,-1.05381,21.8293,-44.9085,-9.84756
640.839,4.3228,-3.88493,0,0.917292,8.93821,-2.79259,-19.6341,-42.2561,-37.0732,-8.87355,-0.490979,-1.17116,25.1829,-42.3476,-1.92073
640.849,3.94893,-4.00091,0,0.756826,8.96456,-2.87881,-17.4695,-36.1585,-39.1768,-8.81128,-0.469424,-1.08494,25.1524,-41.5854,4.78659
640.859,3.61043,-4.10303,0,1.08494,9.09389,-2.54351,-17.7744,-28.0183,-40.3659,-8.8017,-0.541274,-1.04902,23.1402,-43.8415,8.90244
640.869,3.30601,-4.18067,0,1.36277,9.0891,-1.98787,-19.4512,-20.4573,-41.0976,-8.93821,-0.682581,-0.986748,18.3841,-47.7134,11.5549
640.879,3.05143,-4.24113,0,1.80345,8.9909,-1.6334,-20,-14.0244,-42.378,-9.07712,-0.878972,-0.948428,11.7683,-52.0427,13.3232
640.889,2.84738,-4.31929,0,2.27766,8.9933,-1.35798,-19.1768,-6.98171,-43.5976,-9.20166,-1.0562,-1.04423,6.79878,-52.4085,11.6768
640.899,2.6533,-4.41977,0,2.43334,8.97893,-1.27176,-17.378,-1.52439,-44.939,-9.29747,-1.24781,-1.16158,2.80488,-53.5061,10.6707
640.909,2.4349,-4.54514,0,2.30161,8.95737,-1.29571,-15,2.07317,-46.2805,-9.35255,-1.43701,-1.28852,2.37805,-52.2561,11.4024
640.919,2.15267,-4.69612,0,1.85614,9.07952,-1.4921,-13.1707,4.29878,-47.4085,-9.33579,-1.58311,-1.41306,6.03659,-50.3659,12.4695
640.929,1.81795,-4.85864,0,1.52084,9.35974,-1.76034,-12.4085,4.87805,-48.5976,-9.19209,-1.63819,-1.46336,9.57317,-49.5427,13.9024
640.939,1.39759,-5.07203,0,0.859812,9.59445,-1.79626,-12.0427,3.2622,-49.6341,-9.00048,-1.60227,-1.66454,13.5976,-46.5854,17.7744
640.949,0.983863,-5.33163,0,0.890947,9.74054,-2.28964,-14.939,3.9939,-50.0305,-8.78493,-1.47533,-1.83938,17.2561,-40.0305,23.9024
640.959,0.541836,-5.63444,0,0.708926,9.78366,-2.26569,-17.4085,0.701219,-51.5549,-8.58375,-1.346,-2.00463,19.7561,-33.689,30.9451
640.969,0.0983435,-5.95243,0,0.723296,9.75252,-2.18665,-19.7256,-4.45122,-52.8049,-8.44244,-1.27894,-2.07409,24.6037,-27.9268,38.7805
640.979,-0.34399,-6.23737,0,0.759221,9.74773,-2.15552,-21.9817,-8.59756,-54.0244,-8.42089,-1.2023,-1.98547,28.628,-24.0244,45.2134
640.989,-0.745624,-6.47394,0,0.972378,9.86748,-2.1172,-25.4573,-13.7195,-53.1707,-8.41131,-1.26936,-1.83698,30.8537,-21.8598,48.872
640.999,-1.10104,-6.68927,0,1.18553,9.93454,-2.10043,-26.7683,-16.8902,-51.6768,-8.44484,-1.36756,-1.79387,34.1463,-16.372,50.3659
641.009,-1.38396,-6.87261,0,1.55437,9.81479,-2.14354,-26.4329,-19.7561,-49.4817,-8.56938,-1.58311,-1.71962,37.439,-7.71341,50.5793
641.019,-1.58369,-7.12844,0,1.96392,9.65193,-2.39741,-25.8841,-20.4878,-46.6768,-8.77775,-1.83698,-1.88488,40.9756,2.80488,48.872
641.029,-1.69923,-7.30784,0,2.4022,9.24238,-2.72793,-24.878,-20.2134,-44.7561,-9.17053,-2.00224,-1.88249,43.811,11.7683,47.4085
641.039,-1.74458,-7.41109,0,2.72793,9.13939,-2.50519,-24.0549,-25.7927,-42.0122,-9.64953,-1.94236,-1.67172,44.7866,17.5305,47.8049
641.049,-1.71581,-7.3562,0,3.02012,9.34776,-2.692,-24.0549,-22.9268,-37.1646,-10.3249,-1.73878,-1.07536,39.4817,15.9146,50.7317
641.059,-1.63914,-7.1259,0,3.11592,9.68546,-2.72314,-25.8537,-13.75,-32.0732,-11.1919,-1.49449,-0.292192,22.3476,9.17683,51.7988
641.069,-1.53207,-7.02555,0,3.02491,9.76928,-2.51477,-26.4024,-6.46341,-27.5305,-11.4817,-0.972378,-0.912502,3.93293,9.66463,50.4573
641.079,-1.38494,-7.15426,0,2.93629,9.70462,-2.23695,-26.5549,-2.04268,-22.4695,-11.1656,-0.0335303,-1.99984,-8.62805,24.5122,52.4695
641.089,-1.23962,-7.49591,0,2.43573,9.68785,-2.24653,-28.1402,-0.884146,-16.7988,-10.0974,-0.498164,-2.79978,-4.45122,57.4695,65.6098
641.099,-1.10198,-7.92666,0,1.89446,9.68785,-2.36867,-28.4451,-2.28659,-11.0671,-10.1693,-0.256267,-3.31231,-2.40854,67.0427,67.561
641.109,-0.887632,-8.38754,0,1.77231,9.55134,-2.57465,-25.3659,-6.15854,-3.2622,-9.83156,-1.13524,-3.4153,9.90854,82.6219,62.439
641.119,-0.585985,-8.78728,0,1.91123,9.65193,-2.94348,-21.4939,-9.87805,6.03659,-9.96328,-1.94955,-3.24286,32.9573,91.4939,54.8171
641.129,-0.15747,-9.0258,0,2.27048,9.87227,-3.47517,-18.872,-12.7134,16.0976,-10.7728,-2.34951,-2.75188,57.8049,97.1646,46.6159
641.139,0.441699,-9.09873,0,2.77343,9.8579,-3.69791,-15.9756,-14.0549,28.75,-11.8003,-2.46208,-2.15312,77.0732,106.433,39.4512
641.149,1.26793,-8.97931,0,3.47278,9.44835,-3.59013,-13.8415,-16.4634,44.0244,-12.9714,-2.29922,-1.25978,86.4329,108.262,32.4085
641.159,2.34941,-8.69472,0,4.24876,9.05557,-3.37219,-12.8049,-19.6951,61.6463,-13.8408,-1.88967,-0.308958,82.3781,103.841,25.3354
641.169,3.64667,-8.17828,0,4.6152,8.70829,-3.38177,-9.35976,-23.0793,80.1829,-14.7198,-1.16158,1.22625,64.5427,83.9329,17.7134
641.179,5.13706,-7.554,0,4.73974,8.25324,-3.76018,-2.31707,-25.6098,98.5671,-15.6275,-0.320933,2.1627,44.7866,59.1768,12.7439
641.189,6.77931,-7.11808,0,4.68705,8.09756,-3.36261,6.76829,-25.2744,116.707,-15.6778,1.07776,1.02267,26.7988,56.189,15.3354
641.199,8.50115,-6.76706,0,4.42839,8.88313,-2.7399,9.93902,-18.9024,135.457,-14.4084,1.65496,0.507744,20.5183,54.9695,23.75
641.209,10.2248,-6.4657,0,3.51349,9.69743,-2.27527,6.34146,-10.5793,152.591,-12.0829,0.936453,0.237107,17.8049,56.8293,24.6646
641.219,12.0011,-6.10146,0,2.93869,8.61728,-0.991538,6.85976,-21.8293,163.689,-9.75012,0.0215552,0.505349,19.1768,47.378,21.8293
641.229,13.8379,-5.7055,0,2.89797,7.63053,0.189207,10.6707,-32.5,169.482,-8.09996,-0.404758,0.5772,27.8963,36.0976,19.4207
641.239,15.5778,-5.26994,0,1.98787,7.47725,1.57832,21.2805,-31.3415,175.396,-7.16111,-0.752036,0.682581,50.6707,30.5793,23.1707
641.249,17.091,-4.74817,0,0.431104,7.85087,2.07888,40.0305,-29.2988,179.787,-7.0701,-0.919688,0.993933,73.2622,19.4207,25.4878
641.259,18.4688,-4.27984,0,-0.232317,9.84593,2.23455,57.1646,-35.7622,178.232,-7.2593,-1.15679,0.900527,95.8537,8.56707,24.4207
641.269,19.8185,-3.27019,0,-0.119751,11.9416,0.378413,70.3963,-39.5427,176.585,-7.63772,-1.32924,0.855022,107.134,2.34756,15.3049
641.279,21.1618,-2.77362,0,0.768801,13.6013,-1.64538,72.1646,-38.3537,170.915,-8.23647,-1.26218,0.890947,102.226,-3.23171,2.7439
641.289,22.4736,-2.47497,0,2.51956,14.3605,-2.40699,68.5366,-35.8841,156.738,-8.95977,-0.684976,0.737666,90.4573,-12.4085,-7.7439
641.299,23.7123,-2.29837,0,4.17691,13.9845,-2.77583,68.5366,-33.3537,138.323,-9.51302,-0.0670605,0.316143,77.3476,-16.4329,-9.08537
641.31,24.8885,-2.17499,0,5.22833,12.332,-2.48843,71.2805,-21.0976,121.524,-9.8555,0.694556,0.124541,67.3171,-18.811,0.97561
641.319,26.0148,-2.07098,0,5.15169,10.6602,-1.71244,75.8537,-5.03049,113.079,-10.1094,1.37235,0.0622705,52.1646,-19.939,17.8049
641.329,27.0976,-1.99581,0,4.91937,10.0399,-0.902922,78.0183,9.90854,110.305,-10.1549,1.65735,-0.0502954,34.939,-22.4085,34.4512
641.339,28.1668,-1.94254,0,4.93134,9.97047,-0.407153,81.25,29.3902,110.701,-9.96807,1.59987,-0.134121,19.1159,-24.2988,46.8598
641.349,29.2387,-1.92493,0,4.99362,9.98244,-0.126936,85.4268,51.8902,112.622,-9.62558,1.42025,-0.275427,5.06098,-28.5671,52.8659
641.359,30.2338,-1.95198,0,4.10985,10.7225,-0.0622705,85.3049,76.0976,118.415,-9.34776,1.18793,-0.447869,-6.58537,-27.2866,56.2805
641.369,31.2233,-2.00784,0,3.96615,10.5788,-0.273032,82.5915,97.4695,120.732,-9.24478,1.0107,-0.565225,-13.0793,-27.5,55.5793
641.379,32.1268,-2.09094,0,3.36261,10.3034,-0.258662,78.2317,108.567,119.024,-9.31184,0.816702,-0.692161,-17.561,-29.2073,51.0061
641.389,32.9354,-2.17461,0,2.91474,9.99921,-0.476609,71.6768,111.616,114.909,-9.47709,0.673001,-0.720901,-17.8659,-29.5427,46.0061
641.399,33.6227,-2.26422,0,2.41418,9.51541,-0.445474,68.3537,106.494,108.293,-9.6663,0.524509,-0.775986,-16.9817,-30.7622,37.5305
641.409,34.1972,-2.36754,0,2.14594,9.29268,-0.677791,64.9695,98.6281,100.701,-9.71659,0.356858,-0.855022,-15.5793,-31.4329,28.5366
641.419,34.6474,-2.45907,0,1.7292,9.34058,-0.888552,61.7073,84.0549,94.3293,-9.70462,0.225132,-0.819097,-15.8537,-29.4207,23.3232
641.429,35.0072,-2.53786,0,1.80105,9.31423,-1.19272,57.4085,66.7073,85.0915,-9.62798,0.0958008,-0.773591,-18.75,-29.2683,21.2805
641.439,35.2707,-2.61635,0,1.88967,9.1849,-1.45857,52.2866,49.1768,74.6037,-9.45314,0.0407153,-0.773591,-21.6768,-32.0122,20.5183
641.449,35.4385,-2.71749,0,2.2106,8.82325,-1.57592,45.7927,33.7195,60.3963,-9.36932,-0.0335303,-0.874182,-25.6098,-32.3171,22.1341
641.459,35.4991,-2.82883,0,2.18665,8.7035,-1.45617,42.2256,18.4756,49.7256,-9.28789,-0.0838257,-0.926873,-29.3293,-34.3293,22.7439
641.469,35.4267,-2.9746,0,2.10043,8.28916,-1.22386,36.0671,6.67683,36.0366,-9.2352,0.0191602,-1.08255,-31.7073,-35.5183,22.7744
641.479,35.2146,-3.15131,0,1.93278,7.82453,-0.953218,30.2744,-3.78049,22.3476,-9.19209,0.234712,-1.22864,-34.7256,-35.6098,22.8659
641.489,34.8409,-3.35419,0,1.67651,7.60658,-0.589175,25.5793,-13.9329,8.5061,-9.27352,0.385598,-1.37714,-37.561,-34.7866,21.1585
641.499,34.2741,-3.55568,0,1.59508,7.39822,-0.476609,19.7256,-21.9207,-4.84756,-9.38848,0.60115,-1.42264,-40.1829,-35.2134,18.9939
641.509,33.578,-3.76187,0,1.152,7.19943,-0.486189,14.2378,-32.1341,-19.6341,-9.48667,0.63468,-1.4921,-39.1159,-35.5488,15.7622
641.519,32.7236,-4.00539,0,0.895737,7.15153,-0.840652,7.83537,-46.311,-33.2317,-9.45554,0.603545,-1.67891,-37.622,-31.7073,9.72561
641.529,31.719,-4.30914,0,0.5772,6.98388,-0.965193,1.28049,-55.7622,-45.3659,-9.20885,0.61552,-1.9232,-39.1768,-24.3598,5.15244
641.539,30.6271,-4.67807,0,0.833467,6.93598,-1.42025,4.5122,-76.2195,-60.6707,-8.89031,0.598755,-2.1651,-40.2134,-12.439,-1.09756
641.549,29.5475,-5.11167,0,2.12917,7.6449,-1.99984,-0.487805,-81.311,-79.4207,-8.70111,0.65384,-2.27048,-43.5976,-3.75,-3.93293
641.559,28.466,-6.52625,0,3.18777,7.79339,-1.4921,-18.8415,-70.061,-95.4573,-8.72027,0.761616,-2.05253,-48.628,0.243902,-6.58537
641.569,27.4187,-6.92551,0,3.74821,7.21619,-0.866997,-31.8598,-62.4085,-104.787,-8.8472,0.890947,-1.79626,-53.3537,-1.37195,-8.41463
641.579,26.4647,-7.05357,0,4.38289,6.73958,-0.764011,-37.9573,-66.8293,-108.811,-8.96456,1.0562,-1.61185,-59.1768,-7.80488,-8.71951
641.589,25.613,-7.14223,0,5.30736,6.90724,-1.46575,-41.4024,-77.8659,-109.512,-9.03641,1.11608,-1.48731,-62.8354,-10.9756,-10.2439
641.599,24.8952,-7.26628,0,6.55756,7.17787,-2.3088,-43.872,-88.1098,-107.53,-9.09868,1.14482,-1.65256,-65.7927,-6.61585,-13.1707
641.609,24.3418,-7.4803,0,8.00176,7.52755,-3.79371,-42.6829,-91.5244,-101.067,-9.16095,1.08734,-1.75315,-69.7256,1.76829,-15.6098
641.619,23.9797,-7.61864,0,9.12502,7.28565,-5.25228,-37.7134,-85.061,-92.1646,-9.32381,0.900527,-1.79866,-72.0122,11.0671,-20.3049
641.629,23.7379,-7.71048,0,9.44596,7.2617,-6.37315,-32.5305,-69.5732,-82.7744,-9.58487,0.656235,-1.66454,-76.6463,17.3476,-27.1646
641.639,23.5796,-7.79881,0,9.60642,7.71196,-7.12518,-24.0549,-49.4817,-72.2866,-9.88425,0.258662,-1.71483,-78.1707,19.9085,-33.872
641.649,23.5023,-7.87973,0,9.35974,8.06403,-6.88329,-13.872,-23.2012,-60.2744,-10.3034,-0.328118,-1.76513,-75.2744,24.4512,-42.9268
641.659,23.5912,-7.95988,0,9.78366,7.84369,-6.24382,-2.89634,-2.71341,-47.622,-10.5525,-0.823887,-1.81542,-64.939,28.7195,-47.6524
641.669,23.9207,-8.11219,0,10.6483,6.89766,-5.75044,5.33537,11.0976,-34.6951,-10.7896,-1.13524,-2.21779,-50.5488,38.5366,-48.3841
641.679,24.4552,-8.33786,0,10.986,5.84145,-5.02954,15.3963,26.1585,-23.1707,-10.9333,-1.27894,-2.63452,-41.189,53.1707,-46.5854
641.689,24.9854,-8.62783,0,9.43638,5.94444,-4.11704,26.5244,40.7622,-13.9329,-10.8351,-1.1065,-2.96982,-38.6585,67.1341,-42.3476
641.699,25.3598,-8.91984,0,7.72633,6.86413,-3.56618,30.8841,53.7195,-9.54268,-10.5405,-0.57241,-2.94587,-40.6707,78.2317,-40.5183
641.709,25.5067,-9.17529,0,6.31327,8.14307,-3.01533,30.4268,59.878,-10.3659,-10.5117,0.0814307,-2.80696,-51.5549,84.7561,-38.0488
641.719,25.3889,-9.30727,0,5.60674,10.5932,-2.19863,23.0793,65.9756,-16.8902,-10.8878,0.534089,-2.33035,-66.6463,86.3415,-42.2561
641.729,24.926,-9.43897,0,4.5194,13.0217,-2.18665,16.25,70.8232,-34.4817,-11.4434,0.680186,-2.46927,-82.6219,92.1951,-52.9268
641.739,24.0913,-9.50123,0,3.04167,14.5785,-2.26808,3.9939,58.2317,-58.3537,-12.0685,0.708926,-2.23695,-95.5793,103.11,-66.6159
641.749,23.1148,-9.4941,0,3.62366,15.7904,-1.70046,-21.372,48.0183,-76.8598,-12.6984,0.692161,-1.96392,-100.732,107.012,-73.1098
641.759,22.2937,-9.34733,0,5.7696,15.7712,-0.117356,-51.7378,48.6585,-77.6219,-13.5582,0.371228,-1.25739,-97.7134,98.8415,-71.2805
641.77,21.7579,-8.98323,0,6.69647,14.9593,0.447869,-65.9146,52.8963,-58.3841,-14.5689,-0.335303,0.0455054,-86.1281,67.0427,-64.9085
641.779,21.4168,-8.57931,0,5.59237,13.6253,-0.993933,-54.2683,35.2134,-35.9451,-15.2754,-1.3963,0.385598,-71.8598,46.311,-58.3537
641.789,21.1527,-8.28433,0,4.70382,11.9559,-1.5376,-33.2012,15.1524,-27.0732,-14.7294,-2.59141,-0.227527,-67.9573,49.5732,-50.0305
641.799,20.6775,-7.8623,0,2.67763,8.68913,-1.61664,-8.5061,19.4207,-40.2744,-13.2564,-1.47533,0.598755,-76.0671,43.0793,-31.5854
641.809,19.5738,-7.39323,0,-0.756826,7.65448,-1.69567,9.84756,32.5,-58.9024,-10.7632,-0.759221,0.783171,-69.5122,36.0976,-0.152439
641.819,17.9897,-6.75866,0,-3.1279,7.78381,-1.75315,14.2683,32.8963,-77.0122,-9.30944,-0.352068,1.42264,-75.1829,11.6768,32.2256
641.829,16.2163,-5.99819,0,-3.93023,8.10714,-1.71244,9.69512,28.5061,-91.4634,-8.31072,-0.122146,1.69088,-89.8781,-5,48.2317
641.839,14.4838,-5.13921,0,-3.19496,8.25563,-1.30529,-4.57317,20.9451,-100.518,-7.64251,-0.0550855,2.12438,-115.671,-32.1341,53.5061
641.849,12.876,-4.32616,0,-2.23934,8.15744,-0.883762,-21.128,19.4207,-103.171,-7.1635,-0.167651,1.94955,-128.902,-33.9329,45.3963
641.859,11.4275,-3.69657,0,-1.51126,7.86285,-0.399968,-33.8415,16.9512,-99.3293,-7.37666,0.64426,1.47773,-146.524,-49.4817,36.9817
641.869,10.1733,-3.24825,0,-1.12566,8.52387,-0.0455054,-39.4512,3.47561,-89.2988,-7.51797,0.744851,0.969983,-150,-55.122,25.8232
641.879,9.14483,-2.96183,0,-0.809517,9.04359,-0.318538,-39.3902,-18.5366,-73.75,-8.05685,0.229922,0.519719,-144.451,-59.3293,10.9146
641.889,8.37729,-2.79286,0,-0.296982,9.58726,-1.12566,-34.7561,-41.7683,-56.0366,-8.99809,-0.632285,0.155676,-129.085,-63.4451,-7.19512
641.899,7.85744,-2.71608,0,0.574805,9.37411,-2.18905,-29.3293,-51.4939,-43.1098,-9.92017,-1.42264,-0.201182,-113.902,-62.1646,-23.4451
641.909,7.54251,-2.75883,0,1.57832,8.74422,-3.45601,-22.9268,-44.2378,-36.9817,-10.6962,-2.42136,-0.764011,-91.1281,-58.5976,-35.7012
641.919,7.33025,-2.84935,0,2.39023,8.38975,-4.19368,-15.8537,-27.8354,-38.7195,-11.1273,-2.84289,-1.03225,-67.3781,-51.5854,-44.2988
641.929,7.10177,-2.97682,0,2.61536,8.48316,-4.42121,-11.0366,-12.7439,-43.3232,-10.7081,-3.3171,-1.18074,-43.5671,-45.3049,-42.5305
641.939,6.8474,-3.10966,0,2.82133,8.59812,-3.92544,-9.17683,-3.20122,-48.5366,-9.92975,-3.36021,-1.13763,-23.1707,-41.2805,-35.2439
641.949,6.56195,-3.2912,0,2.69919,8.59573,-2.85965,-8.35366,4.57317,-50.7317,-9.04838,-3.15903,-1.24781,-8.62805,-31.8598,-32.1037
641.959,6.30604,-3.42828,0,2.70398,8.75619,-1.98547,-7.80488,9.7561,-47.7439,-8.7059,-2.57944,-1.0562,4.42073,-33.2622,-32.9878
641.969,6.05584,-3.56328,0,2.31359,8.98372,-1.30529,-7.7439,7.89634,-42.1341,-8.5119,-2.28724,-1.04423,9.48171,-31.6463,-33.5671
641.979,5.83433,-3.66107,0,2.12678,9.10586,-0.972378,-8.53659,2.7439,-37.0732,-8.78254,-1.86572,-0.955613,9.54268,-35.7622,-32.7134
641.989,5.62263,-3.74552,0,1.9735,9.28789,-1.0586,-10.7622,-3.68902,-34.1768,-9.0891,-1.48252,-0.950823,11.6159,-36.0671,-32.9573
641.999,5.3969,-3.83001,0,1.77471,9.50583,-1.21906,-14.5427,-10.2744,-33.1402,-9.34058,-1.23823,-0.991538,13.7195,-36.4329,-31.7073
642.009,5.14316,-3.88874,0,1.46096,9.74054,-1.39151,-17.6829,-16.4634,-32.2866,-9.55852,-0.943638,-0.917292,11.4939,-34.0854,-30.0305
642.019,4.87259,-3.9646,0,1.21188,9.65911,-1.71483,-19.2683,-25.0915,-31.7073,-9.63995,-0.627495,-1.00591,9.54268,-30.8537,-25.0915
642.029,4.58582,-4.0662,0,0.993933,9.46272,-2.13636,-19.2683,-32.7134,-31.5549,-9.51541,-0.423918,-1.11368,9.72561,-29.3598,-19.1768
642.039,4.28841,-4.21403,0,0.828677,9.17292,-2.37825,-19.5122,-37.0732,-31.5244,-9.1849,-0.198787,-1.27894,12.5915,-25.7927,-10.9756
642.049,3.98472,-4.34794,0,0.749641,8.97414,-2.50998,-19.2073,-36.8598,-31.9817,-9.01725,-0.0335303,-1.22146,12.7134,-23.9939,-2.77439
642.059,3.67861,-4.4981,0,0.744851,8.95737,-2.37107,-18.3841,-34.9085,-32.8049,-8.74422,-0.177231,-1.26936,10.6098,-24.2073,3.65854
642.069,3.39305,-4.63066,0,0.977168,9.13939,-2.12917,-18.7195,-31.0366,-34.0854,-8.56938,-0.419128,-1.1999,9.02439,-25.3049,9.42073
642.079,3.14763,-4.77673,0,1.36995,9.38848,-1.85375,-20.4573,-25.9756,-35.061,-8.63884,-0.661025,-1.28373,5.82317,-26.8598,12.2256
642.089,2.93435,-4.9272,0,1.77231,9.37171,-1.47533,-22.2256,-21.2195,-37.1951,-8.72985,-0.943638,-1.33882,4.02439,-28.7805,11.8293
642.099,2.73808,-5.06353,0,2.05972,9.21364,-1.23344,-21.7378,-14.7256,-39.7561,-8.85918,-1.16398,-1.32684,6.06707,-29.9085,12.4695
642.109,2.52903,-5.21137,0,2.14115,9.20406,-1.17595,-19.7866,-8.56707,-42.4695,-9.0388,-1.42743,-1.42264,6.98171,-29.8476,13.5671
642.119,2.30711,-5.35415,0,2.22258,9.25915,-1.346,-18.0793,-2.86585,-45.0305,-9.16813,-1.65017,-1.44659,5.45732,-30.2134,13.689
642.129,2.02417,-5.48281,0,1.9711,9.35495,-1.6334,-16.2195,1.95122,-48.4451,-9.29028,-1.65975,-1.42983,3.87195,-29.6037,16.2195
642.139,1.67187,-5.66482,0,1.66214,9.39806,-1.94955,-16.2195,4.81707,-52.2866,-9.17532,-1.54718,-1.65256,3.62805,-26.4634,20.7317
642.149,1.22946,-5.88736,0,1.17356,9.44356,-2.13157,-15.9756,7.34756,-56.189,-9.01246,-1.36756,-1.81542,3.2622,-21.0671,28.5671
642.159,0.715051,-6.14807,0,0.720901,9.49625,-2.18186,-16.3415,6.64634,-58.8415,-8.79212,-1.19272,-1.95673,5.39634,-15.3963,34.1159
642.17,0.154597,-6.45784,0,0.378413,9.53936,-2.12678,-16.7988,4.48171,-60.3659,-8.54064,-1.13045,-2.12678,8.44512,-7.40854,38.689
642.18,-0.409424,-6.99583,0,0.229922,9.73096,-2.27766,-18.8415,2.28659,-60,-8.36101,-1.18553,-2.16031,12.9573,-2.13415,42.439
642.189,-0.879344,-7.62378,0,0.780776,9.77168,-2.43334,-21.4939,0.97561,-58.1098,-8.14546,-1.24062,-2.09804,16.8902,1.85976,44.6037
642.199,-1.24956,-7.92153,0,1.27176,9.79803,-2.43334,-24.878,-2.10366,-54.6646,-8.07361,-1.32445,-2.17707,21.1585,8.96341,47.2866
642.209,-1.5205,-8.19461,0,1.79866,9.61121,-2.3567,-27.5305,-5.27439,-51.8293,-8.13588,-1.52084,-2.13875,25.5183,17.9573,49.2683
642.219,-1.70506,-8.43756,0,2.22258,9.54415,-2.3543,-29.3598,-10.4268,-48.689,-8.28437,-1.71244,-2.09564,31.8598,27.0427,50.3354
642.229,-1.81606,-8.67081,0,2.53154,9.36692,-2.28724,-29.4207,-16.4024,-45.6707,-8.5119,-1.86572,-2.14354,37.3171,38.9634,50.2134
642.239,-1.84429,-8.88799,0,2.90516,9.15137,-2.18186,-28.689,-22.0427,-42.5305,-8.89989,-2.07888,-2.20342,42.4695,50.4268,48.628
642.249,-1.81397,-9.0344,0,2.98419,9.11065,-2.34472,-27.7134,-20.7317,-37.6829,-9.36213,-1.93518,-2.04056,44.6037,58.4756,48.7805
642.259,-1.69685,-9.07866,0,3.12071,8.8472,-2.57944,-29.2378,-18.5976,-31.4024,-9.96328,-1.57832,-1.7316,44.6037,59.1159,51.2195
642.269,-1.46067,-8.97695,0,3.365,8.5119,-2.85726,-31.189,-14.939,-23.3841,-10.8015,-1.13045,-1.18074,35.7012,54.939,55.1829
642.279,-1.09328,-8.95452,0,3.53026,8.23168,-2.92192,-31.7073,-9.08537,-12.8659,-11.2758,-0.682581,-1.61424,19.1463,53.2317,53.9939
642.289,0.634292,-9.17596,0,3.45841,8.14546,-2.69679,-29.1768,-4.45122,0.304878,-11.0027,-0.0886157,-2.78541,14.2683,68.689,55.5793
642.299,1.17919,-9.54268,0,3.17101,8.11193,-2.55309,-24.7256,-0.121951,13.3232,-10.3537,0.0766406,-3.36261,17.2256,89.7256,64.2073
642.309,1.78383,-9.87599,0,2.94108,8.48555,-2.39262,-18.0183,-0.457317,25.0915,-10.1956,0.0119751,-3.20454,25.9451,103.323,71.8902
642.319,2.47852,-10.084,0,3.09437,9.24717,-2.4525,-10.122,-4.08537,36.7683,-10.2052,-0.752036,-2.66087,36.189,104.146,70.0305
642.329,3.27266,-10.1692,0,3.35542,9.83635,-2.78062,-5.7622,-8.41463,47.6524,-11.0195,-0.684976,-2.28724,41.2195,102.896,67.3781
642.339,4.17458,-10.0629,0,3.7985,10.3609,-3.20933,-2.77439,-11.8598,57.622,-12.4254,-0.565225,-1.52084,43.1707,102.5,65.2744
642.349,5.20749,-9.76221,0,4.29187,10.2674,-3.27399,-0.27439,-13.872,67.6219,-14.2049,-0.294587,-0.493374,35.4878,96.9207,55.7317
642.359,6.38427,-9.25034,0,4.5697,9.61121,-3.56139,5.2439,-12.5305,78.811,-16.2622,0.208367,1.01309,17.7134,81.0061,38.811
642.369,7.70877,-8.75945,0,4.69184,9.02683,-3.7027,11.7378,-10.2134,92.1341,-18.3171,1.04423,1.11368,-1.4939,67.3476,16.7683
642.379,9.13836,-8.54057,0,4.6176,9.53457,-3.40572,16.5854,-3.65854,108.872,-17.783,1.86333,-0.878972,-1.61585,81.3415,6.92073
642.389,10.6256,-8.4169,0,3.87035,10.6195,-3.09197,14.6341,5.39634,129.543,-15.3066,1.98068,-1.33642,-14.2683,86.4329,19.4512
642.399,12.1797,-8.1668,0,2.95785,10.0711,-1.88728,8.29268,-1.4939,146.86,-12.3655,-0.304167,-0.359253,10.6098,88.2927,21.7073
642.409,13.8748,-7.84064,0,3.03209,8.95019,-0.613125,5.67073,-17.5305,159.634,-10.1046,-1.78908,0.0670605,20.5488,62.7744,10.6707
642.419,15.6679,-7.50068,0,3.15424,8.91426,1.11368,1.7378,-35.3049,171.524,-8.56219,-2.3064,0.143701,39.4512,43.9329,2.68293
642.429,17.3283,-7.06578,0,1.50407,9.28549,2.13875,0.853659,-41.6463,182.622,-7.51557,-2.4046,0.474214,62.5305,25.9756,-0.243902
642.439,18.662,-6.63275,0,-1.21906,9.11065,0.958008,16.6463,-31.311,187.012,-7.15153,-2.07648,0.483794,84.0244,8.59756,-1.21951
642.449,19.9083,-6.25253,0,-2.21779,9.71659,0.189207,44.4207,-30.061,191.494,-7.19703,-1.93039,0.364043,108.902,-8.81098,3.9939
642.459,21.2765,-5.81597,0,-0.893342,11.4697,-1.36037,61.5244,-38.872,189.329,-7.48204,-1.59748,0.61073,126.982,-21.2195,11.0976
642.469,22.6422,-5.38637,0,0.167651,13.3498,-2.87402,68.75,-47.1951,181.311,-8.13828,-1.1544,0.696951,128.415,-27.8354,15.122
642.479,23.9799,-5.00502,0,1.59508,14.83,-2.68003,62.3476,-69.6037,170.183,-8.87355,-0.428708,0.63468,120.762,-30.8537,18.3841
642.489,25.2428,-4.71611,0,3.16622,14.8443,-1.91362,52.2256,-88.6585,153.232,-9.59684,0.617915,0.354463,105.884,-35.3963,22.6829
642.499,26.4108,-4.56176,0,4.01884,13.084,-0.768801,50.1524,-92.8659,135.854,-9.95131,1.08734,-0.167651,86.8293,-29.6951,37.3171
642.509,27.5631,-4.48392,0,4.70621,10.859,-0.0311353,59.0244,-80.8232,123.659,-10.2076,2.47885,-0.471819,67.1951,-10.122,44.4207
642.519,28.7466,-4.44398,0,5.45825,9.34537,0.0311353,73.2622,-55.6098,115.213,-10.0878,2.42855,-0.62031,52.5915,-3.78049,52.0427
642.529,29.9457,-4.40302,0,6.04742,8.88792,-0.110171,86.189,-22.378,111.159,-9.66869,2.27287,-0.58199,32.3476,3.47561,55.4878
642.539,31.1265,-4.33932,0,6.2989,9.01725,-0.220342,94.3293,10.7622,110.305,-9.15616,1.76273,-0.486189,13.4451,2.80488,55.2439
