time,angle1,angle2,intgangle,accX1,accY1,accZ1,gyroX1,gyroY1,gyroZ1,accX2,accY2,accZ2,gyroX2,gyroY2,gyroZ2
595.306,88.5758,1.90635,0,9.67348,0.170046,-1.41306,1.0061,3.07927,-2.43902,-9.92975,-0.675395,0.313748,-14.2378,2.31707,12.7744
595.316,88.569,1.91328,0,9.65672,0.160466,-1.43701,1.0061,3.38415,-1.95122,-9.9082,-0.692161,0.349673,-14.2683,1.06707,13.5976
595.326,88.5616,1.94494,0,9.67109,0.150886,-1.41785,1.12805,3.35366,-2.13415,-9.9058,-0.677791,0.387993,-14.0244,0.182927,13.3537
595.336,88.5501,1.92969,0,9.67827,0.184417,-1.40109,1.28049,3.53659,-2.07317,-9.88185,-0.65863,0.304167,-13.811,0.487805,14.8476
595.346,88.5421,1.9148,0,9.67109,0.155676,-1.37953,0.823171,3.38415,-2.16463,-9.87227,-0.646655,0.299377,-14.2378,0.670732,14.878
595.356,88.535,1.92741,0,9.69983,0.155676,-1.38911,0.945122,3.38415,-2.10366,-9.84353,-0.641865,0.349673,-13.9939,0.0914634,14.7256
595.366,88.5349,1.90846,0,9.68306,0.146096,-1.33163,0.945122,3.20122,-1.70732,-9.83395,-0.622705,0.292192,-14.8171,-0.487805,13.811
595.376,88.5395,1.90838,0,9.65911,0.114961,-1.37714,0.701219,2.89634,-1.7378,-9.86269,-0.61552,0.328118,-15.3354,-0.426829,14.3293
595.386,88.5315,1.89601,0,9.64235,0.184417,-1.346,0.884146,2.80488,-1.82927,-9.87706,-0.613125,0.296982,-15.0915,-0.914634,13.689
595.396,88.5304,1.89174,0,9.65432,0.153281,-1.37474,1.06707,2.7439,-1.70732,-9.88185,-0.589175,0.308958,-15.4573,-2.43902,14.4207
595.406,88.5261,1.89888,0,9.65672,0.172441,-1.37714,0.853659,2.83537,-1.70732,-9.9058,-0.56283,0.349673,-15.7927,-1.76829,13.628
595.416,88.5185,1.88639,0,9.6663,0.186812,-1.36037,0.823171,2.71341,-1.79878,-9.91299,-0.64426,0.285007,-16.8598,-1.76829,14.0244
595.426,88.5148,1.88163,0,9.6663,0.155676,-1.30768,0.396341,2.46951,-1.89024,-9.89862,-0.613125,0.313748,-15.8537,-0.792683,14.3598
595.436,88.5189,1.87375,0,9.66151,0.138911,-1.32924,0.548781,2.53049,-1.55488,-9.89622,-0.5772,0.296982,-17.2561,-1.79878,14.1463
595.446,88.5206,1.87908,0,9.69743,0.150886,-1.33403,0.487805,2.59146,-1.55488,-9.92017,-0.593965,0.340093,-16.5549,-1.4939,14.6951
595.456,88.524,1.8673,0,9.70941,0.129331,-1.35558,0.213415,2.65244,-1.67683,-9.91778,-0.613125,0.282612,-17.9573,-1.92073,13.0488
595.466,88.5319,1.86396,0,9.70462,0.0981958,-1.34361,0.243902,2.53049,-1.70732,-9.92257,-0.59636,0.311353,-18.2012,-1.58537,13.2317
595.476,88.5351,1.85052,0,9.70222,0.129331,-1.33882,0.213415,2.43902,-1.67683,-9.90341,-0.555645,0.282612,-17.8354,-1.21951,14.1768
595.486,88.537,1.82278,0,9.69743,0.119751,-1.3005,0.243902,2.37805,-1.85976,-9.92496,-0.555645,0.261057,-18.7805,-0.487805,13.872
595.496,88.5342,1.80878,0,9.74294,0.126936,-1.31247,0.213415,2.5,-2.10366,-9.92017,-0.58199,0.265847,-18.5061,-1.85976,14.0549
595.506,88.5292,1.79497,0,9.69983,0.148491,-1.33163,0.0914634,2.59146,-2.04268,-9.93694,-0.565225,0.261057,-18.75,-2.19512,13.7195
595.516,88.526,1.78131,0,9.65672,0.131726,-1.36037,0.0304878,2.56098,-2.10366,-9.91299,-0.565225,0.256267,-18.1402,-2.5,13.3841
595.526,88.5186,1.76592,0,9.70701,0.160466,-1.32445,0.548781,2.92683,-2.10366,-9.94173,-0.565225,0.253872,-16.7988,-1.89024,14.9695
595.536,88.51,1.75503,0,9.68306,0.170046,-1.28852,0.426829,3.01829,-2.10366,-9.91778,-0.538879,0.256267,-18.4451,-3.96341,12.7439
595.546,88.5038,1.75523,0,9.68546,0.158071,-1.31726,0.335366,2.77439,-2.07317,-9.91538,-0.56283,0.301772,-17.9573,-3.32317,13.1707
595.556,88.5003,1.74759,0,9.68785,0.141306,-1.2526,0.182927,2.7439,-2.07317,-9.9058,-0.524509,0.268242,-18.4146,-3.78049,12.622
595.566,88.4913,1.74234,0,9.67827,0.162861,-1.28852,0.27439,2.80488,-2.2561,-9.91299,-0.56283,0.277822,-18.2622,-3.41463,11.9207
595.576,88.4883,1.73393,0,9.65432,0.146096,-1.2526,0.396341,2.43902,-2.0122,-9.91299,-0.543669,0.263452,-17.7744,-3.56707,11.6768
595.586,88.4889,1.72182,0,9.67827,0.0981958,-1.28134,0.487805,2.71341,-2.2561,-9.89383,-0.531694,0.244292,-18.2012,-4.26829,12.1646
595.596,88.4849,1.71454,0,9.65672,0.155676,-1.22386,0.213415,2.53049,-1.98171,-9.92257,-0.538879,0.263452,-18.2622,-4.29878,11.7988
595.606,88.4807,1.7153,0,9.68546,0.126936,-1.24302,-0.0914634,2.34756,-2.31707,-9.92017,-0.541274,0.296982,-17.7439,-3.68902,12.4695
595.616,88.479,1.69194,0,9.69743,0.126936,-1.2526,0.121951,2.31707,-2.13415,-9.90101,-0.512534,0.191602,-16.6463,-4.90854,12.2866
595.626,88.4742,1.67981,0,9.65911,0.143701,-1.23823,0.27439,2.16463,-2.19512,-9.88904,-0.529299,0.234712,-17.3171,-5.64024,11.7988
595.636,88.4704,1.66363,0,9.7142,0.150886,-1.22386,0.27439,1.85976,-2.04268,-9.92496,-0.505349,0.215552,-16.372,-5.88415,12.8354
595.646,88.4688,1.65026,0,9.72378,0.124541,-1.25499,0.335366,1.89024,-2.16463,-9.97286,-0.526904,0.225132,-17.561,-6.7378,11.4939
595.656,88.461,1.62933,0,9.72378,0.138911,-1.23823,0.0304878,1.46341,-2.5,-9.94412,-0.524509,0.189207,-17.2561,-6.64634,11.6768
595.666,88.4612,1.61503,0,9.70462,0.114961,-1.28134,0.121951,1.46341,-2.16463,-9.94891,-0.529299,0.215552,-15.0305,-5.82317,10.8537
595.676,88.4577,1.60734,0,9.69025,0.134121,-1.21427,0.121951,1.43293,-2.22561,-9.92017,-0.550855,0.241897,-15.4268,-5.2439,10.6098
595.686,88.46,1.60839,0,9.69025,0.110171,-1.25499,0.304878,1.25,-2.07317,-9.88904,-0.546064,0.277822,-15.8841,-4.87805,10.8537
595.696,88.4569,1.59715,0,9.69504,0.148491,-1.28373,0.121951,1.4939,-2.04268,-9.88425,-0.548459,0.225132,-14.8171,-4.81707,9.14634
595.706,88.449,1.59014,0,9.68067,0.141306,-1.27415,0.121951,1.15854,-2.5,-9.86988,-0.519719,0.241897,-15.4268,-4.20732,10.9451
595.716,88.4419,1.59008,0,9.67348,0.148491,-1.1999,0,1.03659,-2.37805,-9.90101,-0.493374,0.270637,-14.4817,-4.66463,10.122
595.726,88.4319,1.59279,0,9.66151,0.172441,-1.1999,-0.121951,0.823171,-2.34756,-9.90101,-0.481399,0.282612,-14.7866,-4.45122,10.4878
595.736,88.4193,1.59145,0,9.68067,0.179626,-1.18074,-0.0609756,0.609756,-2.5,-9.9082,-0.490979,0.265847,-14.2988,-4.57317,9.81707
595.746,88.4095,1.59632,0,9.7118,0.172441,-1.24302,-0.182927,0.548781,-2.37805,-9.92017,-0.443079,0.292192,-14.2683,-5.27439,10.3354
595.756,88.4066,1.59448,0,9.68306,0.153281,-1.26218,-0.182927,0.548781,-2.07317,-9.89622,-0.479004,0.263452,-13.5976,-5.15244,10.2134
595.766,88.4037,1.59591,0,9.67348,0.172441,-1.14482,-0.548781,0.304878,-1.85976,-9.91778,-0.481399,0.277822,-15.2744,-5.18293,8.9939
595.776,88.3952,1.60141,0,9.64714,0.184417,-1.14721,-0.426829,0.304878,-2.16463,-9.86509,-0.505349,0.294587,-14.7561,-3.75,8.53659
595.786,88.3903,1.60277,0,9.68546,0.158071,-1.1544,-0.396341,-0.213415,-2.19512,-9.89383,-0.488584,0.277822,-14.7561,-5.4878,8.56707
595.796,88.3804,1.61317,0,9.69983,0.215552,-1.14721,-0.762195,-0.762195,-1.92073,-9.90101,-0.471819,0.316143,-15.5183,-7.31707,7.19512
595.806,88.3752,1.62864,0,9.69504,0.189207,-1.2526,-0.548781,-0.579268,-1.89024,-9.89383,-0.505349,0.340093,-14.3293,-6.95122,8.41463
595.816,88.3686,1.65193,0,9.65193,0.201182,-1.17356,-0.640244,-0.670732,-1.85976,-9.90341,-0.474214,0.376018,-14.3902,-8.53659,9.17683
595.826,88.3611,1.6653,0,9.68546,0.208367,-1.17595,-0.548781,-0.884146,-1.85976,-9.91299,-0.469424,0.337698,-14.2683,-7.68293,8.10976
595.836,88.3597,1.66479,0,9.68785,0.189207,-1.22386,-0.548781,-0.914634,-1.64634,-9.93215,-0.490979,0.280217,-13.8415,-7.34756,8.07927
595.846,88.3677,1.67201,0,9.68306,0.162861,-1.19032,-0.487805,-0.884146,-1.34146,-9.90101,-0.510139,0.313748,-14.5427,-6.40244,8.07927
595.856,88.3684,1.67459,0,9.7142,0.174836,-1.24781,-0.792683,-1.03659,-1.64634,-9.92496,-0.493374,0.294587,-14.0244,-7.46951,6.76829
595.866,88.379,1.66956,0,9.70701,0.146096,-1.2502,-0.426829,-0.884146,-1.34146,-9.88185,-0.488584,0.261057,-13.9024,-6.95122,5.97561
595.876,88.3895,1.66492,0,9.68785,0.126936,-1.24781,-0.579268,-0.762195,-1.52439,-9.9058,-0.481399,0.263452,-13.5671,-5.94512,6.95122
595.886,88.3991,1.66697,0,9.71899,0.129331,-1.23823,-0.701219,-0.426829,-1.52439,-9.93454,-0.505349,0.292192,-14.4512,-6.46341,4.66463
595.896,88.4074,1.67283,0,9.69743,0.114961,-1.21906,-0.701219,-0.396341,-1.7378,-9.93933,-0.462239,0.308958,-13.2622,-6.92073,4.69512
595.906,88.4062,1.67572,0,9.7142,0.158071,-1.21667,-0.548781,-0.548781,-1.89024,-9.91059,-0.457449,0.296982,-14.4512,-5.88415,5.54878
595.916,88.4133,1.68697,0,9.69743,0.138911,-1.24541,-0.457317,-0.426829,-1.55488,-9.89862,-0.457449,0.332908,-15.0305,-6.64634,4.81707
595.926,88.4224,1.7021,0,9.70462,0.119751,-1.25978,-0.243902,-0.152439,-1.61585,-9.92257,-0.464634,0.352068,-14.9085,-7.37805,6.64634
595.936,88.4209,1.70615,0,9.67827,0.158071,-1.26936,-0.213415,-0.152439,-1.89024,-9.9058,-0.486189,0.306563,-15.9451,-6.37195,5.64024
595.946,88.4205,1.71092,0,9.67348,0.167651,-1.27176,-0.304878,-0.0304878,-1.70732,-9.88425,-0.464634,0.308958,-15.7927,-7.28659,4.60366
595.956,88.42,1.71607,0,9.63756,0.141306,-1.18793,-0.213415,-0.27439,-2.0122,-9.86269,-0.428708,0.311353,-15.2744,-6.52439,3.87195
595.966,88.4178,1.70413,0,9.64953,0.158071,-1.1999,-0.0914634,-0.487805,-1.95122,-9.83635,-0.443079,0.237107,-16.0366,-6.92073,2.19512
595.976,88.4125,1.70468,0,9.69025,0.162861,-1.2023,-0.27439,-0.731707,-2.13415,-9.86988,-0.474214,0.289797,-15.6707,-7.34756,3.56707
595.986,88.4122,1.70348,0,9.68785,0.160466,-1.21427,-0.121951,-0.762195,-1.79878,-9.88185,-0.534089,0.282612,-16.2195,-7.28659,3.10976
595.996,88.4072,1.70779,0,9.72617,0.182021,-1.22386,-0.182927,-0.762195,-1.89024,-9.87706,-0.58678,0.306563,-15.7927,-6.98171,4.66463
596.006,88.4054,1.7229,0,9.72617,0.165256,-1.2502,-0.0609756,-0.487805,-1.85976,-9.87946,-0.543669,0.354463,-15.7012,-6.82927,3.71951
596.016,88.4075,1.73454,0,9.72138,0.167651,-1.29571,0.0304878,-0.548781,-1.55488,-9.89862,-0.476609,0.342488,-15.8537,-7.0122,4.60366
596.026,88.4045,1.74694,0,9.74533,0.172441,-1.26936,-0.243902,-0.518293,-1.85976,-9.92257,-0.493374,0.349673,-15.3049,-5.45732,3.5061
596.036,88.4032,1.73849,0,9.72857,0.167651,-1.23583,-0.335366,-0.304878,-1.79878,-9.90101,-0.467029,0.261057,-15.3659,-5.15244,3.84146
596.046,88.4033,1.74247,0,9.69743,0.170046,-1.26697,-0.182927,-0.396341,-1.67683,-9.90341,-0.479004,0.313748,-15.5183,-4.5122,2.34756
596.056,88.4015,1.74311,0,9.70701,0.160466,-1.22146,-0.152439,-0.304878,-1.92073,-9.89143,-0.510139,0.299377,-15.3049,-5.06098,2.92683
596.066,88.4021,1.74764,0,9.69504,0.150886,-1.25499,-0.182927,0.121951,-1.85976,-9.87706,-0.541274,0.316143,-14.4207,-4.35976,2.04268
596.076,88.3988,1.75151,0,9.68785,0.148491,-1.22146,-0.213415,0.0304878,-2.16463,-9.86269,-0.526904,0.313748,-15.2744,-4.11585,2.37805
596.086,88.3951,1.76368,0,9.68546,0.186812,-1.25978,-0.243902,-0.0914634,-1.76829,-9.86269,-0.526904,0.349673,-13.9329,-4.84756,2.86585
596.096,88.386,1.76722,0,9.65193,0.189207,-1.2023,-0.213415,-0.548781,-2.16463,-9.85311,-0.498164,0.313748,-13.5976,-5.79268,3.56707
596.106,88.3853,1.77573,0,9.67827,0.167651,-1.19272,-0.304878,-0.548781,-1.79878,-9.82437,-0.493374,0.335303,-14.0549,-3.84146,3.65854
596.116,88.3879,1.78539,0,9.68306,0.158071,-1.26457,-0.396341,-0.853659,-1.67683,-9.84593,-0.462239,0.342488,-13.5061,-4.29878,3.93293
596.126,88.3806,1.79348,0,9.6663,0.201182,-1.22864,-0.365854,-1.06707,-1.89024,-9.86509,-0.471819,0.337698,-14.9695,-3.32317,1.95122
596.136,88.3754,1.79903,0,9.65432,0.189207,-1.2023,-0.304878,-1.25,-1.89024,-9.84353,-0.464634,0.328118,-14.7866,-3.71951,2.89634
596.146,88.3753,1.81278,0,9.67348,0.189207,-1.2023,-0.304878,-1.58537,-1.52439,-9.87946,-0.502954,0.364043,-14.5732,-3.44512,2.2561
596.156,88.3824,1.82708,0,9.67348,0.167651,-1.23583,-0.335366,-1.58537,-1.31098,-9.86509,-0.522114,0.368833,-14.4817,-3.84146,1.34146
596.166,88.3911,1.83275,0,9.67827,0.174836,-1.26936,-0.609756,-1.85976,-1.12805,-9.87467,-0.522114,0.335303,-14.7256,-3.23171,2.77439
596.176,88.3928,1.8306,0,9.71659,0.196392,-1.22386,-0.457317,-1.46341,-1.28049,-9.87467,-0.510139,0.304167,-13.1707,-3.44512,2.5
596.186,88.3998,1.84276,0,9.7118,0.170046,-1.24541,-0.365854,-1.4939,-1.25,-9.88425,-0.505349,0.364043,-13.872,-4.84756,2.16463
596.196,88.4017,1.83344,0,9.70941,0.193997,-1.26697,-0.152439,-1.79878,-1.28049,-9.88904,-0.526904,0.275427,-12.7439,-3.9939,2.95732
596.206,88.4122,1.84836,0,9.68785,0.153281,-1.28134,-0.396341,-1.55488,-1.21951,-9.90101,-0.526904,0.376018,-13.4146,-3.59756,2.5
596.216,88.419,1.86698,0,9.70462,0.165256,-1.23344,-0.121951,-1.25,-1.28049,-9.9058,-0.524509,0.395178,-13.2012,-4.05488,2.10366
596.226,88.4308,1.87681,0,9.71659,0.146096,-1.23583,-0.518293,-1.58537,-1.18902,-9.92257,-0.534089,0.361648,-13.9024,-3.81098,1.03659
596.236,88.4426,1.87803,0,9.69264,0.170046,-1.27894,-0.548781,-1.67683,-0.914634,-9.90101,-0.546064,0.325723,-14.4207,-4.60366,1.95122
596.246,88.4555,1.88105,0,9.70462,0.148491,-1.26936,0,-1.7378,-1.06707,-9.89383,-0.55804,0.332908,-14.5427,-5.33537,1.98171
596.256,88.4642,1.87574,0,9.70941,0.186812,-1.33642,-0.27439,-1.09756,-0.823171,-9.93454,-0.56283,0.299377,-14.0854,-4.66463,2.62195
596.266,88.4748,1.87476,0,9.69504,0.150886,-1.24302,-0.0914634,-1.15854,-1.12805,-9.89143,-0.546064,0.316143,-13.8415,-4.2378,2.71341
596.276,88.4856,1.87788,0,9.69983,0.153281,-1.3005,-0.213415,-0.762195,-1.06707,-9.88425,-0.56762,0.332908,-14.2073,-4.66463,3.38415
596.286,88.492,1.87488,0,9.71659,0.146096,-1.33642,-0.243902,-0.731707,-1.37195,-9.88664,-0.479004,0.306563,-14.1463,-5.42683,2.7439
596.296,88.4956,1.87712,0,9.69025,0.153281,-1.31966,-0.0304878,-0.853659,-1.46341,-9.89143,-0.507744,0.328118,-14.8171,-6.34146,2.19512
596.306,88.5049,1.87965,0,9.69025,0.131726,-1.30768,-0.152439,-0.640244,-1.34146,-9.9058,-0.541274,0.330513,-14.4207,-5.97561,2.62195
596.316,88.5124,1.88627,0,9.69743,0.131726,-1.31247,0,-0.579268,-1.43293,-9.92257,-0.529299,0.349673,-14.7561,-5.54878,2.13415
596.326,88.5152,1.87195,0,9.7118,0.174836,-1.24062,-0.0304878,-0.304878,-1.21951,-9.9082,-0.543669,0.258662,-14.8171,-6.18902,2.10366
596.336,88.5164,1.87012,0,9.70941,0.165256,-1.30529,0.0609756,-0.487805,-1.43293,-9.92017,-0.5772,0.311353,-15.9756,-5.73171,2.77439
596.346,88.5227,1.86518,0,9.69983,0.138911,-1.31726,-0.182927,-0.731707,-1.40244,-9.86988,-0.56283,0.296982,-14.8476,-4.78659,2.10366
596.356,88.5288,1.86261,0,9.67109,0.148491,-1.23823,-0.243902,-0.731707,-1.31098,-9.86988,-0.565225,0.306563,-14.6037,-4.5122,3.20122
596.366,88.5306,1.85908,0,9.70701,0.143701,-1.33642,-0.182927,-0.548781,-1.61585,-9.88425,-0.538879,0.301772,-14.0549,-5.21341,2.9878
596.376,88.529,1.86315,0,9.70222,0.153281,-1.31487,-0.0609756,-0.365854,-1.7378,-9.87467,-0.56283,0.332908,-14.878,-6.15854,2.31707
596.386,88.5293,1.85161,0,9.69983,0.138911,-1.31247,-0.0304878,-0.0914634,-1.76829,-9.88664,-0.55325,0.265847,-14.8476,-6.4939,2.19512
596.396,88.5286,1.84693,0,9.69504,0.150886,-1.31487,0.213415,-0.0914634,-1.70732,-9.93933,-0.570015,0.294587,-15.5183,-7.2561,2.80488
596.406,88.5298,1.83481,0,9.67588,0.138911,-1.39869,0.304878,-0.182927,-1.70732,-9.92975,-0.56762,0.261057,-14.8171,-7.13415,2.9878
596.416,88.5273,1.8367,0,9.6639,0.172441,-1.30768,0.213415,-0.0914634,-1.58537,-9.91059,-0.560435,0.318538,-14.1159,-8.41463,2.62195
596.426,88.5272,1.83964,0,9.69264,0.162861,-1.36756,0.304878,0.182927,-1.52439,-9.89383,-0.55325,0.323328,-12.5,-7.92683,2.83537
596.436,88.5255,1.85244,0,9.70701,0.167651,-1.30529,0.426829,0.396341,-1.58537,-9.92017,-0.560435,0.366438,-13.2622,-9.54268,2.59146
596.446,88.5179,1.84977,0,9.70701,0.174836,-1.30289,0.213415,0.213415,-1.95122,-9.9537,-0.531694,0.301772,-12.0427,-9.81707,3.78049
596.456,88.5101,1.86164,0,9.73336,0.170046,-1.29331,0.426829,0.396341,-2.04268,-9.95849,-0.548459,0.364043,-12.0732,-11.2805,2.5
596.466,88.507,1.87558,0,9.68546,0.155676,-1.3005,0.548781,0.396341,-1.85976,-9.98963,-0.550855,0.376018,-12.561,-11.7378,3.29268
596.476,88.5034,1.88769,0,9.7118,0.172441,-1.31966,0.304878,0.396341,-1.70732,-9.94891,-0.548459,0.366438,-12.3476,-14.5732,3.07927
596.486,88.5074,1.89404,0,9.68785,0.131726,-1.35079,0.579268,0.609756,-1.64634,-9.99442,-0.546064,0.344883,-12.622,-14.4512,3.14024
596.496,88.5046,1.90073,0,9.69264,0.162861,-1.31966,0.640244,0.97561,-1.76829,-9.96807,-0.565225,0.344883,-11.7988,-16.4329,3.35366
596.506,88.5027,1.91729,0,9.69025,0.177231,-1.28134,0.853659,0.823171,-1.52439,-9.96807,-0.574805,0.387993,-12.439,-18.2012,2.46951
596.516,88.5025,1.93976,0,9.68067,0.158071,-1.29092,0.884146,0.701219,-1.64634,-9.99202,-0.56762,0.416733,-11.5854,-19.4817,2.5
596.526,88.5057,1.94994,0,9.68306,0.148491,-1.29092,0.579268,0.487805,-1.52439,-9.98484,-0.555645,0.364043,-12.5915,-21.9817,2.04268
596.536,88.5034,1.95204,0,9.69504,0.170046,-1.25499,0.365854,0.548781,-1.64634,-9.96568,-0.55804,0.330513,-12.9878,-20.8841,2.22561
596.546,88.4991,1.95972,0,9.70701,0.170046,-1.23104,0.365854,0.0609756,-1.79878,-9.96807,-0.55325,0.354463,-13.3232,-22.1037,2.34756
596.556,88.4961,1.97589,0,9.68306,0.167651,-1.26218,0.396341,0.335366,-1.7378,-9.9537,-0.589175,0.390388,-13.5671,-24.6646,3.81098
596.566,88.4934,1.98901,0,9.72857,0.155676,-1.29331,0,-0.0304878,-1.85976,-9.95131,-0.55804,0.378413,-13.3232,-26.189,3.32317
596.576,88.4957,2.01239,0,9.67827,0.141306,-1.28852,-0.0304878,-0.426829,-1.67683,-9.93933,-0.541274,0.423918,-12.378,-27.6829,2.65244
596.586,88.4976,2.02965,0,9.68785,0.143701,-1.26697,-0.0304878,-0.396341,-1.67683,-9.92257,-0.555645,0.399968,-13.2012,-28.2927,2.65244
596.596,88.4998,2.03916,0,9.72138,0.129331,-1.20948,-0.182927,-0.518293,-1.79878,-9.91299,-0.56762,0.368833,-14.4207,-28.0793,2.37805
596.606,88.4993,2.05927,0,9.65432,0.138911,-1.2981,-0.182927,-0.701219,-1.89024,-9.9537,-0.574805,0.416733,-12.5915,-30.2134,2.65244
596.616,88.4941,2.07969,0,9.71659,0.158071,-1.29092,-0.396341,-0.670732,-2.0122,-9.92017,-0.61073,0.419128,-12.5915,-31.4634,2.13415
596.626,88.4911,2.08924,0,9.70941,0.155676,-1.31247,-0.762195,-0.579268,-1.89024,-9.97526,-0.61552,0.376018,-13.0183,-32.7134,3.04878
596.636,88.491,2.10062,0,9.6639,0.114961,-1.29092,-0.396341,-0.548781,-2.13415,-9.93215,-0.534089,0.383203,-12.1037,-33.7805,3.78049
596.646,88.4907,2.11951,0,9.65911,0.122146,-1.27655,-0.609756,-0.792683,-2.07317,-9.92736,-0.59636,0.416733,-12.1646,-35.122,3.68902
596.656,88.4868,2.14267,0,9.62798,0.126936,-1.31726,-0.487805,-0.762195,-2.28659,-9.99921,-0.584385,0.440684,-12.7134,-36.5549,3.65854
596.666,88.4827,2.17541,0,9.67348,0.131726,-1.2526,-0.548781,-0.762195,-2.2561,-9.96089,-0.560435,0.483794,-11.2805,-38.1402,3.96341
596.676,88.4732,2.20809,0,9.67348,0.186812,-1.32445,-0.518293,-0.97561,-2.04268,-10.0016,-0.555645,0.488584,-12.8354,-41.189,2.7439
596.686,88.4612,2.23839,0,9.68067,0.205972,-1.26936,-0.27439,-1.18902,-2.04268,-10.0136,-0.55804,0.481399,-11.372,-44.6341,3.29268
596.696,88.4538,2.27912,0,9.65911,0.155676,-1.3484,-0.304878,-0.640244,-2.28659,-10.0112,-0.56762,0.531694,-11.7378,-45.8537,3.35366
596.706,88.4417,2.30721,0,9.67827,0.170046,-1.31008,-0.182927,-0.762195,-2.53049,-10.0184,-0.584385,0.481399,-10.9756,-47.9573,3.93293
596.716,88.435,2.36035,0,9.68067,0.172441,-1.31726,-0.121951,-0.731707,-2.07317,-10.0184,-0.570015,0.593965,-10.9451,-51.7683,2.68293
596.726,88.4256,2.41432,0,9.69504,0.182021,-1.28852,0.0914634,-0.914634,-2.19512,-10.0375,-0.5772,0.60594,-10.5793,-54.2683,3.07927
596.736,88.4227,2.46856,0,9.83635,0.112566,-1.1999,0.579268,-0.884146,-2.46951,-10.0902,-0.59636,0.617915,-10.9146,-56.4939,3.01829
596.746,88.4231,2.51909,0,9.67109,0.148491,-1.3005,0.152439,-1.25,-1.85976,-10.1405,-0.63468,0.61073,-10.2744,-60.2134,3.20122
596.756,88.4188,2.56525,0,9.73575,0.167651,-1.33163,0.213415,-0.426829,-1.98171,-10.1812,-0.677791,0.60115,-10.5183,-61.7378,3.17073
596.766,88.4162,2.6171,0,9.74773,0.146096,-1.31966,0.0304878,-0.182927,-2.10366,-10.1381,-0.646655,0.62989,-10.8841,-64.5427,2.89634
596.776,88.4064,2.66085,0,9.72617,0.167651,-1.24781,0.121951,0.0304878,-2.43902,-10.1214,-0.61073,0.598755,-9.96951,-67.9573,4.54268
596.786,88.3982,2.71759,0,9.7142,0.124541,-1.27894,0.182927,-0.0609756,-2.80488,-10.0615,-0.574805,0.65863,-11.0061,-70.3963,4.08537
596.796,88.3815,2.78907,0,9.74294,0.196392,-1.40348,-0.152439,0.0914634,-2.7439,-10.0567,-0.579595,0.730481,-10.2439,-74.3598,3.62805
596.806,88.3734,2.85507,0,9.6663,0.134121,-1.32445,-0.152439,-0.152439,-2.7439,-10.016,-0.584385,0.713716,-10.9756,-76.7378,3.14024
596.816,88.3598,2.91404,0,9.68546,0.158071,-1.26936,-0.182927,-0.609756,-2.95732,-10.016,-0.570015,0.692161,-11.2805,-79.0244,3.81098
596.826,88.3439,2.9721,0,9.67348,0.170046,-1.30289,-0.365854,-0.762195,-3.04878,-10.0112,-0.61552,0.696951,-12.0122,-80.3659,3.23171
596.836,88.3304,3.01828,0,9.62798,0.143701,-1.27176,0.213415,-0.640244,-3.17073,-9.95849,-0.593965,0.64905,-11.372,-82.7134,2.56098
596.846,88.3129,3.06883,0,9.64235,0.150886,-1.30289,-0.335366,-0.914634,-3.47561,-9.94891,-0.593965,0.675395,-8.9939,-83.0488,2.22561
596.856,88.2925,3.15233,0,9.63277,0.158071,-1.24302,-0.335366,-1.18902,-3.68902,-9.96807,-0.56762,0.828677,-8.53659,-85.8841,2.28659
596.866,88.2735,3.23903,0,9.64235,0.153281,-1.25499,-0.0609756,-1.64634,-3.65854,-9.99442,-0.58678,0.857417,-9.35976,-88.5671,2.31707
596.876,88.2495,3.33866,0,9.6663,0.184417,-1.30768,-0.640244,-2.04268,-3.81098,-10.0136,-0.510139,0.929268,-9.54268,-91.5549,0.426829
596.886,88.229,3.43468,0,9.7142,0.131726,-1.29092,-0.518293,-1.85976,-4.14634,-10.0088,-0.570015,0.929268,-10.122,-92.7134,0.731707
596.896,88.2039,3.52203,0,9.71659,0.172441,-1.29331,-0.579268,-2.2561,-4.14634,-9.97526,-0.58199,0.902922,-9.14634,-94.6646,1.98171
596.906,88.1775,3.62878,0,9.68546,0.143701,-1.35558,-0.426829,-1.76829,-4.66463,-9.94412,-0.57241,0.998723,-9.78659,-97.4695,2.68293
596.916,88.148,3.74174,0,9.66869,0.160466,-1.38432,-0.396341,-1.61585,-4.81707,-9.93694,-0.603545,1.04183,-9.42073,-100.213,3.53659
596.926,88.1164,3.85875,0,9.69743,0.153281,-1.31726,-0.579268,-1.64634,-5.18293,-9.93454,-0.56283,1.07776,-10.5183,-102.043,3.29268
596.936,88.0811,3.97204,0,9.68785,0.146096,-1.30768,-0.27439,-1.70732,-5.70122,-9.96807,-0.63947,1.08494,-10.9146,-102.622,1.76829
596.946,88.0416,4.1076,0,9.68785,0.184417,-1.30289,-0.579268,-1.85976,-5.73171,-9.97286,-0.60115,1.2023,-12.0427,-105.274,2.16463
596.956,87.9958,4.2555,0,9.73815,0.184417,-1.32924,-1.25,-2.40854,-6.46341,-10.0136,-0.56762,1.28373,-11.8902,-108.476,1.31098
596.966,87.9494,4.40676,0,9.72138,0.153281,-1.35079,-1.58537,-2.92683,-6.98171,-10.0136,-0.514929,1.32205,-13.5976,-111.982,-0.121951
596.976,87.9043,4.55441,0,9.78126,0.146096,-1.35558,-1.67683,-2.56098,-7.04268,-10.0016,-0.522114,1.32924,-12.9573,-114.116,0.0609756
596.986,87.8524,4.7082,0,9.69983,0.172441,-1.39151,-1.64634,-2.83537,-7.5,-9.9561,-0.543669,1.37474,-14.7256,-116.433,-1.0061
596.996,87.795,4.86357,0,9.62319,0.213157,-1.41067,-1.82927,-2.77439,-7.65244,-9.86269,-0.529299,1.3939,-14.6951,-118.689,-0.640244
597.006,87.7379,5.01594,0,9.62319,0.213157,-1.33882,-1.67683,-3.59756,-7.7439,-9.78605,-0.56283,1.3963,-13.6585,-119.39,-0.884146
597.016,87.6707,5.18412,0,9.60882,0.304167,-1.42025,-1.25,-2.80488,-7.77439,-9.74533,-0.62031,1.48252,-14.0854,-123.841,-0.152439
597.026,87.611,5.351,0,9.72138,0.229922,-1.41067,-1.09756,-1.85976,-8.07927,-9.72857,-0.63947,1.50168,-12.7439,-126.006,-0.304878
597.036,87.539,5.52049,0,9.68067,0.330513,-1.41067,-1.03659,-2.2561,-8.23171,-9.74773,-0.680186,1.54479,-13.9634,-126.433,0.121951
597.046,87.4706,5.70314,0,9.7142,0.320933,-1.41785,-1.31098,-2.28659,-8.14024,-9.86269,-0.632285,1.64777,-13.4146,-130.945,0.243902
597.056,87.4007,5.9125,0,9.72138,0.335303,-1.38672,-1.0061,-2.04268,-8.2622,-9.87706,-0.593965,1.79866,-12.7744,-135.183,-0.487805
597.066,87.3261,6.11151,0,9.65193,0.356858,-1.37953,-1.06707,-2.53049,-8.59756,-9.92017,-0.56283,1.79387,-13.9024,-139.024,-1.31098
597.076,87.2567,6.3178,0,9.6639,0.328118,-1.38911,-1.55488,-2.89634,-8.56707,-9.95131,-0.57241,1.86572,-14.0244,-141.829,-2.31707
597.086,87.1857,6.51182,0,9.63516,0.342488,-1.45138,-1.43293,-3.17073,-8.68902,-9.89143,-0.514929,1.83698,-15.3049,-140.701,-3.41463
597.096,87.1183,6.72594,0,9.56331,0.344883,-1.41546,-1.34146,-2.89634,-8.41463,-9.80281,-0.443079,1.94476,-16.311,-141.006,-3.32317
597.106,87.0472,6.95786,0,9.55373,0.383203,-1.36995,-0.701219,-1.85976,-8.44512,-9.75252,-0.392783,2.04774,-18.4146,-146.341,-2.83537
597.116,86.9809,7.17557,0,9.68546,0.387993,-1.346,-0.701219,-1.52439,-8.10976,-9.79084,-0.447869,2.02858,-18.5366,-151.555,-3.78049
597.126,86.9115,7.34926,0,9.73575,0.395178,-1.4418,-0.823171,-1.82927,-8.5061,-9.78844,-0.524509,1.86812,-18.628,-152.896,-4.78659
597.136,86.8423,7.54351,0,9.71899,0.416733,-1.41067,-1.15854,-2.86585,-8.35366,-9.78605,-0.637075,1.99026,-19.0854,-153.293,-5.2439
597.146,86.7815,7.76189,0,9.69264,0.371228,-1.38911,-0.97561,-2.80488,-8.17073,-9.77647,-0.704136,2.12917,-19.3293,-155.915,-6.06707
597.156,86.7188,8.00651,0,9.74773,0.404758,-1.43462,-0.823171,-3.14024,-8.10976,-9.78844,-0.790356,2.28485,-16.6768,-161.707,-6.46341
597.166,86.6575,8.25271,0,9.74773,0.368833,-1.38672,-0.853659,-3.38415,-8.53659,-9.7621,-0.773591,2.32556,-16.4329,-166.524,-5.33537
597.176,86.5913,8.5095,0,9.75012,0.402363,-1.41546,-0.97561,-3.81098,-8.75,-9.68546,-0.749641,2.39741,-14.3293,-168.567,-4.05488
597.186,86.5253,8.74344,0,9.68785,0.404758,-1.38432,-1.0061,-4.45122,-8.81098,-9.6184,-0.661025,2.32317,-13.9024,-169.39,-2.37805
597.196,86.4599,8.98273,0,9.57768,0.368833,-1.42743,-1.03659,-4.42073,-9.26829,-9.54894,-0.565225,2.37107,-12.8963,-169.97,-0.518293
597.206,86.3866,9.24814,0,9.53457,0.431104,-1.33403,-1.28049,-4.48171,-9.42073,-9.54894,-0.536484,2.52675,-13.9939,-174.482,-0.0304878
597.216,86.308,9.51257,0,9.56331,0.479004,-1.36995,-1.09756,-3.84146,-9.54268,-9.61121,-0.56762,2.58183,-12.1646,-179.695,-0.213415
597.226,86.2204,9.7768,0,9.54415,0.534089,-1.45617,-0.640244,-4.32927,-9.93902,-9.67827,-0.555645,2.64171,-12.7134,-185.457,-1.52439
597.236,86.1262,10.0454,0,9.54894,0.603545,-1.45378,-1.06707,-4.54268,-9.93902,-9.67109,-0.5772,2.70398,-13.0183,-189.604,-3.20122
597.246,86.046,10.3163,0,9.56092,0.546064,-1.48491,-0.243902,-4.42073,-9.42073,-9.60163,-0.622705,2.7399,-13.3537,-194.146,-3.10976
597.256,85.9717,10.5817,0,9.63756,0.488584,-1.42504,0.213415,-4.63415,-9.72561,-9.52739,-0.66821,2.7399,-9.84756,-196.738,-3.87195
597.266,85.8914,10.8604,0,9.73096,0.519719,-1.5376,0,-2.71341,-10.1829,-9.53936,-0.775986,2.84768,-10,-201.494,-3.32317
597.276,85.8173,11.1456,0,9.96089,0.490979,-1.67891,-0.182927,-1.34146,-10.1829,-9.4723,-0.852627,2.90516,-8.07927,-204.604,-4.26829
597.286,85.7208,11.4509,0,9.78844,0.684976,-1.58071,0.579268,-1.98171,-10.2134,-9.46991,-0.934058,3.04167,-6.43293,-211.86,-4.05488
597.296,85.6301,11.7626,0,9.9058,0.64426,-1.55197,0.457317,-2.31707,-10.3963,-9.45793,-1.02986,3.11592,-1.89024,-219.39,-1.4939
597.306,85.5471,12.0723,0,9.81479,0.505349,-1.54718,-0.304878,-4.5122,-11.372,-9.39327,-0.926873,3.13748,3.2622,-225,-1.46341
597.316,85.438,12.3621,0,9.52739,0.694556,-1.48491,-0.27439,-6.21951,-11.7073,-9.3286,-0.847837,3.0776,8.2622,-229.177,2.31707
597.326,85.3367,12.6555,0,9.58487,0.646655,-1.49689,-0.0609756,-6.06707,-11.7683,-9.23999,-0.807122,3.11113,12.1037,-234.451,4.84756
597.336,85.2349,12.9878,0,9.52739,0.641865,-1.4442,0.487805,-6.40244,-12.0427,-9.21364,-0.766406,3.32668,15.122,-241.402,6.70732
597.346,85.1288,13.3246,0,9.54655,0.716111,-1.51844,0.853659,-6.09756,-11.7988,-9.23759,-0.814307,3.41051,15.6402,-248.476,6.09756
597.356,85.0194,13.6691,0,9.57289,0.785566,-1.52802,0,-7.62195,-11.5244,-9.2328,-0.761616,3.49912,18.5671,-255.976,4.05488
597.366,84.927,14.0058,0,9.46512,0.627495,-1.52323,-0.0914634,-8.17073,-11.8598,-9.2352,-0.747246,3.52307,20.9756,-260.945,2.22561
597.376,84.8346,14.3568,0,9.70222,0.622705,-1.64059,-0.487805,-6.37195,-12.2866,-9.26154,-0.778381,3.65719,23.5671,-266.951,-1.03659
597.386,84.7299,14.7006,0,9.70941,0.692161,-1.93039,-2.37805,-4.96951,-12.8963,-9.22083,-0.704136,3.66677,22.4085,-273.232,-1.76829
597.396,84.6391,15.0356,0,9.89622,0.570015,-1.97829,-0.792683,-0.701219,-13.2927,-9.15616,-0.677791,3.65959,22.0732,-277.439,-6.09756
597.406,84.5341,15.3914,0,9.85311,0.613125,-1.80824,-0.579268,-0.304878,-14.3902,-9.137,-0.65863,3.80569,21.0976,-284.939,-6.58537
597.416,84.4084,15.7685,0,9.68546,0.775986,-1.72202,-1.09756,-0.670732,-14.6341,-9.07233,-0.61552,3.93981,18.9024,-290.671,-7.40854
597.426,84.2724,16.1282,0,9.8124,0.847837,-1.53281,-1.7378,-2.10366,-15.2134,-9.07233,-0.65384,3.92304,18.9939,-296.646,-7.2561
597.436,84.138,16.5209,0,9.64714,0.811912,-1.45857,-3.32317,-3.07927,-15.5793,-9.0867,-0.720901,4.15057,16.5549,-301.799,-7.5
597.446,83.9861,16.9438,0,9.67827,0.893342,-1.58071,-7.0122,-2.07317,-16.7073,-9.06994,-0.61552,4.35894,14.3293,-309.421,-6.12805
597.456,83.8602,17.3749,0,10.0088,0.60594,-2.23934,-10.0915,2.53049,-18.0488,-9.12981,-0.632285,4.50503,10.9146,-316.494,-4.87805
597.466,83.7304,17.8101,0,10.3896,0.524509,-2.4525,-8.47561,9.90854,-19.878,-9.21603,-0.632285,4.64873,7.86585,-322.835,-2.95732
597.476,83.5479,18.187,0,10.1812,0.871787,-1.84896,-10.1524,11.8293,-21.4329,-9.21125,-0.63468,4.43558,5.97561,-326.433,-2.86585
597.486,83.3677,18.5406,0,9.94412,0.766406,-1.16637,-12.2866,7.71341,-22.561,-9.11305,-0.677791,4.34696,6.79878,-326.372,-3.90244
597.496,83.196,18.8962,0,9.93933,0.574805,-1.31487,-10.7927,3.75,-24.2988,-9.05078,-0.790356,4.39726,7.56098,-324.665,-2.77439
597.506,82.9985,19.3291,0,10.0208,0.699346,-1.61185,-10.8841,3.81098,-25.8841,-8.96935,-0.905317,4.81159,8.17073,-326.89,-3.65854
597.516,82.7983,19.8156,0,10.0854,0.58678,-1.84177,-12.7439,5.7622,-27.9268,-8.89271,-0.902922,5.12774,11.4024,-332.652,-3.90244
597.526,82.6157,20.2525,0,10.1693,0.191602,-1.73639,-12.3476,6.43293,-31.128,-8.7514,-0.898132,4.88824,13.8415,-335.823,-1.98171
597.536,82.3811,20.7233,0,10.0016,0.426313,-1.17356,-13.3841,2.04268,-34.0244,-8.5574,-0.876577,5.03912,17.9268,-333.11,-0.670732
597.546,82.1245,21.3052,0,9.99681,0.409548,-1.30289,-13.5366,-1.98171,-36.9512,-8.47597,-0.883762,5.66662,17.6524,-333.72,1.58537
597.556,81.846,21.9183,0,10.1597,0.464634,-1.76034,-12.0427,-1.64634,-39.1463,-8.3203,-0.855022,5.85582,17.5305,-333.537,5.60976
597.566,81.5518,22.5308,0,10.6483,0.462239,-2.0214,-11.189,-0.853659,-41.5854,-8.13588,-0.764011,5.85822,17.439,-329.36,10.3659
597.576,81.2416,23.2018,0,10.3944,0.536484,-1.78189,-8.56707,-3.04878,-42.8659,-7.87722,-0.541274,6.12646,17.8049,-323.476,16.0061
597.586,80.8931,23.9119,0,9.89143,0.799937,-1.71483,-8.75,-0.0304878,-43.9939,-7.70717,-0.423918,6.36117,14.4207,-323.018,20.122
597.596,80.4978,24.6601,0,9.75491,1.12326,-1.56155,-11.372,0.426829,-45.5183,-7.50839,-0.371228,6.57912,12.9268,-319.207,22.4085
597.606,80.0874,25.4663,0,9.66869,1.22625,-1.43222,-13.5366,-1.52439,-46.5244,-7.3551,-0.435894,6.9719,6.06707,-313.354,20.6707
597.616,79.678,26.2582,0,9.74773,1.29571,-1.38193,-13.9024,-3.04878,-46.5549,-7.17548,-0.469424,6.91682,1.31098,-305.884,16.7378
597.626,79.2695,27.0858,0,10.1118,1.33403,-1.2981,-13.811,-4.87805,-47.4085,-6.91203,-0.459844,7.08207,-2.22561,-295.579,11.8293
597.636,78.8642,27.9723,0,10.4279,1.49928,-1.66933,-14.3598,-4.02439,-46.5549,-6.76114,-0.481399,7.51797,-4.17683,-290.457,7.0122
597.646,78.4446,28.8796,0,10.6339,1.80824,-1.55676,-15.7012,0.609756,-45.8537,-6.57433,-0.541274,7.68801,-2.65244,-286.524,3.47561
597.656,78.0075,29.8211,0,10.2172,2.17228,-1.36277,-17.8659,-2.86585,-43.689,-6.33243,-0.524509,7.89398,3.35366,-281.341,1.67683
597.666,77.5847,30.7712,0,9.91538,2.28245,-1.13284,-16.9817,-3.35366,-41.1585,-6.12646,-0.61552,7.97062,9.35976,-274.39,0.121951
597.676,77.1992,31.715,0,9.92736,2.31359,-1.36037,-17.2561,1.18902,-37.8963,-6.02347,-0.780776,8.07361,10.8232,-268.811,-0.670732
597.686,76.8426,32.683,0,10.1788,2.37586,-1.23344,-16.4024,6.55488,-35.7012,-5.74565,-0.790356,8.16702,5.79268,-259.848,-2.34756
597.696,76.5615,33.6672,0,9.77407,2.03337,-1.07776,-15.5793,12.6524,-31.5549,-5.25707,-0.62989,7.8868,2.56098,-247.287,-0.731707
597.706,76.3254,34.6433,0,9.29986,1.84417,-0.989143,-14.6341,8.38415,-28.628,-4.87147,-0.510139,7.54671,0.579268,-234.085,1.92073
597.716,76.065,35.6112,0,8.42807,2.01421,-1.03225,-13.9329,4.72561,-27.0427,-4.54096,-0.419128,7.26649,0.792683,-219.695,5.57927
597.726,75.7972,36.5529,0,8.42568,2.12438,-1.17116,-15.2439,5.45732,-26.8902,-4.36373,-0.447869,7.08686,4.14634,-204.939,7.10366
597.736,75.5583,37.459,0,8.54303,2.06451,-1.1065,-14.6341,3.90244,-25.6402,-4.31582,-0.514929,7.04136,8.68902,-189.97,6.43293
597.746,75.3377,38.3353,0,8.45681,2.10762,-1.1065,-13.689,1.34146,-23.4146,-4.36373,-0.56283,7.18027,11.4939,-177.043,3.59756
597.756,75.126,39.197,0,8.84241,2.15312,-1.38193,-13.689,-0.365854,-23.5976,-4.37331,-0.500559,7.3575,12.6829,-166.25,-0.0609756
597.766,74.92,40.0283,0,8.464,2.14594,-1.04662,-11.9512,-1.4939,-22.3476,-4.3302,-0.376018,7.32397,13.1707,-157.774,-0.853659
597.776,74.7439,40.8077,0,8.56219,2.07888,-1.15679,-10.9451,0.304878,-20.8841,-4.38528,-0.306563,7.29283,11.8902,-147.348,0.213415
597.786,74.591,41.5638,0,8.64363,2.01421,-1.31726,-10,-0.0609756,-19.9695,-4.39247,-0.232317,7.37427,3.56707,-137.866,-0.243902
597.796,74.4191,42.2766,0,8.45442,2.22976,-1.10171,-9.02439,-3.84146,-18.8415,-4.33499,-0.146096,7.19464,-0.579268,-127.683,3.04878
597.806,74.2347,42.9693,0,8.33467,2.37825,-1.13045,-8.20122,-7.46951,-18.1098,-4.36852,-0.110171,7.32636,-5.06098,-116.372,5.64024
597.816,74.0399,43.6044,0,8.57177,2.68242,-1.29092,-8.32317,-6.58537,-16.5854,-4.47629,-0.155676,7.29283,-5.33537,-110.793,5.85366
597.826,73.861,44.2419,0,8.86397,2.68003,-1.29571,-8.04878,-5.54878,-16.4939,-4.44516,-0.263452,7.45091,-3.23171,-105.793,6.58537
597.836,73.6769,44.8754,0,9.09389,2.85247,-1.55197,-5.79268,-2.16463,-16.189,-4.53856,-0.469424,7.77663,-0.945122,-102.683,4.54268
597.846,73.4867,45.4806,0,9.13221,2.9339,-1.45617,-5.36585,0.731707,-16.372,-4.60323,-0.684976,7.86764,2.62195,-99.0549,1.21951
597.856,73.2943,46.0623,0,9.09628,2.94108,-1.346,-3.84146,0.945122,-16.7683,-4.53617,-0.732876,7.77184,1.76829,-88.8719,0.762195
597.866,73.0851,46.6505,0,9.14418,3.09916,-1.37235,-2.80488,0.487805,-17.2256,-4.60802,-0.730481,8.15025,0.182927,-80.7317,0.701219
597.876,72.8597,47.2239,0,9.12023,3.25962,-1.32445,-2.71341,-0.640244,-17.378,-4.75411,-0.617915,8.48555,-0.609756,-78.8415,4.39024
597.886,72.6437,47.7693,0,9.40045,3.27399,-1.47773,-1.98171,-0.884146,-17.8354,-4.91937,-0.464634,8.73464,-0.823171,-77.4695,7.68293
597.896,72.4198,48.2685,0,9.51302,3.39135,-1.56155,-0.731707,-1.95122,-18.2317,-5.10618,-0.376018,8.84241,-0.609756,-76.9512,12.3171
597.906,72.1771,48.718,0,9.53936,3.55181,-1.7292,0.487805,-1.46341,-18.9634,-5.30736,-0.337698,8.91905,0.182927,-75.7012,13.7805
597.916,71.906,49.1346,0,9.73815,3.86556,-1.65017,1.61585,-2.46951,-19.8476,-5.4822,-0.399968,9.07473,-0.579268,-76.0671,14.6341
597.926,71.6166,49.5029,0,9.75731,3.98771,-1.51365,2.10366,-5.67073,-21.0976,-5.60914,-0.469424,9.00288,1.89024,-72.3171,11.0366
597.936,71.298,49.8768,0,9.80042,4.10027,-1.42025,-0.27439,-3.78049,-23.689,-5.68338,-0.531694,9.31184,-0.121951,-69.0854,6.82927
597.946,70.9557,50.2697,0,9.88425,4.22002,-1.35558,-1.61585,-5.4878,-25.9146,-5.76002,-0.536484,9.7621,-3.44512,-68.9329,3.81098
597.956,70.5877,50.6303,0,10.1118,4.39486,-1.58071,-3.29268,-5.91463,-28.4756,-5.78637,-0.435894,9.64474,-7.65244,-68.0183,4.84756
597.966,70.216,50.971,0,10.313,4.32301,-1.79866,-2.77439,-3.9939,-31.128,-5.88456,-0.251477,9.76449,-12.7134,-62.5305,7.34756
597.976,69.8051,51.3004,0,10.1525,4.46671,-1.8753,-0.914634,-3.5061,-33.8415,-5.93965,-0.105381,9.87946,-14.4512,-61.4024,9.08537
597.986,69.3672,51.593,0,10.0806,4.58886,-1.85854,-0.335366,-3.07927,-35.9451,-5.99473,-0.0718506,9.73815,-14.0854,-62.0122,9.48171
597.996,68.9013,51.858,0,9.84353,4.6152,-1.9256,-0.396341,-4.5122,-38.3841,-6.16957,-0.126936,9.85311,-13.1402,-67.8659,5.67073
598.006,68.4275,52.1409,0,9.64474,4.55533,-1.67412,0.152439,-8.01829,-39.8171,-6.17915,-0.249082,10.1381,-13.4451,-73.7195,-1.21951
598.016,67.9496,52.447,0,9.5202,4.54814,-1.63101,-1.31098,-12.0732,-40.6707,-5.97318,-0.186812,10.1381,-14.6037,-76.25,-8.59756
598.026,67.4747,52.7524,0,9.69264,4.60323,-1.51365,-3.10976,-15.2439,-41.6159,-5.71691,-0.182021,9.81958,-15.7012,-73.7805,-13.628
598.036,67.0081,53.086,0,9.87467,4.59844,-1.59269,-4.57317,-16.9207,-42.622,-5.60914,-0.170046,10.0423,-16.6159,-73.4756,-14.0854
598.046,66.5586,53.4175,0,10.1669,4.42839,-1.96152,-4.5122,-14.7561,-44.7561,-5.52291,-0.273032,9.99442,-20.122,-77.2866,-13.5671
598.056,66.0948,53.7218,0,10.0806,4.44995,-1.75315,-4.54268,-14.0244,-46.5549,-5.41753,-0.402363,9.65911,-19.2988,-78.2927,-11.7378
598.066,65.6138,54.0219,0,9.94173,4.45953,-1.68849,-4.2378,-12.8049,-48.5671,-5.24988,-0.443079,9.44596,-18.3841,-74.0244,-6.28049
598.076,65.1154,54.3471,0,9.76449,4.3781,-1.73639,-2.71341,-12.7134,-51.3415,-5.17085,-0.483794,9.6663,-17.5305,-76.1585,-1.67683
598.086,64.5997,54.6789,0,9.67348,4.44995,-1.79387,-2.9878,-13.0183,-52.9878,-5.08463,-0.514929,9.69743,-16.4329,-79.9085,6.15854
598.096,64.0736,54.9752,0,9.62798,4.5194,-1.65735,-4.72561,-11.9207,-54.2073,-4.99841,-0.502954,9.31184,-11.5244,-78.2927,12.561
598.106,63.5403,55.2915,0,9.55852,4.58167,-1.8274,-4.63415,-13.872,-55.061,-4.89542,-0.452659,9.43638,-9.72561,-76.9817,18.4756
598.116,62.9679,55.6169,0,9.12263,4.81638,-1.70046,-4.26829,-13.3841,-55.6098,-4.84991,-0.421523,9.56331,-12.2561,-80.8537,23.811
598.126,62.3714,55.8955,0,8.81607,4.92177,-1.55916,-4.05488,-14.5427,-56.4939,-4.80441,-0.438289,9.13221,-14.878,-80.7317,24.6646
598.136,61.7644,56.1807,0,8.50471,4.85949,-1.64538,-4.87805,-14.6037,-57.622,-4.65113,-0.414338,9.01964,-17.7744,-76.0061,25.061
598.146,61.179,56.4925,0,8.40891,4.62478,-1.71483,-2.71341,-19.6341,-58.5671,-4.50743,-0.325723,9.10826,-18.9024,-77.9878,26.2805
598.156,60.5998,56.81,0,8.44723,4.6176,-1.69328,-1.46341,-21.2805,-59.4207,-4.37091,-0.196392,9.01246,-19.4207,-77.4085,28.0793
598.166,60.0249,57.1114,0,8.45921,4.68945,-1.93039,-1.89024,-20.3659,-59.4817,-4.23439,-0.138911,8.70829,-17.9268,-71.0061,28.9939
598.176,59.4376,57.4198,0,8.23168,4.82117,-1.73878,-1.79878,-23.872,-59.1463,-4.13141,-0.0694556,8.68913,-19.3293,-66.6768,30.9756
598.186,58.8443,57.7171,0,8.14786,4.97206,-1.59748,-1.03659,-25.6707,-58.8415,-4.06914,-0.0574805,8.57417,-19.7866,-63.2927,32.8963
598.196,58.2525,58.017,0,8.04727,5.02954,-1.44899,-2.95732,-25.9756,-58.6585,-3.96376,-0.0981958,8.49753,-23.5061,-60.4878,32.8049
598.206,57.7034,58.357,0,8.18618,4.89781,-1.6837,-4.72561,-24.4207,-57.7744,-3.81048,-0.0622705,8.69392,-25.3049,-54.6646,33.9634
598.216,57.1587,58.722,0,7.89159,4.93374,-1.65017,-5.97561,-24.8476,-56.1585,-3.69791,-0.0862207,8.85918,-28.0183,-46.189,32.622
598.226,56.6342,59.0951,0,7.85327,4.89302,-1.64538,-6.18902,-24.8171,-55.3963,-3.53265,-0.0574805,8.72506,-27.0732,-37.561,33.2927
598.236,56.1049,59.4628,0,7.70717,5.03673,-1.66933,-7.0122,-24.9085,-54.4207,-3.47757,-0.114961,8.72027,-26.189,-24.6951,35.0305
598.246,55.5912,59.8192,0,7.70717,5.10618,-1.62382,-7.59146,-22.3476,-53.1707,-3.45841,-0.208367,8.72266,-28.0793,-18.2622,35.3049
598.256,55.0801,60.1407,0,7.58503,5.21156,-1.41546,-7.19512,-20.7927,-51.9817,-3.45601,-0.246687,8.49992,-29.2378,-12.9268,36.311
598.266,54.5657,60.4601,0,7.46049,5.36484,-1.73639,-7.22561,-22.8049,-50.8537,-3.47757,-0.340093,8.39933,-31.8902,-3.78049,35.3659
598.276,54.0891,60.8329,0,7.8389,5.51094,-2.02858,-8.07927,-21.5854,-49.2988,-3.47757,-0.387993,8.45202,-31.7073,2.5,35.6707
598.286,53.5824,61.1148,0,7.38624,5.65704,-2.0693,-9.60366,-23.628,-48.5671,-3.4608,-0.433499,8.56699,-29.6646,10.4268,36.25
598.296,53.0692,61.3876,0,7.13476,5.70973,-2.07169,-8.9939,-21.0976,-47.7744,-3.52307,-0.416733,8.75619,-26.372,15.9451,36.6768
598.306,52.5626,61.6349,0,7.1635,5.8199,-2.07648,-10.1829,-19.9085,-47.2866,-3.58774,-0.390388,8.76817,-23.5061,23.0183,37.5
598.316,52.0685,61.8601,0,7.16829,5.88935,-2.38783,-10.8841,-21.5854,-46.4024,-3.72905,-0.433499,8.98851,-23.5061,29.4207,38.7195
598.326,51.5868,62.0463,0,7.26888,5.9636,-2.53633,-11.2195,-22.6829,-46.2195,-3.81766,-0.409548,8.88313,-26.0671,36.5854,35.7317
598.336,51.1271,62.2035,0,7.34073,5.98994,-2.20581,-12.0122,-23.5366,-45.2744,-3.87275,-0.340093,8.79212,-30.7317,42.7439,36.4634
598.346,50.6534,62.324,0,7.12997,6.14323,-2.28964,-12.1037,-25.1524,-44.5122,-3.92783,-0.330513,8.61728,-31.7073,50.5183,33.689
598.356,50.1882,62.4499,0,7.04375,6.1073,-2.18905,-13.1098,-24.5427,-44.2378,-3.89191,-0.229922,8.6556,-32.5,58.0183,34.4817
598.366,49.6948,62.5576,0,6.53601,6.19113,-2.01182,-13.9024,-28.811,-42.9268,-3.88472,-0.215552,8.51669,-33.872,62.7439,36.5549
598.376,49.2109,62.6697,0,6.43063,6.23424,-1.97589,-13.689,-28.3232,-41.6159,-3.85119,-0.320933,8.54064,-32.439,68.4451,37.2561
598.386,48.754,62.7708,0,6.6845,6.2534,-2.19144,-15.3354,-26.2805,-41.9207,-3.86796,-0.387993,8.52148,-33.5061,73.4146,38.2012
598.396,48.3379,62.8668,0,6.90963,6.35399,-2.3088,-14.6037,-25.3354,-39.6951,-3.82485,-0.392783,8.43047,-32.5305,81.311,37.4695
598.406,47.9252,62.9511,0,6.82341,6.41865,-2.20102,-15.7622,-25.2439,-38.872,-3.79611,-0.450264,8.30114,-30.4268,86.9512,39.3293
598.416,47.4787,63.0165,0,6.36836,6.44739,-2.11959,-15.7012,-26.5854,-38.872,-3.78174,-0.402363,8.13588,-28.872,94.2988,39.2988
598.426,47.0192,63.0606,0,6.17676,6.60307,-2.15073,-15.1829,-28.8415,-37.9268,-3.87275,-0.392783,8.16223,-25.9146,98.5366,37.7134
598.436,46.5731,63.0939,0,6.14562,6.53601,-2.02619,-16.4939,-29.4207,-37.8049,-3.92065,-0.299377,8.18857,-24.878,103.659,37.1037
598.446,46.1551,63.0994,0,6.34201,6.56954,-2.28006,-17.8963,-29.1159,-37.378,-4.02363,-0.292192,8.16462,-25.6707,107.409,36.25
598.456,45.7502,63.0868,0,6.22705,6.46895,-2.39741,-17.3476,-28.5366,-36.7378,-4.02363,-0.263452,8.01374,-26.8902,113.14,35.1829
598.466,45.3459,63.0681,0,6.18155,6.50487,-2.27766,-17.5915,-29.939,-36.7378,-4.13859,-0.294587,8.19097,-25.0915,116.646,33.75
598.476,44.9316,63.0406,0,5.9636,6.60786,-2.34472,-18.5976,-29.7561,-35.5793,-4.16254,-0.253872,8.15744,-25.8841,120.061,32.8354
598.486,44.5365,62.9638,0,6.04982,6.65336,-2.28724,-18.9634,-29.2073,-34.9085,-4.25595,-0.280217,7.91554,-24.0854,127.5,31.8598
598.496,44.1456,62.8883,0,6.07616,6.79946,-2.1627,-18.7195,-31.4329,-34.2683,-4.39007,-0.289797,8.15025,-21.7683,128.232,31.0671
598.506,43.7574,62.7886,0,6.03545,6.93119,-2.29682,-19.5122,-30.7622,-33.2927,-4.41402,-0.285007,7.96823,-19.2683,130.183,31.5244
598.516,43.3868,62.665,0,6.08095,6.98388,-2.44771,-19.7866,-28.1402,-32.2866,-4.50264,-0.289797,7.90356,-18.1707,134.299,31.4329
598.526,43.0261,62.5402,0,6.07616,7.13716,-2.37586,-20.6402,-28.0793,-30.7317,-4.6152,-0.289797,8.05445,-17.1646,135.823,31.4329
598.536,42.6794,62.3936,0,6.08574,7.19464,-2.41418,-20.9451,-29.878,-29.6646,-4.70621,-0.399968,7.99458,-16.0671,136.799,29.7866
598.546,42.2997,62.2264,0,5.84624,7.4533,-2.20821,-21.6159,-31.6768,-29.4207,-4.77567,-0.404758,7.90835,-13.9939,141.799,25.8537
598.556,41.9272,62.0486,0,5.83906,7.47246,-2.43334,-21.7073,-30.9146,-29.2378,-4.89063,-0.409548,7.96823,-13.0488,146.25,25.2134
598.566,41.5572,61.8795,0,5.90133,7.60419,-2.49082,-21.7988,-31.6768,-29.3598,-4.99362,-0.423918,8.15265,-13.0793,148.11,23.4756
598.576,41.1849,61.6937,0,5.87738,7.54671,-2.43094,-21.8293,-31.8598,-30.5488,-5.099,-0.431104,8.13588,-14.4207,149.024,19.8476
598.586,40.8027,61.4863,0,5.89893,7.66167,-2.61297,-23.0793,-31.128,-31.6768,-5.20917,-0.479004,8.08798,-14.7866,153.11,18.0793
598.596,40.4324,61.2601,0,6.00671,7.64251,-2.7878,-23.9329,-27.5305,-32.4085,-5.31694,-0.445474,8.04487,-17.0427,154.634,15.5488
598.606,40.0561,61.017,0,5.90612,7.57784,-2.73272,-23.2317,-23.689,-33.2927,-5.39837,-0.414338,7.97302,-19.0854,157.226,15.1829
598.616,39.6828,60.7821,0,5.90612,7.58742,-2.60099,-22.8963,-23.5366,-33.689,-5.47022,-0.342488,8.07122,-20.4878,159.055,14.1159
598.626,39.316,60.509,0,5.89414,7.5515,-2.54591,-23.2927,-23.2622,-33.9329,-5.5325,-0.285007,7.81255,-21.9207,163.628,12.8659
598.636,38.968,60.2297,0,5.96599,7.39822,-2.68242,-22.8049,-21.4939,-34.6341,-5.61393,-0.146096,7.81016,-21.5854,169.024,13.5671
598.646,38.5876,59.9356,0,5.83906,7.52755,-2.7902,-22.4695,-16.7378,-36.4329,-5.63548,-0.0742456,7.65688,-21.6159,170.549,13.4451
598.656,38.1955,59.6017,0,5.84624,7.60419,-2.66566,-21.7073,-15.4573,-37.8963,-5.70494,-0.126936,7.40061,-17.561,175.152,11.7988
598.666,37.7605,59.2542,0,5.69536,7.76226,-2.5986,-20.2134,-12.7744,-40.4573,-5.73847,-0.131726,7.26888,-14.4207,178.506,11.5549
598.676,37.3043,58.8966,0,5.57321,7.81495,-2.42855,-20.4573,-11.0671,-41.9207,-5.73368,-0.220342,7.11081,-15.2744,181.341,8.65854
598.686,36.833,58.5447,0,5.3864,7.71915,-2.33275,-20.1829,-11.6159,-43.2012,-5.70733,-0.249082,7.02938,-16.0671,184.726,7.34756
598.696,36.375,58.2265,0,5.35287,7.63772,-2.07409,-20.122,-14.5427,-43.0488,-5.6259,-0.285007,7.05812,-16.0976,188.689,7.10366
598.706,35.9181,57.9248,0,5.36963,7.66406,-2.02858,-20.7927,-16.8293,-43.8415,-5.55166,-0.328118,6.99585,-16.372,193.415,6.7378
598.716,35.452,57.6083,0,5.30018,7.7431,-2.07409,-21.7683,-18.2012,-44.4512,-5.51573,-0.366438,6.79228,-14.4207,199.665,9.08537
598.726,34.9974,57.2598,0,5.36484,7.64969,-2.00942,-24.1768,-21.0976,-45.5488,-5.55645,-0.476609,6.58151,-11.7988,206.402,10.4573
598.736,34.5191,56.9018,0,5.15887,7.62814,-1.72681,-26.6159,-22.8354,-46.9207,-5.62351,-0.56762,6.53122,-11.7988,212.134,11.9817
598.746,34.0307,56.5232,0,5.08942,7.65209,-1.6358,-27.2561,-23.5366,-48.0183,-5.71212,-0.543669,6.43302,-8.20122,213.232,12.8354
598.756,33.5391,56.1101,0,4.91937,7.52036,-1.95913,-27.5,-20.9451,-48.4451,-5.79355,-0.474214,6.251,-3.9939,219.299,13.4146
598.766,33.0526,55.6668,0,4.87865,7.56108,-2.09564,-27.9573,-23.628,-48.2012,-5.87738,-0.397573,6.09532,1.15854,227.439,15.7012
598.776,32.5774,55.2395,0,4.87865,7.49881,-2.2106,-27.2561,-26.5854,-48.4756,-5.98994,-0.306563,6.20789,4.45122,231.89,16.8902
598.786,32.1158,54.7898,0,4.84991,7.49881,-2.38065,-26.9817,-30.1829,-47.7439,-6.11448,-0.246687,6.12646,8.10976,236.677,18.3537
598.796,31.6306,54.3112,0,4.57688,7.56108,-2.3064,-25.3659,-31.5854,-47.622,-6.21029,-0.174836,5.97557,10.3659,241.402,17.6829
598.806,31.1197,53.8344,0,4.27511,7.69759,-2.30161,-25.8232,-34.878,-46.8598,-6.35159,-0.158071,6.02587,11.128,246.494,16.4634
598.816,30.6299,53.3276,0,4.2775,7.68083,-2.52914,-26.3415,-33.2317,-45.8841,-6.47853,-0.146096,5.89175,12.4695,252.409,13.2927
598.826,30.1588,52.8256,0,4.40444,7.70478,-2.61776,-27.378,-31.4024,-46.2805,-6.56235,-0.0958008,5.89414,10.9756,257.957,11.2195
598.836,29.7283,52.3298,0,4.73974,7.63532,-2.72793,-25.7927,-28.5671,-47.3476,-6.66773,-0.131726,5.92049,7.89634,262.378,8.96341
598.846,29.3354,51.8003,0,5.07984,7.62814,-2.75667,-24.5427,-27.7439,-48.1098,-6.70366,-0.131726,5.68338,6.03659,269.177,5.45732
598.856,28.919,51.2936,0,4.91698,7.71196,-2.56507,-23.811,-28.1402,-48.9939,-6.78749,-0.110171,5.76721,-0.0914634,272.774,3.5061
598.866,28.4921,50.7844,0,4.78525,7.7431,-2.4022,-21.7378,-24.2683,-49.2683,-6.8761,-0.0622705,5.72649,-4.48171,273.262,2.68293
598.876,28.0263,50.2284,0,4.39965,7.82692,-2.23934,-18.9939,-20.1829,-49.2683,-6.9719,-0.0790356,5.47022,-9.60366,277.409,1.15854
598.886,27.5162,49.6721,0,3.98052,7.97302,-2.25611,-18.3537,-21.372,-48.9939,-7.09405,-0.0862207,5.45585,-13.6585,279.299,0.945122
598.896,27.0201,49.1011,0,3.96136,7.98979,-2.53154,-18.5366,-21.1585,-48.2927,-7.17308,-0.102986,5.3361,-16.0061,281.677,-2.07317
598.906,26.5581,48.4917,0,4.26792,8.22689,-2.5986,-18.7805,-23.1707,-47.9573,-7.2114,-0.0981958,5.07505,-15.1524,287.561,-3.56707
598.916,26.0807,47.8724,0,4.06195,8.40173,-2.40939,-18.9939,-24.5732,-47.1646,-7.28086,-0.119751,4.96727,-12.5,293.049,-3.17073
598.926,25.6401,47.2748,0,4.39247,8.30353,-2.49082,-18.5671,-19.7561,-48.628,-7.38385,-0.131726,5.02715,-14.8476,296.433,-2.9878
598.936,25.1522,46.6779,0,4.04519,8.37299,-2.18665,-17.7744,-17.1037,-50.0915,-7.44612,-0.100591,4.96009,-14.9695,296.616,-3.01829
598.946,24.6628,46.0775,0,4.09788,8.31072,-1.74597,-17.2561,-18.3537,-52.1646,-7.49641,-0.0886157,4.86907,-21.0366,300.427,-1.18902
598.956,24.1066,45.4604,0,3.56858,8.42089,-1.96392,-15.3354,-20.1829,-53.2927,-7.51318,-0.0958008,4.69663,-25.8232,306.189,0.27439
598.966,23.534,44.8116,0,3.49912,8.63165,-2.19623,-17.5,-18.689,-54.2683,-7.55389,-0.0814307,4.46911,-26.8293,310.183,0.670732
598.976,23.0039,44.1537,0,3.76737,8.69632,-2.34472,-18.872,-16.7378,-53.872,-7.72873,-0.0981958,4.41642,-28.811,312.378,2.22561
598.986,22.4654,43.4681,0,3.65719,8.69153,-2.26808,-20.0305,-15.1829,-54.5732,-7.81734,-0.143701,4.22481,-28.7195,312.713,4.93902
598.996,21.9416,42.7881,0,3.58774,8.54303,-2.01661,-20.122,-10.7927,-54.0854,-7.89877,-0.141306,4.17212,-29.1159,312.439,6.79878
599.006,21.4207,42.1232,0,3.4632,8.40891,-1.94715,-16.9207,-5.45732,-54.0549,-7.95146,-0.114961,4.14817,-29.939,313.506,8.68902
599.016,20.898,41.4466,0,3.39135,8.59573,-2.06211,-16.7378,-4.39024,-53.5671,-7.98021,-0.0934058,3.99729,-32.8963,317.348,6.55488
599.026,20.3891,40.7838,0,3.29076,8.79212,-2.39023,-18.9939,-6.28049,-51.1585,-8.02571,-0.0359253,3.96855,-36.8598,323.78,7.0122
599.036,19.9394,40.1239,0,3.61648,8.86397,-1.77231,-19.9695,-6.52439,-49.5732,-8.0808,-0.0550855,3.8943,-41.4024,325.457,5.67073
599.046,19.4541,39.4655,0,3.09197,9.12981,-1.95434,-17.5915,-2.83537,-47.0122,-8.14067,-0.0646655,3.81766,-47.7439,328.354,4.32927
599.056,18.9909,38.7784,0,3.20214,9.38608,-2.59381,-19.2988,1.98171,-46.0061,-8.23887,-0.00479004,3.62366,-51.6463,328.994,2.53049
599.066,18.514,38.0651,0,2.91953,9.5202,-2.58662,-22.0427,5.12195,-44.6951,-8.35862,0.0383203,3.44404,-56.8598,328.598,3.01829
599.076,18.0263,37.3301,0,2.76864,9.21843,-1.91602,-23.1098,10.7317,-46.0976,-8.45442,0.0766406,3.26681,-58.7195,327.652,3.87195
599.086,17.4816,36.6159,0,2.28485,8.90229,-1.04662,-21.0366,12.9573,-48.1707,-8.56699,0.110171,3.2716,-59.7256,324.665,5.06098
599.096,16.8872,35.9202,0,1.96392,8.78254,-1.27176,-20.4268,16.9512,-50.7012,-8.72745,0.0431104,3.28836,-60,322.683,6.09756
599.106,16.304,35.229,0,1.90404,8.72266,-1.40348,-19.6951,16.9207,-50.1829,-8.85439,-0.0431104,3.23088,-59.1159,319.39,4.45122
599.116,15.7375,34.5437,0,1.77471,8.77296,-1.59029,-18.3232,14.878,-47.8659,-8.91426,-0.0407153,3.15424,-58.2317,316.006,2.22561
599.126,15.2215,33.8731,0,1.78189,8.93103,-1.71962,-16.7683,13.2317,-43.5671,-9.01006,-0.0886157,3.13029,-57.4695,312.622,-2.22561
599.136,14.7485,33.2067,0,1.78908,9.09389,-1.80824,-16.189,8.84146,-39.9085,-9.06275,-0.182021,3.04407,-55.4573,307.5,-4.45122
599.146,14.3253,32.5766,0,1.7292,9.37411,-1.99026,-16.9512,9.72561,-34.4207,-9.05317,-0.217947,3.08239,-54.1463,304.665,-8.35366
599.156,13.9492,31.9465,0,1.68849,9.43398,-1.98308,-19.6341,8.56707,-29.8476,-9.10107,-0.258662,2.98419,-53.9024,300.701,-10.1829
599.166,13.6102,31.3313,0,1.69328,9.40764,-1.49689,-19.3598,5.30488,-26.9512,-9.18969,-0.340093,2.96503,-54.878,297.226,-13.9024
599.176,13.2936,30.697,0,1.64059,9.26154,-1.29331,-16.8902,3.90244,-25.0305,-9.22322,-0.313748,2.77822,-57.1951,293.232,-14.4817
599.186,13.01,30.0342,0,1.64777,9.32621,-1.23823,-12.7134,0.518293,-22.2561,-9.32381,-0.402363,2.56507,-55.6402,287.043,-15.2134
599.196,12.7611,29.4323,0,1.64059,9.42919,-1.22146,-9.5122,-1.58537,-18.9939,-9.56571,-0.483794,2.77822,-53.3537,275.152,-15.1524
599.206,12.5655,28.8489,0,1.76752,9.44356,-1.13763,-7.16463,-3.96341,-15.5488,-9.75252,-0.529299,2.79499,-47.5915,260.915,-15.122
599.216,12.3974,28.2252,0,1.7316,9.65672,-1.11608,-6.64634,-7.37805,-12.2561,-9.97047,-0.534089,2.5483,-45.2134,250.396,-12.9268
599.226,12.2601,27.539,0,1.77231,9.79803,-1.24062,-7.46951,-8.20122,-9.63415,-10.0423,-0.61073,2.16031,-42.378,251.22,-10.9451
599.236,12.1673,26.8441,0,1.8777,9.67588,-1.41546,-7.31707,-8.35366,-6.85976,-9.99921,-0.62031,1.98547,-39.1463,250.122,-7.77439
599.246,12.1255,26.1624,0,2.00942,9.43159,-1.29331,-4.93902,-4.42073,-3.96341,-9.98244,-0.665815,1.90883,-30.7622,241.951,-5.42683
599.256,12.1314,25.4796,0,2.13636,9.4723,-1.28852,-5.06098,-6.79878,-1.28049,-9.96089,-0.675395,1.76992,-22.8659,233.293,-2.95732
599.266,12.1386,24.8141,0,2.04774,9.45554,-1.29331,-4.02439,-5.54878,0.27439,-9.92736,-0.701741,1.71483,-15.7927,227.683,-2.71341
599.276,12.1764,24.1673,0,2.1627,9.42919,-0.950823,-4.17683,-1.95122,0.97561,-9.8076,-0.675395,1.65735,-13.2317,224.329,-2.56098
599.286,12.2341,23.5282,0,2.22497,9.40764,-0.423918,-4.69512,0.396341,0.548781,-9.65432,-0.517324,1.55197,-14.2378,222.988,-3.04878
599.296,12.2824,22.8961,0,2.21539,9.39327,-0.184417,-3.10976,-1.09756,-0.426829,-9.55852,-0.361648,1.45378,-12.1037,218.78,-0.0914634
599.306,12.273,22.2766,0,2.09564,9.63277,-0.725691,-2.56098,-3.29268,-0.945122,-9.67109,-0.222737,1.41067,-11.5549,211.22,1.92073
599.316,12.2545,21.6841,0,2.15552,9.60642,-1.0562,-2.68293,-3.53659,-2.7439,-9.77886,-0.208367,1.42743,-10.8232,200,2.95732
599.326,12.1639,21.1079,0,1.67172,9.46272,-0.981958,-1.31098,-0.762195,-4.57317,-9.93454,-0.105381,1.40827,-13.4451,189.146,5.73171
599.336,12.013,20.5434,0,1.2526,9.41961,-0.914897,0.27439,3.10976,-5.97561,-10.0519,-0.0862207,1.36995,-17.3171,183.415,8.90244
599.346,11.8495,20.0066,0,1.10171,9.34537,-0.984353,1.4939,6.31098,-5.79268,-10.1573,-0.0431104,1.40348,-19.4207,177.652,10.6098
599.356,11.6913,19.4895,0,1.07057,9.34537,-1.03944,1.89024,7.43902,-5.12195,-10.2172,0.0383203,1.40109,-23.9024,173.567,12.439
599.366,11.5473,18.9802,0,1.16158,9.39566,-1.37714,2.07317,7.28659,-5.06098,-10.2052,-0.0191602,1.33642,-27.2866,168.14,14.2988
599.376,11.4021,18.4681,0,1.16398,9.35974,-1.67891,3.41463,7.0122,-5.64024,-10.1166,-0.0958008,1.21906,-31.2195,166.189,11.7378
599.386,11.2622,17.928,0,1.24541,9.4747,-1.65017,3.01829,9.42073,-6.25,-9.97286,-0.174836,0.986748,-35.7012,166.25,11.4024
599.396,11.1131,17.3842,0,1.19272,9.51302,-1.24541,2.16463,10.0305,-6.79878,-9.87706,-0.179626,0.864602,-34.878,162.713,11.7683
599.406,10.9654,16.8208,0,1.26218,9.58966,-0.744851,1.46341,8.68902,-7.68293,-9.87467,-0.256267,0.682581,-32.8049,161.22,11.7378
599.416,10.8237,16.3075,0,1.24541,9.57529,-0.433499,1.12805,6.18902,-7.19512,-9.93694,-0.308958,0.804727,-28.3841,155.884,11.128
599.426,10.6957,15.8079,0,1.30529,9.70222,-0.352068,1.89024,2.86585,-6.58537,-10.0112,-0.289797,0.773591,-27.9878,146.738,11.7683
599.436,10.602,15.3169,0,1.47533,9.96328,-0.526904,1.64634,-0.335366,-4.87805,-10.0136,-0.395178,0.718506,-26.7073,140.671,14.6646
599.446,10.5392,14.8402,0,1.64777,10.016,-0.61552,0.213415,-3.01829,-3.75,-10.1118,-0.399968,0.696951,-25.1829,134.268,15.7927
599.456,10.5214,14.4017,0,1.94715,9.97526,-0.804727,-1.25,-3.87195,-2.92683,-10.1405,-0.435894,0.778381,-25.5488,125.823,17.2866
599.466,10.5466,13.9996,0,2.22018,9.82677,-0.828677,-1.61585,-1.55488,-2.5,-10.2076,-0.407153,0.862207,-27.8659,116.89,19.6037
599.476,10.5924,13.6001,0,2.39023,9.60882,-0.764011,-1.15854,2.92683,-2.95732,-10.3225,-0.517324,0.802332,-31.7073,107.835,18.5671
599.486,10.6515,13.1601,0,2.51956,9.46033,-0.675395,1.15854,8.71951,-3.38415,-10.3321,-0.59157,0.541274,-34.0549,103.11,17.7744
599.496,10.6883,12.6839,0,2.3543,9.41961,-0.802332,4.57317,14.939,-3.56707,-10.2243,-0.423918,0.292192,-33.5061,101.616,20.8537
599.506,10.6909,12.193,0,2.08606,9.49386,-1.12326,7.89634,21.1585,-3.44512,-10.1525,-0.325723,0.141306,-32.8354,102.957,25.9451
599.516,10.6539,11.698,0,1.78908,9.52978,-1.42504,10.2744,26.0366,-3.65854,-10.174,-0.395178,0.0359253,-35.7622,102.805,27.9878
599.526,10.5733,11.2368,0,1.43941,9.64714,-1.54718,10.7012,28.5976,-3.56707,-10.1716,-0.467029,0.0958008,-38.5366,98.5976,30.7012
599.536,10.4738,10.8094,0,1.29092,9.73096,-1.50647,9.60366,29.6341,-3.75,-10.0256,-0.390388,0.158071,-41.0976,92.6829,31.2805
599.546,10.3558,10.3903,0,1.13763,9.7118,-1.43941,8.14024,27.7744,-4.05488,-9.88185,-0.368833,0.112566,-44.2378,86.3415,33.75
599.556,10.2182,9.9791,0,0.967588,9.70462,-1.27894,6.37195,24.2988,-4.26829,-9.77886,-0.313748,0.0694556,-46.7683,80.9146,35.3354
599.566,10.0917,9.56841,0,1.00351,9.76689,-1.26457,5.97561,19.0854,-3.56707,-9.75491,-0.289797,-0.00239502,-48.3537,76.3415,34.6341
599.576,9.98051,9.16066,0,1.08255,9.65672,-1.39151,5.36585,13.2927,-3.20122,-9.9058,-0.416733,-0.0670605,-53.4756,68.7805,35.4573
599.586,9.90135,8.71869,0,1.3005,9.57529,-1.45378,4.81707,8.07927,-3.04878,-9.97047,-0.481399,-0.292192,-53.0183,64.9695,33.6585
599.596,9.83849,8.28922,0,1.3939,9.51302,-1.43701,5.21341,5.94512,-2.80488,-10.0447,-0.500559,-0.318538,-52.9878,62.6524,33.2317
599.606,9.79476,7.85867,0,1.51365,9.58726,-1.49928,5.51829,3.38415,-2.37805,-10.1357,-0.467029,-0.404758,-49.8171,59.9085,33.9939
599.616,9.74827,7.43738,0,1.46336,9.57768,-1.7316,5.7622,3.29268,-1.67683,-10.186,-0.505349,-0.443079,-47.1646,58.4146,32.8659
599.626,9.7172,7.02188,0,1.54239,9.5226,-1.93757,4.93902,5.12195,-1.64634,-10.2459,-0.5772,-0.498164,-44.6341,54.8476,29.4512
599.636,9.68807,6.62013,0,1.54,9.53697,-2.0214,4.63415,7.9878,-1.31098,-10.1477,-0.570015,-0.507744,-43.9939,52.2866,26.4634
599.646,9.65176,6.25303,0,1.50168,9.57768,-1.89686,2.92683,10.0915,-1.40244,-10.0615,-0.524509,-0.421523,-42.5305,50.7317,22.2561
599.656,9.6047,5.91505,0,1.43941,9.54894,-1.64059,2.62195,11.6463,-2.0122,-10.0591,-0.464634,-0.359253,-42.9268,47.7744,18.4756
599.666,9.55169,5.55934,0,1.41546,9.54894,-1.49928,2.28659,12.6829,-2.68293,-10.0232,-0.402363,-0.495769,-44.0549,47.6524,15
599.676,9.48958,5.20011,0,1.36995,9.57529,-1.42264,2.77439,13.1098,-3.23171,-10.0088,-0.340093,-0.57241,-45.7317,48.2927,11.9207
599.686,9.42084,4.86469,0,1.34361,9.57529,-1.38432,2.68293,13.2927,-3.81098,-10.0447,-0.251477,-0.531694,-47.4085,48.4756,9.57317
599.696,9.34427,4.54024,0,1.31487,9.60163,-1.33403,2.2561,12.7744,-4.42073,-10.0639,-0.256267,-0.543669,-48.5061,47.7439,6.92073
599.706,9.26895,4.22773,0,1.33403,9.66151,-1.42983,1.79878,11.9817,-4.60366,-10.0567,-0.249082,-0.548459,-49.7866,46.4329,4.39024
599.716,9.18956,3.91978,0,1.34121,9.68785,-1.46096,1.28049,9.7561,-5.2439,-10.0423,-0.249082,-0.584385,-50.3659,44.1463,1.43293
599.726,9.11117,3.62373,0,1.35558,9.63037,-1.42025,0.823171,7.37805,-5.57927,-10.0303,-0.265847,-0.58678,-50.5183,42.0427,0.914634
599.736,9.02764,3.33589,0,1.33882,9.63277,-1.52084,0.518293,5.30488,-6.06707,-10.0711,-0.294587,-0.608335,-50.7012,38.0488,-0.121951
599.746,8.94055,3.05227,0,1.31247,9.58247,-1.54479,0.823171,3.65854,-6.37195,-10.0543,-0.320933,-0.641865,-48.872,35.0305,-0.731707
599.756,8.84956,2.76994,0,1.26936,9.65672,-1.51126,0.0914634,3.01829,-6.31098,-10.0447,-0.387993,-0.684976,-47.7744,35.6098,-3.81098
599.766,8.76097,2.48649,0,1.29092,9.59205,-1.47294,-0.152439,2.65244,-6.61585,-10.0806,-0.342488,-0.742456,-47.1951,35.4268,-4.69512
599.776,8.67908,2.2101,0,1.3484,9.64953,-1.48012,-0.701219,3.59756,-6.70732,-10.174,-0.277822,-0.768801,-43.6585,34.7256,-5.42683
599.786,8.61546,1.93422,0,1.47054,9.64953,-1.43222,-1.21951,4.02439,-6.46341,-10.198,-0.220342,-0.819097,-43.1707,33.2317,-3.29268
599.796,8.55787,1.67986,0,1.49928,9.63756,-1.39151,-1.40244,3.9939,-6.34146,-10.1453,-0.215552,-0.768801,-40.7317,31.4024,-3.2622
599.806,8.50465,1.42761,0,1.50407,9.65672,-1.41306,-1.43293,4.2378,-6.03659,-10.0998,-0.239502,-0.802332,-40.3049,29.9085,-3.5061
599.816,8.45767,1.18851,0,1.50647,9.63516,-1.2981,-1.4939,3.5061,-5.57927,-10.0519,-0.292192,-0.785566,-38.9634,28.5976,-2.89634
599.826,8.41585,0.96537,0,1.52084,9.64474,-1.28373,-2.04268,2.5,-5.30488,-10.0519,-0.306563,-0.759221,-37.378,25.6707,-2.2561
599.836,8.38123,0.759364,0,1.54239,9.63516,-1.27176,-2.43902,1.79878,-4.93902,-10.0112,-0.340093,-0.723296,-36.372,21.0976,-3.10976
599.846,8.35193,0.569447,0,1.52563,9.61121,-1.15919,-2.7439,1.55488,-4.32927,-9.98963,-0.325723,-0.689766,-33.5366,17.5,-1.55488
599.856,8.32471,0.364072,0,1.52563,9.59924,-1.2023,-2.19512,1.09756,-4.20732,-9.92017,-0.342488,-0.787961,-30.6707,15.2134,-0.853659
599.866,8.30845,0.164093,0,1.55676,9.57289,-1.14482,-2.13415,0.518293,-3.62805,-9.9082,-0.383203,-0.802332,-27.561,11.372,-2.40854
599.876,8.30031,-0.0358503,0,1.58071,9.63516,-1.15679,-2.0122,-0.0304878,-3.07927,-9.89622,-0.419128,-0.838257,-23.9939,8.32317,-2.28659
599.886,8.29474,-0.226905,0,1.5855,9.60403,-1.17356,-1.79878,-0.304878,-2.9878,-9.89143,-0.409548,-0.823887,-20.5488,4.69512,-3.41463
599.896,8.30255,-0.431823,0,1.62622,9.57768,-1.1999,-1.98171,0.0914634,-2.43902,-9.91299,-0.395178,-0.840652,-17.2866,2.68293,-3.14024
599.906,8.31896,-0.634458,0,1.60706,9.55852,-1.24302,-1.95122,0.152439,-1.76829,-9.92017,-0.416733,-0.929268,-14.6646,3.84146,-1.64634
599.916,8.33544,-0.826824,0,1.59987,9.52978,-1.20709,-2.16463,-0.182927,-1.7378,-10.0136,-0.397573,-0.936453,-10.8232,4.02439,-1.4939
599.926,8.36699,-1.03095,0,1.59987,9.58726,-1.24302,-2.04268,0.0914634,-0.945122,-10.0327,-0.337698,-1.02028,-8.59756,3.87195,-1.92073
599.936,8.38506,-1.24268,0,1.55676,9.6184,-1.26457,-2.40854,-0.0914634,-1.03659,-10.004,-0.311353,-1.00112,-6.55488,2.40854,-1.7378
599.946,8.38944,-1.47919,0,1.51605,9.64714,-1.23104,-2.53049,-0.731707,-1.28049,-9.98963,-0.237107,-0.969983,-5.18293,1.40244,-0.0609756
599.956,8.39443,-1.80966,0,1.52084,9.67827,-1.24781,-2.92683,-1.0061,-1.21951,-9.97047,-0.227527,-0.917292,-3.04878,-0.27439,1.46341
599.966,8.39153,-1.98446,0,1.49928,9.69504,-1.23823,-2.95732,-1.85976,-1.46341,-9.93454,-0.213157,-0.905317,-2.04268,-1.70732,1.21951
599.976,8.38766,-2.13795,0,1.4921,9.64953,-1.20709,-3.04878,-2.59146,-1.55488,-9.89862,-0.244292,-0.967588,-0.518293,-3.04878,1.95122
599.986,8.38544,-2.27395,0,1.50886,9.64714,-1.22864,-2.95732,-3.2622,-1.64634,-9.92017,-0.292192,-0.950823,0.304878,-3.87195,2.56098
599.996,8.3809,-2.38341,0,1.52323,9.63516,-1.25499,-3.35366,-3.56707,-2.0122,-9.91059,-0.277822,-0.876577,-0.0609756,-5.91463,2.40854
600.006,8.3833,-2.49859,0,1.54958,9.62079,-1.30768,-3.62805,-3.87195,-1.82927,-9.92736,-0.280217,-0.922083,1.64634,-5.82317,3.90244
600.016,8.39716,-2.60511,0,1.61424,9.55373,-1.25739,-3.47561,-4.2378,-1.85976,-9.94652,-0.325723,-0.907712,2.80488,-6.52439,4.72561
600.026,8.423,-2.71326,0,1.6334,9.5202,-1.25978,-3.38415,-4.17683,-1.46341,-9.91299,-0.280217,-0.929268,3.96341,-6.06707,3.81098
600.036,8.45728,-2.81363,0,1.68609,9.54894,-1.30529,-3.38415,-3.90244,-1.40244,-9.92257,-0.306563,-0.917292,5.15244,-7.37805,5.06098
600.046,8.49872,-2.92003,0,1.70046,9.57289,-1.28373,-3.68902,-3.65854,-1.15854,-9.89143,-0.335303,-0.958008,6.98171,-7.13415,3.81098
600.056,8.5481,-3.01941,0,1.73399,9.58966,-1.27655,-3.53659,-3.2622,-1.03659,-9.9058,-0.344883,-0.946033,6.4939,-6.4939,4.84756
600.066,8.58765,-3.12173,0,1.72202,9.59445,-1.27894,-3.38415,-3.2622,-1.21951,-9.94412,-0.352068,-0.977168,6.89024,-5.45732,5.4878
600.076,8.6269,-3.22031,0,1.72681,9.57529,-1.28852,-3.32317,-3.17073,-1.25,-9.92257,-0.368833,-0.979563,8.01829,-6.58537,3.96341
600.086,8.65691,-3.32598,0,1.72441,9.58726,-1.30529,-3.59756,-2.9878,-1.52439,-9.89862,-0.347278,-1.02507,9.66463,-6.34146,3.87195
600.096,8.68039,-3.42002,0,1.68609,9.57529,-1.23583,-3.81098,-2.53049,-1.52439,-9.87706,-0.318538,-0.989143,9.84756,-5.91463,5.97561
600.106,8.70182,-3.51856,0,1.65256,9.56571,-1.23823,-3.90244,-3.07927,-1.34146,-9.86748,-0.294587,-1.02507,11.5854,-6.25,5.42683
600.116,8.72319,-3.60584,0,1.6813,9.57529,-1.2526,-3.84146,-3.2622,-1.52439,-9.86748,-0.318538,-0.993933,12.3171,-6.79878,5.51829
600.126,8.74072,-3.67387,0,1.65256,9.58247,-1.2502,-4.02439,-3.59756,-1.43293,-9.9058,-0.311353,-0.929268,14.7561,-7.5,4.17683
600.136,8.76618,-3.75337,0,1.67412,9.51781,-1.26936,-3.38415,-3.93293,-1.34146,-9.9082,-0.268242,-0.993933,15.8841,-9.54268,4.45122
600.146,8.78208,-3.82796,0,1.65017,9.53457,-1.27176,-3.10976,-4.93902,-1.52439,-9.91059,-0.263452,-0.986748,15.0305,-9.93902,4.7561
600.156,8.80205,-3.88733,0,1.69328,9.5226,-1.28613,-3.44512,-4.54268,-1.67683,-9.94412,-0.258662,-0.936453,14.4207,-10.6402,5.15244
600.166,8.81533,-3.9379,0,1.65256,9.52499,-1.31247,-3.81098,-4.81707,-1.64634,-9.92496,-0.203577,-0.907712,16.0366,-12.3476,5.67073
600.176,8.82872,-3.99907,0,1.69328,9.58487,-1.29571,-3.9939,-4.72561,-1.85976,-9.92975,-0.167651,-0.965193,14.3598,-13.9939,6.34146
600.186,8.82989,-4.06243,0,1.60945,9.61361,-1.3963,-4.14634,-4.5122,-1.7378,-9.92017,-0.203577,-0.984353,13.75,-13.6585,8.68902
600.196,8.83729,-4.11251,0,1.64059,9.59684,-1.46096,-4.57317,-4.96951,-1.67683,-9.91059,-0.282612,-0.936453,13.0488,-14.2988,8.20122
600.206,8.84464,-4.15986,0,1.65256,9.62079,-1.39869,-4.87805,-5.15244,-1.7378,-9.92975,-0.335303,-0.936453,12.4085,-16.0366,8.9939
600.216,8.85713,-4.20768,0,1.6837,9.62079,-1.35319,-5.94512,-5.82317,-1.70732,-9.92496,-0.407153,-0.948428,11.0671,-18.4146,10.7317
600.226,8.88096,-4.26341,0,1.70765,9.58726,-1.37474,-6.67683,-5.30488,-1.37195,-9.91538,-0.476609,-0.991538,11.6768,-19.3293,10.1829
600.236,8.91097,-4.31885,0,1.74357,9.50823,-1.31726,-6.82927,-4.63415,-1.4939,-9.93933,-0.483794,-1.00351,12.2561,-20.5488,11.0061
600.246,8.94312,-4.37264,0,1.75076,9.48428,-1.35319,-6.82927,-4.20732,-1.46341,-9.95131,-0.548459,-1.0083,11.7683,-21.9512,9.93902
600.256,8.96958,-4.43743,0,1.77231,9.49625,-1.35798,-6.89024,-3.59756,-1.79878,-9.91538,-0.550855,-1.06339,10.3354,-22.7439,9.08537
600.266,8.9784,-4.49444,0,1.7316,9.54655,-1.38911,-6.7378,-3.5061,-2.31707,-9.82197,-0.500559,-1.03225,10.6098,-24.7561,9.63415
600.276,8.97368,-4.5374,0,1.69328,9.57768,-1.40588,-6.15854,-3.32317,-2.86585,-9.80042,-0.474214,-0.979563,11.8598,-25.9451,8.87195
600.286,8.96376,-4.58467,0,1.69088,9.62079,-1.44899,-6.06707,-3.23171,-3.20122,-9.82916,-0.445474,-1.0107,9.63415,-28.2317,10.1829
600.296,8.94186,-4.62207,0,1.6334,9.70462,-1.43701,-5.67073,-3.96341,-3.5061,-9.8076,-0.488584,-0.974773,8.71951,-29.6951,10.3049
600.306,8.93145,-4.67376,0,1.66214,9.68067,-1.49689,-5.91463,-4.39024,-2.86585,-9.86748,-0.548459,-1.05141,7.28659,-31.2805,10.3049
600.316,8.93562,-4.74244,0,1.70765,9.64953,-1.59508,-6.34146,-4.93902,-2.2561,-9.94173,-0.661025,-1.14242,8.04878,-29.7256,9.63415
600.326,8.9554,-4.81124,0,1.76752,9.63516,-1.54718,-6.67683,-5.51829,-1.82927,-9.97765,-0.771196,-1.15919,8.41463,-29.6951,8.71951
600.336,8.99129,-4.88851,0,1.81782,9.60403,-1.59748,-7.34756,-5.91463,-1.46341,-9.98244,-0.756826,-1.20709,8.2622,-26.7378,6.95122
600.346,9.06141,-4.9826,0,1.825,9.5681,-1.60945,-8.35366,-6.25,-0.548781,-9.98484,-0.689766,-1.29331,8.53659,-23.3841,6.76829
600.356,9.16679,-5.06219,0,1.8777,9.52739,-1.64777,-8.90244,-6.37195,0.27439,-9.99442,-0.66821,-1.24541,7.0122,-22.3171,5.39634
600.366,9.26733,-5.12782,0,1.96152,9.5226,-1.65975,-10.2744,-6.82927,0.762195,-9.95131,-0.670605,-1.19032,5.85366,-20.5183,5.91463
600.376,9.35183,-5.18791,0,1.93278,9.50583,-1.66214,-10.9756,-7.37805,1.06707,-9.91059,-0.646655,-1.17116,4.08537,-19.0549,3.96341
600.386,9.43779,-5.26027,0,1.96871,9.55134,-1.64777,-11.1585,-7.83537,1.03659,-9.85311,-0.608335,-1.22864,4.02439,-18.7195,4.2378
600.396,9.51553,-5.32197,0,1.9232,9.5202,-1.65496,-11.7073,-8.2622,0.97561,-9.80042,-0.58199,-1.18553,1.31098,-16.0061,3.56707
600.406,9.59418,-5.36803,0,1.93278,9.41722,-1.62143,-11.128,-9.05488,1.28049,-9.76928,-0.550855,-1.12326,-1.40244,-14.939,2.46951
600.416,9.69687,-5.41459,0,2.06451,9.41722,-1.60945,-10.9756,-10.0305,1.15854,-9.75491,-0.500559,-1.13045,-2.9878,-13.4146,3.14024
600.426,9.80893,-5.45668,0,2.19144,9.43877,-1.57832,-11.8293,-8.9939,1.4939,-9.69264,-0.419128,-1.11129,-7.83537,-12.7439,2.56098
600.436,9.9429,-5.49975,0,2.37346,9.41243,-1.50168,-12.5305,-7.56098,1.7378,-9.67827,-0.416733,-1.11847,-8.62805,-9.69512,2.43902
600.446,10.09,-5.54293,0,2.48364,9.38608,-1.46336,-12.4085,-5.67073,1.79878,-9.68306,-0.452659,-1.12566,-12.2866,-8.35366,4.32927
600.456,10.2457,-5.59019,0,2.54591,9.30465,-1.49928,-11.6159,-5.33537,1.89024,-9.66869,-0.399968,-1.14482,-14.5122,-5.45732,3.5061
600.466,10.3928,-5.63844,0,2.58183,9.36453,-1.4442,-11.4634,-4.2378,2.22561,-9.68067,-0.435894,-1.152,-16.6159,-4.05488,4.08537
600.476,10.5367,-5.66705,0,2.60578,9.33579,-1.43701,-11.5549,-3.2622,3.01829,-9.71659,-0.459844,-1.06339,-20.6098,-2.2561,4.20732
600.486,10.6873,-5.67589,0,2.65368,9.29268,-1.47294,-10.9756,-2.68293,3.87195,-9.72138,-0.440684,-0.998723,-23.5366,-2.34756,6.25
600.496,10.8525,-5.68392,0,2.72074,9.32381,-1.48012,-10.1829,-1.21951,5.36585,-9.81958,-0.483794,-1.00351,-26.4024,-1.67683,5.42683
600.506,11.047,-5.65964,0,2.81175,9.27352,-1.53281,-10,-0.97561,7.56098,-9.83635,-0.56283,-0.902922,-27.1341,-1.58537,5.12195
600.516,11.2813,-5.64708,0,2.93869,9.20885,-1.54239,-10.1829,-0.213415,10.3354,-9.90101,-0.677791,-0.931663,-26.8598,-3.44512,5.4878
600.526,11.5688,-5.6229,0,3.06802,9.10586,-1.51365,-9.72561,-0.457317,14.3598,-9.91778,-0.704136,-0.883762,-25.9451,-3.17073,6.67683
600.536,11.9354,-5.585,0,3.27639,8.83283,-1.41067,-9.17683,-0.396341,19.4817,-9.9058,-0.749641,-0.814307,-23.5976,-5.67073,8.5061
600.546,12.4075,-5.51082,0,3.56618,8.45921,-1.24781,-8.29268,-0.243902,25.8841,-9.9058,-0.783171,-0.651445,-19.2378,-10.2134,11.7073
600.556,13.0191,-5.42285,0,3.88472,7.85087,-1.07297,-6.82927,0.0609756,33.9939,-9.86269,-0.807122,-0.579595,-13.5671,-14.939,15.2439
600.566,13.8109,-5.34362,0,4.38528,7.30002,-1.0586,-3.9939,0.213415,44.1159,-9.8076,-0.874182,-0.603545,-4.11585,-20.0915,19.7256
600.576,14.8334,-5.24112,0,4.97925,6.57193,-1.14721,0.579268,-0.27439,56.7073,-9.69743,-0.866997,-0.488584,7.46951,-26.0366,22.9268
600.586,16.1156,-5.10393,0,5.60914,5.82708,-1.43222,7.04268,-1.61585,71.4939,-9.616,-0.826282,-0.328118,22.1341,-35.9146,25.2439
600.596,17.6586,-4.95572,0,6.27974,5.23791,-1.80345,17.6524,-0.365854,87.9573,-9.56092,-0.799937,-0.265847,39.2988,-46.7378,25.7012
600.606,19.3901,-4.78463,0,6.8761,5.06547,-2.4046,33.2317,8.41463,103.293,-9.54176,-0.673001,-0.153281,59.6037,-57.5915,24.5732
600.616,21.1881,-4.61349,0,7.27128,5.76481,-2.83091,53.811,25.5488,117.744,-9.67588,-0.529299,-0.136516,76.0976,-69.8171,21.311
600.626,22.8665,-4.41529,0,7.02459,7.92751,-3.1279,69.0549,42.2561,129.726,-10.0423,-0.311353,0,87.3781,-79.1159,15.8232
600.636,24.4659,-4.29529,0,7.37187,11.0051,-3.3674,75.3963,70.3963,140.854,-10.5117,-0.253872,-0.330513,97.7744,-83.9939,7.19512
600.646,25.9666,-4.22799,0,6.41386,13.2277,-2.9315,80.061,78.2622,150.274,-10.8949,-0.294587,-0.57241,101.463,-83.2012,-0.518293
600.656,27.4285,-4.23478,0,5.55884,13.8672,-2.70158,80.8537,74.6037,157.591,-10.9189,-0.153281,-0.917292,102.622,-81.3415,-4.57317
600.666,28.8954,-4.28029,0,4.99362,13.0912,-2.61536,72.2256,62.2866,163.049,-10.5932,0.287402,-1.06818,97.3476,-75.5793,-0.97561
600.676,30.3231,-4.37708,0,4.49066,12.617,-2.22497,62.7439,55.2134,164.665,-10.1812,0.883762,-1.26218,84.7256,-69.1768,11.128
600.686,31.7357,-4.5004,0,4.50024,11.9464,-1.83458,56.4939,57.1951,163.902,-9.74773,1.49928,-1.33163,68.4756,-58.1402,25.061
600.696,33.0182,-4.65576,0,3.47278,10.9716,-0.716111,58.0183,52.7134,159.787,-9.57529,1.78189,-1.46336,46.2195,-53.6585,36.311
600.706,34.1787,-4.85185,0,3.13269,10.1573,0.182021,60.4573,31.8293,150.823,-9.59205,1.92799,-1.66693,20.7317,-50.7317,40.4268
600.716,35.2015,-5.08114,0,2.78062,9.94891,1.27176,60.5183,0.579268,142.256,-9.68306,1.96871,-1.86093,4.14634,-47.7744,41.0366
600.726,36.1071,-5.31534,0,2.75188,10.0998,1.31487,55.9451,-26.5549,133.14,-9.88664,1.94715,-1.96152,-9.11585,-45.7927,39.8476
600.736,36.9713,-5.52939,0,3.59732,9.94173,0.337698,48.4451,-30.7012,121.28,-10.2291,1.6837,-1.97589,-17.6524,-42.8659,37.5915
600.746,37.7876,-5.70754,0,4.87386,9.2328,-0.490979,41.311,-21.7378,101.951,-10.5333,1.22146,-1.90165,-23.8415,-41.5549,33.5976
600.756,38.4627,-5.84009,0,5.31934,8.66279,-1.06578,36.2805,-12.3171,81.6159,-10.6938,0.814307,-1.74597,-26.311,-44.0549,33.2012
600.766,38.9445,-5.94343,0,5.01517,8.68674,-1.59029,38.2927,-1.55488,66.4329,-10.6411,0.61073,-1.62622,-23.0488,-48.3232,35.7622
600.776,39.4046,-6.02345,0,5.6259,7.93709,-1.82261,36.25,15.5488,54.3293,-10.3728,0.371228,-1.49928,-19.8476,-52.622,42.1646
600.786,39.7785,-6.09781,0,5.70015,7.81495,-1.34361,34.2683,25.5793,44.878,-9.97047,0.174836,-1.43462,-11.2195,-57.9268,49.0244
600.796,40.085,-6.19766,0,5.65225,7.87482,-0.859812,29.8476,33.2012,39.6646,-9.66869,0.0191602,-1.51844,-0.27439,-61.8293,52.4695
600.806,40.3431,-6.32255,0,5.58758,7.51078,-0.431104,26.189,45.5488,33.3537,-9.31184,-0.00479004,-1.5855,10.5183,-62.9268,54.6341
600.816,40.5417,-6.46489,0,5.52291,7.06291,-0.359253,25.3659,59.5732,25,-9.1849,-0.0167651,-1.65735,21.0061,-62.9268,52.439
600.826,40.6638,-6.5668,0,5.40556,6.70126,-0.517324,26.3415,70.7012,15.8232,-9.12263,0.148491,-1.50407,29.6341,-65.4573,51.1585
600.836,40.6961,-6.63959,0,5.22833,6.35878,-0.869392,26.7988,76.1281,5.88415,-9.20166,0.354463,-1.41546,34.7866,-68.7195,50.061
600.846,40.6273,-6.69964,0,4.99362,6.06419,-1.2502,26.372,77.5305,-3.87195,-9.34776,0.486189,-1.39869,37.4695,-71.4939,47.5915
600.856,40.4718,-6.75208,0,4.71819,5.79116,-1.53042,27.1341,74.5122,-12.8963,-9.52739,0.632285,-1.40348,37.2866,-71.9817,45
600.866,40.2025,-6.8071,0,4.50024,5.79595,-1.59269,27.5915,67.9573,-22.0732,-9.63516,0.819097,-1.43941,33.0488,-71.7683,39.2683
600.876,39.84,-6.86066,0,4.53138,5.84385,-1.89207,26.5244,59.8476,-32.0732,-9.63277,1.08734,-1.43941,26.4024,-68.5061,35.3049
600.886,39.357,-6.91858,0,4.16015,5.81271,-1.92799,25.2744,44.6037,-40.6098,-9.64474,1.25499,-1.46575,15.061,-64.2683,32.0122
600.896,38.7575,-6.95067,0,3.86796,5.93965,-1.96631,23.689,23.3841,-48.3537,-9.73096,1.38911,-1.37235,3.32317,-60.2744,29.2073
600.906,38.0303,-6.98025,0,3.53984,6.24142,-1.90644,18.3841,-2.19512,-55.4268,-9.76689,1.39151,-1.36995,-7.7439,-57.9573,25.5183
600.916,37.1846,-7.04985,0,3.16382,6.28693,-1.86572,10.9451,-30.9146,-63.2012,-9.7597,1.37714,-1.54479,-18.7195,-51.8293,19.6341
600.926,36.168,-7.16284,0,2.6441,6.58391,-1.78429,5.03049,-62.0732,-72.5,-9.75491,1.37714,-1.74118,-29.7866,-43.872,16.1585
600.936,34.9911,-7.25566,0,2.52196,7.13716,-1.81782,-0.670732,-89.939,-86.0061,-9.79563,1.31966,-1.67172,-37.4695,-35.9756,10.1829
600.946,33.6977,-7.34496,0,2.87163,7.89877,-1.80824,-11.0671,-111.341,-101.341,-9.88425,1.23104,-1.6837,-45.1524,-31.5854,4.2378
600.956,32.3915,-7.42567,0,3.91107,8.43047,-1.47533,-24.8171,-123.537,-115.305,-9.9561,1.07776,-1.66693,-51.6463,-24.5732,-5.82317
600.966,31.11,-7.48802,0,5.06547,8.61728,-1.27894,-38.9634,-127.073,-126.799,-9.93933,1.05381,-1.59269,-58.1707,-20.9146,-16.0976
600.976,29.9406,-7.53776,0,6.45697,8.23887,-0.802332,-50.0305,-118.018,-133.567,-9.97286,1.08015,-1.54718,-63.6585,-15.061,-25.0915
600.986,28.9112,-7.56882,0,7.82453,7.67604,-0.744851,-57.8049,-100.152,-136.89,-9.96089,1.12087,-1.46575,-67.2561,-9.90854,-32.439
600.996,28.0766,-7.55952,0,9.12023,6.88329,-1.04423,-59.6341,-76.7683,-134.238,-9.92736,1.19511,-1.28373,-71.6159,-6.82927,-37.1951
601.006,27.4244,-7.58345,0,9.88185,6.15999,-1.42264,-54.3293,-57.1037,-127.744,-9.8579,1.35079,-1.36037,-73.4146,-0.396341,-38.2622
601.016,26.9347,-7.56668,0,10.1309,6.14323,-2.20342,-43.7805,-46.3415,-113.933,-9.81958,1.39151,-1.22864,-73.4756,6.0061,-39.2988
601.026,26.568,-7.58038,0,10.4135,6.97669,-3.16382,-33.4451,-35.3659,-97.1037,-9.9058,1.35798,-1.36277,-70.6098,16.0976,-38.2012
601.036,26.2687,-7.56375,0,10.3561,8.35143,-3.753,-26.7683,-25.7927,-80.6402,-10.2243,1.18793,-1.26218,-66.3415,24.8476,-39.3598
601.046,26.0337,-7.5486,0,9.43159,9.37411,-4.23439,-22.0732,-30.7622,-62.561,-10.7297,0.910107,-1.32205,-59.9695,31.7073,-38.7805
601.056,25.8989,-7.55116,0,8.13349,9.67348,-4.3781,-15.8537,-41.9817,-42.378,-11.3141,0.419128,-1.47294,-49.6341,39.5427,-41.2195
601.066,25.8341,-7.51701,0,7.20182,9.81,-3.94939,-9.2378,-43.872,-27.8049,-11.6925,-0.0191602,-1.32205,-40.7622,48.0488,-46.7378
601.076,25.7705,-7.39521,0,6.85215,10.7369,-3.18059,-1.82927,-33.1707,-20.1829,-11.9104,-0.208367,-0.874182,-35.6707,49.2073,-51.4634
601.086,25.6367,-7.31543,0,6.07137,11.2015,-2.91713,5.36585,-11.7073,-19.1463,-11.8338,-0.308958,-1.0586,-32.0122,54.2683,-56.311
601.096,25.3918,-7.22044,0,4.70382,10.7081,-2.68961,9.02439,-2.9878,-21.0671,-11.6182,-0.124541,-0.936453,-29.3598,62.378,-53.9024
601.106,25.0292,-7.10284,0,4.62478,11.659,-2.53393,3.62805,1.31098,-29.3293,-11.3117,0.316143,-0.773591,-26.4329,68.3537,-39.5122
601.116,24.6108,-6.90742,0,5.83666,13.254,-2.39741,-7.65244,9.66463,-40.122,-11.4769,0.524509,-0.364043,-26.4329,70.9756,-24.5732
601.126,24.316,-6.69913,0,7.34792,13.0193,-2.82612,-16.372,16.311,-39.939,-11.9248,0.627495,-0.263452,-23.4451,77.1646,-8.17073
601.136,24.2596,-6.53257,0,8.18139,11.1728,-3.3195,-22.2866,17.5305,-30.0305,-12.3559,0.58199,-0.447869,-24.3598,84.2988,5
601.146,24.3769,-6.46464,0,8.02092,9.26154,-2.93869,-15.7317,24.6951,-21.9817,-12.4828,0.344883,-0.950823,-25.4573,93.2012,13.1098
601.156,24.4497,-6.4767,0,6.14802,7.62574,-2.20581,-0.243902,35.6402,-22.1646,-11.9751,0.469424,-1.31726,-25.1524,99.3902,17.7134
601.166,24.212,-6.44718,0,3.61648,7.01262,-1.26936,10.0915,43.6585,-30.0305,-10.8973,1.1041,-0.998723,-20.0305,99.939,19.8171
601.176,23.5363,-6.27497,0,1.17116,7.00543,-0.404758,16.8902,43.2317,-38.9024,-10.1693,1.32445,-0.287402,-23.75,96.8902,17.6524
601.186,22.5134,-5.98587,0,-0.716111,7.25691,0.347278,17.9268,29.7866,-44.8476,-9.58008,1.31966,0.249082,-36.6159,93.75,3.10976
601.196,21.3393,-5.54682,0,-1.57113,7.73352,0.517324,14.2073,11.9817,-50.4268,-8.85439,1.38911,0.857417,-62.6829,86.8293,-10.6402
601.206,20.1212,-5.00443,0,-1.81542,8.24366,-0.112566,3.68902,-1.28049,-55.3963,-8.21971,1.38911,1.23104,-88.5976,74.2683,-21.5244
601.216,18.9671,-4.34315,0,-1.42983,8.39933,-1.0586,-9.29878,-7.59146,-56.9817,-7.87243,0.955613,1.66693,-106.707,52.7439,-30.6098
601.226,17.9579,-3.65245,0,-0.732876,8.44244,-1.75315,-21.3415,-11.9817,-54.1463,-7.70478,0.296982,1.81303,-116.616,28.811,-41.4329
601.236,17.1802,-3.03557,0,0.263452,8.84481,-2.04774,-30.3354,-18.0488,-46.189,-7.75028,-0.438289,1.64538,-124.817,12.4085,-51.9512
601.246,16.6478,-2.40754,0,1.31487,9.48907,-2.37346,-34.5732,-23.628,-35.3659,-8.02092,-1.22386,1.29571,-134.939,3.47561,-62.561
601.256,16.2976,-2.03791,0,2.10283,9.59924,-2.53154,-33.4146,-29.3902,-26.9817,-8.64123,-1.94955,0.790356,-140.274,-3.10976,-69.4817
601.266,16.0419,-1.57898,0,2.53393,9.25436,-2.56267,-29.6646,-32.3476,-24.0854,-8.9933,-2.26808,0.409548,-135.64,-0.792683,-65.2134
601.276,15.7626,-1.51783,0,2.43334,8.98611,-2.22976,-24.7866,-30.3354,-26.6768,-9.67348,-2.32317,-0.00958008,-124.909,4.11585,-55.122
601.286,15.4336,-1.52852,0,2.29203,8.85918,-2.40939,-21.311,-23.75,-31.0061,-10.1333,-2.47406,-0.311353,-112.165,5.33537,-41.4634
601.296,15.0414,-1.58878,0,2.10283,8.62446,-2.28724,-16.8293,-16.2805,-36.4939,-10.2243,-2.44771,-0.538879,-93.811,5.39634,-28.5061
601.306,14.615,-1.6822,0,2.00224,8.464,-2.23934,-11.8293,-6.03659,-39.9695,-10.0878,-2.35909,-0.665815,-71.0061,2.7439,-22.0122
601.316,14.1344,-1.80902,0,1.51844,8.54303,-2.1148,-8.14024,1.82927,-39.7866,-9.93454,-2.27527,-0.711321,-49.2073,1.40244,-22.5
601.326,13.6678,-1.88965,0,1.30768,8.7538,-2.40939,-3.96341,6.70732,-36.0976,-10.0208,-2.21779,-0.517324,-29.2378,-0.457317,-30.5488
601.336,13.2465,-1.90949,0,1.21667,9.03162,-2.82133,-2.16463,5.2439,-30.7622,-10.1788,-1.95434,-0.419128,-14.9085,-2.43902,-39.3598
601.346,12.852,-1.91496,0,0.907712,9.24717,-2.62973,-2.9878,-4.02439,-24.6646,-10.2842,-1.70046,-0.371228,-6.89024,-4.35976,-47.4085
601.356,12.5496,-1.88705,0,1.19272,9.29507,-2.58662,-4.84756,-9.11585,-19.5427,-10.289,-1.48012,-0.222737,-2.43902,-4.87805,-52.2256
601.366,12.3249,-1.85468,0,1.58071,9.2831,-2.48843,-6.70732,-13.2927,-17.0427,-10.0639,-1.2023,-0.193997,0.182927,-6.70732,-54.6951
601.376,12.1627,-1.82484,0,1.99026,9.22083,-2.17468,-8.59756,-15.7927,-16.25,-9.69025,-0.981958,-0.193997,-1.76829,-9.20732,-51.5549
601.386,12.0061,-1.80465,0,2.14354,9.27831,-1.88249,-9.29878,-17.439,-17.7134,-9.33579,-0.823887,-0.222737,-6.58537,-10.4573,-47.2866
601.396,11.8273,-1.79059,0,2.10522,9.44117,-1.60706,-10,-16.8598,-19.3902,-9.01964,-0.761616,-0.239502,-10.3354,-14.4207,-41.6463
601.406,11.6045,-1.7836,0,1.84896,9.47709,-1.38432,-9.11585,-15.3659,-21.128,-8.77056,-0.787961,-0.261057,-15.5183,-18.3537,-33.3232
601.416,11.3241,-1.7995,0,1.49689,9.69743,-1.2502,-9.08537,-13.9634,-22.8354,-8.69153,-0.864602,-0.347278,-18.6585,-20.7927,-25.9146
601.426,10.9675,-1.85007,0,0.996328,9.98963,-1.152,-10.6402,-13.6585,-24.9085,-8.72027,-0.924478,-0.483794,-20.122,-20,-19.9085
601.436,10.5564,-1.93593,0,0.749641,10.277,-1.08973,-14.2378,-15.2744,-28.0793,-8.80888,-0.919688,-0.63468,-20.7927,-20.7927,-12.6829
601.446,10.1002,-2.01243,0,0.598755,10.3944,-0.881367,-19.8476,-17.8049,-31.7378,-8.95498,-0.950823,-0.6251,-21.5244,-25.3049,-6.52439
601.456,9.59746,-2.12065,0,0.488584,10.313,-1.01788,-25.3963,-17.0122,-36.2195,-9.15137,-0.898132,-0.780776,-21.372,-26.4939,0.518293
601.466,9.04401,-2.26746,0,0.457449,9.9561,-1.11368,-26.128,-14.2988,-42.2561,-9.32621,-0.919688,-0.974773,-18.3841,-28.1098,7.77439
601.476,8.41898,-2.42,0,0.186812,9.75491,-0.998723,-24.6646,-16.6463,-47.561,-9.55134,-0.996328,-1.04902,-15.1829,-29.939,12.3476
601.486,7.77099,-2.54656,0,0.215552,9.75012,-1.09692,-25.5183,-22.5305,-51.5244,-9.69504,-1.06099,-0.981958,-12.7744,-33.811,13.5366
601.496,7.11642,-2.69646,0,0.349673,9.90101,-1.43701,-26.8902,-26.4329,-55.061,-9.71659,-1.16158,-1.10889,-8.5061,-36.0976,13.5976
601.506,6.4677,-2.862,0,0.534089,9.92736,-1.64298,-27.561,-29.3902,-57.9573,-9.63037,-1.32924,-1.19032,-5.4878,-34.2378,10.8232
601.516,5.83092,-3.09446,0,0.943638,9.86748,-2.10762,-26.372,-27.7744,-62.9268,-9.44117,-1.49928,-1.47533,2.53049,-30.1829,8.17073
601.526,5.14792,-3.34628,0,0.814307,9.91299,-2.37825,-27.1037,-25.3659,-67.3781,-9.2328,-1.67651,-1.55676,9.78659,-23.6585,7.0122
601.536,4.4981,-3.60588,0,1.28613,10.2076,-2.81175,-28.0793,-17.7439,-70.4573,-9.09389,-1.78668,-1.60227,20.5793,-18.3232,7.77439
601.546,3.86466,-3.8997,0,1.51365,10.2004,-2.88121,-31.0366,-9.45122,-72.6829,-8.92384,-1.8753,-1.74597,31.4939,-9.42073,11.0976
601.556,3.28037,-4.3919,0,2.01182,10.2531,-2.52675,-36.5854,-5.45732,-74.3902,-8.67476,-1.90883,-1.91841,41.7073,-2.19512,16.7988
601.566,2.7634,-4.78367,0,2.46448,9.73096,-1.98787,-38.5061,-1.21951,-75.061,-8.51429,-1.94955,-2.05014,50.6402,4.05488,21.6159
601.576,2.29016,-5.10691,0,2.70398,9.2831,-1.8753,-38.9634,-3.04878,-75.7927,-8.51429,-2.02379,-1.94955,60.5488,9.26829,26.0976
601.586,1.888,-5.35872,0,3.365,8.70111,-1.66454,-32.8963,-4.26829,-79.5122,-8.6053,-2.02858,-1.73639,67.2256,11.5854,30.1524
601.596,1.45121,-5.58266,0,2.65129,8.64363,-1.70765,-27.6524,-3.47561,-75.5183,-8.73464,-2.019,-1.68849,71.6768,14.7256,33.1402
601.606,1.03216,-5.81029,0,2.56507,8.8017,-1.6813,-22.5915,-0.0914634,-72.9573,-8.91187,-1.93278,-1.76992,81.311,19.8171,34.5122
601.616,0.632592,-6.02065,0,2.32796,9.02922,-1.77231,-19.6341,-1.95122,-68.1707,-9.19209,-1.80345,-1.78189,87.1341,30.6402,33.2317
601.626,0.272006,-6.18258,0,1.9232,9.2831,-1.96152,-19.6646,-8.65854,-59.3902,-9.59445,-1.54958,-1.67651,92.8963,40,33.5366
601.636,0.00275784,-6.31083,0,1.78908,9.41722,-2.53633,-23.872,-17.8963,-48.872,-9.97286,-1.33403,-1.61424,96.4024,45.8537,32.4085
601.646,-0.142352,-6.34347,0,1.86093,9.4268,-3.29794,-29.3902,-26.9817,-37.5915,-10.4519,-0.979563,-1.26457,92.5,47.7744,31.372
601.656,-0.116146,-6.37888,0,2.18905,9.52739,-3.76497,-35.0305,-33.7195,-24.0244,-10.8638,-0.728086,-1.32924,82.1037,52.9268,30.7622
601.666,0.0714236,-6.48809,0,2.45729,9.4268,-3.80808,-37.1646,-38.3841,-10.9146,-10.8686,-0.526904,-1.69088,70.1829,59.3598,28.3841
601.676,0.784847,-6.69387,0,2.74709,9.16095,-3.59732,-35.7927,-40.8232,0.152439,-10.5716,-0.450264,-2.1172,59.6037,72.6219,25.8841
601.686,1.20696,-6.94511,0,2.83091,8.98132,-3.34345,-34.878,-44.0854,8.96341,-10.4591,-0.684976,-2.34233,53.2927,83.8719,24.3902
601.696,1.73371,-7.05187,0,3.06562,8.87355,-3.0776,-32.3476,-44.939,17.3171,-10.4303,-0.62031,-1.69088,52.378,87.4695,23.7195
601.706,2.39125,-6.93575,0,3.52547,8.90468,-3.15424,-28.9329,-43.628,26.5549,-11.4051,-0.64426,-0.747246,44.7561,74.939,22.6524
601.716,3.22049,-6.77928,0,4.20086,9.05796,-3.23567,-24.2378,-38.1402,38.7195,-12.3559,-0.483794,-0.57241,39.3902,67.0732,22.1341
601.726,4.2319,-6.60224,0,4.84033,9.23999,-3.14227,-18.5366,-28.2012,53.3537,-13.29,-0.136516,-0.455054,35.2439,70.2134,19.7561
601.736,5.42742,-6.42811,0,5.37442,9.29507,-2.81654,-12.8659,-18.75,69.3293,-13.9175,0.215552,-0.443079,28.3537,77.1037,14.3293
601.746,6.79621,-6.12182,0,5.74326,9.01485,-2.32317,-4.26829,-11.4024,84.4207,-14.4755,0.493374,0.423918,11.6159,74.939,5.33537
601.756,8.30557,-5.69638,0,5.87977,8.68913,-2.37586,8.10976,-5.97561,98.3232,-15.2084,0.66342,1.30768,-11.6463,59.1463,-6.55488
601.766,9.89818,-5.3665,0,5.66901,8.64842,-2.4501,23.75,1.03659,111.616,-15.3664,0.969983,0.773591,-27.4695,50.122,-17.1037
601.776,11.4598,-5.22759,0,4.93374,9.43877,-1.91602,30.8232,11.9817,123.232,-13.7019,1.14721,-0.378413,-35,55.9451,-15.122
601.786,12.948,-5.07531,0,3.67875,9.81,-1.9735,28.9329,24.0854,133.293,-11.2949,0.256267,-0.215552,-44.6951,58.3232,-4.32927
601.796,14.4908,-4.84867,0,3.21651,8.58136,-1.22146,28.7195,18.5976,141.921,-9.43638,-0.883762,0.143701,-49.0549,45.3659,0.396341
601.806,16.1274,-4.54168,0,3.37219,7.73591,-0.102986,31.4634,6.37195,148.506,-8.2221,-1.52084,0.438289,-39.4817,29.8476,2.53049
601.816,17.7723,-4.18285,0,2.99377,7.86045,1.12326,38.4451,4.14634,158.201,-7.56587,-1.52084,0.608335,-10.122,15.6402,5.57927
601.826,19.2944,-3.09953,0,1.65735,8.16223,1.3939,50.6098,4.7561,168.171,-7.118,-1.14482,1.94955,13.5671,-3.93293,13.7195
601.836,20.6404,-2.66075,0,0.227527,9.05796,1.33403,65.1524,4.87805,173.78,-7.75028,-1.0586,1.07536,38.811,-16.4024,17.9878
601.846,21.9127,-2.2585,0,-0.495769,11.3069,1.12805,75.9146,-7.2561,177.073,-8.28198,-1.18314,1.07536,56.8598,-20.0305,19.6951
601.856,23.1613,-1.86178,0,-0.170046,13.8839,-0.541274,74.4512,-19.7256,173.567,-9.137,-0.922083,1.21906,61.7073,-32.3476,17.1037
601.866,24.357,-1.56275,0,0.323328,15.4814,-1.53521,67.4695,-33.1098,166.829,-9.63756,-0.275427,0.926873,54.878,-39.6037,13.8415
601.876,25.5456,-1.32939,0,2.36628,15.5652,-2.5986,69.4207,-38.2012,153.354,-10.0735,0.294587,0.723296,49.8171,-45.122,13.2012
601.886,26.781,-1.17423,0,4.91219,14.0612,-3.19017,74.3902,-30.4573,138.902,-10.4327,0.905317,0.426313,45.7317,-50.2744,17.8049
601.896,28.01,-1.06306,0,5.78637,11.6063,-2.10283,81.4634,-19.0854,125.976,-10.4902,1.37474,0.251477,36.3415,-52.5,23.9329
601.906,29.0978,-0.983647,0,4.85231,10.4231,-0.155676,88.5976,-14.0244,117.226,-10.2603,1.3005,0.122146,26.25,-52.561,31.5244
601.916,30.0291,-0.914094,0,3.559,10.3824,0.622705,95.6402,5.42683,115.793,-9.82197,0.936453,0.0862207,16.7988,-54.5122,35.122
601.926,30.8643,-0.850857,0,2.61536,11.1273,0.718506,101.25,22.622,119.512,-9.41722,0.579595,0.0670605,8.87195,-55.5183,39.5427
601.936,31.7669,-0.795331,0,2.71835,11.1895,-0.0526904,103.14,48.3841,127.226,-9.10107,0.385598,0.0407153,1.15854,-59.6037,40.3659
601.946,32.6808,-0.790501,0,2.94108,10.7512,-0.208367,99.5732,71.8598,126.86,-8.8951,0.385598,-0.153281,-4.14634,-63.4146,41.4329
601.956,33.5687,-0.801991,0,3.01772,10.277,-0.225132,91.0061,81.0976,123.902,-8.83523,0.457449,-0.217947,-7.53049,-67.1646,42.622
601.966,34.4343,-0.878232,0,3.34105,9.73336,-0.289797,78.2927,81.1585,118.171,-8.89271,0.56283,-0.476609,-10.2439,-68.811,42.7439
601.976,35.2638,-0.988975,0,3.6548,9.41961,-0.241897,66.4939,78.1402,111.646,-8.96216,0.661025,-0.627495,-11.6768,-66.7378,40.9451
601.986,36.0582,-1.09464,0,3.96615,8.87834,-0.352068,61.189,77.561,103.902,-9.0867,0.61073,-0.62989,-16.0366,-62.2561,37.6524
601.996,36.7433,-1.2252,0,3.7051,8.76098,-0.555645,54.7866,75.6402,96.7073,-9.19209,0.490979,-0.754431,-18.3537,-60.6707,34.4817
602.006,37.2558,-1.37234,0,2.95545,8.78972,-0.313748,49.4207,67.6219,89.3598,-9.17772,0.335303,-0.840652,-20.061,-59.1159,28.3841
602.016,37.7435,-1.5367,0,3.34584,8.35383,-0.895737,42.4085,69.8476,81.25,-9.13939,0.107776,-0.929268,-24.2988,-57.1951,22.1037
602.026,38.1369,-1.74656,0,3.40093,7.79818,-1.08015,38.1707,64.4207,69.0854,-8.88552,0.0814307,-1.10889,-30.4573,-56.0061,15.9756
602.036,38.3601,-1.97333,0,3.13029,7.53713,-1.15919,35.8537,55.5488,54.5732,-8.71548,0.263452,-1.18553,-31.0366,-55.1829,12.5915
602.046,38.3459,-2.1925,0,2.53633,7.24014,-1.1544,35.7927,43.7195,37.439,-8.67716,0.320933,-1.18553,-30.4268,-54.9695,15
602.056,38.0075,-2.36941,0,1.56395,7.15632,-1.13763,34.1463,31.0976,18.5671,-8.84481,0.502954,-1.07776,-34.4207,-58.0793,15.5793
602.066,31.5002,-2.53411,0,0.64905,7.05333,-1.02028,29.7256,17.6524,-1.15854,-9.16334,0.65863,-1.09931,-38.9634,-63.1707,14.878
602.076,30.6574,-2.71118,0,-0.160466,6.99346,-0.795146,22.6829,0.27439,-19.0244,-9.58008,0.773591,-1.23104,-39.4512,-63.9939,12.622
602.086,29.6339,-2.91291,0,-0.447869,6.68689,-0.744851,14.2073,-25.8232,-34.0549,-9.78126,0.876577,-1.38911,-38.5366,-56.0671,9.42073
602.096,28.5282,-3.15915,0,-0.440684,6.51206,-0.869392,-1.98171,-49.5732,-44.4512,-9.73336,0.912502,-1.59987,-42.7744,-41.0366,3.38415
602.106,27.3639,-3.45519,0,-0.299377,6.43542,-0.828677,-9.20732,-81.8598,-55.1524,-9.48907,0.809517,-1.80345,-48.4146,-25.5183,-3.93293
602.116,26.2682,-3.78565,0,1.10171,7.71915,-1.51844,-14.5122,-107.409,-72.5305,-9.16095,0.831072,-1.9256,-53.5671,-14.2378,-9.26829
602.126,25.2167,-4.13049,0,2.90755,8.58854,-1.65975,-29.2988,-107.896,-91.8598,-9.00048,0.838257,-1.95913,-57.1037,-4.81707,-12.8354
602.136,24.2565,-4.39825,0,4.37091,8.1742,-1.32684,-42.7744,-97.5305,-103.933,-9.06275,0.922083,-1.53281,-58.0793,-2.68293,-14.2988
602.146,23.4224,-4.5923,0,5.54447,7.49402,-1.21427,-52.2256,-91.7988,-110.091,-9.12742,0.972378,-1.31008,-59.9085,-2.40854,-14.2378
602.156,22.6914,-4.75715,0,6.74917,7.17069,-2.09085,-53.2012,-97.2866,-115.091,-9.01725,0.946033,-1.36995,-60.5488,5.12195,-14.1159
602.166,22.0502,-4.92907,0,8.21971,7.26649,-3.41051,-54.4207,-96.0366,-118.14,-8.86636,1.04902,-1.40588,-62.1341,17.9268,-13.1707
602.176,21.4998,-5.07579,0,9.30944,7.29283,-4.51461,-55.2744,-84.6037,-117.134,-8.84241,1.0083,-1.31726,-64.0244,32.5305,-12.7439
602.186,21.0262,-5.22942,0,10.0687,7.37906,-5.37442,-49.7866,-68.9329,-114.177,-9.09389,0.886157,-1.3963,-67.3781,45.7012,-13.3841
602.196,20.6368,-5.33272,0,11.0219,7.78381,-6.04024,-38.5671,-41.5549,-108.598,-9.616,0.823887,-1.27655,-71.3719,55.7622,-14.8171
602.206,20.4012,-5.42171,0,11.4171,7.44612,-6.18634,-20.5793,-0.213415,-98.0183,-10.3465,0.706531,-1.32205,-69.6646,60.2744,-14.6646
602.216,20.3519,-5.51405,0,11.247,7.07249,-5.14929,3.90244,31.4634,-81.4329,-11.1297,0.459844,-1.45138,-60.7927,65.3963,-10.3659
602.226,20.5305,-5.63275,0,11.0626,7.15632,-5.11576,22.622,50.1524,-56.7683,-11.7524,-0.0550855,-1.6837,-44.2073,72.439,-9.02439
602.236,20.9109,-5.83163,0,10.0591,7.36229,-4.55772,30.122,56.128,-29.0854,-11.9751,-0.665815,-2.1627,-26.8902,84.4207,-8.84146
602.246,21.3528,-6.05683,0,8.36101,8.32269,-3.97813,33.5671,49.0854,-4.42073,-11.7691,-1.07297,-2.29682,-16.3415,96.0671,-8.41463
602.256,21.7636,-6.35354,0,6.91921,9.03162,-3.76258,31.2195,42.2256,9.05488,-11.2566,-0.907712,-2.5986,-13.811,111.22,-9.26829
602.266,22.0385,-6.61996,0,5.66183,9.27112,-2.9315,25.061,42.4085,8.35366,-11.0051,-0.467029,-2.42855,-16.128,128.689,-13.1707
602.276,21.9958,-6.75917,0,4.3757,10.1477,-1.59269,20.7012,57.7134,-6.98171,-11.1177,-0.0934058,-1.85375,-33.5366,135.213,-22.0122
602.286,21.5052,-6.73207,0,2.57465,11.2422,-1.20948,19.6951,60.4573,-31.4939,-11.3596,0.514929,-1.07057,-59.6646,139.573,-32.439
602.296,20.6754,-6.52002,0,2.33035,13.7474,-1.20948,5.91463,44.6951,-60.4268,-11.7476,1.38911,-0.138911,-84.4207,141.402,-36.6159
602.306,19.6934,-6.19457,0,3.67157,16.0538,-0.881367,-23.7195,27.6829,-84.2988,-12.593,1.58311,0.524509,-111.189,138.72,-38.0793
602.316,18.8629,-5.72744,0,6.36357,17.2178,0.148491,-58.3232,22.1951,-85.9451,-13.5582,1.28852,1.46815,-126.768,116.86,-37.0427
602.326,18.3055,-5.32718,0,7.03896,16.8585,0.0550855,-70.9756,23.4146,-64.6341,-14.5641,0.294587,1.23823,-124.695,96.8902,-31.3415
602.336,17.9892,-5.00591,0,5.92049,14.4899,-0.62989,-58.628,16.2195,-40.2744,-15.2754,-1.46336,0.859812,-125,88.0488,-33.75
602.346,17.6781,-4.8437,0,3.43685,9.21603,-0.407153,-29.7866,14.7561,-36.7683,-14.4444,-2.38544,-0.136516,-121.311,74.3902,-30.2744
602.356,16.9354,-4.6147,0,0.536484,6.61265,-0.665815,-3.14024,14.9085,-49.1768,-12.4469,-1.62143,0.277822,-102.53,68.5976,-3.75
602.366,15.6314,-4.15418,0,-1.59987,6.27974,-1.4442,14.3598,18.4756,-69.3293,-10.6746,-0.790356,1.35798,-103.384,47.561,26.6463
602.376,13.9992,-3.53816,0,-3.40811,7.37427,-1.76992,13.9024,10.6402,-84.0244,-9.0412,-0.62989,1.84656,-111.402,28.5976,45.8841
602.386,12.3499,-2.81166,0,-3.10634,7.75507,-2.3088,3.14024,5.18293,-95.1829,-8.21252,-0.155676,2.17947,-127.805,11.4024,50.1829
602.396,10.7971,3.44625,0,-2.27527,7.63772,-2.60578,-12.1646,7.92683,-99.3902,-7.6473,-0.0550855,1.67172,-132.957,-0.304878,46.0366
602.406,9.39496,3.71932,0,-1.72441,7.95146,-2.33275,-24.8171,13.3537,-96.0671,-7.30241,0.198787,1.24302,-132.348,-5.33537,32.2866
602.416,8.20918,3.86242,0,-1.32205,8.32748,-1.55197,-31.7988,9.29878,-83.4146,-7.35032,0.0574805,0.936453,-124.329,-14.6341,15.122
602.426,7.32809,3.90531,0,-0.646655,8.79691,-1.21188,-32.6524,-3.62805,-64.5732,-7.86285,-0.55325,0.66342,-111.951,-24.7866,-8.17073
602.436,6.78652,3.82275,0,0.399968,8.81367,-1.32205,-26.0366,-17.9268,-45.6098,-8.40652,-1.27415,0.244292,-97.6829,-31.4939,-29.8476
602.446,6.52677,3.62491,0,1.38911,8.51908,-2.1651,-17.1951,-25.5488,-31.5549,-9.15376,-2.15312,-0.213157,-82.1646,-32.4695,-46.9207
602.456,6.482,3.37363,0,2.51238,8.07361,-3.13508,-11.4329,-23.0793,-26.5244,-9.85072,-2.72314,-0.493374,-65.3354,-29.6341,-55.8232
602.466,6.45188,3.09677,0,2.9794,8.18378,-3.72186,-6.25,-14.6951,-30.6707,-10.2866,-3.14466,-0.675395,-47.1037,-28.0488,-60.3049
602.476,6.31077,2.79123,0,2.90037,8.73464,-3.76258,-3.75,-4.81707,-38.7195,-10.2076,-3.32908,-0.847837,-29.0549,-26.0671,-56.7378
602.486,6.04063,2.52711,0,2.5986,8.99809,-3.23088,-4.05488,2.31707,-47.561,-9.66869,-2.95066,-0.677791,-12.9268,-26.5854,-48.8415
602.496,5.66742,2.27657,0,2.14833,9.12023,-2.1148,-6.61585,6.92073,-52.8049,-8.92384,-2.24653,-0.61552,-5.7622,-29.5122,-39.2378
602.506,5.17492,2.06728,0,1.09452,9.24478,-0.965193,-11.311,5.33537,-52.4695,-8.74661,-1.60466,-0.481399,-2.86585,-28.628,-31.6159
602.516,4.65467,1.85816,0,0.490979,9.25915,-0.124541,-14.1463,0.670732,-48.7195,-8.73224,-1.22864,-0.512534,-9.78659,-29.4207,-28.4451
602.526,4.17425,1.60008,0,0.383203,9.43877,-0.0598755,-16.6768,-6.79878,-44.2683,-9.14897,-0.917292,-0.773591,-19.4817,-35.1829,-31.311
602.536,3.7379,1.32918,0,0.526904,9.5681,-0.452659,-18.811,-11.4634,-42.439,-9.57768,-0.725691,-0.907712,-19.878,-35,-37.6829
602.546,3.31575,1.04566,0,0.65384,9.76928,-1.15919,-20.9451,-12.1646,-43.2622,-9.77168,-0.59636,-1.02746,-17.9573,-34.7561,-40.1524
602.556,2.88016,0.780747,0,0.656235,9.85311,-1.7795,-22.9268,-12.5915,-45.4573,-9.79803,-0.670605,-0.998723,-13.3537,-35.5488,-39.8476
602.566,2.42431,0.54557,0,0.632285,9.68306,-2.22258,-23.2622,-15.6707,-48.2622,-9.82197,-0.56762,-0.914897,-8.29268,-33.0488,-33.5366
602.576,1.95381,0.266944,0,0.613125,9.52499,-2.68242,-22.378,-22.0732,-50.5793,-9.49865,-0.831072,-1.10889,-1.92073,-33.9939,-29.7866
602.586,1.48361,0.0343933,0,0.56283,9.29028,-2.94587,-20.8537,-29.8171,-51.0671,-9.32381,-1.06099,-0.943638,4.2378,-35.061,-27.622
602.596,1.00843,-0.172971,0,0.495769,9.22562,-3.01054,-19.2378,-35.7012,-51.7378,-9.13221,-1.19751,-0.859812,8.96341,-35.6707,-22.561
602.606,0.543331,-0.364286,0,0.471819,9.1849,-2.76864,-17.6829,-38.2317,-51.4024,-9.12263,-1.17595,-0.828677,14.8476,-37.622,-18.872
602.616,0.134442,-0.566805,0,0.723296,9.29507,-2.4525,-17.4695,-36.6463,-49.6951,-9.0891,-1.31008,-0.902922,20.3659,-39.3598,-15.3354
602.626,-0.179133,-0.747154,0,1.27894,9.40285,-1.99266,-20.4573,-32.9573,-47.5305,-9.0891,-1.40348,-0.847837,25.7317,-42.0427,-11.9512
602.636,-0.408476,-0.944354,0,1.73639,9.38848,-1.56395,-24.5122,-28.4756,-45.1524,-9.10826,-1.45617,-0.948428,27.4085,-43.9939,-8.07927
602.646,-0.569815,-1.15329,0,2.07888,9.12981,-1.21188,-26.4939,-24.3598,-43.4756,-9.24957,-1.50407,-1.04423,31.0366,-44.5732,-5.2439
602.656,-0.696026,-1.37697,0,2.22258,9.03162,-1.05381,-26.7073,-20.0915,-42.2561,-9.28789,-1.52323,-1.14482,32.4695,-45.4878,-3.90244
602.666,-0.834629,-1.6048,0,2.10522,9.05078,-1.13524,-24.3293,-16.0061,-42.2866,-9.32142,-1.53042,-1.2023,34.5732,-44.2988,-2.59146
602.676,-1.02397,-1.84778,0,1.84177,9.36932,-1.41785,-21.9817,-13.0183,-43.7195,-9.25436,-1.49928,-1.29331,36.4634,-43.4146,-2.13415
602.686,-1.29225,-2.16752,0,1.3963,9.75012,-1.70286,-20.4878,-11.0061,-46.0976,-9.06036,-1.346,-1.61424,38.0183,-36.4024,1.89024
602.696,-1.65306,-2.54825,0,0.910107,10.0064,-1.8777,-21.9207,-11.189,-50.061,-8.81846,-1.25499,-1.86093,39.3598,-27.1037,5.27439
602.706,-2.07439,-2.99134,0,0.6251,10.313,-2.09804,-24.8171,-12.8354,-53.4451,-8.52866,-1.10171,-2.09804,39.5732,-16.7378,10.9756
602.716,-2.53219,-3.472,0,0.529299,10.5141,-2.08127,-28.1707,-17.5915,-56.8293,-8.29635,-1.1065,-2.24413,42.3476,-7.77439,18.1402
602.726,-2.97662,-5.32912,0,0.732876,10.3537,-2.09564,-30.9451,-19.9085,-58.7805,-8.13828,-1.17356,-2.41897,43.811,0.945122,23.3841
602.736,-3.38101,-5.77406,0,1.07057,10.1693,-2.16749,-32.5915,-22.9268,-59.6037,-8.04727,-1.35079,-2.38544,44.7866,9.29878,27.5
602.746,-3.66722,-6.14729,0,1.96392,9.85072,-2.45969,-34.6951,-22.561,-59.1159,-8.05445,-1.56395,-2.17707,46.2195,14.9085,29.939
602.756,-3.82321,-6.44226,0,2.81415,9.41961,-2.73272,-35.8232,-20.4573,-57.3476,-8.23887,-1.84656,-1.97589,46.7683,22.1341,30.3354
602.766,-3.85302,-6.67543,0,3.57097,8.95498,-2.83331,-35.2439,-19.1159,-55.2134,-8.40412,-2.08127,-1.81542,46.0671,28.5061,30.4573
602.776,-3.77786,-6.8506,0,4.01884,8.57656,-2.92192,-30.9146,-14.8476,-51.4329,-8.74182,-2.10043,-1.68849,43.2012,33.689,32.1037
602.786,-3.63514,-6.99015,0,4.10267,8.33227,-2.58662,-29.0244,-6.95122,-46.6463,-9.27112,-1.79147,-1.66454,40.122,39.6037,34.7256
602.796,-3.49035,-7.02014,0,3.72905,8.63644,-1.9711,-27.2866,0.945122,-40.3049,-10.0902,-1.27655,-1.33642,34.2988,41.0061,39.2683
602.806,-3.3259,-6.88439,0,3.41769,9.0867,-1.8753,-25.8232,6.79878,-32.4085,-11.0794,-0.821492,-0.661025,20.0915,35.8841,42.9573
602.816,-3.1361,-6.7648,0,2.97701,9.32142,-1.94715,-24.1768,8.65854,-23.5671,-11.8625,-0.292192,-0.768801,-5.21341,31.5854,41.128
602.826,-2.89745,-6.83782,0,2.49322,9.07952,-2.42615,-23.628,6.92073,-13.3841,-12.0326,0.244292,-1.7771,-16.8598,41.9207,43.4756
602.836,-2.56095,-7.18094,0,2.19623,8.63165,-3.01772,-23.3232,5.64024,-3.59756,-11.1273,0.189207,-3.00575,-30.2744,78.0183,43.5061
602.846,-2.19925,-7.59143,0,1.78908,8.44723,-3.14706,-20.061,2.62195,7.19512,-10.3489,-0.265847,-3.18298,-27.378,91.0366,38.3232
602.856,-1.71307,-7.91303,0,1.96392,8.68434,-3.02491,-14.7866,-2.19512,19.1159,-9.89143,-1.21906,-2.69919,-13.0793,90.7927,29.4512
602.866,-1.05879,-8.10342,0,2.46448,9.15856,-3.12311,-11.6159,-7.37805,32.5305,-9.88904,-1.6813,-2.15552,2.86585,85.7622,19.6037
602.876,-0.215252,-8.23863,0,3.22609,9.7597,-3.38895,-10.7012,-8.9939,46.5854,-10.2674,-1.62622,-2.01182,16.7683,87.1951,19.6951
602.886,0.825697,-8.2763,0,3.96615,9.95131,-3.2213,-10.7622,-8.2622,61.4329,-11.1728,-1.49689,-1.71244,25.7317,96.189,25.0915
602.896,2.06259,-8.24248,0,4.63436,9.8603,-2.73751,-10.2439,-10.0305,76.5244,-12.3775,-1.33163,-1.49689,22.8963,106.402,26.6159
602.906,3.49985,-8.02281,0,5.19001,9.35016,-2.68721,-6.31098,-12.6829,91.6159,-13.381,-1.28134,-0.505349,14.1159,107.561,27.439
602.916,5.09876,-7.51732,0,5.42711,8.77296,-3.03449,1.18902,-17.378,105.518,-14.8348,-0.55325,1.33642,-6.25,81.9512,21.372
602.926,6.76937,-7.07818,0,5.12055,8.56938,-2.80217,5.94512,-14.878,117.896,-15.673,-0.0502954,1.07297,-31.4939,69.5732,15.5488
602.936,8.43802,-6.87278,0,4.17931,8.88073,-2.99377,6.79878,-4.32927,132.652,-15.2395,0.878972,-0.402363,-38.811,76.5549,14.3293
602.946,10.1089,-6.71894,0,2.96743,8.43047,-1.66693,4.60366,-9.87805,148.14,-13.187,1.2502,-0.603545,-35.122,74.2073,28.3841
602.956,11.9117,-6.44529,0,2.95306,7.29762,-0.895737,7.04268,-17.3171,159.634,-10.8111,0.488584,0.0910107,-24.2988,58.7805,34.7561
602.966,13.7849,-6.16918,0,2.7878,6.80665,1.01549,16.0976,-20.9146,170,-9.1825,-0.285007,0.117356,1.52439,41.4329,34.0549
602.976,15.5749,-5.80222,0,1.78189,7.07968,2.35191,32.6524,-22.8659,181.951,-8.22689,-0.910107,0.464634,32.9878,27.2561,29.878
602.986,17.1326,-5.39783,0,0.102986,8.55262,1.57832,50.2744,-19.6037,189.329,-7.81016,-1.46575,0.60115,57.6829,7.89634,19.7561
602.996,18.6341,-4.98115,0,-0.514929,11.8338,0.977168,62.4085,-28.75,193.262,-7.99937,-1.61903,0.708926,81.0366,-8.75,9.35976
603.006,20.1499,-4.59652,0,0.275427,14.7389,-0.948428,66.0061,-41.4634,190.518,-8.29156,-1.62143,0.670605,94.2988,-21.7988,0.182927
603.016,21.5849,-4.25697,0,0.974773,16.1975,-2.46687,68.9024,-49.1159,180.518,-8.91187,-1.3963,0.59636,96.5854,-30.2439,-8.75
603.026,22.9298,-4.00127,0,2.86684,15.5988,-3.79132,80.8537,-50.2134,160.03,-9.40045,-0.965193,0.332908,89.1159,-34.7256,-10.3659
603.036,24.1603,-3.81495,0,4.27511,13.8336,-3.73863,85.8232,-46.4024,137.317,-9.84593,-0.0239502,0.0934058,76.8293,-32.378,-0.762195
603.046,25.3361,-3.68402,0,5.12055,11.9607,-1.79626,87.4085,-40.0915,121.982,-10.1429,0.735271,-0.117356,62.0122,-31.1585,18.75
603.056,26.4512,-3.58256,0,4.96248,10.8734,-0.61073,89.7256,-31.7683,115.427,-10.277,1.23344,-0.227527,46.0976,-29.5427,41.6463
603.066,27.5892,-3.50031,0,5.73128,10.2674,0.277822,97.7439,-10.8232,110.579,-10.3513,1.31008,-0.301772,31.9207,-33.2317,58.9329
603.076,28.7188,-3.43633,0,5.45346,10.1477,0.459844,110.762,22.8963,113.902,-10.0902,1.11847,-0.366438,21.189,-39.4512,66.0671
603.086,29.8049,-3.41081,0,5.05589,10.9069,0.0335303,109.543,57.1341,118.689,-9.616,0.814307,-0.507744,12.8049,-46.5549,66.189
603.096,30.8584,-3.42714,0,4.15296,11.326,0.134121,105.03,88.1402,127.226,-9.17772,0.665815,-0.65384,10.0915,-50.9146,61.128
603.106,31.9276,-3.45901,0,4.23679,10.7967,-0.0455054,98.5671,114.207,128.354,-8.89271,0.665815,-0.699346,8.68902,-53.4756,54.8171
603.116,32.9252,-3.52089,0,3.95418,10.1477,-0.201182,88.0793,127.104,123.506,-8.78014,0.704136,-0.814307,5.85366,-55.9756,48.5671
603.126,33.7878,-3.56014,0,3.34584,9.71659,-0.229922,74.6037,130.152,116.433,-8.84002,0.718506,-0.742456,4.96951,-58.3537,43.5976
603.136,34.5265,-3.57221,0,2.78062,9.14418,-0.0383203,69.3598,125.701,109.817,-9.09628,0.754431,-0.66342,0.548781,-61.8902,39.3902
603.146,35.1711,-3.57476,0,2.66805,8.74661,-0.479004,62.7439,122.957,101.616,-9.37171,0.742456,-0.646655,-6.34146,-62.7744,34.7866
603.156,35.647,-3.62538,0,1.88249,8.83283,-0.60115,61.128,106.067,95.7927,-9.44596,0.725691,-0.852627,-13.2012,-61.5549,29.3293
603.166,35.9974,-3.7187,0,1.67412,8.76338,-1.14003,54.1768,91.3415,86.4329,-9.32621,0.63468,-1.02267,-18.2012,-55.7622,25.3963
603.176,36.2091,-3.83826,0,1.55437,8.53345,-0.922083,47.378,73.4451,73.9939,-9.16334,0.517324,-1.12326,-23.1707,-50.6098,22.7439
603.186,36.2641,-3.98248,0,1.49689,8.34185,-1.07297,41.0671,57.0732,58.75,-9.07233,0.143701,-1.22864,-29.0549,-46.9512,20.1524
603.196,36.1349,-4.1738,0,1.32205,8.15983,-1.14721,35.8537,41.189,42.0427,-9.02443,-0.208367,-1.43462,-31.8902,-44.2683,11.6768
603.206,35.7617,-4.37772,0,0.778381,7.91793,-1.04902,28.0183,24.939,24.2073,-8.96695,-0.232317,-1.50647,-31.189,-43.1098,6.7378
603.216,35.1216,-4.59516,0,0.160466,7.597,-0.768801,20.061,6.09756,6.70732,-8.9909,-0.146096,-1.59748,-27.7439,-41.7073,3.10976
603.226,34.2082,-4.82191,0,-0.749641,7.23775,-0.792751,13.1402,-15.4573,-9.26829,-9.10586,0,-1.69328,-23.3537,-43.0183,2.19512
603.236,33.0969,-5.05245,0,-1.17595,6.77072,-0.821492,6.64634,-43.9329,-23.4756,-9.14897,0.0910107,-1.75555,-20.5488,-44.1463,0.762195
603.246,31.8277,-5.32821,0,-1.4921,6.76593,-1.22864,-4.35976,-71.8902,-36.5854,-9.05557,0.193997,-1.95913,-17.4695,-38.6585,0.396341
603.256,30.3697,-5.63915,0,-1.85614,6.61504,-1.31008,-5.21341,-105.305,-51.8293,-8.89031,0.299377,-2.10762,-17.1341,-31.6768,-2.83537
603.266,28.907,-5.98851,0,-0.905317,7.73831,-2.51238,-3.10976,-135.64,-73.6585,-8.70829,0.335303,-2.26329,-20.9756,-21.7073,-4.84756
603.276,27.4783,-6.32095,0,0.802332,8.91905,-2.50759,-19.5732,-138.72,-97.2866,-8.61968,0.550855,-2.22258,-23.5366,-15.1829,-7.59146
603.286,26.1344,-6.61147,0,2.58183,8.95498,-1.41785,-43.3841,-128.049,-113.872,-8.658,0.780776,-2.11241,-26.7988,-11.0366,-10.061
603.296,25.0214,-6.85466,0,4.74693,8.01853,-0.483794,-60.6098,-115.061,-122.744,-8.72985,1.08255,-1.98308,-32.3171,-9.57317,-11.128
603.306,24.1638,-7.1325,0,6.77551,7.23775,-0.0742456,-68.3537,-103.689,-124.421,-8.78014,1.24541,-2.01421,-35.9756,-3.23171,-14.2683
603.316,23.5334,-7.36648,0,8.80888,6.71803,-0.962798,-67.1037,-102.53,-122.5,-8.92145,1.43222,-1.91123,-41.0671,2.92683,-14.878
603.326,23.1282,-7.48898,0,10.3297,6.27495,-3.08,-58.811,-113.537,-113.171,-9.1849,1.56874,-1.6813,-45.4573,4.90854,-14.2683
603.336,22.9374,-7.57783,0,11.0434,6.06658,-6.02587,-44.1463,-120.671,-97.1951,-9.52739,1.44899,-1.62622,-49.6341,9.29878,-13.9024
603.346,22.8875,-7.65804,0,11.944,6.53122,-8.39694,-27.3171,-93.5366,-83.4451,-9.99202,0.989143,-1.67891,-52.622,13.2012,-16.372
603.356,22.8743,-7.72995,0,12.1643,7.75507,-8.76577,-12.9878,-35.7012,-71.9512,-10.4255,0.258662,-1.71962,-56.8598,21.7378,-26.4939
603.366,22.9044,-7.80913,0,11.7069,8.38736,-7.85566,-2.10366,15.6098,-61.2195,-10.8111,-0.522114,-1.825,-57.1341,29.8476,-43.3232
603.376,22.9842,-7.90858,0,10.5093,8.09517,-6.95514,3.04878,29.7866,-52.0427,-10.8806,-0.998723,-1.94715,-47.9878,35.2744,-55.7317
603.386,23.1578,-8.05982,0,9.48188,7.34552,-5.80792,6.12805,16.7683,-41.9817,-10.8015,-1.06578,-2.20102,-37.7134,42.5,-56.0061
603.396,23.4927,-8.25955,0,8.95019,6.0594,-5.10858,19.3598,14.2073,-32.6524,-10.9093,-1.24781,-2.48364,-32.6829,56.1585,-50.3049
603.406,23.8177,-8.50264,0,7.54671,6.34441,-4.038,27.6829,34.1463,-20.8232,-10.9261,-1.18553,-2.73751,-33.872,67.1341,-46.7073
603.416,24.0142,-8.72175,0,6.35878,7.82213,-3.4129,28.1707,53.0183,-11.1585,-10.871,-0.948428,-2.64171,-41.0671,76.25,-43.9024
603.426,23.9852,-8.81996,0,6.13365,11.0985,-2.72314,16.4024,71.9207,-12.9878,-11.0051,-0.419128,-2.10522,-56.372,75.2134,-46.4634
603.436,23.6712,-8.85859,0,5.77918,13.7929,-1.63819,9.60366,79.0244,-29.4817,-11.4841,-0.0934058,-1.90883,-72.439,72.4085,-53.628
603.446,23.027,-8.87032,0,4.67508,14.4324,-1.60706,2.62195,61.189,-54.0549,-12.0134,0.162861,-1.84896,-82.8963,81.8598,-60.4878
603.456,22.2068,-8.88447,0,5.1469,15.0982,-1.47054,-14.2073,41.6159,-75.1219,-12.7391,0.253872,-1.96152,-90.2439,95.8232,-61.7073
603.466,21.4666,-8.75084,0,7.23056,15.2682,-0.268242,-38.1098,41.1585,-81.9207,-13.6061,0.155676,-1.19272,-89.2683,101.037,-59.3902
603.476,20.9791,-8.4378,0,8.53345,14.5497,0.428708,-52.8659,59.7256,-67.9573,-14.4875,-0.150886,-0.110171,-81.4024,82.8354,-52.6524
603.486,20.6335,-8.12965,0,6.34441,12.878,-0.0622705,-42.9573,62.5305,-45.9756,-15.2084,-0.632285,-0.0838257,-68.6585,68.7805,-41.25
603.496,20.3031,-7.95674,0,4.26553,11.7045,-0.641865,-28.1098,35.122,-32.4695,-14.8587,-1.61424,-0.886157,-58.5976,70.7927,-31.6159
603.506,19.7318,-7.69624,0,1.71004,8.68195,-0.740061,-7.5,22.4695,-39.6037,-13.4768,-1.38911,-0.256267,-56.8293,58.4146,-17.1646
603.516,18.5885,-7.26097,0,-1.27894,7.32876,-1.48731,9.87805,27.8354,-56.189,-11.4075,-0.617915,0.684976,-55.4573,28.4146,4.78659
603.526,16.9314,-6.16535,0,-3.63564,7.02699,-1.89446,15.4268,26.0671,-75.3354,-9.90101,-0.205972,1.44899,-60.9756,-0.731707,21.3415
603.536,15.144,-5.42192,0,-4.57688,8.14307,-1.58071,7.65244,16.128,-87.9573,-8.943,0.330513,1.98068,-80.8841,-24.2073,31.0976
603.546,13.4271,-4.5821,0,-3.59013,8.20055,-1.37235,-6.0061,9.81707,-96.0366,-7.75986,0.354463,2.1651,-104.543,-39.5732,33.4146
603.556,11.9168,-3.83303,0,-2.02619,7.98499,-1.39151,-20.9146,10.0915,-97.6524,-7.33355,0.773591,1.83698,-129.848,-54.8171,32.2561
603.566,10.6703,-3.26494,0,-0.756826,8.03769,-1.11608,-32.7744,13.5671,-91.8902,-7.118,0.823887,1.28373,-146.616,-58.4146,29.1768
603.576,9.67061,-2.88203,0,-0.0862207,8.53345,-0.917292,-39.6037,5.67073,-79.0549,-7.35032,0.522114,0.785566,-150.976,-61.4634,23.2927
603.586,8.8878,-2.67041,0,0.217947,8.85918,-0.991538,-39.7866,-16.4024,-63.0183,-8.04248,-0.261057,0.301772,-142.622,-63.2622,14.6341
603.596,8.3179,-2.57863,0,0.661025,9.02204,-1.55916,-35.0915,-38.2012,-48.5671,-8.93103,-1.07297,-0.102986,-128.506,-62.2256,1.34146
603.606,7.89514,-2.58516,0,1.0586,8.82565,-2.31598,-28.811,-46.0671,-40.122,-9.72857,-2.02858,-0.512534,-110.549,-55,-12.378
603.616,7.52648,-2.66991,0,1.36277,8.44484,-3.06323,-20.0915,-37.0427,-40.2134,-10.4064,-2.69919,-0.900527,-89.4207,-44.5427,-25.5183
603.626,7.16522,-2.79463,0,1.75794,8.48316,-3.80808,-11.7683,-16.0976,-45.3963,-10.653,-3.12311,-1.11847,-64.8171,-35.1829,-36.9207
603.636,6.74342,-2.94105,0,1.89446,8.83762,-3.90628,-6.52439,0.365854,-53.1098,-10.2938,-3.18298,-1.1999,-40.6402,-31.6463,-42.1341
603.646,6.25902,-3.09356,0,1.85614,8.91666,-3.46559,-4.54268,8.87195,-59.6646,-9.54415,-2.86205,-1.16158,-20.5488,-29.6646,-41.0976
603.656,5.7866,-3.21666,0,2.00224,8.77056,-2.56028,-3.68902,15.3049,-61.6768,-9.02204,-2.56028,-1.00591,-6.55488,-32.2866,-40.3659
603.666,5.34147,-3.32841,0,1.88728,9.00288,-1.78668,-5.4878,12.2866,-57.7744,-8.75859,-2.10283,-0.950823,5.21341,-31.7378,-42.1037
603.676,4.97588,-3.41646,0,1.94955,9.19927,-1.14961,-7.2561,6.28049,-50.8232,-8.76098,-1.83698,-0.876577,11.0366,-32.6829,-39.2378
603.686,4.65269,-3.47989,0,1.75315,9.38369,-0.811912,-9.60366,-5.42683,-44.4207,-9.10586,-1.67172,-0.828677,8.5061,-36.7073,-38.2622
603.696,4.39343,-3.51407,0,1.86093,9.51541,-1.06578,-11.311,-15.0915,-39.5427,-9.45075,-1.55197,-0.749641,9.90854,-38.8415,-36.189
603.706,4.14597,-3.56863,0,1.67891,9.64714,-1.56874,-14.2073,-23.4146,-36.4329,-9.5681,-1.45857,-0.850232,10.3049,-37.5915,-33.811
603.716,3.8995,-3.64257,0,1.56634,9.75491,-2.01182,-17.5915,-31.4024,-35.3049,-9.47709,-1.28852,-0.929268,10.8537,-33.2317,-27.0732
603.726,3.6265,-3.74421,0,1.29092,9.68306,-2.22976,-20.3049,-38.9634,-35.3963,-9.24717,-0.950823,-1.02746,13.9024,-26.4634,-16.4329
603.736,3.32944,-3.87078,0,1.12087,9.47709,-2.26329,-22.2561,-42.7134,-36.6768,-8.98851,-0.792751,-1.11129,18.5366,-21.7073,-4.66463
603.746,3.02531,-4.02262,0,1.00351,9.19448,-2.26329,-22.6524,-41.7683,-36.9512,-8.77775,-0.689766,-1.2023,25.2744,-19.0244,4.32927
603.756,2.74759,-4.15618,0,1.1065,8.98372,-2.2106,-21.372,-36.6159,-36.4939,-8.65321,-0.512534,-1.13763,27.8049,-19.0854,14.1159
603.766,2.51898,-4.28579,0,1.38432,8.9933,-1.96392,-20.7317,-29.6037,-35.5793,-8.54064,-0.462239,-1.12805,29.0244,-19.1768,18.7805
603.776,2.35453,-4.40374,0,1.87051,9.09149,-1.75076,-19.3293,-21.9207,-35.3659,-8.52627,-0.488584,-1.10171,27.8049,-19.8476,22.0732
603.786,2.23093,-4.52152,0,2.27287,8.98851,-1.41546,-18.75,-14.939,-36.7683,-8.68434,-0.59636,-1.14003,24.6646,-20.3659,25.122
603.796,2.12091,-4.63109,0,2.47406,8.78254,-1.12326,-18.8415,-9.69512,-38.7805,-8.943,-0.790356,-1.16158,22.8659,-22.6524,25.4878
603.806,2.01387,-4.74517,0,2.56986,8.71548,-1.06818,-16.6768,-4.93902,-40.122,-9.15376,-1.00112,-1.22625,19.3902,-23.872,24.4207
603.816,1.84296,-4.8837,0,2.2106,8.81128,-1.20709,-13.1707,-2.13415,-42.0732,-9.36453,-1.19272,-1.37714,15.5183,-24.7256,25.7622
603.826,1.57772,-5.05114,0,1.70286,8.943,-1.56634,-10.7927,-1.89024,-45.3049,-9.44835,-1.346,-1.53521,13.4451,-23.628,24.2988
603.836,1.2141,-5.20792,0,1.14961,9.22322,-2.02619,-10.1524,0.0304878,-48.3841,-9.44356,-1.34361,-1.51844,11.4939,-25.122,27.8963
603.846,0.763965,-5.42107,0,0.62989,9.62319,-2.17707,-11.311,-0.152439,-51.0976,-9.23759,-1.20469,-1.74597,10.5183,-22.7439,31.5549
603.856,0.261856,-5.69827,0,0.330513,9.77647,-2.42136,-13.2012,0.762195,-53.628,-8.97174,-1.13524,-1.99026,12.4085,-17.5305,36.4329
603.866,-0.297902,-6.04154,0,-0.0622705,9.97286,-2.40699,-16.0366,-3.65854,-55.8537,-8.73703,-1.08255,-2.24413,13.5366,-8.81098,41.4329
603.876,-0.858419,-6.46029,0,-0.0670605,9.9082,-2.40939,-18.811,-5.82317,-57.0122,-8.52148,-1.08255,-2.34472,14.8476,-3.59756,44.0549
603.886,-1.36814,-7.07863,0,0.306563,10.0016,-2.44292,-24.3598,-10.1524,-57.3476,-8.33227,-1.14482,-2.4501,17.9268,2.28659,47.4085
603.896,-1.78559,-7.43674,0,0.965193,9.88664,-2.48843,-29.1768,-13.2622,-56.7683,-8.24845,-1.152,-2.37107,19.7561,7.04268,50.6707
603.906,-2.09536,-7.7384,0,1.62143,9.69264,-2.46927,-33.1707,-15.3049,-54.6341,-8.27719,-1.25499,-2.21779,23.6585,10.9451,53.0793
603.916,-2.30453,-7.97337,0,2.26569,9.52499,-2.43334,-35.2744,-17.1951,-52.9268,-8.4616,-1.45857,-2.04774,28.9329,13.6585,53.0488
603.926,-2.50418,-8.18122,0,2.13396,9.1849,-2.31119,-35.5183,-21.189,-51.7683,-8.68674,-1.80105,-2.02619,33.6585,18.7195,51.2805
603.936,-2.58644,-8.35933,0,2.9339,9.2328,-2.36388,-31.372,-18.8415,-49.4817,-9.01246,-2.05972,-2.00703,37.7134,25.122,45.4878
603.946,-2.61437,-8.50971,0,3.04167,9.07473,-2.46448,-28.0183,-19.1159,-45.9451,-9.45075,-2.08367,-2.00942,41.9817,30.9756,42.9878
603.956,-2.59982,-8.61417,0,2.90995,8.95737,-2.57225,-26.25,-19.2073,-40.5793,-9.99442,-1.84896,-1.93757,45.3049,35.5793,44.4207
603.966,-2.46818,-8.61852,0,3.19256,8.78014,-2.92432,-27.0732,-13.5976,-32.6524,-10.6698,-1.38193,-1.60227,40.122,37.1341,48.4146
603.976,-2.23165,-8.5388,0,3.13029,8.48555,-2.91713,-28.5366,-10.2439,-22.2256,-11.362,-0.898132,-1.28373,27.8963,32.1646,54.8476
603.986,-1.87234,-8.5545,0,3.06323,8.16941,-2.7399,-26.8902,-7.46951,-9.84756,-11.4889,-0.313748,-1.76992,16.0976,35.8232,58.872
603.996,-1.36328,-8.733,0,3.05844,8.20773,-2.64171,-23.6585,-6.0061,4.54268,-11.1033,0.0670605,-2.52675,9.7561,48.872,63.8415
604.006,-0.772542,-8.97114,0,2.95545,8.41849,-2.53633,-19.3598,-6.52439,18.0183,-10.768,0.584385,-2.76864,10.9451,66.0976,69.2073
604.016,-0.0881213,-9.21573,0,2.99617,9.04359,-2.42136,-14.3902,-9.90854,30.8537,-10.2794,-0.210762,-2.71116,20.7927,75.2744,67.0732
604.026,0.716725,-9.33479,0,3.39614,9.77168,-2.77343,-10.4573,-13.5671,42.8354,-10.8159,-0.251477,-2.26808,29.4512,76.5854,64.0854
604.036,1.62731,-9.38413,0,3.75539,10.3273,-3.0297,-9.45122,-16.4939,53.5976,-11.7595,-0.182021,-2.10522,35.0915,87.0732,60.3049
604.046,2.65194,-9.21424,0,4.18649,10.6028,-3.11113,-8.68902,-18.5976,63.9024,-13.4169,-0.155676,-1.08973,31.25,91.0366,53.0488
604.056,3.80287,-8.89867,0,4.43079,10.0567,-3.12311,-5.79268,-18.689,74.3293,-14.83,-0.0958008,-0.215552,17.2561,83.3841,40
604.066,5.12022,-8.44422,0,4.66789,9.14179,-3.40332,0.457317,-18.0793,86.9817,-16.1664,0.146096,0.816702,-2.9878,63.5671,23.7805
604.076,6.58539,-8.04417,0,4.82117,8.86397,-3.37698,5.36585,-13.8415,101.707,-16.5376,0.519719,0.550855,-20.3354,50.4573,11.5854
604.086,8.12002,-7.88924,0,4.426,9.67109,-3.48715,7.04268,-2.68293,119.848,-14.9497,0.490979,-1.00112,-21.4939,60.7622,7.95732
604.096,9.73172,-7.66922,0,3.71947,9.86509,-2.4046,0.335366,-0.518293,138.872,-12.3775,-0.136516,-0.438289,-16.9512,61.6463,11.4329
604.106,11.4652,-7.36227,0,3.4632,8.84481,-1.52084,-1.61585,-7.07317,153.11,-10.1884,-1.11847,0.0526904,-6.34146,43.2927,10
604.116,13.3175,-6.99774,0,3.41051,7.81734,-0.474214,2.83537,-14.1159,164.299,-8.60291,-1.8274,0.296982,18.3841,27.0732,7.13415
604.126,15.1288,-6.68625,0,2.53633,7.83411,1.11847,8.07927,-17.561,175.396,-7.70478,-2.04056,0.126936,49.0549,15.3049,3.9939
604.136,16.7037,-6.20143,0,0.622705,7.81495,1.22146,20.8232,-13.9024,182.287,-7.39103,-1.87051,0.670605,78.6281,6.21951,7.46951
604.146,18.0469,-5.52028,0,-1.23583,9.36213,1.21427,39.1159,-18.4756,186.494,-7.44372,-1.69088,0.843047,104.878,-3.84146,13.7195
604.156,19.4674,-5.03354,0,-0.996328,12.114,-0.0215552,51.2805,-33.2012,191.372,-7.96584,-1.28373,0.936453,120.122,-13.3841,14.3293
604.166,20.9131,-4.56327,0,-0.146096,13.2924,-1.85614,56.3415,-50.1524,188.537,-8.77775,-0.946033,1.03944,117.195,-17.8963,10.2134
604.176,22.2989,-4.11371,0,0.998723,14.8132,-2.48603,54.2683,-68.9329,176.22,-9.92017,-0.0479004,1.1544,109.878,-30.6098,7.68293
604.186,23.6025,-3.85341,0,2.76385,14.7653,-3.17819,56.0976,-77.0427,156.89,-10.0711,0.299377,0.411943,90.7622,-23.689,6.85976
604.196,24.817,-3.66908,0,3.7027,13.46,-2.82373,61.2195,-74.3293,140.701,-10.78,1.28613,0.129331,81.8293,-23.0488,11.0061
604.206,26.0412,-3.5196,0,4.89781,11.6063,-2.03098,69.4512,-58.4756,128.872,-10.7967,1.73639,0,69.3598,-21.372,19.6646
604.216,27.2489,-3.3646,0,5.32892,10.7201,-1.30289,79.1159,-40.4878,122.439,-10.4926,1.75315,0.0526904,53.1098,-21.5854,28.4146
604.226,28.4752,-3.23766,0,5.9636,10.4088,-0.608335,85.8232,-22.0427,119.909,-9.95849,1.47294,-0.0479004,35.9146,-23.5061,34.878
604.236,29.6584,-3.17001,0,5.81511,10.6219,-0.184417,93.1402,6.18902,120.274,-9.3789,1.14721,-0.268242,21.25,-22.0122,41.0671
604.246,30.7729,-3.17913,0,5.31694,10.6243,-0.0934058,90.3963,37.1646,120,-9.10586,0.876577,-0.555645,10.7622,-18.5366,46.0061
604.256,31.824,-3.23147,0,4.52898,10.653,0.205972,90.1524,65.2134,123.049,-9.01725,0.570015,-0.720901,4.66463,-14.1463,48.2012
604.266,32.8645,-3.30084,0,4.38528,10.3297,-0.0886157,90.9146,90.4268,124.177,-9.11544,0.383203,-0.807122,1.7378,-15.4878,49.0854
604.276,33.8498,-3.38219,0,4.1362,9.98005,-0.177231,86.2195,106.555,121.677,-9.31902,0.270637,-0.888552,1.89024,-18.4756,45.5488
604.286,34.751,-3.42516,0,3.91107,9.45793,-0.426313,77.1646,117.5,115.183,-9.55373,0.239502,-0.766406,3.62805,-24.1159,39.4207
604.296,35.5449,-3.46535,0,3.49673,9.13939,-0.340093,72.7134,120.854,109.207,-9.59924,0.349673,-0.768801,0.823171,-28.0793,30.4573
604.306,36.209,-3.47949,0,3.0273,8.88792,-0.608335,67.1341,117.53,101.921,-9.61361,0.60594,-0.665815,-3.53659,-28.1707,25.8232
604.316,36.7608,-3.4757,0,2.76146,8.43526,-0.787961,61.189,107.043,93.2012,-9.45075,0.780776,-0.584385,-8.01829,-31.2195,20.4268
604.326,37.1519,-3.46167,0,2.07409,8.61728,-0.912502,58.75,95.5793,87.3171,-9.35255,0.946033,-0.536484,-19.2378,-32.622,19.4512
604.336,37.4393,-3.46313,0,2.13157,8.30353,-1.41067,52.7744,81.2195,75.7622,-9.15856,1.04902,-0.58678,-28.9024,-33.811,19.5427
604.346,37.5592,-3.508,0,1.83219,8.28677,-1.49449,43.5976,66.1585,63.2012,-9.07952,0.991538,-0.756826,-41.7988,-34.0854,16.0061
604.356,37.4892,-3.58445,0,1.46815,8.06403,-1.23344,34.7866,50,48.4451,-8.9454,0.869392,-0.876577,-52.7134,-31.9817,12.1646
604.366,37.2227,-3.71446,0,1.12566,7.69999,-0.969983,26.6159,32.2561,32.3476,-8.92624,0.64905,-1.09692,-63.4451,-27.9268,6.12805
604.376,36.7705,-3.88623,0,0.871787,7.32876,-0.881367,19.6951,14.939,15.9756,-9.01725,0.447869,-1.29571,-71.0671,-25.2134,-3.90244
604.386,33.642,-4.08579,0,0.55325,7.21859,-0.735271,12.378,-1.09756,-1.89024,-9.18729,0.364043,-1.46096,-71.0671,-22.2256,-13.0488
604.396,32.8194,-4.30018,0,0.280217,7.07489,-0.687371,5.45732,-16.0061,-19.9085,-9.39566,0.364043,-1.59029,-70.8537,-21.6159,-22.6524
604.406,31.744,-4.51103,0,-0.352068,7.00783,-0.783171,0.97561,-33.9024,-36.8902,-9.50823,0.270637,-1.63101,-67.7134,-22.0122,-30.3659
604.416,30.5339,-4.74294,0,-0.483794,7.06531,-1.17116,-4.93902,-54.7866,-50.7012,-9.45793,0.249082,-1.74597,-66.6463,-18.5671,-36.4939
604.426,29.1967,-5.00226,0,-0.787961,7.17308,-1.19032,-13.3537,-71.25,-61.3415,-9.30465,0.296982,-1.86812,-69.5122,-12.3476,-38.1098
604.436,27.8276,-5.2783,0,-0.325723,7.58024,-1.83938,-12.7439,-97.2866,-75.0915,-9.17292,0.378413,-1.91123,-74.5427,-4.5122,-38.5061
604.446,26.524,-5.60456,0,1.26218,8.66997,-2.32556,-21.8902,-102.713,-93.1402,-9.05557,0.524509,-1.93039,-79.1463,2.7439,-38.0183
604.456,25.2845,-5.86955,0,2.89558,9.15376,-1.95913,-40.5793,-90.5183,-108.171,-9.00288,0.775986,-1.95434,-84.6646,9.42073,-36.7378
604.466,24.1681,-6.12681,0,4.64634,9.01006,-1.42504,-57.5305,-76.9207,-117.988,-8.92863,1.08973,-1.94476,-92.5915,15.7927,-34.6646
604.476,23.173,-6.35693,0,5.91091,8.34185,-0.934058,-67.5,-67.5305,-124.299,-8.98132,1.25739,-1.88249,-97.7439,20.2439,-34.3902
604.486,22.3418,-6.51114,0,7.49881,7.76226,-1.48012,-66.25,-70.5488,-127.348,-9.10826,1.38432,-1.62861,-102.622,22.8963,-35.8232
604.496,21.6485,-6.64644,0,8.93103,7.62095,-3.05604,-60.9146,-75,-126.22,-9.11065,1.45138,-1.57592,-109.085,23.0793,-37.1037
604.506,21.0481,-6.71818,0,9.71899,7.57305,-4.57209,-52.622,-71.2195,-123.354,-9.20646,1.38672,-1.3484,-115.457,25.3963,-40.2439
