time,angle1,angle2,intgangle,accX1,accY1,accZ1,gyroX1,gyroY1,gyroZ1,accX2,accY2,accZ2,gyroX2,gyroY2,gyroZ2
669.541,88.575,3.82504,0,9.79323,0.182021,-1.21188,-0.548781,-2.46951,-0.335366,-9.92257,-0.229922,0.706531,-12.1341,-4.29878,10.3354
669.551,88.6023,3.83587,0,9.76928,0.117356,-1.32445,-0.0914634,-0.884146,-0.487805,-9.92975,-0.141306,0.706531,-11.311,-3.87195,11.2195
669.561,88.636,3.86022,0,9.71659,0.0455054,-1.29571,0,1.06707,-0.853659,-9.96568,-0.119751,0.768801,-9.87805,-3.87195,10.7927
669.571,88.6614,3.89006,0,9.72138,0.0263452,-1.22386,0.365854,1.95122,-1.28049,-9.98723,-0.0598755,0.799937,-11.2805,-4.66463,10.7317
669.581,88.6708,3.91584,0,9.69504,0.0670605,-1.21667,1.06707,2.37805,-1.70732,-10.0208,-0.0742456,0.790356,-15.3354,-5.57927,8.56707
669.591,88.6761,3.92841,0,9.72138,0.0838257,-1.15679,1.15854,2.7439,-1.76829,-10.0375,-0.0502954,0.737666,-16.2805,-5.7622,7.04268
669.601,88.6762,3.94724,0,9.76689,0.138911,-1.12326,1.52439,2.56098,-1.4939,-10.0256,-0.0143701,0.766406,-18.2317,-6.28049,4.63415
669.611,88.6798,3.96744,0,9.7597,0.110171,-1.12087,1.25,2.9878,-1.58537,-9.96568,-0.0455054,0.771196,-22.4695,-6.15854,2.83537
669.621,88.6865,3.96688,0,9.80281,0.0742456,-1.14482,1.15854,3.20122,-1.7378,-9.89143,-0.0838257,0.677791,-24.7866,-6.76829,1.95122
669.631,88.6924,3.97234,0,9.7621,0.0910107,-1.14482,1.58537,3.38415,-1.61585,-9.81,-0.215552,0.699346,-24.3598,-5.15244,2.40854
669.641,88.6939,3.96257,0,9.75491,0.114961,-1.14242,1.64634,3.32317,-1.64634,-9.73575,-0.330513,0.63468,-25.5183,-3.17073,2.59146
669.651,88.695,3.95587,0,9.77168,0.124541,-1.14003,2.13415,3.47561,-1.55488,-9.70462,-0.411943,0.641865,-25.3963,-3.65854,3.96341
669.661,88.6988,3.95122,0,9.74533,0.150886,-1.14482,2.46951,3.78049,-1.06707,-9.74533,-0.455054,0.651445,-24.1768,-3.84146,4.69512
669.671,88.6946,3.93718,0,9.69264,0.193997,-1.12326,2.34756,4.29878,-1.0061,-9.76928,-0.462239,0.61073,-22.1037,-4.93902,5.21341
669.681,88.6829,3.91738,0,9.63756,0.239502,-1.00351,1.55488,4.20732,-0.701219,-9.79803,-0.395178,0.584385,-20.3659,-5.57927,3.84146
669.691,88.6901,3.8967,0,9.63037,0.155676,-0.969983,1.46341,3.53659,-0.853659,-9.81719,-0.256267,0.5772,-16.4024,-6.43293,4.87805
669.701,88.6973,3.87689,0,9.68306,0.143701,-1.0083,1.25,3.41463,-0.97561,-9.8124,-0.172441,0.5772,-14.7561,-6.40244,4.96951
669.711,88.7065,3.88173,0,9.7142,0.122146,-1.03465,1.4939,3.38415,-1.09756,-9.90341,-0.189207,0.687371,-14.5427,-5.67073,4.78659
669.721,88.7146,3.88404,0,9.80042,0.0790356,-1.09692,1.52439,3.41463,-1.55488,-9.95131,-0.203577,0.680186,-14.4207,-5.97561,6.37195
669.731,88.7338,3.87815,0,9.78605,0.0646655,-1.07297,1.61585,3.2622,-1.09756,-9.97526,-0.273032,0.646655,-14.5122,-5.51829,6.03659
669.741,88.7587,3.87435,0,9.78844,0.0167651,-1.09931,1.46341,3.78049,-1.21951,-9.99442,-0.301772,0.65863,-15.7927,-3.38415,4.96951
669.751,88.7806,3.87181,0,9.76689,0.0335303,-1.0107,0.914634,4.14634,-1.18902,-9.98244,-0.292192,0.661025,-16.7073,-4.57317,5.39634
669.761,88.788,3.86231,0,9.69504,0.0574805,-0.931663,0.304878,3.71951,-1.7378,-9.94173,-0.244292,0.627495,-18.811,-4.78659,4.60366
669.771,88.7848,3.85207,0,9.63277,0.0622705,-0.900527,-0.213415,2.5,-2.40854,-9.93215,-0.203577,0.6251,-19.6341,-3.38415,4.48171
669.781,88.7772,3.82661,0,9.67588,0.0742456,-0.831072,-0.731707,0.823171,-2.62195,-9.89622,-0.179626,0.57241,-21.8902,-2.13415,4.05488
669.791,88.7703,3.7733,0,9.72617,0.0718506,-0.989143,-0.670732,-0.365854,-2.59146,-9.8579,-0.177231,0.519719,-21.9817,-1.0061,3.35366
669.801,88.7552,3.73876,0,9.75731,0.148491,-1.02746,-0.548781,-1.15854,-2.40854,-9.84114,-0.239502,0.574805,-21.5549,0.609756,2.7439
669.811,88.7373,3.67428,0,9.71659,0.222737,-1.03225,-0.945122,-1.12805,-1.64634,-9.81958,-0.323328,0.514929,-21.7683,0.457317,2.04268
669.821,88.7141,3.64162,0,9.53697,0.234712,-1.04902,-1.31098,-0.518293,-1.98171,-9.80281,-0.352068,0.500559,-20.6707,3.2622,2.80488
669.831,88.7109,3.62085,0,9.63277,0.0742456,-0.910107,-1.37195,-1.95122,-2.40854,-9.78366,-0.371228,0.548459,-18.5061,2.40854,1.4939
669.841,88.7038,3.62427,0,9.68785,0.146096,-0.907712,-1.52439,-3.04878,-1.89024,-9.78126,-0.318538,0.63468,-17.7134,2.86585,2.40854
669.852,88.6982,3.63139,0,9.63277,0.0790356,-1.0562,-1.4939,-3.53659,-2.56098,-9.81,-0.294587,0.65384,-17.622,3.62805,2.9878
669.861,88.6806,3.64224,0,9.59684,0.155676,-0.996328,-1.61585,-3.93293,-2.68293,-9.81,-0.270637,0.670605,-19.0244,3.65854,3.41463
669.871,88.6642,3.66267,0,9.67348,0.141306,-1.00112,-2.5,-3.90244,-2.80488,-9.84832,-0.246687,0.716111,-18.4146,3.90244,5.33537
669.881,88.6463,3.67203,0,9.79323,0.189207,-1.12566,-1.79878,-4.35976,-2.37805,-9.86748,-0.263452,0.670605,-15.6707,2.7439,5.15244
669.891,88.6346,3.67999,0,9.7597,0.174836,-1.14003,-1.55488,-4.5122,-2.04268,-9.81719,-0.342488,0.656235,-16.0366,1.58537,7.53049
669.901,88.6274,3.68501,0,9.70462,0.138911,-1.00351,-1.67683,-5.30488,-2.13415,-9.84353,-0.402363,0.646655,-15.2134,0.945122,8.01829
669.911,88.6116,3.66901,0,9.69743,0.193997,-0.953218,-2.0122,-6.43293,-2.19512,-9.78844,-0.452659,0.60115,-15.6098,0.365854,8.35366
669.921,88.5948,3.67315,0,9.75731,0.270637,-1.02746,-2.13415,-7.40854,-1.03659,-9.78126,-0.419128,0.63468,-12.7744,0.27439,9.05488
669.931,88.5977,3.65448,0,9.80042,0.234712,-1.12566,-1.92073,-7.13415,0.121951,-9.76449,-0.356858,0.58199,-10.7927,-0.884146,8.53659
669.941,88.6126,3.66902,0,9.71899,0.177231,-1.27655,-1.89024,-5.33537,-0.304878,-9.86748,-0.323328,0.682581,-9.5122,-2.37805,10.2744
669.951,88.6539,3.67286,0,9.76928,0.0790356,-1.38911,-1.09756,-2.7439,-0.304878,-9.9561,-0.229922,0.651445,-6.03659,-3.01829,10.8841
669.961,88.6907,3.68346,0,9.79563,0.0718506,-1.34361,0.0914634,-1.09756,-0.426829,-10.0471,-0.201182,0.687371,-4.66463,-4.45122,10.0915
669.971,88.7099,3.6858,0,9.79803,0.119751,-1.31966,0.97561,0.0914634,-0.579268,-10.0926,-0.155676,0.656235,-5.88415,-4.29878,9.84756
669.981,88.7354,3.71249,0,9.77168,0.0862207,-1.24541,1.03659,0.884146,-0.640244,-10.095,-0.146096,0.764011,-7.65244,-5.82317,7.95732
669.991,88.7485,3.72992,0,9.7142,0.112566,-1.14721,1.31098,1.31098,-0.914634,-10.0854,-0.141306,0.725691,-7.5,-7.43902,6.25
670.001,88.7605,3.75218,0,9.76928,0.105381,-1.08015,0.640244,1.89024,-1.0061,-10.016,-0.160466,0.744851,-10.7622,-7.80488,4.93902
670.011,88.7821,3.7651,0,9.7621,0.0455054,-1.09931,0.609756,1.76829,-1.09756,-9.97526,-0.131726,0.704136,-13.872,-8.20122,5.27439
670.021,88.817,3.76327,0,9.78605,0.0742456,-1.14003,0.823171,1.7378,-0.304878,-9.96328,-0.143701,0.641865,-14.5122,-6.61585,3.93293
670.031,88.8525,3.7678,0,9.76689,0.0598755,-1.20469,0.914634,1.92073,-0.365854,-9.87467,-0.153281,0.66342,-17.2561,-6.85976,3.32317
670.041,88.8913,3.76341,0,9.7621,0.0359253,-1.12326,1.06707,2.04268,-0.426829,-9.81958,-0.184417,0.622705,-18.9024,-5.88415,2.5
670.051,88.9194,3.76429,0,9.72138,0.0479004,-1.18793,1.67683,2.16463,-0.640244,-9.77407,-0.217947,0.641865,-19.9695,-5.70122,2.37805
670.061,88.9417,3.7522,0,9.71659,0.0670605,-1.2023,2.16463,2.77439,-0.640244,-9.77886,-0.268242,0.593965,-19.4512,-2.86585,2.0122
670.071,88.9476,3.76072,0,9.70941,0.0862207,-1.13524,1.67683,3.5061,-1.21951,-9.77886,-0.282612,0.673001,-19.7256,-3.38415,2.56098
670.081,88.9513,3.75544,0,9.74773,0.0958008,-1.08734,1.7378,3.90244,-1.21951,-9.79323,-0.337698,0.617915,-18.2927,-4.20732,3.75
670.091,88.9459,3.74487,0,9.71659,0.134121,-1.08255,1.61585,3.71951,-1.37195,-9.80281,-0.340093,0.59636,-18.2012,-3.78049,4.63415
670.101,88.9461,3.73514,0,9.7118,0.0886157,-1.06339,1.55488,3.32317,-1.55488,-9.79084,-0.308958,0.598755,-19.1463,-3.29268,5.79268
670.111,88.9413,3.72601,0,9.70701,0.124541,-1.05141,1.06707,3.41463,-1.46341,-9.8076,-0.294587,0.60115,-16.0976,-3.10976,7.5
670.121,88.9345,3.7156,0,9.73575,0.167651,-1.04902,1.25,2.9878,-0.97561,-9.8579,-0.292192,0.59636,-16.6768,-3.38415,7.16463
670.131,88.9473,3.70955,0,9.76928,0.0694556,-1.1041,1.09756,2.62195,-1.0061,-9.88185,-0.222737,0.613125,-16.128,-3.75,6.15854
670.141,88.9546,3.70933,0,9.74533,0.0718506,-1.07057,1.40244,2.65244,-1.28049,-9.90341,-0.196392,0.637075,-15.4878,-4.7561,4.72561
670.151,88.9589,3.70395,0,9.67827,0.0886157,-1.01549,0.884146,2.40854,-1.28049,-9.93454,-0.134121,0.617915,-16.7073,-3.84146,3.96341
670.161,88.9647,3.70503,0,9.61121,0.0455054,-0.972378,0.27439,1.82927,-1.67683,-9.92975,-0.131726,0.64426,-18.2317,-3.62805,2.53049
670.171,88.9565,3.68639,0,9.61361,0.0934058,-0.890947,0.0304878,0.853659,-2.10366,-9.9058,-0.203577,0.57241,-19.7561,-2.10366,2.89634
670.181,88.9546,3.68155,0,9.63756,0.0359253,-0.898132,-0.792683,-0.27439,-2.28659,-9.89862,-0.222737,0.617915,-20.1524,-2.2561,2.19512
670.191,88.9449,3.65053,0,9.70701,0.0766406,-0.950823,-1.03659,-1.52439,-2.43902,-9.8603,-0.287402,0.555645,-19.3293,-0.914634,2.65244
670.201,88.937,3.58313,0,9.72138,0.100591,-1.02746,-1.21951,-2.65244,-2.0122,-9.82916,-0.347278,0.512534,-18.5061,-0.182927,2.62195
670.211,88.9309,3.53607,0,9.79803,0.124541,-1.07536,-1.46341,-2.43902,-1.58537,-9.83635,-0.378413,0.526904,-17.0732,0.365854,2.13415
670.221,88.9323,3.4857,0,9.8076,0.0981958,-1.07536,-1.43293,-2.77439,-1.37195,-9.82916,-0.354463,0.498164,-16.8293,0.640244,0.213415
670.231,88.9359,3.48001,0,9.78126,0.100591,-1.18553,-1.31098,-2.40854,-1.18902,-9.81479,-0.292192,0.58199,-13.5976,1.46341,0.97561
670.241,88.9398,3.4522,0,9.71899,0.0790356,-1.14961,-1.18902,-1.64634,-1.43293,-9.82677,-0.299377,0.514929,-14.8171,1.46341,2.13415
670.251,88.9412,3.44314,0,9.64714,0.0479004,-1.1065,-0.640244,-1.40244,-1.95122,-9.86269,-0.258662,0.56762,-14.6037,1.58537,2.19512
670.261,88.9311,3.42846,0,9.58966,0.0718506,-1.01309,-0.792683,-1.61585,-2.56098,-9.83635,-0.234712,0.538879,-13.811,2.46951,3.53659
670.271,88.9108,3.43672,0,9.59924,0.122146,-1.02507,-1.34146,-1.31098,-2.86585,-9.8579,-0.234712,0.61552,-14.878,1.28049,4.48171
670.281,88.8842,3.45178,0,9.58966,0.143701,-0.998723,-1.52439,-2.53049,-3.23171,-9.88185,-0.292192,0.637075,-16.3415,1.18902,5.45732
670.291,88.8611,3.46517,0,9.64714,0.114961,-1.00591,-2.0122,-3.23171,-3.32317,-9.91538,-0.299377,0.62989,-15.9756,0.670732,6.4939
670.301,88.8403,3.4699,0,9.8076,0.138911,-1.14242,-1.21951,-3.56707,-2.86585,-9.87946,-0.340093,0.608335,-16.8598,-0.640244,7.59146
670.311,88.8268,3.48135,0,9.88664,0.119751,-1.21667,-1.03659,-3.71951,-2.46951,-9.86509,-0.426313,0.637075,-16.25,-2.07317,6.58537
670.321,88.8155,3.48084,0,9.72138,0.124541,-1.09213,-1.28049,-3.2622,-2.2561,-9.88664,-0.433499,0.59636,-16.0976,-3.5061,6.7378
670.331,88.7972,3.48137,0,9.72857,0.179626,-1.0562,-1.37195,-3.20122,-2.19512,-9.88904,-0.404758,0.60115,-14.4817,-2.86585,7.07317
670.341,88.7772,3.4817,0,9.82677,0.234712,-1.08973,-1.40244,-3.96341,-1.58537,-9.94652,-0.347278,0.603545,-13.0488,-3.44512,6.82927
670.351,88.7817,3.48364,0,9.80281,0.150886,-1.22864,-1.15854,-4.17683,-0.823171,-9.96328,-0.268242,0.61073,-11.311,-4.45122,6.95122
670.361,88.7984,3.49668,0,9.75491,0.0886157,-1.22386,-0.97561,-2.28659,-0.884146,-9.9561,-0.234712,0.65863,-9.48171,-4.69512,7.56098
670.371,88.8247,3.51914,0,9.75252,-0.00958008,-1.31487,-0.304878,0.243902,-1.28049,-9.99921,-0.143701,0.704136,-8.2622,-7.07317,7.10366
670.381,88.8364,3.55134,0,9.8124,0.00239502,-1.37235,0.823171,1.95122,-1.85976,-10.0064,-0.0335303,0.752036,-9.63415,-6.55488,5.30488
670.391,88.8389,3.58641,0,9.77886,0.0359253,-1.22146,1.4939,3.44512,-2.13415,-9.96328,0.0191602,0.766406,-13.4146,-7.56098,4.90854
670.401,88.8401,3.6174,0,9.73575,0.0574805,-1.26936,1.4939,4.81707,-2.0122,-9.92496,-0.0502954,0.752036,-19.4512,-7.0122,2.53049
670.411,88.8318,3.6517,0,9.68067,0.126936,-1.04902,1.7378,5.09146,-1.95122,-9.89383,-0.0934058,0.768801,-22.7744,-8.04878,1.37195
670.421,88.8186,3.68077,0,9.67348,0.141306,-1.08255,1.12805,5.06098,-2.19512,-9.84593,-0.196392,0.747246,-23.4756,-9.17683,1.4939
670.431,88.8111,3.69071,0,9.69983,0.114961,-1.09213,1.43293,4.78659,-2.07317,-9.79803,-0.244292,0.665815,-23.872,-8.93293,1.25
670.441,88.7978,3.69826,0,9.71899,0.177231,-1.00112,1.67683,4.39024,-1.76829,-9.83635,-0.409548,0.65863,-21.7683,-10.2439,2.37805
670.451,88.792,3.67641,0,9.7597,0.155676,-1.07536,2.22561,3.41463,-1.46341,-9.82437,-0.483794,0.531694,-20.1829,-9.81707,4.02439
670.461,88.7828,3.64199,0,9.68785,0.205972,-1.06099,1.82927,3.14024,-0.914634,-9.82437,-0.493374,0.474214,-17.8963,-8.90244,5.45732
670.471,88.7866,3.62182,0,9.69743,0.170046,-1.00591,2.19512,2.5,-0.579268,-9.80281,-0.455054,0.529299,-14.4512,-8.5061,7.43902
670.481,88.8096,3.6199,0,9.70701,0.122146,-0.993933,1.79878,1.67683,-0.27439,-9.88185,-0.354463,0.608335,-11.6463,-10.2439,8.35366
670.491,88.8522,3.62654,0,9.7142,0.0718506,-0.984353,1.40244,1.21951,-0.121951,-9.90101,-0.246687,0.646655,-10.9451,-10.2744,8.84146
670.501,88.9067,3.61997,0,9.73575,0.0407153,-1.0107,1.28049,1.15854,0.0304878,-9.93454,-0.170046,0.593965,-11.5854,-7.89634,7.77439
670.511,88.9639,3.60538,0,9.73096,0.0263452,-1.02507,1.61585,1.03659,0,-9.9537,-0.119751,0.560435,-11.3415,-6.12805,6.34146
670.521,88.9928,3.58614,0,9.73096,0.0359253,-1.10171,1.09756,1.95122,-0.609756,-9.92736,-0.177231,0.538879,-12.7134,-4.45122,4.05488
670.531,89.0098,3.57788,0,9.71659,0.0742456,-1.04902,0.731707,1.79878,-0.670732,-9.95849,-0.220342,0.584385,-13.7805,-4.57317,3.62805
670.541,89.0311,3.56489,0,9.72857,0.0383203,-0.996328,-0.0914634,0.945122,-0.823171,-9.92017,-0.237107,0.56762,-15.2134,-2.59146,2.92683
670.551,89.0501,3.55956,0,9.69264,0.0311353,-0.898132,-0.762195,0.27439,-0.97561,-9.89383,-0.249082,0.603545,-15.0305,-0.670732,2.5
670.561,89.0586,3.55057,0,9.65672,0.0455054,-0.953218,-1.64634,-1.25,-1.34146,-9.87946,-0.316143,0.59157,-15.9146,-0.853659,1.82927
670.571,89.0594,3.52003,0,9.57289,0.0287402,-0.893342,-2.2561,-2.22561,-2.0122,-9.84593,-0.299377,0.531694,-16.1585,1.03659,2.31707
670.581,89.0541,3.49009,0,9.58726,0.0407153,-0.893342,-2.53049,-3.87195,-2.31707,-9.79084,-0.318538,0.495769,-16.4634,2.31707,0.792683
670.591,89.0495,3.45095,0,9.68546,0.0766406,-0.974773,-2.71341,-5.03049,-1.82927,-9.75731,-0.318538,0.443079,-15.0305,3.10976,0.243902
670.601,89.0506,3.43751,0,9.68785,0.0742456,-1.13763,-1.92073,-5.73171,-1.46341,-9.7597,-0.337698,0.536484,-14.2988,3.68902,1.18902
670.611,89.0458,3.42149,0,9.62079,0.0479004,-1.1065,-1.92073,-4.90854,-2.19512,-9.73096,-0.340093,0.522114,-12.6524,3.68902,1.82927
670.621,89.0363,3.40835,0,9.60163,0.0143701,-1.15679,-1.98171,-4.20732,-2.95732,-9.73575,-0.292192,0.534089,-13.7805,2.83537,2.77439
670.631,89.0113,3.39222,0,9.5681,0.138911,-1.07776,-1.70732,-4.48171,-2.86585,-9.75491,-0.301772,0.524509,-12.622,2.37805,3.59756
670.641,88.98,3.40256,0,9.61121,0.174836,-1.04183,-2.2561,-5.79268,-3.07927,-9.81479,-0.261057,0.608335,-13.9939,0.945122,5.18293
670.651,88.9648,3.41017,0,9.74533,0.0598755,-1.23823,-1.76829,-5.06098,-3.04878,-9.86988,-0.273032,0.60594,-13.3232,-1.0061,6.25
670.661,88.9459,3.41016,0,9.7597,0.0886157,-1.31726,-1.18902,-4.93902,-3.07927,-9.88425,-0.361648,0.58678,-13.75,-2.56098,8.59756
670.671,88.9212,3.43041,0,9.78605,0.119751,-1.16398,-1.21951,-4.78659,-3.29268,-9.94173,-0.399968,0.675395,-13.3537,-3.9939,8.68902
670.681,88.8912,3.44517,0,9.82437,0.162861,-1.14721,-1.46341,-5.42683,-3.35366,-10.0232,-0.383203,0.661025,-13.628,-4.05488,9.17683
670.691,88.8696,3.45096,0,9.91299,0.182021,-1.19272,-1.52439,-5.39634,-2.34756,-10.0279,-0.385598,0.6251,-13.0793,-4.32927,8.10976
670.701,88.8624,3.46365,0,9.90101,0.170046,-1.29092,-1.7378,-5.06098,-1.18902,-10.0615,-0.308958,0.656235,-12.6829,-2.83537,5.85366
670.711,88.8705,3.48739,0,9.89862,0.0838257,-1.42264,-1.12805,-2.46951,-1.18902,-10.0567,-0.239502,0.708926,-10.3659,-4.96951,4.66463
670.721,88.8881,3.52367,0,9.82197,0.0215552,-1.46336,0.243902,-0.548781,-1.28049,-9.98005,-0.105381,0.761616,-12.8659,-4.42073,5.12195
670.731,88.8933,3.57655,0,9.77886,0.0383203,-1.37235,1.15854,2.04268,-1.82927,-9.96807,-0.0718506,0.840652,-14.4207,-5.09146,5.12195
670.741,88.8878,3.63854,0,9.7597,0.0718506,-1.31008,1.55488,3.68902,-2.2561,-9.89143,-0.0862207,0.883762,-16.7378,-6.06707,3.93293
670.751,88.867,3.69372,0,9.71899,0.150886,-1.20469,0.945122,4.5122,-2.65244,-9.91778,-0.158071,0.866997,-21.0671,-6.61585,2.83537
670.761,88.836,3.74783,0,9.65432,0.227527,-1.1041,0.853659,4.35976,-2.65244,-9.89383,-0.189207,0.869392,-22.7439,-7.5,3.04878
670.771,88.8143,3.77026,0,9.62319,0.160466,-1.06339,0.823171,4.02439,-2.71341,-9.87946,-0.275427,0.737666,-25.3659,-8.87195,2.80488
670.781,88.7966,3.79204,0,9.73815,0.189207,-1.13524,0.914634,3.75,-2.0122,-9.84832,-0.335303,0.735271,-23.9939,-10.1829,3.53659
670.791,88.7876,3.80068,0,9.8124,0.186812,-1.18793,1.43293,3.5061,-1.28049,-9.82916,-0.380808,0.680186,-19.6037,-10.4573,5.15244
670.801,88.7734,3.78831,0,9.79563,0.244292,-1.13284,2.13415,3.53659,-0.518293,-9.83635,-0.455054,0.589175,-17.9878,-12.1951,5.88415
670.811,88.7959,3.77063,0,9.79803,0.138911,-1.23104,2.16463,3.35366,0.579268,-9.72857,-0.481399,0.55804,-15.2744,-11.9207,6.82927
670.821,88.8214,3.74787,0,9.67588,0.126936,-1.10171,2.53049,3.56707,0.609756,-9.78126,-0.455054,0.536484,-13.4451,-11.4329,7.89634
670.831,88.8566,3.7352,0,9.65911,0.0862207,-1.11368,2.34756,3.29268,0.579268,-9.7597,-0.431104,0.574805,-12.622,-11.5549,9.17683
670.841,88.8958,3.71935,0,9.67827,0.0790356,-1.03225,1.92073,3.32317,-0.0914634,-9.82197,-0.368833,0.56283,-10.4573,-11.189,8.65854
670.851,88.9507,3.71503,0,9.65911,0.00958008,-1.0083,1.70732,2.40854,-0.243902,-9.8579,-0.265847,0.613125,-11.8598,-10.3659,9.39024
670.861,88.9793,3.70453,0,9.70941,0.00479004,-1.11368,1.37195,2.07317,-0.914634,-9.90341,-0.222737,0.589175,-10.7622,-9.14634,8.56707
670.871,88.9953,3.67752,0,9.74773,0.0143701,-1.17116,1.18902,3.07927,-1.31098,-9.96807,-0.208367,0.522114,-13.2927,-5.67073,8.17073
670.881,88.9958,3.65425,0,9.80521,0.0814307,-1.12566,0.701219,3.29268,-1.4939,-9.92975,-0.215552,0.534089,-12.2256,-4.48171,7.83537
670.891,89.0084,3.62861,0,9.79803,0.0263452,-1.04423,0.0609756,3.14024,-1.34146,-9.92017,-0.229922,0.536484,-13.4756,-2.2561,6.82927
670.901,89.0273,3.57506,0,9.74054,-0.0119751,-0.993933,-0.396341,2.40854,-1.37195,-9.86269,-0.237107,0.514929,-13.811,-0.487805,3.53659
670.911,89.0404,3.52128,0,9.69025,0.0263452,-0.965193,-1.25,1.89024,-1.31098,-9.84353,-0.270637,0.450264,-14.0854,1.52439,1.76829
670.921,89.0418,3.49072,0,9.65672,0.0455054,-0.929268,-1.58537,0.518293,-1.79878,-9.83635,-0.270637,0.481399,-13.4451,3.71951,2.13415
670.931,89.043,3.47338,0,9.60403,0.0694556,-0.866997,-2.16463,-1.40244,-1.55488,-9.84114,-0.296982,0.534089,-14.9695,2.95732,2.62195
670.941,89.0419,3.45571,0,9.63756,0.0814307,-0.910107,-2.16463,-3.14024,-1.55488,-9.82677,-0.275427,0.526904,-15.4268,3.47561,2.68293
670.951,89.0393,3.44966,0,9.54894,0.0311353,-0.962798,-1.92073,-5.03049,-2.2561,-9.78605,-0.280217,0.570015,-15.9756,2.77439,3.65854
670.961,89.0282,3.42727,0,9.58247,0.0335303,-1.0107,-2.13415,-4.81707,-2.89634,-9.79563,-0.244292,0.526904,-15.7317,1.37195,3.44512
670.971,88.9979,3.40817,0,9.58726,0.138911,-1.03225,-2.34756,-4.93902,-3.41463,-9.80042,-0.285007,0.531694,-15.6402,1.43293,5.57927
670.981,88.9737,3.4007,0,9.55373,0.0886157,-1.01309,-2.37805,-5.64024,-3.5061,-9.86269,-0.265847,0.560435,-16.7683,-1.85976,7.5
670.991,88.9452,3.38717,0,9.69264,0.114961,-1.13284,-1.98171,-5.27439,-3.65854,-9.95849,-0.306563,0.534089,-15.3659,-3.01829,9.26829
671.001,88.9168,3.37999,0,9.89383,0.110171,-1.35319,-1.25,-4.5122,-3.78049,-10.0232,-0.299377,0.55804,-13.2927,-4.5122,10.3049
671.011,88.8883,3.39327,0,9.81719,0.170046,-1.20469,-0.518293,-4.7561,-3.10976,-10.0112,-0.306563,0.64426,-13.1402,-6.52439,9.39024
671.021,88.8755,3.41555,0,9.81479,0.0646655,-1.11368,-1.03659,-3.62805,-2.95732,-10.0399,-0.330513,0.687371,-12.561,-7.89634,9.05488
671.031,88.8587,3.46629,0,9.81479,0.0958008,-1.18314,-1.0061,-3.01829,-2.9878,-9.99442,-0.268242,0.814307,-13.3232,-7.65244,8.65854
671.041,88.8479,3.50496,0,9.89862,0.0910107,-1.25499,-0.762195,-2.62195,-2.53049,-9.95131,-0.241897,0.766406,-15.8232,-7.71341,7.46951
671.051,88.8424,3.5572,0,9.88185,0.0910107,-1.37714,0.0914634,-1.70732,-2.10366,-9.92017,-0.179626,0.831072,-17.0122,-6.15854,6.70732
671.061,88.8368,3.61063,0,9.81719,0.0886157,-1.33403,0.670732,0.823171,-2.16463,-9.95131,-0.179626,0.847837,-18.3232,-7.0122,5.21341
671.071,88.8247,3.64566,0,9.82916,0.117356,-1.40109,1.09756,3.5061,-2.37805,-9.91538,-0.167651,0.773591,-19.4817,-6.40244,5.21341
671.081,88.8012,3.68533,0,9.74533,0.210762,-1.27655,1.28049,5.33537,-2.2561,-9.90101,-0.234712,0.797541,-19.5732,-8.41463,5.7622
671.091,88.7799,3.71277,0,9.70222,0.189207,-1.14242,1.15854,5.12195,-2.37805,-9.88664,-0.273032,0.749641,-19.4817,-8.47561,5.85366
671.101,88.7613,3.72908,0,9.65193,0.222737,-1.04183,1.37195,4.5122,-1.61585,-9.84593,-0.294587,0.701741,-19.3293,-9.66463,4.60366
671.111,88.7395,3.75423,0,9.67109,0.249082,-1.06099,0.97561,4.02439,-1.52439,-9.83874,-0.270637,0.742456,-17.7134,-9.81707,5.12195
671.121,88.7253,3.76149,0,9.73336,0.232317,-1.04902,0.731707,3.14024,-1.09756,-9.82677,-0.237107,0.66821,-16.9207,-9.60366,4.26829
671.131,88.7275,3.76573,0,9.7597,0.193997,-1.09931,0.97561,2.5,-0.426829,-9.78844,-0.256267,0.65384,-19.0854,-9.5122,4.57317
671.141,88.7454,3.77386,0,9.77647,0.165256,-1.12087,1.09756,2.31707,0.457317,-9.79803,-0.306563,0.670605,-15.7927,-11.25,3.9939
671.151,88.7713,3.78359,0,9.70701,0.134121,-1.04183,1.06707,1.82927,0.945122,-9.83635,-0.320933,0.682581,-15.6402,-10.061,3.56707
671.161,88.8093,3.79138,0,9.63995,0.0790356,-0.948428,0.548781,1.21951,0.853659,-9.91778,-0.251477,0.680186,-17.0427,-11.5244,3.20122
671.171,88.875,3.78271,0,9.65672,0,-0.974773,0.945122,0.457317,0.304878,-9.92736,-0.232317,0.61073,-14.9085,-10.5183,3.84146
671.181,88.9288,3.76355,0,9.64953,-0.0383203,-1.05381,0.304878,-0.182927,-0.609756,-9.92496,-0.189207,0.565225,-15.7317,-7.9878,3.68902
671.191,88.9564,3.72436,0,9.71659,-0.0383203,-1.12087,0.884146,0.548781,-1.31098,-9.88664,-0.234712,0.471819,-14.9085,-8.53659,4.42073
671.201,88.9602,3.68613,0,9.75731,0.0670605,-1.10171,0.487805,0.609756,-1.52439,-9.85311,-0.301772,0.471819,-15.9451,-5.30488,5.45732
671.211,88.9578,3.66434,0,9.78126,0.0958008,-0.972378,0.396341,0.609756,-1.61585,-9.81,-0.349673,0.534089,-15.4878,-5.15244,7.9878
671.221,88.9682,3.64695,0,9.80042,0.0598755,-1.05381,-0.304878,-0.0304878,-1.18902,-9.82197,-0.387993,0.550855,-15.3659,-4.66463,7.43902
671.231,88.9785,3.60748,0,9.77647,0.0383203,-1.0562,-1.0061,-0.0304878,-1.40244,-9.79803,-0.287402,0.457449,-14.4512,-3.81098,6.76829
671.241,88.9944,3.56075,0,9.67827,0.0359253,-1.01549,-1.46341,-0.792683,-1.15854,-9.80281,-0.292192,0.481399,-14.1159,-1.37195,5.85366
671.251,89.0077,3.51649,0,9.63995,0.0239502,-1.02028,-1.7378,-1.61585,-1.40244,-9.80042,-0.294587,0.510139,-13.3537,-0.731707,2.7439
671.261,89.0152,3.456,0,9.60642,0.0239502,-1.07057,-1.79878,-2.68293,-1.70732,-9.80042,-0.289797,0.505349,-12.9573,-0.121951,1.15854
671.271,89.0159,3.42473,0,9.65911,0.0694556,-1.09452,-1.03659,-2.65244,-1.61585,-9.8124,-0.249082,0.510139,-13.3232,-1.06707,1.4939
671.281,89.015,3.38533,0,9.55613,0.00958008,-1.11847,-1.03659,-2.53049,-2.40854,-9.82197,-0.275427,0.500559,-13.689,-0.670732,1.31098
671.291,89.0034,3.37693,0,9.51781,-0.0119751,-1.13045,-1.15854,-1.79878,-3.5061,-9.89143,-0.273032,0.555645,-14.9085,-1.7378,2.9878
671.301,88.9583,3.37964,0,9.53218,0.126936,-1.08494,-1.43293,-1.98171,-5.09146,-9.96807,-0.270637,0.59636,-15.6098,-2.16463,2.71341
671.311,88.9142,3.38683,0,9.6639,0.117356,-1.03704,-2.07317,-2.65244,-5.21341,-9.99921,-0.227527,0.617915,-14.3902,-4.20732,3.56707
671.321,88.8767,3.41395,0,9.8076,0.0886157,-1.22864,-0.945122,-2.40854,-5,-10.0758,-0.227527,0.711321,-15.8841,-6.4939,4.2378
671.331,88.8454,3.4424,0,9.87946,0.0766406,-1.28134,-0.0914634,-0.884146,-4.60366,-10.0687,-0.205972,0.720901,-16.8598,-7.34756,5.54878
671.341,88.8163,3.4722,0,9.77168,0.0886157,-1.1041,-0.762195,-0.518293,-4.29878,-10.0256,-0.196392,0.728086,-18.5366,-8.2622,4.5122
671.351,88.7815,3.51882,0,9.8124,0.134121,-1.02746,-0.914634,-0.853659,-4.39024,-9.98244,-0.186812,0.804727,-21.0061,-8.07927,4.54268
671.361,88.756,3.58391,0,9.91299,0.146096,-1.1544,-0.914634,-1.31098,-3.41463,-9.89383,-0.253872,0.886157,-21.9207,-8.87195,3.84146
671.371,88.7408,3.64862,0,9.94652,0.160466,-1.33882,0.27439,-0.335366,-2.31707,-9.90101,-0.328118,0.895737,-22.9268,-9.78659,3.9939
671.381,88.7336,3.71428,0,9.89862,0.102986,-1.43701,0.914634,2.59146,-2.31707,-9.88425,-0.366438,0.910107,-22.1037,-9.20732,5.82317
671.391,88.7204,3.76165,0,9.77647,0.117356,-1.44899,2.16463,5.45732,-2.68293,-9.87467,-0.313748,0.840652,-21.2805,-8.96341,5.7622
671.401,88.6945,3.7942,0,9.72378,0.229922,-1.30529,2.7439,8.17073,-2.46951,-9.82197,-0.371228,0.780776,-18.5671,-7.65244,6.12805
671.411,88.6645,3.81773,0,9.68306,0.270637,-1.01309,2.46951,7.86585,-2.34756,-9.83395,-0.304167,0.747246,-16.4024,-8.62805,5.82317
671.421,88.6417,3.85749,0,9.62079,0.237107,-0.934058,2.22561,6.43293,-2.13415,-9.82437,-0.287402,0.819097,-15.122,-11.311,5.06098
671.431,88.6221,3.88585,0,9.65911,0.263452,-0.989143,2.10366,5.2439,-1.37195,-9.78844,-0.244292,0.773591,-13.9634,-11.0671,4.72561
671.441,88.6223,3.90626,0,9.72617,0.208367,-0.893342,1.82927,4.08537,-0.640244,-9.77407,-0.246687,0.742456,-14.0244,-11.5854,3.01829
671.451,88.6289,3.91526,0,9.73096,0.215552,-0.917292,1.46341,2.77439,0,-9.74054,-0.289797,0.694556,-13.6585,-11.0671,3.84146
671.461,88.643,3.93575,0,9.73096,0.210762,-0.993933,1.46341,2.28659,0.97561,-9.77647,-0.332908,0.747246,-12.9878,-12.5305,2.9878
671.471,88.6561,3.94742,0,9.72378,0.253872,-0.895737,1.25,0.97561,1.7378,-9.8555,-0.270637,0.718506,-12.8049,-12.2561,2.80488
671.481,88.6873,3.93399,0,9.67588,0.155676,-0.883762,0.670732,-1.0061,2.10366,-9.88425,-0.292192,0.613125,-13.1098,-11.8902,3.41463
671.491,88.7315,3.92509,0,9.57768,0.0598755,-0.871787,0.457317,-2.65244,1.76829,-9.93933,-0.316143,0.63468,-10.3659,-11.189,3.78049
671.501,88.7772,3.90283,0,9.61121,0.0431104,-0.919688,0.396341,-2.89634,1.28049,-9.97286,-0.270637,0.5772,-7.56098,-10.2439,3.17073
671.511,88.8186,3.89531,0,9.72857,0.0550855,-0.926873,0,-3.38415,0.97561,-9.9537,-0.289797,0.637075,-6.67683,-10.2439,3.96341
671.521,88.8587,3.88166,0,9.71659,0.0598755,-0.993933,-0.518293,-3.84146,0.762195,-9.92257,-0.277822,0.608335,-5.60976,-8.56707,2.83537
671.531,88.9132,3.86733,0,9.79563,-0.0119751,-0.996328,-0.792683,-3.62805,0.670732,-9.84353,-0.201182,0.598755,-6.28049,-7.92683,1.79878
671.541,88.9554,3.84598,0,9.72857,0.0407153,-1.08973,-1.37195,-3.32317,0.548781,-9.78844,-0.158071,0.565225,-7.22561,-5.54878,2.62195
671.551,89.0204,3.81974,0,9.57289,-0.0239502,-1.02746,-2.07317,-3.75,0.426829,-9.74054,-0.172441,0.538879,-8.07927,-5.09146,1.76829
671.561,89.0848,3.78234,0,9.62319,-0.0263452,-0.984353,-2.19512,-4.96951,-0.182927,-9.75491,-0.138911,0.486189,-8.9939,-5.73171,0.884146
671.571,89.1216,3.75745,0,9.64235,-0.0239502,-1.08973,-1.61585,-6.28049,-0.731707,-9.83635,-0.217947,0.534089,-12.8659,-9.26829,0.396341
671.581,89.1217,3.73881,0,9.58008,0.110171,-1.19511,-1.21951,-6.4939,-0.884146,-9.90341,-0.273032,0.55804,-13.2622,-12.4695,-0.914634
671.591,89.1108,3.74841,0,9.50583,0.100591,-1.16877,-0.792683,-5.67073,-1.89024,-9.99202,-0.282612,0.680186,-14.3902,-17.561,0.548781
671.601,89.093,3.75872,0,9.5202,0.100591,-1.05141,-1.12805,-6.52439,-2.53049,-10.0088,-0.325723,0.682581,-13.4756,-21.6768,2.04268
671.611,89.0689,3.79852,0,9.64235,0.143701,-1.12087,-1.03659,-6.06707,-2.59146,-10.0279,-0.318538,0.814307,-13.2012,-24.5427,1.18902
671.621,89.0494,3.83985,0,9.77886,0.0981958,-1.33163,-0.914634,-4.29878,-2.80488,-10.0208,-0.340093,0.823887,-12.8963,-28.689,3.41463
671.631,89.0359,3.87548,0,9.90101,0.0359253,-1.52084,-0.335366,-2.10366,-3.01829,-10.0758,-0.316143,0.807122,-13.628,-32.2561,3.65854
671.641,89.0298,3.91317,0,9.89622,-0.0431104,-1.42264,0.518293,-0.640244,-3.2622,-10.1046,-0.325723,0.821492,-15.6098,-36.25,3.44512
671.651,89.0193,3.96238,0,9.93933,-0.0431104,-1.29092,0.731707,0.182927,-3.65854,-10.1309,-0.263452,0.881367,-16.311,-37.1037,5.64024
671.661,89.0082,4.03535,0,10.1429,0.0119751,-1.31487,0.97561,1.28049,-3.10976,-10.1309,-0.304167,0.993933,-20.2744,-40.7622,5.2439
671.671,89.0051,4.08886,0,10.2052,0.00958008,-1.45617,1.76829,2.59146,-2.43902,-10.1214,-0.270637,0.917292,-22.4695,-42.0732,7.37805
671.681,89.014,4.15427,0,10.1237,-0.0167651,-1.66933,2.95732,6.34146,-1.79878,-10.1237,-0.277822,0.979563,-25.6098,-43.2012,7.10366
671.691,89.0207,4.23552,0,9.8579,-0.0215552,-1.55676,3.65854,10.5183,-2.07317,-10.107,-0.335303,1.06099,-26.8902,-43.1098,6.82927
671.701,89.0049,4.30507,0,9.74294,0.0550855,-1.35798,3.87195,13.3232,-3.07927,-10.1094,-0.352068,1.02267,-27.8659,-43.5061,6.18902
671.711,88.9735,4.34596,0,9.63756,0.146096,-1.11129,4.11585,15.122,-3.47561,-10.0711,-0.347278,0.900527,-26.6768,-46.0976,6.40244
671.721,88.9342,4.37621,0,9.64953,0.198787,-0.929268,3.71951,13.4146,-3.68902,-10.0016,-0.378413,0.852627,-25.6402,-47.9268,5.54878
671.731,88.897,4.4101,0,9.65911,0.265847,-0.869392,3.84146,10.0305,-2.59146,-9.91538,-0.399968,0.864602,-23.1707,-50.1829,6.61585
671.741,88.8644,4.45014,0,9.68306,0.277822,-0.828677,3.20122,7.53049,-1.85976,-9.86269,-0.361648,0.888552,-20.9146,-55.2134,7.53049
671.751,88.8548,4.50981,0,9.66869,0.167651,-0.811912,3.01829,5.85366,-1.43293,-9.82197,-0.304167,0.974773,-19.878,-58.4451,7.34756
671.761,88.8602,4.55268,0,9.70222,0.129331,-0.852627,2.40854,4.81707,-0.914634,-9.87467,-0.273032,0.914897,-18.4451,-60.3963,8.59756
671.771,88.8832,4.6051,0,9.64953,0.0646655,-0.855022,1.98171,3.90244,-0.792683,-9.90101,-0.234712,0.965193,-19.5427,-62.3476,9.42073
671.781,88.9077,4.66066,0,9.70701,0.0910107,-0.859812,1.76829,2.7439,-0.396341,-9.94891,-0.198787,0.991538,-21.8598,-63.9634,11.0976
671.791,88.9666,4.67186,0,9.68785,0.00718506,-0.821492,1.55488,0.792683,-0.152439,-10.0016,-0.220342,0.809517,-22.0122,-63.9024,12.1341
671.801,89.0197,4.67848,0,9.59205,0,-0.778381,1.03659,-1.03659,-0.335366,-10.0112,-0.227527,0.790356,-22.1646,-65.6402,12.5
671.811,89.0592,4.65987,0,9.55852,-0.0598755,-0.771196,0.792683,-1.92073,-1.06707,-10.0184,-0.232317,0.680186,-22.1037,-65.5793,12.2561
671.821,89.0732,4.65138,0,9.54176,-0.0598755,-0.869392,0.121951,-3.29268,-2.07317,-10.0447,-0.277822,0.720901,-19.7256,-68.75,12.622
671.831,89.0679,4.64279,0,9.62558,-0.0359253,-0.938848,0,-3.23171,-3.10976,-10.0279,-0.344883,0.716111,-17.6524,-70.7012,10.9756
671.841,89.0495,4.62848,0,9.68067,0,-1.02028,-0.27439,-3.38415,-3.87195,-10.004,-0.366438,0.687371,-16.7073,-70.8841,10.0915
671.851,89.0193,4.62469,0,9.71659,0.0550855,-0.907712,-0.579268,-3.96341,-4.39024,-9.93694,-0.404758,0.728086,-13.2927,-69.1463,10.6098
671.861,88.9856,4.61794,0,9.72138,0.0670605,-0.924478,-1.28049,-4.87805,-4.66463,-9.83874,-0.423918,0.706531,-11.0976,-70.061,10.8841
671.871,88.9552,4.63686,0,9.65672,0.0622705,-0.881367,-1.70732,-6.61585,-4.45122,-9.78126,-0.490979,0.809517,-9.7561,-73.6585,12.0122
671.881,88.9244,4.68634,0,9.6663,0.0766406,-0.857417,-2.40854,-7.34756,-4.39024,-9.8076,-0.498164,0.946033,-6.46341,-76.1281,11.4024
671.891,88.8944,4.75925,0,9.74294,0.0718506,-0.986748,-2.95732,-7.53049,-4.42073,-9.76449,-0.471819,1.04902,-4.42073,-79.9085,11.311
671.901,88.8642,4.83252,0,9.6663,0.0790356,-1.02986,-3.14024,-8.84146,-4.42073,-9.88185,-0.414338,1.07297,-2.9878,-83.3841,10.2439
671.911,88.8325,4.90008,0,9.65911,0.0814307,-1.01788,-3.32317,-9.54268,-4.60366,-9.95849,-0.285007,1.06818,-2.62195,-84.0854,8.10976
671.921,88.7783,4.96772,0,9.64235,0.251477,-1.1065,-3.5061,-9.7561,-4.84756,-10.107,-0.182021,1.09692,-3.44512,-83.6585,7.0122
671.931,88.7343,5.0688,0,9.48428,0.205972,-1.13524,-3.44512,-9.78659,-4.45122,-10.2124,-0.165256,1.26936,-1.61585,-87.8659,4.29878
671.941,88.7032,5.16309,0,9.63516,0.0263452,-0.950823,-3.96341,-11.9207,-5.45732,-10.3201,-0.213157,1.26457,-4.17683,-93.75,0.670732
671.951,88.6655,5.25983,0,9.69025,0.0287402,-1.13524,-3.78049,-11.9207,-6.15854,-10.3393,-0.201182,1.29092,-2.95732,-98.811,-2.59146
671.961,88.6201,5.38151,0,9.69504,0.0646655,-1.30768,-3.07927,-11.2805,-6.58537,-10.2986,-0.213157,1.41306,-3.68902,-105.03,-2.7439
671.971,88.5495,5.51055,0,9.70941,0.196392,-1.27176,-3.32317,-9.7561,-7.65244,-10.2291,-0.174836,1.45378,-3.17073,-111.402,-2.40854
671.981,88.4843,5.64477,0,9.77647,0.220342,-1.25499,-3.96341,-9.69512,-6.98171,-10.0758,-0.0550855,1.47533,-5.57927,-115.091,0.731707
671.991,88.4315,5.79556,0,9.71899,0.167651,-1.13045,-3.84146,-11.0976,-6.46341,-9.94652,-0.00958008,1.55197,-8.20122,-118.018,4.5122
672.001,88.3906,5.9827,0,9.69504,0.0790356,-1.31247,-3.2622,-11.25,-6.43293,-9.89383,-0.100591,1.7292,-12.8659,-122.774,9.14634
672.011,88.3388,6.17592,0,9.75012,0.117356,-1.35079,-3.04878,-10,-7.16463,-9.9058,-0.112566,1.78908,-17.5305,-126.098,13.872
672.021,88.2892,6.3838,0,9.71659,0.114961,-1.26218,-3.35366,-10.5183,-7.07317,-9.9082,-0.215552,1.88967,-22.1646,-126.86,15.8841
672.031,88.23,6.57406,0,9.85072,0.263452,-1.45617,-3.23171,-10.7927,-6.40244,-9.88664,-0.296982,1.84177,-26.6463,-128.415,16.4024
672.041,88.1738,6.78653,0,9.89383,0.308958,-1.52084,-2.86585,-9.66463,-5.70122,-9.84832,-0.330513,1.96631,-27.8049,-131.006,15.4573
672.051,88.1346,6.99697,0,9.86748,0.220342,-1.75076,-2.07317,-6.67683,-5.12195,-9.81719,-0.364043,1.98547,-26.7073,-134.756,14.6951
672.061,88.1039,7.18794,0,9.82197,0.138911,-1.76992,-0.609756,-3.17073,-5.30488,-9.73336,-0.419128,1.91602,-22.8963,-138.049,14.5427
672.071,88.0836,7.38182,0,9.84832,0.0119751,-1.65496,0.945122,-0.579268,-5.82317,-9.69264,-0.534089,1.95194,-18.4451,-140.945,16.0671
672.081,88.0454,7.57673,0,9.87706,0.155676,-1.67172,2.07317,1.55488,-5.97561,-9.65432,-0.574805,1.98068,-13.3537,-143.445,17.9268
672.091,87.9993,7.77038,0,9.77407,0.182021,-1.57592,1.7378,3.65854,-6.52439,-9.62079,-0.579595,1.99984,-8.9939,-146.311,20.0305
672.101,87.9559,7.95453,0,9.79084,0.112566,-1.52563,2.0122,6.0061,-7.16463,-9.62798,-0.55325,1.99266,-3.84146,-147.012,21.4939
672.111,87.9035,8.15246,0,9.92736,0.146096,-1.56155,2.9878,8.41463,-7.80488,-9.65432,-0.431104,2.09085,-1.52439,-148.049,22.6829
672.121,87.8389,8.35461,0,9.84353,0.306563,-1.45378,2.83537,8.93293,-7.22561,-9.69504,-0.349673,2.15073,1.70732,-151.433,22.3171
672.131,87.7725,8.56661,0,9.74054,0.251477,-1.37235,2.22561,9.17683,-8.17073,-9.76928,-0.275427,2.24413,4.63415,-155.732,19.5732
672.141,87.7015,8.76264,0,9.64474,0.261057,-1.3484,1.28049,8.84146,-8.62805,-9.8076,-0.237107,2.21539,7.77439,-159.268,16.128
672.151,87.6349,8.96532,0,9.60163,0.225132,-1.20469,0.609756,7.80488,-8.75,-9.78844,-0.136516,2.27527,8.9939,-160.671,10.4878
672.161,87.5689,9.17644,0,9.6639,0.239502,-1.19032,1.28049,7.04268,-8.65854,-9.79323,-0.102986,2.34951,9.08537,-162.744,5.54878
672.171,87.4876,9.40219,0,9.6663,0.392783,-1.21427,1.52439,6.7378,-8.5061,-9.72617,-0.0383203,2.43573,9.26829,-165.244,1.34146
672.181,87.4279,9.61725,0,9.54894,0.234712,-1.1041,0.731707,6.37195,-8.35366,-9.63995,-0.0287402,2.4046,6.89024,-167.043,-1.12805
672.191,87.3786,9.80987,0,9.47709,0.0718506,-1.08255,-0.243902,5.4878,-9.39024,-9.59205,0.00718506,2.32796,5.15244,-169.634,-3.20122
672.201,87.2977,10.0385,0,9.49625,0.205972,-1.05141,-0.731707,5.21341,-11.0671,-9.4747,0.0311353,2.49082,2.95732,-172.683,-4.35976
672.211,87.208,10.2392,0,9.7621,0.227527,-1.17835,-0.762195,5.67073,-11.9512,-9.49386,0.00239502,2.40699,0.152439,-177.591,-5.45732
672.221,87.1075,10.4673,0,9.78605,0.227527,-1.21427,-0.609756,4.72561,-13.2317,-9.53936,-0.0862207,2.57704,-1.92073,-178.14,-7.40854
672.231,87.001,10.724,0,9.68306,0.138911,-1.17116,-1.21951,5.36585,-15.0915,-9.58247,-0.0958008,2.75906,-2.7439,-179.482,-8.2622
672.241,86.8855,11.0143,0,9.69264,0.0311353,-1.14003,-1.40244,6.09756,-17.5305,-9.64235,-0.0311353,2.97701,-5.82317,-181.341,-7.7439
672.251,86.738,11.3133,0,9.64714,0.148491,-1.12087,-1.82927,6.15854,-19.6037,-9.71899,0,3.09197,-9.05488,-185.183,-8.01829
672.261,86.5614,11.6178,0,9.88664,0.318538,-1.23104,-2.31707,9.14634,-20.9146,-9.74533,0.0670605,3.17819,-15.3354,-189.848,-7.7439
672.271,86.3524,11.913,0,9.8555,0.536484,-1.346,-3.17073,8.87195,-21.9817,-9.79084,0.0670605,3.20214,-20.4268,-194.207,-9.57317
672.281,86.1378,12.2041,0,9.616,0.646655,-1.23344,-3.96341,8.59756,-21.4939,-9.66869,0.114961,3.19496,-24.6341,-197.591,-9.63415
672.291,85.913,12.4867,0,9.34058,0.874182,-0.910107,-4.84756,7.86585,-19.9085,-9.59924,0.0215552,3.18298,-28.1098,-201.22,-11.8598
672.301,85.7483,12.7802,0,9.71899,0.555645,-0.63947,-5.54878,5.18293,-18.4756,-9.50823,-0.0119751,3.25244,-31.0366,-204.817,-12.6524
672.311,85.6082,13.0992,0,9.90341,0.474214,-0.792751,-4.35976,1.18902,-17.378,-9.45314,-0.0622705,3.40332,-33.0488,-209.543,-13.2317
672.321,85.4668,13.3827,0,9.82677,0.507744,-0.977168,-3.96341,-0.914634,-17.3476,-9.46033,-0.234712,3.29555,-31.8902,-212.53,-13.872
672.331,85.2993,13.6944,0,9.72617,0.747246,-1.24781,-3.87195,-0.945122,-17.378,-9.36932,-0.299377,3.44404,-29.8171,-216.463,-14.4512
672.341,85.1129,14.0355,0,9.75252,0.922083,-1.46815,-2.86585,3.10976,-17.5915,-9.33818,-0.423918,3.62127,-27.3476,-224.451,-13.5366
672.351,84.9261,14.3655,0,9.87946,0.941243,-1.38911,-3.14024,6.95122,-17.9268,-9.29986,-0.498164,3.61169,-23.811,-231.555,-14.5122
672.361,84.7518,14.6894,0,9.77886,0.833467,-1.1041,-2.71341,6.4939,-18.2012,-9.27112,-0.589175,3.62845,-19.3598,-236.494,-14.4817
672.371,84.579,15.0313,0,9.84593,0.843047,-1.02507,-1.98171,4.66463,-18.3537,-9.17772,-0.622705,3.73384,-12.6829,-239.543,-13.6585
672.381,84.4081,15.3575,0,9.66151,0.835862,-1.06099,-2.46951,3.20122,-18.4146,-9.16334,-0.60594,3.71468,-7.62195,-242.866,-14.5427
672.391,84.2464,15.6828,0,9.84832,0.847837,-1.06818,-3.14024,2.92683,-17.8659,-9.01485,-0.483794,3.70749,-3.90244,-245.366,-13.5061
672.401,84.0846,16.0613,0,9.83156,0.886157,-1.19272,-3.59756,2.89634,-17.7439,-9.01725,-0.435894,4.01645,-3.2622,-248.872,-12.1646
672.411,83.9316,16.4154,0,9.6639,0.869392,-1.17356,-4.69512,3.35366,-17.1951,-9.00048,-0.318538,3.96136,-5.67073,-252.104,-13.2927
672.421,83.7778,16.7472,0,9.68785,0.838257,-1.03465,-4.90854,3.71951,-17.9878,-8.90947,-0.318538,3.88472,-7.0122,-249.878,-14.2073
672.431,83.6108,17.1169,0,9.67588,0.969983,-0.914897,-4.87805,1.21951,-18.0488,-8.98372,-0.385598,4.15775,-8.65854,-252.348,-14.7256
672.441,83.4642,17.5152,0,9.79084,0.735271,-0.711321,-5.73171,-1.85976,-19.2378,-8.96935,-0.376018,4.35415,-10.2744,-258.537,-16.6768
672.451,83.3179,17.8749,0,9.62798,0.64426,-0.914897,-6.06707,-4.60366,-20.4573,-8.90947,-0.371228,4.21523,-9.84756,-258.384,-19.1768
672.461,83.1435,18.2423,0,9.83395,0.816702,-1.31247,-6.92073,-1.40244,-21.7378,-8.82086,-0.270637,4.2799,-10.5183,-256.585,-18.3537
672.471,82.9675,18.6461,0,10.095,0.855022,-1.40109,-7.62195,3.2622,-22.0732,-8.8472,-0.220342,4.54096,-12.6524,-256.341,-17.5
672.481,82.7981,19.0703,0,10.0064,0.725691,-1.24302,-8.20122,4.48171,-23.1707,-8.81846,-0.153281,4.70621,-15.3049,-256.707,-17.6829
672.491,82.6121,19.5009,0,9.83395,0.747246,-1.09213,-7.37805,6.25,-24.8171,-8.82325,-0.119751,4.82117,-18.1098,-260.732,-14.9695
672.501,82.3845,19.9352,0,9.60882,0.917292,-0.898132,-7.68293,5.09146,-27.1646,-8.83044,-0.0694556,4.92416,-16.7988,-267.5,-14.9695
672.511,82.1384,20.3522,0,10.0208,1.0083,-0.936453,-6.64634,3.44512,-28.9329,-8.78493,-0.191602,4.89781,-15.3049,-267.561,-14.6646
672.521,81.9011,20.7967,0,10.3537,0.986748,-1.11368,-6.95122,-0.701219,-29.1463,-8.77535,-0.376018,5.11576,-13.2317,-270.183,-16.2805
672.531,81.6712,21.2826,0,10.3201,0.780776,-1.42983,-6.43293,-2.9878,-31.1585,-8.79691,-0.546064,5.43669,-10.3354,-272.348,-18.0183
672.541,81.4456,21.8045,0,10.5764,0.637075,-1.54239,-6.79878,-3.2622,-32.9878,-8.74901,-0.651445,5.70494,-9.32927,-273.933,-21.2805
672.551,81.1739,22.3446,0,10.277,0.864602,-1.22386,-5.70122,-7.80488,-35.3659,-8.67237,-0.656235,5.8678,-5.79268,-274.756,-22.2561
672.561,80.8707,22.9123,0,10.0519,0.950823,-1.12566,-4.5122,-5.4878,-37.9268,-8.53585,-0.603545,6.04982,-4.87805,-273.415,-19.878
672.571,80.5317,23.4921,0,9.83395,1.11129,-1.02986,-4.48171,-3.75,-40.061,-8.47597,-0.514929,6.20071,-3.59756,-275.976,-15.5793
672.581,80.1587,24.0991,0,10.1621,1.42743,-1.11608,-5.15244,-5.39634,-41.0671,-8.21013,-0.337698,6.29172,-2.37805,-274.207,-11.311
672.591,79.8048,24.759,0,10.2315,1.31487,-1.22864,-6.64634,-6.61585,-41.25,-8.05445,-0.304167,6.61504,-5.79268,-275.945,-4.84756
672.601,79.4472,25.4415,0,10.2315,1.29331,-1.17116,-6.7378,-7.7439,-42.5915,-7.97542,-0.296982,6.84018,-8.78049,-277.927,-0.609756
672.611,79.0689,26.1232,0,10.3944,1.60466,-0.967588,-7.37805,-10.6402,-42.2256,-7.83411,-0.352068,6.8785,-10.9146,-277.409,0.823171
672.621,78.6666,26.7985,0,10.0375,1.83458,-0.938848,-5.88415,-16.3415,-42.2256,-7.58742,-0.426313,6.78988,-12.622,-273.323,1.15854
672.631,78.2439,27.4926,0,9.93933,2.00224,-1.30529,-7.16463,-11.25,-43.0183,-7.39582,-0.514929,6.89766,-10.8841,-266.677,-0.579268
672.641,77.7914,28.2076,0,9.84353,2.20821,-1.00591,-9.20732,-13.628,-44.3598,-7.17787,-0.584385,6.99585,-12.378,-259.512,-1.31098
672.651,77.3622,28.9478,0,9.96807,2.21539,-1.0562,-9.08537,-16.0366,-43.1402,-6.93598,-0.713716,7.09405,-9.17683,-253.537,-3.81098
672.661,76.9364,29.7401,0,9.82916,2.36388,-0.883762,-8.90244,-20.3659,-41.6463,-6.6845,-0.696951,7.35032,-8.78049,-250.488,-5.42683
672.671,76.5241,30.5456,0,9.88904,2.48843,-1.01309,-8.56707,-21.0061,-39.9085,-6.48092,-0.682581,7.41738,-7.22561,-247.774,-5.54878
672.681,76.131,31.3781,0,9.63516,2.48124,-0.869392,-8.17073,-22.1341,-38.1402,-6.19352,-0.58199,7.47486,-9.87805,-245.091,-1.95122
672.691,75.7955,32.1991,0,9.616,2.19623,-0.962798,-8.07927,-23.5061,-36.2805,-5.97557,-0.608335,7.3599,-12.3476,-238.872,-0.0304878
672.701,75.4611,33.0169,0,9.65193,2.34472,-1.19751,-7.43902,-20.061,-35.2439,-5.74326,-0.55804,7.27367,-13.7805,-231.25,0.823171
672.711,75.1329,33.8439,0,9.75731,2.5507,-1.2526,-6.70732,-16.6159,-33.2622,-5.45825,-0.495769,7.18985,-14.0549,-223.689,1.25
672.721,74.8359,34.688,0,9.53457,2.53154,-1.32445,-8.62805,-10.8841,-30.3049,-5.13013,-0.342488,7.08686,-13.8415,-214.238,3.71951
672.731,74.5814,35.5243,0,9.27112,2.24892,-1.19751,-10.1829,-2.19512,-29.0854,-5.01996,-0.347278,7.1156,-15.7927,-203.506,6.95122
672.741,74.2927,36.3478,0,8.71548,2.41178,-1.29092,-10.8841,-2.46951,-29.3598,-4.87386,-0.371228,7.05812,-17.561,-191.341,5.39634
672.751,74.0228,37.1659,0,8.81367,2.37825,-1.32684,-12.561,-3.53659,-28.7805,-4.74932,-0.366438,7.07249,-17.2256,-179.695,6.18902
672.761,73.7237,37.9262,0,8.42568,2.5004,-1.12087,-12.9268,-11.1585,-29.3902,-4.82117,-0.447869,7.02459,-16.4329,-167.226,2.95732
672.771,73.4602,38.6608,0,8.7993,2.51238,-0.953218,-10.9451,-11.6159,-27.5915,-4.88584,-0.495769,7.16111,-14.2073,-158.049,0.792683
672.781,73.1992,39.3544,0,8.52627,2.56507,-0.58678,-9.45122,-15.3354,-26.2195,-4.96248,-0.483794,7.20422,-10.7317,-148.537,-1.85976
672.791,72.9329,40.0304,0,8.51908,2.71116,-0.914897,-9.48171,-15.2439,-25.4268,-4.98404,-0.462239,7.31439,-11.128,-140.64,-1.37195
672.801,72.7072,40.6786,0,9.137,2.6944,-1.45138,-7.95732,-11.0366,-24.3293,-4.96248,-0.404758,7.28565,-6.67683,-133.201,-0.640244
672.811,72.477,41.2846,0,9.16095,2.78541,-1.43701,-7.46951,-8.32317,-24.2683,-5.07744,-0.378413,7.34792,-3.20122,-126.707,-0.0914634
672.821,72.2193,41.8516,0,8.99809,3.06562,-1.23104,-7.34756,-7.5,-23.6585,-5.13253,-0.368833,7.32876,0.243902,-122.439,3.01829
672.831,71.9769,42.3917,0,8.98611,3.01772,-1.24781,-6.4939,-5.82317,-23.1402,-5.21156,-0.419128,7.41498,0.609756,-119.573,5.21341
672.841,71.7318,42.9398,0,9.24238,3.14706,-1.42983,-7.0122,-1.64634,-23.4146,-5.23791,-0.495769,7.66167,0.304878,-119.451,6.18902
672.851,71.479,43.4897,0,9.27112,3.23088,-1.31008,-7.31707,-5.39634,-23.872,-5.30976,-0.469424,7.94428,-2.56098,-117.805,7.46951
672.861,71.2138,44.0398,0,9.78366,3.49912,-1.74357,-7.7439,-1.15854,-24.6951,-5.39119,-0.402363,8.23647,-3.62805,-118.78,9.81707
672.871,70.8899,44.5549,0,9.04838,3.73863,-1.36277,-5.7622,-6.34146,-25.5793,-5.49657,-0.390388,8.29395,-4.39024,-117.348,11.25
672.881,70.5486,45.0398,0,9.14418,3.96615,-1.45378,-3.44512,-2.31707,-25.9756,-5.65943,-0.431104,8.4616,-5.54878,-116.25,12.2561
672.891,70.173,45.4829,0,8.90229,4.20326,-1.23104,-3.9939,-0.548781,-26.4329,-5.8175,-0.438289,8.5095,-5,-118.689,13.1402
672.901,69.8328,45.8961,0,9.68067,4.2296,-1.6837,-2.04268,0.0609756,-27.0122,-5.89893,-0.440684,8.52387,-3.47561,-121.921,10.6098
672.911,69.4704,46.2833,0,9.53936,4.33499,-1.54239,-1.52439,-8.47561,-28.2622,-5.98515,-0.471819,8.56219,0.792683,-126.982,11.25
672.921,69.1099,46.6838,0,9.82916,4.43558,-1.63101,-1.34146,-4.93902,-29.1159,-6.03066,-0.507744,8.8496,3.38415,-135.274,10.122
672.931,68.7084,47.0802,0,9.69025,4.63197,-1.73639,-2.43902,-2.68293,-31.4634,-6.09293,-0.502954,9.02443,3.84146,-145.305,11.6159
672.941,68.2949,47.4865,0,9.98723,4.79004,-1.85614,-1.43293,0.97561,-33.3537,-6.06898,-0.431104,9.19927,3.93293,-152.409,11.7073
672.951,67.8485,47.8705,0,9.87946,4.98164,-1.75555,-1.58537,-1.28049,-35.2439,-6.10969,-0.368833,9.19687,3.81098,-157.835,13.4146
672.961,67.3664,48.2299,0,9.40764,4.94572,-1.35558,-2.13415,-9.08537,-37.8049,-6.22945,-0.354463,9.2831,4.20732,-163.689,15.3963
672.971,66.8957,48.5676,0,9.71899,4.88584,-1.38911,-3.07927,-8.56707,-39.7561,-6.24861,-0.354463,9.2328,7.65244,-171.128,16.128
672.981,66.4196,48.8982,0,9.72378,4.91219,-1.57113,-2.89634,-8.47561,-41.0366,-6.2534,-0.378413,9.28789,10.5183,-175.335,17.1037
672.991,65.9425,49.2469,0,9.8579,4.89063,-1.94715,-3.47561,-3.07927,-42.9573,-6.1073,-0.414338,9.33818,10.9451,-179.329,15.3659
673.001,65.4608,49.6128,0,9.6663,4.77088,-1.89446,-3.10976,-3.75,-44.6341,-5.93725,-0.469424,9.35016,9.5122,-182.561,14.1463
673.011,64.97,50.0143,0,9.37411,4.55054,-1.83458,-2.59146,-4.5122,-47.3171,-5.71452,-0.376018,9.44117,6.25,-189.085,13.9939
673.021,64.4865,50.4304,0,9.75491,4.64634,-1.73639,-2.77439,-2.5,-48.4451,-5.42711,-0.256267,9.23999,2.83537,-191.951,16.5854
673.032,63.9893,50.8653,0,9.65432,4.69184,-1.75315,-4.96951,-4.20732,-49.9085,-5.24509,-0.227527,9.25675,-0.579268,-191.707,18.8415
673.041,63.4914,51.3086,0,9.68306,4.70382,-1.73878,-6.46341,-5.03049,-51.0061,-5.15408,-0.246687,9.33818,-1.79878,-193.201,19.3598
673.051,62.9758,51.7177,0,9.43159,4.72537,-1.61185,-6.70732,-4.35976,-52.4085,-5.08463,-0.246687,9.05557,-1.55488,-192.47,20.6402
673.061,62.4411,52.1224,0,8.90947,4.59604,-1.52323,-6.43293,-4.39024,-54.0244,-4.96488,-0.246687,8.95498,-1.18902,-190.793,19.7561
673.071,61.9141,52.5347,0,8.83044,4.51461,-1.68609,-4.08537,-3.75,-54.7561,-4.81878,-0.253872,8.90947,1.0061,-190.183,18.5671
673.081,61.3916,52.9333,0,8.7538,4.5218,-1.62861,-2.77439,-8.9939,-54.878,-4.67029,-0.227527,8.66518,1.82927,-186.28,19.6646
673.091,60.8619,53.3352,0,8.48555,4.50503,-1.59269,-4.26829,-11.372,-55.3659,-4.51222,-0.237107,8.55262,2.89634,-181.494,19.6646
673.101,60.3533,53.7527,0,8.44484,4.38768,-1.53042,-4.11585,-12.439,-55.3354,-4.36612,-0.256267,8.56699,3.87195,-178.354,18.9329
673.111,59.8493,54.204,0,8.49274,4.46432,-1.67412,-4.20732,-13.811,-55.3354,-4.17212,-0.273032,8.66039,1.40244,-176.067,20.3659
673.121,59.3622,54.6678,0,8.38017,4.3757,-1.72441,-4.96951,-14.2073,-54.9695,-4.02842,-0.225132,8.66279,-0.426829,-173.079,21.8598
673.131,58.8711,55.1356,0,8.30114,4.45953,-1.83938,-4.48171,-13.7195,-55,-3.89191,-0.210762,8.59812,-3.20122,-168.78,23.7195
673.141,58.3791,55.6055,0,8.26761,4.57449,-1.78668,-3.44512,-14.8476,-54.6341,-3.753,-0.146096,8.50711,-4.7561,-162.927,23.9329
673.151,57.8861,56.0762,0,8.3682,4.73495,-1.91123,-3.20122,-14.2378,-54.6341,-3.6548,-0.136516,8.49034,-2.0122,-158.171,25.5793
673.161,57.3826,56.5346,0,8.18139,4.79962,-1.84656,-4.54268,-10.1524,-54.878,-3.59013,-0.126936,8.4161,-0.0609756,-152.104,25.4268
673.171,56.8912,56.9984,0,8.13109,4.72777,-1.92081,-3.62805,-9.48171,-55.122,-3.54702,-0.191602,8.57417,1.79878,-145.61,25.6707
673.181,56.3938,57.4479,0,7.86524,4.79004,-1.55437,-2.2561,-12.9878,-54.3598,-3.50631,-0.249082,8.52866,2.10366,-141.098,24.3598
673.191,55.903,57.9053,0,7.6928,4.79962,-1.66933,-0.243902,-13.75,-53.4451,-3.37698,-0.220342,8.49753,2.77439,-135.549,24.1768
673.201,55.4065,58.3957,0,7.31918,4.8571,-1.69567,-0.152439,-16.6768,-51.7378,-3.2237,-0.182021,8.69153,2.43902,-129.482,23.6585
673.211,54.9022,58.8954,0,6.84736,4.82357,-1.36037,-0.335366,-25,-50.3049,-3.12311,-0.0790356,8.77296,-0.0609756,-123.14,25.9451
673.221,54.4532,59.388,0,7.32876,4.905,-1.54958,-1.25,-18.5976,-48.4756,-3.00335,0.00958008,8.6077,-3.62805,-115.061,26.372
673.231,54.0258,59.8616,0,7.74789,5.15887,-1.78908,-2.43902,-21.4329,-47.4695,-2.97701,0.0455054,8.5574,-7.83537,-106.738,30.7012
673.241,53.5949,60.3402,0,7.67604,5.26904,-1.94236,-1.79878,-18.9634,-47.0427,-2.97461,0.0335303,8.85439,-8.71951,-104.39,31.0366
673.251,53.1348,60.7876,0,7.64011,5.69536,-2.20102,-2.62195,-17.0122,-46.3415,-3.01533,0.0335303,8.82804,-10.7927,-100.671,28.5976
673.261,52.6771,61.2182,0,7.56826,5.78637,-1.79387,-3.68902,-17.378,-45.6098,-3.00096,-0.0455054,8.81128,-10.5793,-94.4207,26.2805
673.271,52.2027,61.6443,0,7.34552,5.94683,-1.80824,-3.62805,-23.811,-45,-3.04886,-0.0814307,9.12981,-9.39024,-90,23.0793
673.281,51.7352,62.0492,0,7.4078,6.07616,-1.98787,-3.44512,-23.2317,-44.5122,-3.06323,-0.146096,9.12502,-8.01829,-86.189,19.7256
673.291,51.2714,62.4457,0,7.28804,6.10011,-1.94715,-4.2378,-25.4878,-43.9329,-2.96264,-0.107776,8.94779,-5.7622,-77.1646,17.378
673.301,50.8086,62.8499,0,7.15392,6.13365,-1.55916,-3.71951,-28.2927,-43.3841,-2.86923,-0.174836,8.99809,-5.70122,-68.4756,18.8415
673.311,50.3359,63.2533,0,7.01741,6.2534,-1.84417,-4.7561,-29.2988,-43.1098,-2.85247,-0.222737,9.16813,-6.34146,-64.6037,19.939
673.321,49.8983,63.6473,0,7.08686,6.16718,-1.96631,-5.4878,-25.1829,-41.8598,-2.79499,-0.227527,9.09149,-7.5,-58.75,23.689
673.331,49.5088,64.0441,0,7.06291,5.7696,-1.90165,-4.93902,-21.4329,-41.4939,-2.66326,-0.148491,8.9454,-9.7561,-50,25.7622
673.341,49.1117,64.4524,0,6.70366,5.74805,-1.97589,-5.97561,-21.1585,-40.2744,-2.53154,-0.0167651,8.91905,-10.2134,-40.4573,27.378
673.351,48.7374,64.8688,0,6.50487,5.63788,-2.23216,-6.34146,-24.8171,-38.1402,-2.42136,0.117356,8.92624,-10.1524,-29.2378,29.5732
673.361,48.3732,65.2873,0,6.45458,5.77679,-1.91123,-7.31707,-23.628,-36.0061,-2.31359,0.0934058,8.8472,-10.7317,-18.3537,30.0915
673.371,48.0134,65.719,0,6.43542,5.97078,-1.96152,-8.01829,-23.7195,-34.2073,-2.20581,0.0479004,8.92863,-12.5,-7.19512,29.0549
673.381,47.6558,67.0532,0,6.54319,6.13365,-2.11241,-8.44512,-25.2744,-34.1159,-2.15791,-0.0239502,9.0867,-14.1768,0.396341,27.6829
673.391,47.338,67.441,0,6.96951,6.26537,-2.32317,-8.5061,-23.689,-33.2317,-2.11001,-0.0479004,9.02443,-14.3598,6.70732,25.3963
673.401,47.0416,67.8052,0,7.13955,6.35159,-2.31359,-8.62805,-22.9268,-32.2866,-2.11959,-0.0622705,8.97653,-15.0305,15.7012,24.2988
673.411,46.7289,68.1567,0,6.69887,6.33243,-2.15312,-8.9939,-22.5305,-31.0366,-2.11241,-0.0167651,9.00767,-15.2134,24.5122,24.1159
673.421,46.3919,68.4867,0,6.3492,6.39949,-2.16989,-9.20732,-22.9268,-30.3963,-2.14354,-0.00958008,9.03162,-17.2866,31.6463,23.5671
673.432,46.0962,68.7881,0,6.42823,6.2055,-2.28006,-8.5061,-22.0122,-29.3902,-2.24413,-0.00958008,9.19687,-17.8354,38.5366,23.872
673.441,45.7884,69.0571,0,6.33722,6.41626,-2.33514,-8.68902,-22.7744,-28.4451,-2.36867,0.0622705,9.35734,-22.2561,43.1707,25.4573
673.451,45.4363,69.2781,0,6.10251,6.74198,-2.24413,-10,-25.0915,-28.5061,-2.47885,0.0670605,9.18011,-21.2805,50.8537,27.4085
673.461,45.0468,69.4675,0,5.81511,6.96232,-2.10283,-9.5122,-27.0732,-28.3841,-2.57704,0.0766406,9.20166,-19.6951,58.9329,28.0488
673.471,44.6678,69.6161,0,6.06179,7.19943,-2.5507,-10.2744,-24.9085,-28.5671,-2.76625,0.0598755,9.35016,-18.2317,60.7622,27.7744
673.481,44.2762,69.7301,0,6.0091,7.36708,-2.37586,-11.25,-25.5183,-28.811,-2.90995,-0.00479004,9.40524,-19.8476,63.2317,26.4634
673.491,43.8989,69.8091,0,6.1049,7.41738,-2.33993,-11.25,-25.8232,-28.6585,-3.04646,-0.0191602,9.41243,-23.5671,68.4756,24.4817
673.501,43.5382,69.8772,0,6.13365,7.44851,-2.64889,-12.378,-24.0244,-27.7744,-3.08718,0.0143701,9.44117,-26.9817,73.6281,20.9451
673.511,43.2258,69.9361,0,6.35638,7.22338,-2.62255,-11.7683,-21.7378,-27.4085,-3.05844,0.0790356,9.2807,-29.7561,79.939,18.5366
673.521,42.8979,70.0003,0,6.06898,7.18027,-2.50519,-12.3476,-23.4146,-27.2866,-3.04407,0.126936,9.35495,-30.3659,84.6951,17.8354
673.531,42.557,70.0541,0,5.83906,7.23056,-2.5962,-12.3171,-24.9085,-26.6768,-3.06083,0.0862207,9.30944,-31.6768,88.7805,18.811
673.541,42.2298,70.0954,0,5.90612,7.22338,-2.71595,-11.7378,-24.7561,-26.6768,-3.04167,0.00718506,9.12981,-30.061,96.7073,17.2866
673.551,41.8924,70.1359,0,5.77439,7.30481,-2.67763,-12.5305,-27.4085,-26.4634,-3.08479,-0.0407153,9.28789,-32.8659,102.835,15.4268
673.561,41.5357,70.1642,0,5.6283,7.41498,-2.56028,-13.2317,-29.878,-26.8293,-3.08479,-0.129331,9.14658,-32.2561,103.415,13.689
673.571,41.1887,70.1834,0,5.61872,7.43414,-2.59141,-13.4756,-31.0366,-26.311,-3.10155,-0.167651,9.10826,-30.2134,110.366,12.1341
673.581,40.862,70.1756,0,5.73847,7.47725,-2.51238,-15.5793,-32.2561,-25.8232,-3.21891,-0.246687,9.12263,-30.7012,116.494,8.75
673.591,40.5402,70.1563,0,5.68099,7.38385,-2.47885,-15.9756,-30.7012,-26.128,-3.26681,-0.287402,9.11544,-30.3659,120.64,4.96951
673.601,40.235,70.11,0,5.79116,7.44612,-2.71595,-16.7988,-31.372,-25.7012,-3.33387,-0.304167,8.97174,-29.9695,126.89,3.04878
673.611,39.9299,70.0422,0,5.64506,7.44133,-2.31838,-16.7683,-33.4756,-24.9085,-3.42488,-0.347278,8.94779,-28.6585,132.835,-0.609756
673.621,39.6585,69.9578,0,5.88456,7.37187,-2.58423,-18.0183,-33.5976,-24.9695,-3.46799,-0.337698,8.85439,-30.061,141.22,-1.61585
673.631,39.3605,69.8395,0,5.5325,7.31199,-2.49801,-18.9329,-33.2622,-25.2134,-3.55181,-0.335303,8.66039,-30.7012,147.439,-1.40244
673.641,39.0951,69.7102,0,5.85582,7.49162,-2.62255,-20.2744,-33.4146,-24.3293,-3.62366,-0.294587,8.67476,-31.4939,152.683,-1.70732
673.651,38.83,69.5666,0,5.68338,7.49402,-2.49801,-21.0366,-34.2073,-23.1402,-3.66438,-0.285007,8.57656,-31.6159,157.866,-0.487805
673.661,38.5744,69.4013,0,5.66183,7.48923,-2.47885,-22.622,-33.5061,-22.5305,-3.72905,-0.285007,8.45681,-30.3963,164.085,-1.12805
673.671,38.3212,69.2158,0,5.59956,7.5036,-2.56028,-23.3232,-32.1951,-22.0732,-3.8464,-0.318538,8.464,-26.8902,170.305,-0.579268
673.681,38.071,68.9949,0,5.4822,7.45091,-2.40699,-23.9329,-33.4756,-21.4939,-3.91107,-0.323328,8.20773,-23.2622,178.567,-0.304878
673.691,37.8251,68.7627,0,5.50376,7.53952,-2.56746,-24.2988,-32.8049,-21.128,-3.99489,-0.431104,8.20534,-21.2805,183.72,-0.365854
673.701,37.5806,68.5084,0,5.55645,7.65688,-2.65608,-25.3963,-31.5244,-21.1585,-4.12183,-0.536484,8.18378,-16.9512,187.226,-1.70732
673.711,37.3477,68.2367,0,5.5325,7.66406,-2.55309,-26.311,-31.7683,-20.1829,-4.19368,-0.58199,8.08798,-14.7561,190.976,-4.48171
673.721,37.1619,67.9346,0,5.93246,7.5994,-2.72793,-25.9756,-30.061,-20.2439,-4.23679,-0.550855,7.82932,-12.3476,196.677,-6.70732
673.731,36.9891,67.6387,0,5.8654,7.50599,-2.75427,-25.4878,-28.3232,-19.3598,-4.27271,-0.498164,7.85566,-10.2134,201.25,-8.38415
673.741,36.8245,67.3527,0,5.76481,7.40061,-2.95785,-24.878,-25.1524,-18.689,-4.28709,-0.395178,7.87003,-7.7439,202.591,-6.92073
673.751,36.6647,67.0664,0,5.54687,7.20182,-2.84049,-23.4756,-22.8354,-17.8963,-4.32062,-0.335303,7.8389,-4.84756,205.152,-6.06707
673.761,36.5062,66.799,0,5.44627,7.18027,-2.8381,-22.8963,-22.5915,-17.2256,-4.38528,-0.189207,8.02571,-6.40244,208.78,-6.12805
673.771,36.3525,66.5129,0,5.33131,7.01501,-2.96264,-22.5915,-23.3841,-17.1646,-4.44037,-0.124541,7.89159,-6.89024,214.573,-6.76829
673.781,36.1935,66.1929,0,5.27623,7.00783,-2.70877,-21.189,-24.3293,-17.5,-4.4739,-0.00479004,7.60419,-9.57317,221.829,-7.7439
673.791,36.0282,65.8662,0,5.26665,6.98627,-2.72074,-20.0305,-24.8171,-18.5366,-4.55293,0.0814307,7.60179,-10.0305,229.665,-8.2622
673.801,35.8553,65.5025,0,5.19959,7.05812,-2.69679,-18.689,-23.6585,-18.3537,-4.70142,0.143701,7.47486,-9.42073,232.287,-8.01829
673.811,35.6938,65.1172,0,5.45825,7.15871,-2.79738,-16.7683,-18.689,-19.4817,-4.84273,0.0742456,7.43893,-11.9512,235.03,-9.02439
673.821,35.5214,64.7397,0,5.54447,7.31199,-2.86923,-15.122,-14.2988,-20.6098,-4.97925,0.0167651,7.59461,-14.8476,235.701,-10.7622
673.831,35.3077,64.3377,0,5.41993,7.60179,-2.83331,-15,-13.9024,-21.7378,-5.13253,-0.0455054,7.54431,-15.8232,239.055,-13.811
673.841,35.0669,63.917,0,5.47501,7.90835,-2.71116,-15,-13.75,-23.3232,-5.24749,-0.138911,7.47246,-16.6768,244.299,-15.1829
673.851,34.7747,63.4543,0,5.10618,8.04248,-2.45969,-16.3415,-15.061,-24.3902,-5.37682,-0.201182,7.25691,-16.8293,248.415,-17.5305
673.861,34.4718,63.0036,0,4.96727,8.07601,-2.30401,-16.9207,-17.4695,-24.4207,-5.51094,-0.198787,7.39822,-17.1646,251.677,-17.1646
673.871,34.1512,62.536,0,4.78764,8.0808,-2.40939,-17.378,-18.0793,-24.9085,-5.64746,-0.268242,7.34552,-16.7378,252.774,-17.8049
673.881,33.8476,62.0408,0,4.88584,7.97062,-2.57944,-17.2256,-19.4512,-25.5793,-5.78397,-0.268242,7.21859,-17.2866,255.427,-16.6463
673.891,33.5701,61.5032,0,5.08702,7.9323,-2.56746,-17.5305,-21.6159,-25.9146,-5.93246,-0.225132,7.00783,-16.3415,259.543,-16.128
673.901,33.3061,60.9751,0,5.16366,7.87243,-2.62015,-17.5,-19.4207,-26.311,-5.96839,-0.196392,6.97909,-17.8354,262.256,-15.4268
673.911,33.0471,60.4381,0,5.18282,7.76465,-2.4046,-17.3171,-16.5854,-27.2866,-6.04742,-0.0886157,6.88808,-18.4451,263.476,-13.1098
673.921,32.7529,59.9064,0,4.90261,7.80297,-2.45729,-16.8293,-15.1524,-28.1707,-6.09772,-0.0862207,6.84736,-19.6037,262.805,-11.311
673.931,32.4468,59.3612,0,4.67747,7.74789,-2.31838,-16.0061,-15.5793,-27.8963,-6.14802,-0.0838257,6.69887,-22.0427,265.976,-9.69512
673.941,32.1407,58.8174,0,4.62957,7.6952,-2.44052,-15.0915,-18.0488,-28.3537,-6.24142,-0.117356,6.6821,-23.8415,267.957,-10.4573
673.951,31.8525,58.2678,0,4.79483,7.77184,-2.57225,-12.7744,-17.0732,-28.4451,-6.2055,-0.146096,6.48811,-25.5488,269.756,-12.0427
673.961,31.54,57.7304,0,4.75411,8.02571,-2.59141,-13.5976,-18.2927,-29.4207,-6.23903,-0.126936,6.47134,-28.2927,273.11,-10.7317
673.971,31.2274,57.1764,0,4.80201,7.99697,-2.77343,-14.878,-15.4878,-30.7622,-6.34201,-0.191602,6.36596,-30.0915,276.037,-11.5854
673.981,30.9017,56.5786,0,4.69663,7.96584,-2.52196,-14.2378,-15.061,-31.7988,-6.41626,-0.280217,6.08095,-28.811,279.39,-9.2378
673.991,30.5725,56.0002,0,4.74453,8.10714,-2.53393,-13.3841,-17.4695,-32.439,-6.54319,-0.352068,6.17915,-28.7195,280.305,-7.9878
674.001,30.266,55.4566,0,4.86668,8.05924,-2.52435,-13.6585,-14.7866,-32.4085,-6.71084,-0.426313,6.40189,-26.6768,278.445,-3.96341
674.011,29.9342,54.912,0,4.59844,8.15744,-2.43813,-11.3415,-13.2927,-32.1037,-6.85934,-0.467029,6.41147,-25.4268,275.244,-2.46951
674.021,29.6053,54.2906,0,4.54814,8.15744,-2.54591,-10.8841,-13.1402,-31.9512,-7.09644,-0.440684,6.08335,-27.3171,279.817,-0.548781
674.031,29.2581,53.632,0,4.39726,8.42089,-2.60099,-11.189,-18.689,-31.2805,-7.2114,-0.349673,5.85343,-27.4695,284.024,-0.945122
674.041,28.9106,52.9677,0,4.48348,8.45681,-2.76385,-12.8049,-20.0305,-32.7439,-7.36947,-0.342488,5.81511,-24.6646,287.165,0.213415
674.051,28.4957,52.3049,0,4.16494,8.73464,-2.51717,-12.7134,-18.2927,-35.3659,-7.50599,-0.340093,5.79116,-23.6585,286.86,1.34146
674.061,28.041,51.6144,0,4.01645,8.8951,-2.43813,-12.7744,-16.4024,-37.8354,-7.66646,-0.356858,5.6283,-23.8415,286.402,2.37805
674.071,27.5906,50.8925,0,4.01166,8.81846,-2.38544,-15.061,-15.7012,-38.6585,-7.75747,-0.349673,5.39358,-25.2134,287.988,2.9878
674.081,27.1557,50.1736,0,4.05956,8.68195,-2.39741,-16.4634,-14.4817,-39.2073,-7.81016,-0.277822,5.30018,-25.5793,287.409,3.29268
674.091,26.7647,49.4473,0,4.22242,8.47358,-2.35909,-17.378,-11.25,-38.5366,-7.85087,-0.323328,5.1469,-24.5427,285.854,3.17073
674.101,26.3989,48.7555,0,4.24876,8.24845,-2.35191,-16.3415,-14.4817,-38.3232,-7.79818,-0.342488,5.13971,-26.8598,285.274,1.43293
674.111,26.0191,48.0422,0,4.00926,8.34425,-2.56267,-15.2439,-13.5976,-37.2561,-7.77423,-0.349673,4.89063,-27.7744,289.116,-0.518293
674.121,25.6388,47.3576,0,3.98052,8.48795,-2.58183,-16.128,-13.5061,-36.9817,-7.76944,-0.340093,4.89302,-27.5915,292.043,-2.80488
674.131,25.2767,46.6816,0,4.11464,8.42568,-2.46927,-16.0671,-11.8902,-37.7439,-7.7431,-0.320933,4.79004,-27.5305,294.116,-3.5061
674.141,24.904,45.983,0,3.83922,8.35143,-2.60818,-15.2134,-9.69512,-36.8293,-7.78621,-0.306563,4.58646,-28.1707,295.091,-3.75
674.151,24.5452,45.2453,0,3.9925,8.48795,-2.67284,-15.8232,-7.68293,-37.1951,-7.89638,-0.337698,4.34457,-26.7073,296.159,-4.08537
674.161,24.2148,44.5101,0,4.05477,8.27719,-2.1627,-14.0549,-8.68902,-36.8902,-8.02571,-0.344883,4.29187,-25.7317,294.39,-4.11585
674.171,23.8542,43.7813,0,3.81287,8.45921,-2.33514,-12.7134,-7.53049,-36.8902,-8.13109,-0.349673,4.24158,-25.3659,291.189,-3.96341
674.181,23.4993,43.0562,0,3.85838,8.56219,-2.55549,-14.1768,-5.73171,-37.0427,-8.21252,-0.354463,4.16733,-26.5854,289.634,-4.78659
674.191,23.1365,42.3424,0,3.62127,8.35862,-2.55309,-13.75,-0.487805,-36.8598,-8.34185,-0.376018,4.15296,-29.5732,290.152,-5.2439
674.201,22.7997,41.6555,0,3.76976,8.43286,-2.5507,-13.1098,0.548781,-36.311,-8.38257,-0.287402,4.16733,-33.2622,290.335,-5.57927
674.211,22.4519,40.9636,0,3.59492,8.66518,-2.51956,-11.8598,4.87805,-34.939,-8.48076,-0.234712,4.06674,-35.7317,290.091,-6.4939
674.221,22.0782,40.2239,0,3.41769,8.82565,-2.40939,-10.2134,5.33537,-35.5183,-8.54782,-0.239502,3.76018,-40.8232,294.878,-5.97561
674.231,21.6881,39.4688,0,3.39135,9.07712,-2.33035,-11.4024,4.72561,-36.5549,-8.69153,-0.263452,3.62127,-41.372,295.732,-6.89024
674.241,21.278,38.7214,0,3.16143,9.06994,-2.08367,-12.0732,4.42073,-36.7988,-8.77775,-0.273032,3.55181,-41.6463,290.091,-7.7439
674.251,20.8519,37.9995,0,3.00335,8.85439,-1.83458,-11.128,5.97561,-38.2927,-8.90229,-0.289797,3.57576,-41.9207,281.341,-7.37805
674.261,20.4047,37.2909,0,2.79499,8.943,-1.68849,-9.32927,7.34756,-38.5061,-8.95977,-0.304167,3.52307,-43.0793,274.695,-7.10366
674.271,19.939,36.6166,0,2.66087,9.14179,-1.84177,-8.10976,10.6098,-38.9939,-8.89031,-0.256267,3.52068,-45.5793,271.067,-4.20732
674.281,19.4725,35.8959,0,2.55549,9.2352,-2.04056,-9.17683,9.26829,-38.4756,-8.83762,-0.282612,3.17819,-43.5366,275.305,-3.01829
674.291,19.0297,35.1929,0,2.6944,9.16574,-2.08367,-10.4573,7.53049,-38.872,-8.81128,-0.330513,3.12311,-41.9207,277.226,-3.01829
674.301,18.6154,34.5273,0,2.75667,9.10826,-2.05732,-10.1524,10.8232,-37.8049,-8.90708,-0.402363,3.19496,-39.8171,272.226,-3.81098
674.311,18.224,33.8773,0,2.87642,9.21125,-1.83219,-9.5122,14.1768,-37.3476,-9.05796,-0.414338,3.19496,-40.0915,265.823,-6.06707
674.321,17.8211,33.185,0,2.68242,9.31423,-1.90165,-9.57317,17.1646,-36.7073,-9.15376,-0.402363,2.91953,-41.5854,261.829,-8.32317
674.331,17.3677,32.5018,0,2.11241,9.28789,-1.51844,-9.96951,14.2683,-36.0366,-9.20646,-0.361648,2.85247,-42.5305,259.116,-9.20732
674.341,16.9175,31.8407,0,2.04774,9.29507,-1.51126,-11.189,12.561,-35.8537,-9.27591,-0.371228,2.84768,-42.5915,254.238,-9.90854
674.351,16.4588,31.1809,0,1.86093,9.27831,-1.43701,-11.5244,10.1524,-35.4268,-9.32142,-0.411943,2.74709,-43.6585,250.823,-9.93902
674.361,16.0255,30.5468,0,1.90644,9.34776,-1.5376,-12.378,9.54268,-34.1463,-9.29507,-0.438289,2.73272,-42.9573,245.61,-9.14634
674.371,15.6151,29.9262,0,1.90404,9.24478,-1.87291,-12.2866,8.65854,-32.9268,-9.32621,-0.519719,2.68721,-45,242.256,-8.44512
674.381,15.1964,29.2842,0,1.61185,9.35974,-1.94476,-12.9268,4.81707,-30.7927,-9.30705,-0.529299,2.47645,-44.8171,239.177,-8.29268
674.391,14.7993,28.6587,0,1.55916,9.45314,-1.91123,-14.9695,1.34146,-28.628,-9.25436,-0.514929,2.42136,-44.0244,237.256,-8.23171
674.401,14.3992,28.0491,0,1.43701,9.43638,-1.98787,-16.6463,1.12805,-28.2927,-9.29268,-0.438289,2.39023,-47.2256,234.726,-6.85976
674.411,14.0192,27.4131,0,1.54479,9.46991,-1.72681,-17.5305,-4.7561,-28.2927,-9.28549,-0.438289,2.16749,-47.1646,232.47,-3.68902
674.421,13.674,26.7585,0,1.84417,9.33818,-1.45857,-17.8963,-9.35976,-29.4207,-9.40285,-0.495769,2.00224,-47.7134,229.787,-2.95732
674.431,13.3356,26.14,0,1.92081,9.1825,-1.24062,-18.0488,-9.08537,-30.7317,-9.41243,-0.476609,2.04535,-49.1463,226.128,-3.29268
674.441,13.0296,25.5486,0,2.11001,9.09389,-0.972378,-14.3902,-6.64634,-30.6707,-9.51062,-0.541274,2.07169,-47.4695,218.963,-2.77439
674.451,12.7558,24.9283,0,2.32077,9.26873,-1.29331,-13.0488,-3.87195,-30.0305,-9.51302,-0.565225,1.84177,-46.4634,216.829,-1.64634
674.461,12.48,24.2992,0,2.17707,9.20406,-1.52323,-12.0427,-3.01829,-29.2683,-9.62558,-0.62989,1.71723,-42.2256,216.738,-1.37195
674.471,12.2671,23.7015,0,2.56028,9.07473,-1.61185,-10.8537,2.2561,-28.4146,-9.68067,-0.680186,1.75315,-39.6037,214.207,-1.67683
674.481,12.0704,23.1185,0,2.53393,9.03401,-1.60227,-8.10976,4.39024,-27.0122,-9.69025,-0.670605,1.71244,-37.561,210.213,-1.89024
674.491,11.8955,22.5432,0,2.68242,9.12502,-1.75076,-6.09756,7.37805,-26.6463,-9.68546,-0.689766,1.64059,-36.372,206.86,-0.27439
674.501,11.7347,22.0087,0,2.70637,9.0867,-1.78429,-4.05488,9.26829,-25.9756,-9.72138,-0.65863,1.72202,-34.0549,202.073,1.06707
674.511,11.5792,21.4868,0,2.6441,8.99809,-1.96152,-2.62195,12.8659,-25.3354,-9.75012,-0.661025,1.68609,-36.372,198.018,2.37805
674.521,11.4338,20.9463,0,2.58902,8.93821,-1.95673,0.518293,18.2012,-24.1768,-9.7621,-0.699346,1.51126,-34.5427,194.787,4.78659
674.531,11.2798,20.3958,0,2.39741,9.18729,-1.69328,2.31707,22.8659,-22.2256,-9.8076,-0.766406,1.37714,-34.7561,191.28,6.4939
674.541,11.0992,19.8633,0,2.07648,9.40285,-1.74836,1.7378,25.1524,-20.8232,-9.77886,-0.828677,1.35558,-35.5183,190.64,5.97561
674.551,10.9479,19.3362,0,2.14833,9.65911,-2.02619,0.670732,23.5976,-18.3841,-9.78126,-0.814307,1.28613,-37.7439,189.451,5.64024
674.561,10.7864,18.8073,0,1.81542,9.53697,-2.03337,-1.52439,20.5793,-16.128,-9.82916,-0.835862,1.19032,-39.3598,187.134,5.85366
674.571,10.6262,18.2802,0,1.6813,9.52739,-1.93039,-2.07317,17.8963,-14.7561,-9.88185,-0.778381,1.10889,-40.3659,182.927,6.7378
674.581,10.475,17.7505,0,1.68849,9.49146,-1.98787,-2.2561,15.2439,-14.3293,-9.95849,-0.740061,1.0083,-42.6829,177.165,7.5
674.591,10.3229,17.2248,0,1.61903,9.37171,-1.93039,-2.19512,12.8354,-14.1463,-9.98963,-0.684976,0.934058,-44.3598,175.396,7.31707
674.601,10.1937,16.7026,0,1.71244,9.36692,-1.91123,-1.79878,13.0183,-13.2622,-10.0998,-0.598755,0.864602,-47.0122,172.683,5.70122
674.611,10.0676,16.1833,0,1.66214,9.25915,-1.79387,-1.06707,11.9817,-12.8354,-10.1094,-0.589175,0.783171,-50.5488,169.695,4.7561
674.621,9.95647,15.6777,0,1.78189,9.20885,-1.04423,-0.182927,13.0488,-13.1402,-10.083,-0.55325,0.747246,-50.7012,166.128,2.80488
674.631,9.80542,15.1908,0,1.58071,9.32621,-0.60115,-0.792683,14.8171,-14.7256,-9.97286,-0.483794,0.728086,-53.6585,160.579,2.07317
674.641,9.63141,14.7265,0,1.36995,9.43638,-0.486189,2.40854,16.8598,-14.6037,-9.85072,-0.421523,0.730481,-60.6402,156.555,1.4939
674.651,9.45667,14.2903,0,1.29331,9.82677,-1.19751,5.36585,16.189,-13.4756,-9.76689,-0.344883,0.764011,-65.4268,153.598,3.68902
674.661,9.30145,13.8369,0,1.52802,10.2148,-2.00703,3.81098,16.5549,-13.9024,-9.74054,-0.373623,0.61073,-70.5183,151.189,5.94512
674.671,9.12623,13.3847,0,1.54958,9.93933,-1.93757,1.58537,16.8598,-16.9817,-9.78605,-0.445474,0.538879,-75.9451,148.384,9.02439
674.681,8.88407,12.9339,0,1.21427,9.74533,-1.43222,1.67683,16.311,-20.5793,-9.82197,-0.543669,0.467029,-77.1037,145.671,12.8049
674.691,8.62376,12.4723,0,1.11608,9.67588,-1.36277,2.40854,16.5244,-21.8598,-9.85311,-0.627495,0.342488,-77.7744,143.994,14.1768
674.701,8.39727,12.0175,0,1.33882,9.60403,-1.40109,2.43902,18.5366,-21.7073,-9.87227,-0.665815,0.292192,-76.0976,142.927,16.2805
674.711,8.19226,11.5478,0,1.40109,9.47709,-1.35798,1.55488,22.9268,-20.9451,-9.93694,-0.799937,0.148491,-72.2561,141.646,16.7683
674.721,8.00078,11.0852,0,1.26697,9.44356,-1.36995,0.945122,25,-18.4146,-10.0399,-0.946033,0.0981958,-65.6707,140.03,17.1037
674.731,7.82174,10.6547,0,1.08734,9.45075,-1.33642,1.46341,26.0976,-15.3354,-10.1357,-1.02028,0.155676,-59.878,134.695,15.7012
674.741,7.66811,10.2653,0,1.02746,9.54176,-1.29331,2.28659,26.9207,-12.2561,-10.2794,-1.05141,0.261057,-53.7805,127.805,11.9207
674.751,7.55354,9.88626,0,1.11129,9.60403,-1.12326,2.13415,26.8293,-9.5122,-10.3417,-1.01549,0.234712,-49.9695,122.713,9.35976
674.761,7.4558,9.51547,0,1.12326,9.58247,-1.05141,2.68293,28.4146,-8.20122,-10.3465,-0.936453,0.198787,-46.3415,116.738,7.7439
674.771,7.35374,9.16706,0,1.03225,9.48907,-0.979563,4.57317,28.3841,-7.86585,-10.3058,-0.799937,0.227527,-44.939,110.64,7.5
674.781,7.23595,8.81876,0,0.886157,9.59684,-1.02507,6.67683,26.7378,-7.77439,-10.2363,-0.680186,0.158071,-41.9207,103.659,8.65854
674.791,7.10774,8.48448,0,0.737666,9.75252,-1.17595,7.22561,24.6037,-7.13415,-10.2219,-0.59157,0.153281,-42.3171,97.3171,11.0366
674.801,6.9779,8.13649,0,0.711321,9.88664,-1.23823,5.45732,20.2744,-7.13415,-10.1812,-0.574805,0.0263452,-44.5732,91.25,12.561
674.811,6.8241,7.79551,0,0.500559,9.8555,-1.19511,3.56707,14.6037,-7.37805,-10.1693,-0.56762,-0.00958008,-43.75,84.8476,11.9512
674.821,6.63918,7.4549,0,0.203577,9.84353,-1.06818,2.13415,9.20732,-7.34756,-10.1285,-0.467029,-0.0718506,-44.6341,80.7012,13.9634
674.831,6.44557,7.13314,0,-0.00239502,9.89862,-1.12326,0.97561,5.33537,-6.12805,-10.1261,-0.526904,-0.0526904,-45.6402,75.2134,14.0244
674.841,6.23263,6.7922,0,-0.263452,9.91059,-1.11608,0.579268,0.884146,-5.33537,-10.0064,-0.514929,-0.193997,-48.3841,73.8719,14.9695
674.851,6.02808,6.48193,0,-0.320933,10.0016,-1.31247,0.914634,-3.78049,-3.90244,-10.0232,-0.565225,-0.119751,-47.7439,72.439,14.8171
674.861,5.84172,6.16791,0,-0.232317,10.0735,-1.54479,0.304878,-7.16463,-3.10976,-10.0064,-0.603545,-0.193997,-48.3537,68.1098,15.6707
674.871,5.68468,5.84475,0,-0.0263452,10.095,-1.66933,-0.426829,-7.86585,-3.01829,-10.0375,-0.63468,-0.292192,-46.6768,65.7012,15.7317
674.881,5.56294,5.51896,0,0.285007,10.095,-1.61903,-2.9878,-8.07927,-3.90244,-10.0351,-0.632285,-0.364043,-46.128,61.5854,16.0976
674.891,5.48219,5.19338,0,0.680186,9.92496,-1.44659,-4.90854,-5.82317,-4.84756,-10.1118,-0.64905,-0.426313,-44.6341,58.3232,14.6951
674.901,5.43067,4.85384,0,0.950823,9.65672,-1.23583,-5.91463,-3.35366,-5.54878,-10.1764,-0.589175,-0.550855,-42.9268,57.0427,13.0793
674.911,5.39379,4.50478,0,1.1544,9.41722,-0.981958,-6.03659,-0.884146,-6.95122,-10.2962,-0.519719,-0.661025,-40.8841,58.0488,10.1524
674.921,5.37638,4.19426,0,1.35079,9.31184,-0.914897,-4.32927,1.40244,-7.62195,-10.3896,-0.428708,-0.555645,-41.128,55.6402,9.48171
674.931,5.36193,3.89084,0,1.38911,9.25675,-0.910107,-1.70732,3.9939,-7.92683,-10.4423,-0.299377,-0.589175,-39.6341,48.2012,10.3659
674.941,5.33003,3.62146,0,1.28852,9.40764,-1.04662,0.304878,6.03659,-8.23171,-10.4734,-0.299377,-0.495769,-37.9268,40.7317,9.72561
674.951,5.29076,3.37669,0,1.17595,9.50344,-1.09452,1.79878,7.65244,-7.53049,-10.4854,-0.433499,-0.440684,-38.3841,30.9146,10.2744
674.961,5.23636,3.13037,0,1.03704,9.68785,-1.23104,2.37805,7.86585,-7.22561,-10.368,-0.61552,-0.495769,-38.2012,21.372,8.47561
674.971,5.17175,2.89086,0,0.890947,9.8124,-1.35558,1.61585,7.77439,-6.4939,-10.2124,-0.718506,-0.507744,-37.3171,14.4512,8.07927
674.981,5.10098,2.64337,0,0.749641,9.83874,-1.3005,1.0061,6.28049,-5.54878,-10.1261,-0.701741,-0.58678,-36.5549,7.0122,7.68293
674.991,5.02946,2.35749,0,0.651445,9.79803,-1.25739,0.365854,5.36585,-4.60366,-10.1022,-0.665815,-0.780776,-33.3537,4.29878,9.05488
675.001,4.96383,2.01706,0,0.608335,9.70222,-1.28373,-0.0609756,3.68902,-3.59756,-10.1669,-0.627495,-0.862207,-31.9512,1.92073,10.9451
675.011,4.9002,1.52051,0,0.58678,9.6639,-1.31966,-0.426829,2.31707,-3.20122,-10.1764,-0.548459,-0.869392,-28.0183,-0.457317,12.3476
675.021,4.84675,1.2763,0,0.627495,9.65672,-1.28852,-1.09756,1.0061,-2.71341,-10.2124,-0.469424,-0.821492,-27.3476,-4.69512,12.439
675.031,4.79762,1.03445,0,0.65384,9.69504,-1.33882,-1.58537,0.182927,-2.7439,-10.2339,-0.481399,-0.871787,-27.622,-8.14024,12.9268
675.041,4.75984,0.806707,0,0.694556,9.72617,-1.30289,-2.07317,-0.823171,-2.04268,-10.2195,-0.486189,-0.855022,-28.2622,-13.2927,11.8902
675.051,4.72518,0.591154,0,0.723296,9.8076,-1.28852,-2.7439,-2.04268,-2.22561,-10.1525,-0.479004,-0.840652,-27.8963,-19.5732,11.0671
675.061,4.70207,0.383352,0,0.811912,9.83874,-1.30768,-3.81098,-2.71341,-2.34756,-9.98963,-0.493374,-0.835862,-26.9207,-25.5793,10.3963
675.071,4.68063,0.172096,0,0.855022,9.80042,-1.17835,-3.59756,-3.87195,-2.83537,-9.88664,-0.531694,-0.881367,-25.7012,-28.872,10.1829
675.081,4.6589,-0.0229276,0,0.893342,9.73096,-1.19511,-3.01829,-4.02439,-3.44512,-9.81,-0.507744,-0.843047,-24.2683,-32.1341,10.8841
675.091,4.64351,-0.212695,0,0.972378,9.64953,-1.18074,-2.2561,-3.56707,-3.90244,-9.82437,-0.574805,-0.857417,-22.2561,-34.9085,13.0183
675.101,4.63275,-0.393086,0,1.00591,9.63516,-1.22864,-1.64634,-2.83537,-3.90244,-9.83395,-0.60115,-0.852627,-21.311,-37.8354,12.9268
675.111,4.61561,-0.56453,0,0.989143,9.60882,-1.30289,-0.823171,-2.59146,-4.35976,-9.86988,-0.696951,-0.847837,-18.872,-37.8354,13.0793
675.121,4.60158,-0.73235,0,0.993933,9.616,-1.30529,-0.457317,-2.13415,-4.14634,-9.92017,-0.65384,-0.866997,-17.1951,-38.872,12.1037
675.131,4.59319,-0.89509,0,1.00591,9.64474,-1.47533,-0.487805,-1.7378,-3.75,-9.93215,-0.65863,-0.874182,-16.6768,-37.9878,10.8537
675.141,4.60345,-1.04122,0,1.10171,9.68785,-1.53521,-1.12805,-1.09756,-3.14024,-9.98484,-0.632285,-0.833467,-13.9329,-37.6524,10.7317
675.151,4.62109,-1.1906,0,1.13763,9.74773,-1.48012,-1.95122,-1.28049,-2.83537,-9.94173,-0.58199,-0.869392,-12.7134,-37.2256,10
675.161,4.64998,-1.33774,0,1.12087,9.68067,-1.53281,-2.77439,-1.25,-2.07317,-9.8555,-0.584385,-0.876577,-10.4878,-35.6707,10.5183
675.171,4.69477,-1.47841,0,1.18553,9.67109,-1.4921,-2.89634,-1.67683,-1.76829,-9.84832,-0.550855,-0.871787,-10.3354,-34.0549,10.8232
675.181,4.72689,-1.61799,0,1.1544,9.60882,-1.46575,-3.01829,-2.5,-2.16463,-9.8124,-0.538879,-0.886157,-8.41463,-31.7988,11.128
675.191,4.76057,-1.75292,0,1.14003,9.54415,-1.41546,-3.47561,-3.84146,-2.04268,-9.85072,-0.500559,-0.893342,-7.40854,-31.5854,11.5244
675.201,4.7918,-1.8679,0,1.15679,9.55373,-1.40827,-3.62805,-4.60366,-2.22561,-9.89383,-0.495769,-0.833467,-8.29268,-32.1341,12.1037
675.211,4.83754,-1.97286,0,1.18314,9.616,-1.48012,-3.56707,-5,-1.64634,-9.97526,-0.546064,-0.816702,-8.38415,-32.7439,10.6707
675.221,4.88217,-2.08049,0,1.17835,9.65193,-1.55197,-3.59756,-5.70122,-1.55488,-9.97765,-0.56762,-0.845442,-8.93293,-30.7927,8.01829
675.231,4.94029,-2.19337,0,1.2023,9.6663,-1.55676,-4.17683,-6.0061,-1.18902,-9.9058,-0.526904,-0.878972,-10.3659,-28.2622,6.06707
675.241,5.00347,-2.30394,0,1.21188,9.62558,-1.61903,-4.63415,-5.94512,-1.09756,-9.87467,-0.486189,-0.883762,-11.3415,-26.0061,6.03659
675.251,5.05,-2.41821,0,1.20948,9.5226,-1.58311,-5.21341,-6.28049,-1.67683,-9.91538,-0.479004,-0.922083,-9.35976,-24.9085,6.09756
675.261,5.08798,-2.50455,0,1.24541,9.48907,-1.53521,-5.79268,-6.21951,-2.2561,-9.95131,-0.519719,-0.823887,-9.93902,-27.1341,4.87805
675.271,5.1125,-2.58009,0,1.2502,9.49625,-1.44899,-6.46341,-5.7622,-2.9878,-10.0064,-0.541274,-0.797541,-9.5122,-29.2988,4.14634
675.281,5.12862,-2.6505,0,1.21667,9.59684,-1.47054,-6.85976,-4.2378,-3.07927,-10.0399,-0.565225,-0.795146,-9.96951,-34.3598,3.5061
675.291,5.13847,-2.71242,0,1.21427,9.70222,-1.53281,-6.64634,-2.77439,-3.35366,-10.0663,-0.632285,-0.773591,-11.9817,-36.4329,3.32317
675.301,5.15159,-2.7653,0,1.17595,9.75012,-1.5855,-6.79878,-1.55488,-2.65244,-10.0591,-0.66342,-0.744851,-14.0854,-37.8354,2.89634
675.311,5.15718,-2.8114,0,1.12805,9.74054,-1.54718,-6.55488,-1.0061,-2.7439,-10.0687,-0.766406,-0.725691,-15.9451,-38.9634,1.82927
675.321,5.15422,-2.87138,0,1.0586,9.70701,-1.56874,-7.07317,-1.03659,-2.7439,-10.0471,-0.802332,-0.795146,-17.0427,-40.2439,0.518293
675.331,5.15042,-2.93208,0,1.03704,9.61361,-1.64298,-6.95122,-0.701219,-2.71341,-10.0112,-0.866997,-0.807122,-16.7988,-41.4329,-0.457317
675.341,5.14387,-2.98884,0,0.991538,9.57529,-1.59987,-7.34756,-0.914634,-2.5,-9.97765,-0.900527,-0.799937,-15.4268,-44.0854,-0.426829
675.351,5.14658,-3.03627,0,1.02746,9.59684,-1.70286,-7.13415,-0.640244,-2.16463,-9.99681,-0.838257,-0.773591,-13.9939,-48.2012,0.548781
675.361,5.15717,-3.08218,0,1.06339,9.56092,-1.68609,-7.34756,-0.457317,-2.04268,-9.99442,-0.833467,-0.775986,-15.0305,-49.2988,1.4939
675.371,5.16782,-3.13944,0,1.03225,9.64235,-1.71723,-7.77439,-0.945122,-1.61585,-9.93933,-0.862207,-0.831072,-14.9085,-50.7927,3.71951
675.381,5.16523,-3.20376,0,1.01788,9.6663,-1.65975,-8.01829,-1.92073,-2.31707,-9.87946,-0.807122,-0.866997,-16.311,-50.8537,5.64024
675.391,5.15426,-3.24225,0,0.981958,9.69983,-1.66454,-8.56707,-2.28659,-2.56098,-9.86269,-0.876577,-0.764011,-15.9451,-51.2805,8.29268
675.401,5.13194,-3.26849,0,0.934058,9.67827,-1.5879,-8.29268,-3.44512,-3.07927,-9.8555,-0.953218,-0.718506,-15.4268,-53.5061,8.38415
675.411,5.11234,-3.29325,0,0.967588,9.70701,-1.61185,-7.95732,-3.59756,-3.23171,-9.87227,-1.00591,-0.716111,-16.372,-51.5549,6.40244
675.421,5.10288,-3.30664,0,1.01788,9.82677,-1.60466,-8.23171,-3.47561,-2.77439,-9.89143,-1.05141,-0.673001,-14.9085,-52.6829,3.9939
675.431,5.1092,-3.31292,0,1.04902,9.77647,-1.69088,-8.75,-3.68902,-1.95122,-9.82677,-1.04662,-0.63947,-15.1829,-52.1341,2.0122
675.441,5.13271,-3.31485,0,1.07536,9.76928,-1.62861,-9.32927,-4.96951,-1.21951,-9.78844,-1.02267,-0.617915,-14.878,-50.6402,2.89634
675.451,5.18289,-3.32336,0,1.11368,9.74294,-1.72681,-9.72561,-6.61585,-0.548781,-9.66151,-0.938848,-0.637075,-13.5671,-49.0549,4.02439
675.461,5.27142,-3.33894,0,1.19032,9.72138,-1.71962,-10.1524,-7.13415,-0.152439,-9.6184,-0.965193,-0.66342,-15.4573,-46.2195,7.22561
675.471,5.3895,-3.36144,0,1.30529,9.69504,-1.61424,-10.7012,-7.40854,-0.182927,-9.53936,-0.893342,-0.687371,-15.9756,-43.2927,9.63415
675.481,5.55328,-3.38009,0,1.46575,9.66869,-1.60227,-11.0366,-7.13415,0.182927,-9.49865,-0.826282,-0.670605,-15.7012,-41.6463,13.6585
675.491,5.74372,-3.40336,0,1.61185,9.64953,-1.51365,-11.4634,-6.43293,0.27439,-9.50583,-0.778381,-0.692161,-17.6524,-39.7866,16.0366
675.501,5.94994,-3.42888,0,1.81303,9.5705,-1.49928,-11.5549,-5.67073,0.640244,-9.48188,-0.732876,-0.701741,-20.0915,-37.3476,20.061
675.511,6.15557,-3.47078,0,1.90165,9.55852,-1.44899,-11.2195,-4.69512,0.792683,-9.43398,-0.771196,-0.768801,-20.7622,-34.6951,22.0732
675.521,6.37253,-3.51876,0,1.93518,9.49386,-1.39151,-10.6707,-2.89634,0.762195,-9.45314,-0.802332,-0.799937,-19.8171,-31.25,25.7012
675.531,6.57125,-3.5743,0,1.94955,9.45554,-1.42264,-9.78659,-1.64634,0.97561,-9.48188,-0.845442,-0.840652,-19.6646,-29.3598,28.628
675.541,6.74468,-3.62209,0,1.99266,9.44596,-1.37714,-8.41463,-0.548781,1.46341,-9.52978,-0.835862,-0.819097,-16.5549,-26.5549,30.2439
675.551,6.9064,-3.65338,0,1.95673,9.43877,-1.39151,-7.2561,0.579268,1.4939,-9.64235,-0.871787,-0.764011,-15.7622,-23.872,31.372
675.561,7.05286,-3.70184,0,2.0214,9.4747,-1.37474,-6.25,2.34756,2.28659,-9.7142,-0.838257,-0.847837,-13.2317,-22.378,32.1646
675.571,7.20281,-3.75739,0,2.09085,9.43398,-1.39151,-5.82317,3.75,3.47561,-9.75252,-0.764011,-0.888552,-11.7988,-20.4573,33.8415
675.581,7.36491,-3.80625,0,2.12917,9.4723,-1.43941,-6.09756,4.42073,5.27439,-9.79323,-0.725691,-0.871787,-12.1037,-19.3598,35.8537
675.591,7.54877,-3.83972,0,2.18665,9.48667,-1.37474,-6.31098,4.48171,7.28659,-9.80042,-0.66821,-0.814307,-12.2866,-19.878,38.2317
675.601,7.76226,-3.84517,0,2.2609,9.44835,-1.39151,-6.37195,3.75,9.72561,-9.82437,-0.661025,-0.699346,-12.561,-19.0549,42.2256
675.611,8.0133,-3.83078,0,2.3543,9.38369,-1.36995,-6.28049,3.20122,12.7134,-9.90101,-0.617915,-0.62031,-13.0793,-20.8537,45.7012
675.621,8.31311,-3.79273,0,2.46687,9.25675,-1.33642,-6.46341,2.07317,16.4939,-9.93215,-0.61073,-0.517324,-15.9146,-22.561,48.5061
675.631,8.67859,-3.74003,0,2.66326,9.14658,-1.33882,-5.7622,0.213415,21.128,-10.0256,-0.64426,-0.452659,-12.9573,-24.9085,52.622
675.641,9.14106,-3.68414,0,2.94348,8.87834,-1.37714,-5.15244,-1.28049,27.4695,-10.1166,-0.730481,-0.435894,-8.53659,-27.9573,54.4817
675.651,9.73505,-3.62745,0,3.25483,8.47118,-1.37714,-4.29878,-4.14634,36.372,-10.1261,-0.744851,-0.426313,1.09756,-31.9512,57.561
675.661,10.5183,-3.5405,0,3.68114,7.69041,-1.17835,-2.62195,-7.46951,47.5915,-10.0016,-0.821492,-0.280217,14.8476,-34.9695,60.5488
675.671,11.5599,-3.40187,0,4.27511,6.70845,-1.22864,2.43902,-12.1341,61.4024,-9.79563,-0.840652,-0.0431104,33.7195,-42.9268,64.8476
675.681,12.9211,-3.2424,0,5.19001,5.71452,-1.42025,12.2256,-14.4817,76.2805,-9.42201,-0.878972,0.0598755,58.4756,-52.7744,66.8293
675.691,14.5988,-3.12342,0,6.33722,5.03673,-1.55916,22.378,-12.0427,92.4085,-9.22322,-0.778381,-0.0862207,83.75,-60.122,68.9939
675.701,16.5105,-2.98616,0,7.40061,4.98643,-1.91123,32.8354,-1.31098,110.518,-8.86157,-0.845442,0.00239502,114.634,-66.1281,66.5244
675.711,18.5575,-2.83989,0,8.15504,5.53489,-2.19623,47.2561,18.0488,128.628,-8.88313,-0.713716,0.0526904,141.494,-74.2988,60.5183
675.721,20.5035,-2.661,0,7.97542,8.00416,-2.56746,61.9207,46.3415,144.817,-9.20406,-0.64426,0.203577,161.677,-82.9268,52.3476
675.731,22.2571,-2.48882,0,6.91921,11.5943,-2.98419,67.9268,75.3354,157.866,-9.88664,-0.720901,0.210762,178.049,-94.0854,42.0427
675.741,23.8639,-2.42377,0,5.85343,14.8755,-3.21891,69.4512,92.3171,165.549,-10.5764,-0.857417,-0.241897,191.86,-93.7805,31.2805
675.751,25.3337,-2.4782,0,4.39726,16.164,-3.18538,68.1402,89.6341,167.622,-10.9141,-0.64426,-0.802332,197.652,-82.0732,25.9451
675.761,26.681,-2.61026,0,2.68482,15,-2.78301,59.1463,70.2134,168.476,-10.8494,-0.184417,-1.15919,189.299,-57.6524,29.0549
675.771,27.9667,-2.73329,0,2.1172,12.8325,-1.9256,52.8354,51.8293,166.524,-10.7105,0.764011,-1.11129,168.811,-41.7378,39.2683
675.781,29.1914,-2.88359,0,1.85854,11.3189,-1.24062,51.4634,35.7012,163.018,-10.4016,1.67651,-1.21906,144.451,-31.4634,55.5793
675.791,30.2803,-3.02041,0,1.25739,10.5836,-0.522114,47.8963,5.12195,156.86,-10.3513,2.42136,-1.17116,121.159,-23.5671,69.0549
675.801,31.2325,-3.13658,0,0.773591,9.91538,0.720901,40.3354,-43.8415,149.848,-10.1645,2.71595,-1.08015,92.8659,-22.5915,75.2744
675.811,32.1297,-3.28033,0,1.06578,9.51781,0.603545,35.2744,-77.1341,142.256,-10.3201,2.89318,-1.2502,62.3171,-28.4146,74.0854
675.821,33.1507,-3.39589,0,3.21412,9.27112,-0.589175,32.1646,-81.4024,130.732,-10.4231,2.95306,-1.16158,44.7561,-32.439,68.0793
675.831,34.2855,-3.47678,0,6.1073,9.17053,-1.67891,27.4085,-64.1159,114.756,-10.4662,2.80696,-1.02986,35.2134,-36.5854,61.0366
675.841,35.4207,-3.4893,0,8.04487,8.58615,-2.65847,26.9207,-32.3476,97.7744,-10.4638,2.28724,-0.730481,26.4024,-40.4878,53.0488
675.851,36.4773,-3.48547,0,8.8472,7.70957,-2.94348,25.061,0.884146,80.2439,-10.3728,1.71962,-0.65384,21.25,-43.2622,46.372
675.861,37.3752,-3.45924,0,8.45202,7.4054,-1.86812,26.128,23.811,66.5244,-10.1022,1.16637,-0.536484,16.7683,-43.811,44.8171
675.871,38.0776,-3.4655,0,7.25451,7.71436,-0.565225,30.3659,32.7744,59.6951,-9.78844,0.720901,-0.65384,17.8963,-41.25,45.7622
675.881,38.6138,-3.47852,0,6.01868,7.77423,-0.0550855,32.378,42.0122,55.3963,-9.48907,0.385598,-0.661025,16.6463,-38.5061,48.7195
675.891,38.9326,-3.50385,0,4.71819,8.1742,0.0958008,34.0244,60.4268,50.122,-9.2831,0.167651,-0.699346,17.1646,-38.4451,50.7622
675.901,39.1924,-3.54317,0,4.55533,7.60658,-0.725691,35.3049,84.9085,42.8659,-9.17532,0.0526904,-0.754431,20.8232,-41.1585,54.0854
675.911,39.3458,-3.58584,0,4.27271,7.35271,-1.1544,34.2683,95.0305,34.0854,-9.21603,0.0167651,-0.780776,22.622,-44.7866,54.6341
675.921,39.4345,-3.66228,0,4.32541,7.07489,-1.53281,31.4329,96.8598,25.1829,-9.32621,0.0981958,-0.938848,27.7439,-46.9512,52.5915
675.931,39.4629,-3.75371,0,4.34217,6.71803,-1.81063,28.2622,92.7134,16.2805,-9.46751,0.237107,-1.02986,31.7988,-47.8659,48.872
675.941,39.4228,-3.86847,0,4.28948,6.53601,-2.01661,25.4268,80.9756,8.56707,-9.61121,0.469424,-1.16158,35.8841,-48.3841,41.4024
675.951,39.008,-3.96264,0,4.18889,6.45218,-2.213,22.4695,63.7805,1.64634,-9.75252,0.708926,-1.1065,39.8171,-45.7622,33.6585
675.961,38.7868,-4.0372,0,3.95178,6.51685,-2.25371,19.8476,44.8476,-4.54268,-9.83635,1.07057,-1.04423,41.7073,-43.3232,25.9451
675.971,38.4769,-4.11104,0,3.58774,6.64618,-2.11001,17.1341,24.0244,-10.3354,-9.91538,1.27176,-1.0586,39.939,-38.8415,20.2134
675.981,38.0639,-4.19244,0,3.16622,6.63181,-2.0214,13.2622,2.13415,-15.7012,-9.91059,1.43462,-1.10171,38.628,-35.6707,15.3963
675.991,37.5596,-4.29269,0,2.84528,6.61504,-2.02379,7.10366,-23.689,-21.2805,-9.86509,1.49928,-1.18793,31.25,-28.7805,10.6098
676.001,36.9636,-4.38961,0,2.74948,6.81623,-1.99984,1.61585,-53.1402,-28.9939,-9.82916,1.49689,-1.18074,25.3963,-22.1341,6.64634
676.011,36.239,-4.45953,0,2.71595,7.32876,-1.93757,-4.14634,-84.4207,-40,-9.93933,1.4442,-1.08734,19.2073,-17.8049,3.14024
676.021,35.4166,-4.51514,0,3.02251,7.86524,-1.94476,-13.4146,-105.518,-52.8659,-10.0735,1.37235,-1.04902,10.9146,-16.4024,-2.80488
676.031,34.5587,-4.5473,0,3.63803,7.98021,-1.63101,-24.9085,-117.043,-65.2744,-10.1669,1.36995,-0.960403,4.45122,-13.9634,-9.5122
676.041,33.7461,-4.56529,0,4.52898,7.51797,-1.13045,-33.5366,-120.335,-75.7927,-10.1836,1.47294,-0.902922,-4.72561,-13.2012,-16.7683
676.051,33.0042,-4.63024,0,5.64506,7.15153,-0.847837,-38.1402,-115.915,-84.9695,-10.1405,1.6334,-1.10889,-13.872,-7.37805,-25.3354
676.061,32.3136,-4.72177,0,6.59109,6.76593,-1.02986,-41.2805,-107.866,-93.4146,-10.0136,1.7292,-1.20469,-20.2134,3.84146,-32.0427
676.071,31.6712,-4.83902,0,7.41498,6.31806,-1.52802,-41.4024,-98.0183,-100.762,-9.93933,1.72681,-1.32445,-28.7195,18.689,-38.689
676.081,31.0857,-4.97356,0,8.10235,6.02108,-2.30161,-40.4268,-84.4207,-104.055,-9.90341,1.70046,-1.40588,-37.5915,31.7073,-44.2683
676.091,30.5732,-5.14088,0,8.54782,5.80792,-2.62734,-36.4329,-73.2317,-102.744,-9.79803,1.66454,-1.54718,-46.311,45.5488,-50.5793
676.101,30.1041,-5.34085,0,9.16813,6.1049,-2.63931,-30.7012,-61.6463,-100.457,-9.72138,1.59987,-1.69567,-54.8171,59.8476,-56.6463
676.111,29.6389,-5.53896,0,9.78605,6.86173,-2.69919,-27.4695,-41.9512,-98.2012,-9.79563,1.49689,-1.72441,-63.2927,72.6829,-60.9756
676.121,29.1831,-5.74423,0,9.44356,7.45091,-3.08479,-26.25,-29.4512,-91.5854,-9.89383,1.35798,-1.80105,-67.4085,81.9207,-65.7927
676.131,28.7902,-5.94788,0,8.68195,7.80297,-3.84401,-26.128,-28.0793,-78.5976,-10.0351,1.19511,-1.84896,-70.1829,90.3659,-69.6646
676.141,28.4517,-6.12871,0,7.77902,8.06403,-4.52898,-24.878,-26.9207,-65.5183,-10.1142,1.04902,-1.78908,-72.8963,97.6219,-74.7866
676.151,28.1176,-6.23088,0,6.81862,8.11433,-4.41642,-22.5305,-24.7866,-57.7439,-10.1764,1.10171,-1.46815,-73.4756,100.884,-78.0488
676.161,27.7278,-6.31441,0,5.90851,8.21013,-4.11225,-19.5732,-15.3049,-55.3354,-10.3369,1.18314,-1.42264,-76.1585,101.829,-79.1768
676.171,27.2874,-6.32768,0,5.53729,8.44484,-3.5087,-14.5427,1.52439,-56.2195,-10.4806,1.17595,-1.12566,-78.9939,104.878,-79.2988
676.181,26.7685,-6.27949,0,5.85103,9.70941,-2.53633,-8.75,30.5793,-60.6707,-10.7033,1.15679,-0.857417,-84.4817,107.226,-77.6219
676.191,26.1095,-6.30426,0,4.99841,10.5908,-2.91713,-3.75,49.0244,-64.1768,-10.8878,0.881367,-1.20948,-83.2622,114.421,-77.6829
676.201,25.4064,-6.33074,0,4.54335,10.9093,-3.03449,-8.5061,49.2378,-64.6037,-10.95,0.656235,-1.21906,-79.4817,125.305,-74.9695
676.211,24.6855,-6.29454,0,5.18282,12.1116,-2.24413,-17.8049,46.5854,-68.9939,-11.2446,0.376018,-0.938848,-71.7683,130.091,-70.4878
676.221,24.0247,-6.13961,0,6.73,13.8217,-1.45138,-26.0671,46.3415,-70.0305,-11.9775,0.0143701,-0.371228,-60.5183,122.652,-63.9634
676.231,23.583,-5.93294,0,7.37906,13.2924,-1.35319,-31.4329,41.0061,-55.3049,-12.8972,-0.411943,-0.0814307,-43.9024,112.927,-59.4817
676.241,23.4075,-5.75721,0,7.07728,11.5033,-1.42743,-29.8171,26.7073,-34.2683,-13.5103,-1.01788,-0.227527,-31.0671,107.165,-57.9878
676.251,23.3017,-5.61848,0,5.51094,9.70462,-1.04902,-15.7317,14.6646,-23.4146,-13.3906,-1.45378,-0.404758,-26.4634,105.61,-58.0488
676.261,23.0666,-5.42743,0,3.84161,8.3658,-0.895737,0.884146,10.4878,-26.7683,-12.7295,-1.14482,-0.0766406,-21.9817,90.7012,-54.4207
676.271,22.4467,-5.19782,0,1.42504,7.86764,-0.471819,11.7073,4.87805,-37.1341,-11.0961,-0.261057,0.160466,-23.1098,92.4695,-45.1829
676.281,21.4878,-4.86539,0,-0.282612,7.97062,-0.320933,18.2012,6.4939,-47.8963,-9.91059,0.546064,0.62989,-30.122,88.8719,-33.9024
676.291,20.3554,-4.47091,0,-1.08973,8.23168,-0.495769,16.5854,-1.82927,-56.311,-9.09149,1.12805,0.876577,-48.6585,83.0488,-27.1037
676.301,19.1356,-3.85533,0,-1.57113,8.48795,-0.833467,5.97561,-10,-61.5244,-8.59573,1.49449,1.7316,-72.8659,63.75,-22.3476
676.311,17.9342,-3.16093,0,-1.60945,8.58136,-1.13045,-9.20732,-17.3171,-61.8598,-8.26761,1.45378,2.04056,-96.311,37.2256,-21.4939
676.321,16.902,-2.50346,0,-0.893342,8.68674,-1.02986,-23.628,-24.7866,-56.7378,-8.05924,1.09452,1.93757,-116.616,15.4573,-27.3476
676.331,16.1227,1.05161,0,0.263452,8.9454,-0.943638,-32.8963,-28.9329,-48.4756,-8.06164,0.414338,1.74836,-132.774,0.548781,-37.1951
676.341,15.5997,1.34953,0,1.35558,9.16813,-1.04423,-37.7439,-32.1951,-37.622,-8.20294,-0.282612,1.21188,-144.726,-6.15854,-50.4878
676.351,15.2601,1.50682,0,2.0693,9.25915,-1.14961,-37.1646,-41.6159,-28.5366,-8.43286,-0.855022,0.778381,-148.689,-8.44512,-60.7927
676.361,15.0325,1.5382,0,2.46208,8.7059,-1.57113,-31.8598,-48.2317,-24.2988,-8.63884,-1.31726,0.340093,-143.994,-8.93293,-65.061
676.371,14.778,1.45777,0,2.26569,8.59573,-2.03098,-24.3598,-47.1951,-25.4268,-8.87115,-1.78908,-0.0670605,-134.39,-4.60366,-60.0305
676.381,14.4828,1.20266,0,2.33993,8.79691,-2.69679,-16.8902,-34.939,-30.3659,-9.29028,-2.1627,-0.476609,-119.146,1.70732,-53.7805
676.391,14.0773,0.985998,0,2.04295,8.97653,-3.01533,-10.3049,-15.6098,-37.9878,-9.5705,-2.48124,-0.706531,-96.0976,9.17683,-46.5549
676.401,13.5924,0.733348,0,1.82261,8.95019,-3.23328,-6.89024,3.75,-44.2378,-9.81,-2.56507,-0.912502,-73.9939,16.128,-37.1951
676.411,13.0488,0.462193,0,1.55916,8.86876,-3.19256,-6.58537,17.4085,-48.0793,-10.0495,-2.67524,-1.0562,-51.9817,23.0793,-33.5061
676.421,12.4736,0.23629,0,1.30289,8.69632,-2.90276,-4.87805,26.6463,-49.4512,-10.1214,-2.62015,-0.907712,-33.1098,23.7805,-36.7378
676.431,11.9113,0.0509548,0,1.16158,8.72027,-2.54351,-2.43902,28.1098,-47.4085,-10.1573,-2.31119,-0.768801,-23.811,23.3232,-44.9085
676.441,11.3837,-0.0875508,0,1.04183,8.86876,-2.2585,-0.182927,21.4634,-43.2012,-10.2435,-1.93518,-0.598755,-17.4085,20.4878,-53.4451
676.451,10.9083,-0.246078,0,1.16877,9.21364,-2.06451,-0.213415,12.7439,-40.0305,-10.2579,-1.46815,-0.718506,-16.7683,16.9817,-60.4573
676.461,10.463,-0.404601,0,1.24062,9.50583,-2.04774,-1.0061,3.01829,-38.3537,-10.0782,-1.00351,-0.735271,-16.5549,15.4573,-63.2012
676.471,10.0477,-0.544683,0,1.42983,9.59445,-1.91602,-3.81098,-5.85366,-38.3232,-9.82677,-0.732876,-0.66821,-24.1463,10.4573,-60.4573
676.481,9.62553,-0.673591,0,1.42504,9.54176,-1.70046,-8.5061,-11.9817,-39.9085,-9.49146,-0.514929,-0.58199,-32.2561,3.35366,-54.8476
676.491,9.1843,-0.791052,0,1.35798,9.41243,-1.45617,-10.4878,-15.2134,-42.1341,-9.19927,-0.356858,-0.57241,-41.5854,-4.60366,-48.3841
676.501,8.72739,-0.910957,0,1.18553,9.27591,-1.37953,-10.3354,-18.5976,-42.7439,-8.95737,-0.356858,-0.60594,-47.1951,-10.3963,-40.2134
676.511,8.27426,-1.05341,0,0.972378,9.39327,-1.42264,-11.2805,-23.8415,-40.4878,-8.84481,-0.56762,-0.708926,-49.6037,-15,-33.811
676.521,7.8485,-1.19244,0,0.910107,9.67109,-1.3939,-14.6646,-25.5793,-37.5305,-8.87115,-0.821492,-0.723296,-51.6159,-19.6037,-31.25
676.531,7.47587,-1.33109,0,1.0083,9.72617,-1.31247,-19.2988,-23.811,-34.0854,-8.90468,-1.07057,-0.749641,-50.1829,-23.9329,-28.9024
676.541,7.1755,-1.47883,0,1.32205,9.46751,-1.12566,-22.2866,-20.4878,-31.6159,-8.96935,-1.18074,-0.816702,-46.3415,-28.4146,-25.5793
676.551,6.92136,-1.64158,0,1.52084,9.25436,-1.03465,-22.9573,-16.6768,-30.3354,-9.0388,-1.26697,-0.907712,-44.4817,-29.5122,-21.7683
676.561,6.69438,-1.80252,0,1.75315,9.12981,-1.11847,-22.2256,-13.4756,-31.2195,-9.09868,-1.25739,-0.934058,-42.1341,-31.4634,-15.8841
676.571,6.45687,-1.99248,0,1.79866,9.16574,-1.1041,-20.122,-11.0061,-33.2317,-9.14418,-1.26218,-1.08494,-40,-33.7195,-9.14634
676.581,6.20238,-2.20213,0,1.83219,9.15616,-1.27415,-16.7378,-7.53049,-35.8841,-9.1849,-1.27894,-1.2023,-36.4329,-34.5122,-1.46341
676.591,5.91461,-2.42466,0,1.75555,9.2807,-1.42504,-14.2988,-2.9878,-38.5671,-9.24957,-1.3484,-1.2981,-32.9878,-33.811,4.60366
676.601,5.57506,-2.63632,0,1.57113,9.48667,-1.56874,-13.689,-0.182927,-41.7683,-9.31902,-1.38911,-1.3005,-30.3354,-35.3049,10.7317
676.611,5.16666,-2.87597,0,1.31726,9.76449,-1.72441,-13.75,1.70732,-45.9756,-9.31902,-1.36516,-1.45138,-28.3232,-33.2012,16.5854
676.621,4.69207,-3.16503,0,1.08734,9.83156,-1.93757,-13.3841,5.27439,-50.7622,-9.2304,-1.39869,-1.67891,-25.6402,-26.9512,19.6037
676.631,4.1577,-3.52439,0,0.838257,9.91299,-2.07409,-12.8049,6.98171,-54.8171,-9.08431,-1.3963,-1.98308,-20.122,-15.0305,22.7439
676.641,3.56954,-3.99566,0,0.59636,9.98484,-2.20102,-13.4146,8.2622,-58.5061,-8.95498,-1.46096,-2.16749,-14.1463,-2.86585,24.4817
676.651,2.95865,-4.38328,0,0.613125,9.8124,-2.38304,-13.0793,7.19512,-62.3476,-8.86636,-1.55916,-2.1651,-9.60366,7.16463,26.2805
676.661,2.34803,-4.74685,0,0.680186,9.74294,-2.57225,-13.5671,5.45732,-64.4207,-8.72266,-1.60945,-2.09564,-4.93902,10.9451,26.7073
676.671,1.76195,-5.05524,0,0.778381,9.74773,-2.58423,-14.2683,0.0914634,-64.3293,-8.57656,-1.76034,-1.89686,-2.95732,12.7744,28.811
676.681,1.24208,-5.33041,0,1.0562,9.86748,-2.61776,-15.9146,-3.78049,-61.9207,-8.52387,-1.91841,-1.79866,-1.37195,17.8963,30.9146
676.691,0.805901,-5.58517,0,1.54239,9.89143,-2.72074,-17.7744,-5.94512,-60.061,-8.55022,-2.07169,-1.76273,-2.22561,23.1402,31.4329
676.701,0.444125,-5.80813,0,1.89925,9.81479,-2.54591,-19.5732,-8.71951,-57.622,-8.73464,-2.18186,-1.71004,-6.37195,27.9878,30.3049
676.711,0.126386,-6.07111,0,1.94476,9.66869,-2.48124,-22.5305,-11.128,-54.7256,-9.00288,-2.15073,-1.95673,-6.0061,37.7439,28.1098
676.721,-0.114795,-6.35883,0,2.21539,9.46033,-2.36388,-25.6707,-10.122,-51.25,-9.41482,-1.95913,-2.19384,-4.02439,44.4207,27.622
676.731,-0.272953,-6.59267,0,2.41657,9.2807,-2.19144,-28.4451,-8.41463,-46.1585,-9.92496,-1.65975,-2.11241,0.304878,50.1829,29.9695
676.741,-0.367898,-6.69231,0,2.44771,9.40045,-1.94715,-31.6768,-9.02439,-40.0305,-10.4926,-1.29092,-1.6358,1.61585,50.061,32.4085
676.751,-0.406289,-6.65797,0,2.40699,9.65672,-1.96871,-33.628,-9.48171,-33.2317,-10.95,-0.996328,-1.07297,-6.76829,46.189,34.0244
676.761,-0.386576,-6.61443,0,2.44052,9.58966,-2.26329,-32.5,-9.57317,-27.9573,-11.338,-0.778381,-1.06099,-23.5061,42.9268,27.1951
676.771,-0.32409,-6.75398,0,2.29922,9.29268,-2.61297,-27.3476,-8.65854,-22.7744,-11.1416,-0.694556,-1.94236,-35.9451,50.3354,22.3476
676.781,-0.261009,-7.02525,0,1.71244,9.06036,-2.68961,-22.8659,-12.1951,-16.0671,-10.6698,-0.517324,-2.51717,-36.2195,66.7073,20.6707
676.791,-0.172222,-7.33604,0,1.33163,9.21603,-2.66326,-17.4695,-12.0732,-8.2622,-10.4591,-0.296982,-2.70398,-31.4634,76.3719,24.1768
676.801,0.177921,-7.56998,0,1.53281,9.33818,-2.70877,-14.1159,-10.0915,0.884146,-10.6147,-0.687371,-2.42136,-18.2317,79.5427,28.8415
676.811,0.50974,-7.6847,0,1.89446,9.50583,-2.60339,-11.3415,-11.2805,11.2195,-11.4865,-0.910107,-2.04056,-7.34756,79.5122,33.7195
676.821,1.01744,-7.70471,0,2.58423,9.94173,-2.75427,-9.57317,-12.1646,23.1098,-12.4637,-1.03465,-1.70286,2.2561,82.8354,33.4146
676.831,1.71032,-7.62482,0,3.21412,10.1046,-2.87642,-9.17683,-11.4939,36.7683,-13.3331,-1.21427,-1.23104,2.95732,83.2622,24.7561
676.841,2.57156,-7.50442,0,3.54702,9.97765,-2.84528,-7.0122,-11.9512,51.4329,-13.9294,-1.26697,-1.01309,-4.5122,85.7927,13.2622
676.851,3.60097,-7.20039,0,3.90867,9.92017,-2.82373,-2.92683,-13.4451,66.4024,-14.2647,-0.847837,0.143701,-20.1524,81.6463,1.4939
676.861,4.77014,-6.78085,0,4.16494,9.89383,-3.26202,3.2622,-10.7317,80.061,-14.7318,-0.316143,0.955613,-44.2683,64.1463,-3.23171
676.871,6.02767,-6.51996,0,4.07632,9.68306,-3.42727,12.4085,-5.33537,91.4634,-14.6982,0.0526904,0.0263452,-63.7805,59.6646,-4.14634
676.881,7.33027,-6.44325,0,3.76976,10.0351,-2.50998,17.8963,0.640244,103.201,-13.3642,0.0167651,-0.989143,-68.0793,70.6707,1.55488
676.891,8.62403,-6.37318,0,2.91953,10.9907,-2.08606,15.2744,9.90854,116.616,-11.2638,-0.548459,-0.852627,-69.2683,69.6951,11.25
676.901,9.9659,-6.25236,0,2.23216,10.5261,-1.70286,4.93902,9.57317,130.091,-9.48188,-1.46336,-0.500559,-60.0305,60.7012,20.4573
676.911,11.4058,-6.02135,0,2.19384,9.07952,-0.792751,-1.7378,-9.17683,139.543,-8.3682,-1.90644,-0.0287402,-36.128,44.8476,29.878
676.921,12.9879,-5.67615,0,2.48603,7.72633,0.0910107,1.37195,-25.1829,148.323,-7.68562,-1.9232,0.380808,-2.5,28.4451,39.3902
676.931,14.5391,-5.36,0,1.5879,7.41498,1.92799,9.11585,-34.3598,160.122,-7.47725,-1.71962,0.311353,30.9451,15.5183,50
676.941,15.991,-2.35938,0,0.469424,7.29523,2.59141,21.372,-33.4451,170.305,-8.04008,-1.04902,0.902922,56.5244,0.579268,63.75
676.951,17.3164,-1.99277,0,-0.423918,7.61137,2.13875,39.7561,-23.2622,174.39,-8.34664,-1.22864,1.00112,80.5793,-8.23171,67.7744
676.961,18.5794,-1.69352,0,-0.905317,9.1346,1.49928,59.4817,-22.9878,175.762,-8.89031,-1.27655,0.855022,90.9756,-14.2683,66.0671
676.971,19.9234,-1.46349,0,0.0742456,11.3692,-0.349673,68.6281,-27.7439,174.299,-9.83395,-0.455054,0.694556,95.3354,-15.2134,57.5305
676.981,21.2412,-1.27286,0,1.08494,12.7655,-1.60706,66.25,-33.3537,165.213,-10.0567,0.138911,0.56762,89.1159,-24.2073,46.8598
676.991,22.5369,-1.16172,0,2.95545,13.9893,-2.05972,65.0305,-39.4512,151.22,-10.0303,0.308958,0.251477,87.2256,-19.7256,39.1768
677.001,23.7935,-1.02017,0,4.71579,14.4683,-2.33514,64.1159,-39.2988,137.378,-10.0854,0.922083,0.407153,80.3354,-20.3963,35.8537
677.011,25.0082,-0.902057,0,5.54926,13.278,-2.28724,62.6524,-26.8902,126.22,-9.87946,1.25499,0.323328,64.7866,-17.7744,40.1524
677.021,26.2042,-0.804115,0,5.73368,11.2135,-1.63101,66.5244,-10.0305,117.805,-9.58247,1.31966,0.249082,49.8171,-16.6159,45.7927
677.031,27.3354,-0.73775,0,5.34808,10.2914,-1.07297,74.1463,5.27439,112.866,-9.38129,1.2502,0.129331,31.6159,-16.5549,52.7439
677.041,28.3687,-0.73856,0,4.63436,10.1884,-0.771196,81.0671,21.1585,111.311,-9.30944,1.04423,-0.136516,16.3415,-16.5549,60.9146
677.051,29.3371,-0.781987,0,4.18889,10.3632,-0.584385,86.4634,38.5061,111.799,-9.43877,0.871787,-0.316143,6.43293,-16.7988,67.0732
677.061,30.2244,-0.876871,0,3.65959,10.4279,-0.261057,87.7439,57.561,110.945,-9.6639,0.65384,-0.550855,0.853659,-17.0427,71.4939
677.071,31.0449,-1.00351,0,3.24046,10.574,-0.119751,86.4634,75.2439,110.64,-9.81719,0.378413,-0.716111,1.37195,-19.6341,69.2073
677.081,31.8264,-1.16564,0,3.0273,10.6243,-0.241897,81.9207,87.561,110.64,-9.82916,0.186812,-0.895737,5.18293,-22.0732,61.9512
677.091,32.567,-1.31983,0,2.97701,10.2387,-0.265847,75.6707,96.4939,107.439,-9.69743,0.179626,-0.878972,10.4573,-24.2378,51.7988
677.101,33.2368,-1.47875,0,2.79738,10.0256,-0.342488,69.2988,98.2317,102.988,-9.49146,0.270637,-0.907712,14.878,-26.2195,43.872
677.111,33.8364,-1.62077,0,2.51717,9.67827,-0.469424,65.2439,95.5793,99.2683,-9.32142,0.423918,-0.850232,17.0732,-29.6341,40.7012
677.121,34.355,-1.7148,0,2.37346,9.16813,-0.565225,60.3659,89.1463,92.3476,-9.25436,0.522114,-0.675395,15,-36.128,40.3354
677.131,34.7907,-1.77508,0,2.15312,9.14418,-0.958008,55.6098,78.7805,87.5305,-9.15856,0.519719,-0.548459,12.8049,-38.4146,41.0671
677.141,35.1199,-1.82625,0,1.94955,8.9933,-1.08494,49.1159,67.0427,79.6341,-9.15137,0.469424,-0.524509,8.65854,-43.0183,41.3415
677.151,35.3393,-1.89603,0,1.8777,8.82565,-1.03944,43.2317,54.3293,69.5427,-9.14658,0.409548,-0.61073,3.2622,-46.8293,40.0305
677.161,35.4725,-1.9731,0,1.99745,8.47837,-1.0107,39.4817,42.1951,58.6585,-9.15137,0.364043,-0.65384,-1.64634,-49.3902,37.1951
677.171,35.4641,-2.0813,0,1.75315,8.09996,-1.00351,36.4329,29.3902,46.6159,-9.14897,0.399968,-0.792751,-4.29878,-49.8476,32.9573
677.181,35.2947,-2.21038,0,1.50168,7.91793,-0.965193,31.9512,19.0854,33.1707,-9.29507,0.447869,-0.910107,-7.65244,-50.7622,28.872
677.191,34.9751,-2.37317,0,1.35319,7.73591,-0.718506,27.0427,10,19.1768,-9.39806,0.560435,-1.08255,-7.95732,-50.4573,23.872
677.201,34.4798,-2.53516,0,1.15679,7.42456,-0.6251,23.4451,-0.426829,5.82317,-9.55134,0.60594,-1.12326,-9.78659,-49.2073,16.0366
677.211,33.776,-2.70158,0,0.452659,7.33115,-0.809517,18.5366,-15.8841,-8.32317,-9.62319,0.701741,-1.18074,-11.189,-52.0122,9.29878
677.221,32.9231,-2.89551,0,0.201182,7.3096,-1.20948,10.2744,-35.6707,-21.311,-9.57768,0.725691,-1.31966,-11.8293,-49.7256,3.29268
677.231,31.9127,-3.109,0,-0.148491,7.11321,-1.38911,-2.28659,-53.7195,-33.4756,-9.48188,0.711321,-1.42025,-16.3415,-46.8902,-3.47561
677.241,30.7891,-3.36509,0,-0.167651,6.96232,-1.62622,-2.59146,-79.6037,-46.7073,-9.34058,0.627495,-1.60945,-19.3293,-40.5183,-9.05488
677.251,29.6674,-3.65478,0,0.895737,7.71196,-2.32077,-4.20732,-100.762,-65.1524,-9.15376,0.637075,-1.75315,-24.0549,-32.6524,-15.5793
677.261,28.5919,-3.99491,0,2.61057,8.33946,-2.26329,-18.1098,-98.0488,-84.6646,-8.95737,0.627495,-1.96392,-28.811,-24.7866,-20.4268
677.271,27.593,-4.32926,0,4.0404,8.16462,-1.48731,-35.9756,-84.1159,-97.3171,-8.88792,0.752036,-1.9735,-32.2866,-16.3415,-24.1768
677.281,26.7213,-4.61586,0,4.93853,7.46049,-0.828677,-44.4207,-74.6037,-101.006,-8.95737,0.814307,-1.84417,-34.3598,-13.5671,-29.7866
677.291,25.9571,-4.92629,0,5.87498,7.21859,-1.30529,-43.5061,-76.0061,-103.323,-9.01006,0.893342,-1.99266,-36.3415,-7.19512,-32.9573
677.301,25.2872,-5.28279,0,6.88089,7.27607,-2.51238,-43.6585,-81.2805,-103.963,-9.05796,1.04902,-2.12917,-36.7988,3.62805,-35.8232
677.311,24.7029,-5.54515,0,7.42935,7.21619,-3.76258,-42.3171,-89.5427,-101.555,-9.29268,1.18793,-1.94955,-38.3537,11.9817,-35.1829
677.321,24.1732,-5.73247,0,7.80537,7.46049,-5.29299,-40.3049,-91.6463,-98.1098,-9.72617,1.20469,-1.74836,-42.1341,17.1951,-34.6037
677.331,23.7119,-5.86415,0,8.38257,8.02332,-6.11688,-37.7439,-79.7256,-92.1341,-10.2291,1.08973,-1.61424,-44.1768,18.1402,-35.7622
677.341,23.3551,-6.01379,0,9.12023,8.35622,-6.09053,-33.9939,-55.1829,-84.9695,-10.5141,0.732876,-1.76273,-49.1159,25.3659,-39.7256
677.351,23.158,-6.17206,0,9.63516,8.16223,-5.47741,-25.1524,-24.9695,-73.9329,-10.7129,0.234712,-1.85854,-52.6829,34.0549,-46.1585
677.361,23.1604,-6.33619,0,10.0112,7.6952,-5.08463,-10.2134,-5.79268,-59.5427,-10.7944,-0.182021,-1.92799,-48.9329,38.3537,-50.1829
677.371,23.4017,-6.51756,0,10.3776,7.24493,-4.91937,0.457317,-3.01829,-40.5183,-10.8806,-0.61073,-2.05732,-36.4329,42.2256,-51.8598
677.381,23.8777,-6.73678,0,10.8255,6.72042,-4.82836,7.53049,0.609756,-22.378,-10.9285,-1.00591,-2.28724,-23.1707,47.0122,-51.9512
677.391,24.392,-6.98094,0,10.0495,7.18266,-4.2296,9.81707,14.2378,-9.90854,-10.7752,-1.11368,-2.41418,-16.9817,55.3049,-53.5366
677.401,24.8337,-7.29186,0,8.63884,7.95625,-3.559,9.54268,29.2683,-2.46951,-10.5046,-0.835862,-2.71835,-16.128,65.4268,-54.1768
677.411,25.1519,-7.57963,0,7.66646,8.44244,-2.53872,11.0061,43.3537,-3.41463,-10.3848,-0.311353,-2.62255,-24.2378,77.9573,-55.0305
677.421,25.2041,-7.79995,0,6.52164,9.70462,-1.71483,12.9573,61.0976,-12.5305,-10.6219,0.261057,-2.39981,-37.3476,83.2927,-59.0854
677.431,24.8522,-7.96148,0,4.50982,11.2255,-2.09085,16.8902,66.6159,-29.1463,-11.2662,0.689766,-2.28006,-46.372,88.4756,-64.6341
677.441,24.1257,-8.04016,0,3.18059,13.381,-2.82373,12.7134,58.4451,-50.7012,-12.0661,0.979563,-2.01661,-49.0854,92.9573,-67.5
677.451,23.2018,-8.03499,0,3.38656,15.2754,-2.42376,-8.2622,49.5427,-70.5488,-13.0624,0.984353,-1.70525,-54.4512,95.3659,-67.8049
677.461,22.337,-7.90871,0,4.29906,14.6767,-0.941243,-39.6646,43.3537,-74.2073,-13.9222,0.64426,-1.07776,-55.3963,84.7561,-69.4817
677.471,21.7098,-7.67309,0,4.92656,13.5798,0.680186,-61.6463,39.1768,-59.1159,-14.3749,0.299377,-0.411943,-53.1402,64.1159,-67.561
677.481,21.2581,-7.33324,0,4.18649,12.5978,0.411943,-54.6646,20.5183,-39.2988,-14.6216,-0.349673,0.277822,-51.0671,36.2805,-57.6524
677.491,20.8805,-6.9973,0,3.10634,10.768,-0.514929,-34.878,-10.9451,-27.9878,-13.848,-1.10171,0.320933,-56.372,35.8232,-46.4024
677.501,20.4638,-6.67196,0,2.49322,8.69392,-0.732876,-13.7805,-25.061,-32.561,-12.32,-0.993933,0.296982,-67.2561,32.8354,-27.8049
677.511,19.8188,-6.32324,0,1.5376,7.94667,-1.06818,3.38415,-16.8902,-46.4024,-10.6315,-0.366438,0.421523,-81.311,27.561,-7.10366
677.521,18.7971,-5.81962,0,-0.241897,8.29156,-1.80105,12.1646,-0.152439,-60.3963,-9.41482,-0.184417,1.06578,-92.3171,12.9878,11.9207
677.531,17.4779,-4.41411,0,-1.81303,8.55501,-2.40699,9.90854,10.1829,-71.8293,-8.54543,-0.00958008,1.50647,-107.378,-1.58537,23.8415
677.541,16.0624,-3.74027,0,-2.2609,8.49274,-2.26329,-1.06707,7.71341,-78.3537,-7.78381,-0.117356,1.7292,-123.506,-15.5488,24.7561
677.551,14.7737,-3.00228,0,-1.17595,8.15983,-1.86333,-12.9268,6.82927,-81.9817,-7.17069,-0.0455054,1.88967,-139.116,-26.7683,21.8902
677.561,13.6705,-2.37292,0,-0.117356,8.2724,-1.25739,-22.6524,10.3354,-80.7622,-6.88808,-0.0455054,1.55437,-151.28,-35.1829,19.7256
677.571,12.7735,-1.93293,0,0.924478,8.2724,-0.66821,-29.2073,14.6646,-76.6463,-6.95753,-0.167651,1.04423,-153.476,-40.9146,15.8841
677.581,12.0435,-1.68842,0,1.36037,8.41131,-0.143701,-30.7927,14.3598,-67.1646,-7.3551,-0.495769,0.517324,-144.817,-44.0549,12.1951
677.591,11.4247,-1.58104,0,1.26218,8.50711,-0.172441,-29.4817,3.10976,-55.7927,-8.09996,-0.991538,0.114961,-128.262,-42.4695,6.89024
677.601,10.8896,-1.56953,0,1.07057,8.51429,-0.684976,-24.5427,-9.81707,-45.9146,-9.01964,-1.62861,-0.234712,-107.53,-40.4268,-1.92073
677.611,10.4071,-1.63158,0,0.965193,8.44963,-1.68609,-16.9207,-14.8476,-40.3049,-10.0735,-2.32077,-0.58199,-83.5976,-34.3902,-13.75
677.621,9.95997,-1.77503,0,1.06818,8.63405,-2.77343,-7.59146,-9.45122,-38.7805,-10.8135,-2.89079,-1.02028,-56.0366,-27.4695,-28.3537
677.631,9.4607,-1.91937,0,0.799937,8.90229,-3.53265,-1.95122,0.701219,-41.0976,-11.1608,-3.15903,-1.08015,-28.7195,-21.8293,-38.811
677.641,8.9078,-2.0804,0,0.637075,9.11065,-3.76976,-1.21951,8.07927,-45.2744,-10.8782,-3.16861,-1.15679,-5.94512,-17.0122,-44.2988
677.651,8.30327,-2.24622,0,0.416733,9.07712,-3.65001,-2.59146,8.81098,-48.872,-10.0495,-2.89318,-1.11129,12.4695,-8.71951,-44.6037
677.661,7.66689,-2.39569,0,0.182021,9.19927,-3.19017,-4.11585,3.53659,-50.3049,-9.45793,-2.6944,-1.0083,23.3232,-13.0488,-46.7988
677.671,7.05069,-2.53736,0,0.0862207,9.49625,-2.56028,-4.60366,-6.15854,-48.2927,-9.12263,-2.19863,-0.962798,30.2744,-10.4573,-51.0366
677.681,6.49383,-2.68175,0,0.232317,9.76928,-2.2106,-6.58537,-13.872,-45.2134,-9.04838,-1.91362,-0.986748,34.9695,-8.56707,-53.2622
677.691,6.03804,-2.79614,0,0.689766,9.92257,-1.96392,-12.0732,-23.0183,-41.372,-9.21125,-1.55676,-0.912502,31.0061,-17.561,-52.7744
677.701,5.69358,-2.89763,0,1.37714,9.89622,-1.78668,-18.5366,-30.3354,-38.9939,-9.31184,-1.29571,-0.893342,27.622,-24.4512,-50.3049
677.711,5.40683,-2.98097,0,1.7316,9.94173,-1.58071,-24.1768,-37.378,-37.8049,-9.41003,-1.12087,-0.847837,24.5122,-29.5732,-41.7073
677.721,5.13575,-3.04844,0,1.75076,9.79084,-1.54479,-27.8354,-44.2378,-37.3171,-9.42201,-1.04423,-0.797541,21.0671,-31.0366,-35.6707
677.731,4.88207,-3.13081,0,1.78429,9.58726,-1.81303,-28.5671,-49.2988,-36.9207,-9.40285,-0.953218,-0.869392,21.4939,-31.128,-28.3232
677.741,4.62083,-3.23152,0,1.62861,9.2352,-2.00224,-27.2561,-52.1341,-37.1037,-9.35255,-0.926873,-0.955613,23.0488,-32.3171,-21.0061
677.751,4.35831,-3.36843,0,1.46096,8.8472,-2.06211,-23.9024,-49.2683,-36.4939,-9.19448,-0.934058,-1.1041,27.2866,-32.0427,-14.6646
677.761,4.12064,-3.49262,0,1.5376,8.68195,-2.25371,-20.061,-42.8659,-35.8537,-9.06754,-0.864602,-1.06099,32.2256,-34.2073,-9.7561
677.771,3.91611,-3.6231,0,1.6837,8.68674,-2.14833,-15.8537,-34.6037,-34.8476,-8.8951,-0.946033,-1.08734,35.3049,-36.7073,-5.57927
677.781,3.73208,-3.74416,0,1.89925,8.93582,-1.90404,-14.3902,-23.9939,-35.2744,-8.83523,-0.955613,-1.06578,34.6037,-40.061,-1.7378
677.791,3.58325,-3.85666,0,2.29203,9.09628,-1.54718,-15.122,-14.5427,-36.4329,-8.81367,-0.941243,-1.05141,33.3232,-43.9634,2.19512
677.801,3.46086,-3.97605,0,2.63452,9.24957,-1.33403,-16.189,-4.87805,-37.622,-8.8496,-0.965193,-1.10171,30.9146,-45.4268,7.46951
677.811,3.31561,-4.1109,0,2.58423,9.16095,-1.19272,-16.0061,2.19512,-39.9085,-8.89989,-1.05141,-1.18793,24.9695,-44.7256,12.6524
677.821,3.11826,-4.24142,0,2.30401,9.09628,-1.19032,-14.9085,6.70732,-42.378,-9.04359,-1.22625,-1.20948,21.5549,-42.5915,18.75
677.831,2.85745,-4.3544,0,1.93757,9.14418,-1.43222,-13.2927,10.4878,-44.6646,-9.14418,-1.24541,-1.17356,16.7378,-44.2073,22.4085
677.841,2.53885,-4.45953,0,1.57592,9.2831,-1.81063,-11.1585,11.9207,-46.3415,-9.22322,-1.31726,-1.16877,10.2134,-42.9878,26.2805
677.851,2.14784,-4.60444,0,1.0562,9.41961,-2.0669,-9.57317,11.6159,-47.7744,-9.21843,-1.22864,-1.3484,8.84146,-40.9756,29.1159
677.861,1.70299,-4.83049,0,0.617915,9.50823,-2.37825,-9.7561,9.78659,-48.5976,-9.06275,-1.18314,-1.67651,10.7012,-33.9634,33.7195
677.871,1.25074,-5.16056,0,0.443079,9.63037,-2.71116,-10.9756,7.92683,-48.0488,-8.91426,-1.19032,-2.10522,14.8476,-24.6646,36.9207
677.881,0.806933,-5.55122,0,0.397573,9.62558,-2.65608,-13.1098,2.89634,-47.561,-8.67955,-1.24062,-2.34233,21.4024,-15.5183,41.372
677.891,0.397807,-5.95995,0,0.534089,9.62079,-2.54351,-16.0366,-3.75,-46.5854,-8.52387,-1.26697,-2.42855,29.4512,-8.35366,46.2195
677.901,0.0375979,-6.38141,0,0.792751,9.50823,-2.36628,-19.3902,-9.63415,-45.6707,-8.35622,-1.34361,-2.37825,35.2744,-4.29878,52.8354
677.911,-0.264382,-6.82851,0,1.08734,9.50583,-2.20581,-22.561,-15.6402,-44.0549,-8.29635,-1.43222,-2.08846,42.439,-2.59146,59.878
677.921,-0.498951,-7.65059,0,1.40109,9.4723,-2.04056,-24.7256,-21.0976,-41.6463,-8.27,-1.57113,-1.95673,50.9756,-1.03659,67.2256
677.931,-0.675032,-7.82844,0,1.70046,9.60163,-1.86572,-25.8841,-25.2744,-39.4817,-8.40412,-1.70765,-1.73399,55.4573,3.90244,72.2866
677.941,-0.814163,-8.04136,0,1.825,9.57768,-1.79147,-26.0671,-27.9878,-37.5915,-8.51429,-1.84896,-1.98787,58.9634,12.8354,75.0305
677.951,-0.905799,-8.29415,0,2.12917,9.55613,-1.91602,-25.1829,-29.5732,-36.6463,-8.72506,-1.85135,-2.22258,65.1524,26.9817,75.3354
677.961,-0.97776,-8.50551,0,2.13157,9.41961,-2.05253,-25.8232,-31.4024,-35.2134,-9.10347,-1.76273,-2.17468,69.4512,39.6646,74.6646
677.971,-1.02799,-8.56581,0,2.16749,9.29747,-2.17228,-27.8049,-29.9695,-33.9024,-9.76928,-1.50407,-1.68849,68.5671,44.9085,71.8902
677.981,-0.998702,-8.46895,0,2.56986,9.39327,-2.52196,-30.3354,-21.5244,-30.3354,-10.4758,-1.23823,-1.08494,59.7866,41.8293,69.1768
677.991,-0.883662,-8.32714,0,2.85486,9.51302,-2.71356,-30.5183,-10.7927,-24.3902,-11.1895,-0.962798,-0.919688,41.8902,38.2012,61.9817
678.001,-0.712431,-8.35914,0,2.79259,9.34297,-2.7902,-29.4512,-3.41463,-18.2927,-11.35,-0.435894,-1.7795,29.0549,45.4268,55.2744
678.011,-0.47561,-8.6644,0,2.80936,9.20646,-2.87881,-28.0488,0.884146,-11.9207,-10.6387,-0.603545,-3.00096,23.4756,63.6585,60.5793
678.021,-0.188012,-9.16164,0,2.7423,9.137,-2.91474,-25.4268,1.85976,-5.88415,-9.88664,-0.443079,-3.74342,27.0427,97.5,62.7134
678.031,0.31358,-9.606,0,2.7423,9.18011,-3.00335,-21.8598,0.152439,1.25,-10.095,-0.534089,-3.65001,31.1585,101.921,60.0915
678.041,0.716627,-10.0125,0,2.70877,9.44835,-3.22609,-19.6037,-6.89024,9.11585,-10.1022,-1.34121,-3.54223,41.9817,110.61,55.9451
678.051,1.1921,-10.2933,0,2.79499,9.8603,-3.78653,-18.9329,-11.7073,17.6829,-10.5812,-1.33403,-3.13987,53.2317,116.433,52.7439
678.061,1.76863,-10.4372,0,3.00335,10.1693,-4.16494,-18.811,-13.811,27.6829,-11.623,-1.76513,-2.75188,60.4878,122.866,47.5305
678.071,2.48336,-10.401,0,3.35303,10.1693,-4.00687,-18.7805,-14.8171,39.2988,-12.7008,-1.6837,-1.99266,61.4024,122.134,43.4756
678.081,3.38553,-10.2611,0,4.02124,10.0806,-3.51349,-18.75,-17.7744,52.7439,-13.5343,-1.55916,-1.48731,51.7988,120.701,33.9024
678.091,4.48331,-9.96634,0,4.6176,9.92017,-3.44404,-17.2561,-20.4268,67.9878,-14.1881,-0.823887,-0.560435,33.1402,112.439,23.9634
678.101,5.76274,-9.46781,0,5.00799,9.35974,-3.81048,-13.0488,-20.6098,82.2561,-14.9138,-0.170046,0.802332,9.11585,92.2561,15.3049
678.111,7.20152,-9.00438,0,5.0966,8.56219,-3.53744,-5.67073,-18.689,95.7927,-15.4838,0.675395,0.704136,-18.2012,74.4817,12.1951
678.121,8.7142,-8.77,0,4.78046,8.7059,-2.99377,0.0914634,-12.0427,110.335,-14.7605,1.54958,-0.699346,-33.628,75.3659,18.1707
678.131,10.2784,-8.55947,0,4.05477,9.17772,-2.55549,-1.12805,-3.41463,128.75,-12.9954,1.30529,-0.701741,-37.0732,73.2927,29.6951
678.141,11.9368,-8.2112,0,3.5087,8.43047,-1.51844,-6.70732,-9.45122,144.085,-11.259,0.464634,0.0981958,-40,53.4451,31.25
678.151,13.7618,-7.79685,0,3.53265,7.05573,-0.457449,-5.45732,-21.0976,156.311,-9.63995,-0.277822,0.407153,-33.628,33.5671,26.311
678.161,15.6039,-7.34776,0,3.04407,6.74677,1.19511,-2.83537,-29.5732,166.494,-8.31551,-0.720901,0.529299,-18.5061,19.878,18.5366
678.171,17.255,-6.93173,0,1.37953,6.94077,2.47885,4.96951,-29.1768,177.378,-7.29523,-0.948428,0.414338,3.65854,18.7195,14.0244
678.181,18.6176,-6.63504,0,-0.64426,7.26409,1.45378,27.9878,-19.5732,184.604,-6.89287,-1.40588,0.0742456,31.25,11.7988,12.8049
678.191,19.8371,-5.86512,0,-1.49449,8.11672,0.579595,50.8537,-17.3171,183.72,-7.13716,-1.22386,0.720901,55.4573,-3.78049,11.9817
678.201,21.198,-5.41859,0,0.00718506,10.3273,-1.22146,66.9512,-17.9268,179.268,-7.47246,-1.17835,0.696951,75.3354,-16.6159,8.41463
678.211,22.5444,-4.99865,0,0.972378,12.3894,-3.32189,74.5122,-11.9817,171.494,-8.33467,-1.152,0.740061,82.8049,-22.5915,0.182927
678.221,23.8506,-4.6835,0,2.42615,14.4492,-3.19496,72.5915,-23.872,159.848,-9.26873,-0.761616,0.457449,78.2317,-27.1037,-6.70732
678.231,25.0754,-4.42292,0,3.93262,15.4383,-2.70877,71.6159,-41.0976,144.482,-10.2411,-0.0598755,0.311353,68.5366,-31.4024,-9.05488
678.241,26.1952,-4.25563,0,4.58646,14.5473,-2.14354,71.2195,-42.5305,129.726,-11.1225,0.771196,-0.0694556,55.5183,-32.2256,-0.0304878
678.251,27.2447,-4.131,0,4.84752,12.4373,-1.28373,76.7378,-30.8537,117.104,-11.5272,1.30768,-0.256267,41.4024,-33.3537,12.8659
678.261,28.2864,-4.03237,0,5.13971,10.8039,-0.888552,88.0183,-8.20122,109.97,-11.3859,1.57832,-0.361648,22.2561,-36.1585,26.7683
678.271,29.2552,-3.93411,0,4.83554,10.2962,-0.627495,99.0549,14.0549,105.244,-10.7081,1.54958,-0.330513,0.396341,-43.7805,38.5671
678.281,30.1914,-3.8648,0,4.80441,10.2243,-0.63947,107.134,37.0732,103.872,-9.8124,1.34361,-0.416733,-18.5976,-50.1524,47.5305
678.291,31.1167,-3.8682,0,5.12295,10.4231,-0.682581,106.89,63.0183,102.622,-9.29986,1.18793,-0.682581,-30,-49.9085,52.8354
678.301,31.9935,-3.87916,0,4.60083,10.4231,-0.455054,105.61,84.0244,104.36,-9.07952,1.17595,-0.699346,-40.9451,-52.439,56.8293
678.311,32.8336,-3.96063,0,4.29667,10.3249,-0.617915,103.232,106.524,104.909,-9.04838,1.03465,-0.984353,-50.0305,-54.9695,55.2439
678.321,33.5912,-4.094,0,3.81048,10.1405,-0.64905,96.7378,121.037,102.287,-9.07712,0.843047,-1.20948,-50.8537,-52.8049,51.4024
678.331,34.2489,-4.27027,0,3.42727,9.74773,-0.380808,89.2683,126.22,96.1281,-9.15616,0.65863,-1.41546,-48.1402,-48.9939,44.9695
678.341,34.7628,-4.45631,0,2.87642,9.41243,-0.193997,80.9756,125.549,87.6524,-9.14658,0.57241,-1.47773,-49.5732,-42.2561,37.3476
678.351,35.1791,-4.66565,0,2.81175,8.99809,-0.359253,73.6281,119.146,78.0183,-9.09628,0.421523,-1.59029,-52.6829,-35.1524,31.189
678.361,35.4582,-4.86861,0,2.33514,8.78254,-0.402363,66.8293,105.976,69.8781,-9.10586,0.289797,-1.59748,-57.1951,-32.2561,25.6402
678.371,35.6242,-5.05296,0,2.00703,8.60052,-0.58678,60.6707,91.4329,62.5,-9.1346,0.0958008,-1.55916,-61.0671,-32.8049,21.189
678.381,35.6827,-5.22372,0,1.76513,8.41131,-0.886157,55.0305,75.061,54.4817,-9.19927,-0.0502954,-1.54718,-63.3537,-36.7378,16.6768
678.391,35.6123,-5.37612,0,1.51844,8.26282,-1.11129,49.9695,58.2622,44.3902,-9.31423,-0.146096,-1.52084,-66.7683,-40.6707,11.7378
678.401,35.3946,-5.52241,0,1.28373,8.13588,-1.25499,45.3659,40.8537,32.1646,-9.36213,-0.196392,-1.53281,-66.5244,-46.0366,6.03659
678.411,34.9916,-5.68417,0,0.840652,7.98499,-1.27415,39.1463,22.7134,18.8415,-9.3286,-0.0526904,-1.61903,-65.1219,-48.2317,-0.121951
678.421,34.0786,-5.85661,0,0.414338,7.90835,-1.00351,31.2195,4.87805,3.2622,-9.35734,0.0981958,-1.69807,-62.0732,-49.8476,-4.66463
678.431,33.2926,-6.04302,0,0.122146,7.84848,-0.723296,21.4939,-10.2134,-12.4695,-9.44356,0.304167,-1.80345,-60.7622,-50.061,-6.95122
678.441,32.3503,-6.19408,0,-0.0263452,7.61856,-0.531694,10.6098,-27.4085,-27.8049,-9.53697,0.514929,-1.70286,-56.7683,-53.75,-10.5183
678.451,31.2964,-6.31942,0,-0.0263452,7.28804,-0.696951,0.548781,-50.3963,-41.0976,-9.54415,0.641865,-1.62143,-54.6037,-57.0732,-13.5671
678.461,30.2176,-6.43936,0,0.306563,7.19224,-1.1999,-9.54268,-70.6098,-51.189,-9.39087,0.756826,-1.59269,-55.9756,-56.0671,-18.5671
678.471,29.0965,-6.60985,0,0.356858,6.8282,-1.27655,-16.4329,-84.3293,-58.8415,-9.12502,0.737666,-1.77231,-59.0244,-49.878,-21.6159
678.481,27.9877,-6.83618,0,1.04902,7.29523,-1.79387,-16.0976,-105.183,-70.4573,-8.85678,0.799937,-1.96871,-65.7317,-41.7683,-25.9451
678.491,26.9413,-7.09925,0,2.64171,8.13588,-2.01661,-22.5915,-109.604,-86.3719,-8.75859,0.783171,-2.12678,-71.8598,-34.1768,-29.7256
678.501,25.9613,-7.37856,0,4.25595,8.48795,-1.56155,-35.4268,-101.89,-99.3598,-8.66997,0.850232,-2.20581,-79.4207,-24.6037,-31.4939
678.511,25.0855,-7.62257,0,5.64746,8.15265,-1.3005,-46.4024,-94.3598,-107.226,-8.73703,0.847837,-2.1172,-87.561,-16.4024,-32.9268
678.521,24.335,-7.83792,0,6.96711,7.71436,-1.40348,-50.6707,-87.4085,-111.28,-8.84002,0.878972,-2.05972,-93.0183,-11.2195,-36.6463
678.531,23.6867,-8.04502,0,7.8844,7.38624,-2.14115,-49.2378,-80.5488,-112.134,-8.93342,0.972378,-2.04056,-93.689,-4.39024,-39.0549
678.541,23.1567,-8.28827,0,8.66279,7.10602,-3.31471,-45.9146,-71.6463,-109.085,-9.02204,1.03465,-2.14354,-95.2134,3.04878,-37.2256
678.551,22.6817,-8.51298,0,8.69632,7.31199,-4.72537,-39.878,-65.9756,-103.14,-9.18729,0.984353,-2.27287,-95.8232,13.5671,-34.8476
678.561,22.2277,-8.71391,0,8.59573,7.61137,-5.73847,-34.7866,-57.2256,-98.9634,-9.44117,0.783171,-2.2609,-93.9939,24.2378,-34.4207
678.571,21.8163,-8.85814,0,8.75859,7.9323,-6.25819,-31.7988,-40.3659,-94.2378,-9.81719,0.462239,-2.12438,-95.0305,29.4817,-36.0061
678.581,21.5043,-8.89205,0,8.93582,7.93709,-6.27495,-27.5915,-19.3598,-86.0671,-10.3082,0.229922,-1.74118,-90.1829,25.6098,-38.0183
678.591,21.4301,-8.84392,0,9.48188,7.33115,-5.40316,-14.6951,-10,-70.3963,-10.9045,0.00239502,-1.45617,-75.4573,14.2683,-35.5488
678.601,21.7331,-8.80196,0,11.4841,6.70845,-4.91698,5.4878,-2.95732,-47.1951,-11.6733,-0.718506,-1.59029,-55.061,5.57927,-35.2439
678.611,22.3798,-8.86333,0,13.3618,6.90484,-4.4739,17.5915,20.2744,-17.561,-12.114,-1.7292,-2.20102,-36.311,10.8537,-42.9573
678.621,23.2214,-9.03358,0,12.5355,7.67364,-3.89191,21.1585,38.689,12.1037,-11.7093,-1.9711,-2.71116,-21.0366,25.4878,-52.4695
678.631,23.9815,-9.3168,0,10.0136,8.49753,-3.75539,21.4024,59.1768,23.5671,-10.962,-1.37953,-3.13029,-19.4817,50.1829,-55.4573
678.641,24.4935,-9.62659,0,7.15632,8.2221,-3.05844,27.439,83.7805,17.439,-10.3944,-0.256267,-3.13748,-21.1585,69.4207,-51.6463
678.651,24.5301,-9.91283,0,4.26792,8.78972,-2.02619,37.0732,94.5732,-0.97561,-10.38,0.632285,-3.06562,-35.4573,81.0366,-44.0549
678.661,24.0169,-10.1317,0,2.2609,10.2267,-1.84896,41.0976,89.1768,-27.7439,-10.4902,1.38672,-2.81415,-53.9329,85.5793,-36.9817
678.671,23.1098,-10.2959,0,1.36756,11.9368,-1.9256,27.8659,66.8598,-56.8902,-10.7273,1.92799,-2.6441,-71.7988,87.1951,-26.9207
678.681,22.0509,-10.3877,0,2.45729,13.8384,-1.32924,2.31707,39.3293,-81.4329,-11.2326,1.88009,-2.42376,-83.3537,88.1098,-20.0915
678.691,21.0476,-10.4364,0,4.38289,14.9761,-0.59157,-27.1646,18.5976,-90.6707,-12.0206,1.14003,-2.37825,-87.1951,86.4634,-22.7439
678.701,20.3186,-10.403,0,5.86301,14.794,0.244292,-52.561,9.08537,-75.5488,-12.8828,0.158071,-2.08367,-80.4573,82.0122,-32.9573
678.711,19.899,-10.2771,0,6.13365,14.6743,0.58678,-60.3354,8.35366,-47.6524,-13.4744,-0.811912,-1.63101,-62.1037,64.5732,-41.8902
678.721,19.7171,-10.1041,0,5.49657,13.5151,-0.153281,-46.6463,0.365854,-23.1098,-14.0803,-1.71723,-1.39869,-36.0976,47.9268,-46.5549
678.731,19.6119,-9.90431,0,4.17931,11.4003,-1.2023,-28.2317,-30.2439,-11.5854,-13.9965,-2.82612,-1.18074,-9.02439,47.7134,-49.0244
