time,angle1,angle2,intgangle,accX1,accY1,accZ1,gyroX1,gyroY1,gyroZ1,accX2,accY2,accZ2,gyroX2,gyroY2,gyroZ2
455.349,88.3015,-3.93922,0,9.6184,0.217947,-1.75794,-0.731707,-0.182927,-1.98171,-9.82197,-0.359253,-0.684976,-15.6707,2.10366,11.6463
455.359,88.2929,-3.93553,0,9.59445,0.217947,-1.71483,-0.609756,-0.365854,-1.95122,-9.84114,-0.411943,-0.65863,-15.5183,4.05488,11.6463
455.369,88.2874,-3.93298,0,9.61361,0.193997,-1.70046,-0.396341,-0.182927,-2.0122,-9.84353,-0.392783,-0.661025,-15.4268,5.97561,11.0671
455.379,88.2824,-3.92436,0,9.59924,0.196392,-1.69088,-0.548781,-0.121951,-1.95122,-9.87946,-0.373623,-0.637075,-17.8049,5.51829,11.3415
455.389,88.2833,-3.92956,0,9.59205,0.160466,-1.67651,-0.548781,-0.365854,-1.95122,-9.9082,-0.387993,-0.696951,-16.2805,6.40244,12.0732
455.399,88.2739,-3.92784,0,9.60642,0.208367,-1.66693,-0.518293,-0.518293,-2.16463,-9.9058,-0.349673,-0.66821,-16.7988,5.51829,12.7439
455.409,88.2693,-3.91833,0,9.62319,0.172441,-1.71723,-0.487805,-0.243902,-2.22561,-9.96568,-0.354463,-0.63947,-17.1037,4.29878,13.1402
455.42,88.2656,-3.91867,0,9.64474,0.172441,-1.73878,-0.487805,-0.640244,-2.16463,-9.96568,-0.383203,-0.680186,-15.061,4.48171,13.3841
455.429,88.2646,-3.92402,0,9.7142,0.167651,-1.79147,-0.426829,-0.640244,-2.0122,-10.0016,-0.376018,-0.704136,-13.9939,5.18293,12.8049
455.439,88.2684,-3.93296,0,9.69743,0.138911,-1.80345,0.0609756,0.304878,-1.98171,-10.0375,-0.407153,-0.723296,-12.7134,5.36585,12.5915
455.449,88.2634,-3.93475,0,9.68785,0.170046,-1.84417,0.396341,1.09756,-2.28659,-9.97765,-0.385598,-0.689766,-14.2073,4.63415,13.1402
455.459,88.2614,-3.93483,0,9.67348,0.158071,-1.84656,0.945122,1.85976,-2.19512,-9.94652,-0.356858,-0.680186,-13.0183,4.96951,12.9268
455.469,88.2664,-3.92575,0,9.65432,0.129331,-1.78668,1.12805,2.86585,-2.0122,-9.96089,-0.337698,-0.641865,-13.3841,4.54268,13.9634
455.479,88.2506,-3.91868,0,9.7118,0.249082,-1.89446,2.10366,4.69512,-2.2561,-9.93215,-0.371228,-0.651445,-12.6524,2.68293,14.9085
455.489,88.2396,-3.9042,0,9.67109,0.205972,-1.81542,2.22561,4.93902,-2.40854,-9.90101,-0.385598,-0.6251,-12.5,2.0122,14.4207
455.499,88.2231,-3.88982,0,9.67109,0.244292,-1.78908,2.2561,4.54268,-2.43902,-9.87227,-0.364043,-0.62989,-14.3293,1.34146,15.1524
455.509,88.2153,-3.87901,0,9.62798,0.215552,-1.71483,2.5,4.35976,-2.07317,-9.82916,-0.318538,-0.63468,-14.9085,1.43293,14.6341
455.519,88.2006,-3.86551,0,9.59924,0.249082,-1.68849,2.65244,4.42073,-2.2561,-9.82916,-0.301772,-0.62989,-16.6463,1.06707,14.5122
455.529,88.1995,-3.86809,0,9.56331,0.189207,-1.71244,2.65244,4.69512,-1.92073,-9.8124,-0.239502,-0.670605,-16.6768,2.59146,13.0488
455.539,88.1961,-3.87113,0,9.60163,0.198787,-1.69567,2.65244,4.87805,-1.98171,-9.8124,-0.265847,-0.673001,-20.7622,3.10976,13.2622
455.549,88.1891,-3.86841,0,9.63756,0.220342,-1.65017,3.07927,5.09146,-2.0122,-9.88185,-0.253872,-0.65384,-19.6037,3.90244,12.622
455.559,88.1919,-3.86546,0,9.67348,0.196392,-1.60706,3.20122,5.30488,-1.58537,-9.91299,-0.282612,-0.65384,-19.1768,4.39024,11.7073
455.569,88.1877,-3.88386,0,9.68067,0.210762,-1.66454,3.23171,5.82317,-1.92073,-9.94891,-0.299377,-0.747246,-18.5671,3.87195,10.7927
455.579,88.1929,-3.90668,0,9.67588,0.196392,-1.65017,3.2622,5.91463,-1.43293,-9.9561,-0.330513,-0.771196,-14.6341,5.18293,11.5549
455.589,88.2078,-3.93788,0,9.63995,0.191602,-1.65496,4.02439,5.64024,-0.945122,-9.92736,-0.356858,-0.809517,-12.0122,5.73171,12.378
455.599,88.2211,-3.94841,0,9.66869,0.215552,-1.63101,4.02439,5.51829,-0.731707,-9.97526,-0.368833,-0.728086,-10.5793,3.56707,13.0488
455.609,88.231,-3.94989,0,9.62319,0.237107,-1.59269,4.17683,5.42683,-0.609756,-9.97526,-0.378413,-0.692161,-7.28659,2.22561,14.2073
455.619,88.2433,-3.96051,0,9.6663,0.232317,-1.57832,4.08537,5.42683,-0.518293,-9.96328,-0.352068,-0.716111,-5.4878,0.97561,14.0854
455.629,88.2698,-3.99171,0,9.63516,0.186812,-1.57353,4.29878,5.4878,-0.426829,-9.94891,-0.361648,-0.778381,-5.57927,1.15854,13.4756
455.639,88.2992,-3.99781,0,9.63995,0.153281,-1.49449,4.35976,5.57927,-0.609756,-9.94412,-0.292192,-0.713716,-5.94512,1.89024,13.9329
455.649,88.3105,-4.0064,0,9.6663,0.198787,-1.53521,4.48171,5.85366,-0.853659,-9.88664,-0.268242,-0.720901,-7.0122,2.28659,14.4512
455.659,88.3454,-4.00978,0,9.65672,0.119751,-1.4921,4.39024,5.39634,-0.640244,-9.88664,-0.246687,-0.701741,-8.17073,1.4939,14.9085
455.669,88.3629,-4.06189,0,9.64714,0.148491,-1.52084,3.90244,5.2439,-1.0061,-9.88425,-0.244292,-0.814307,-9.2378,0.701219,13.5671
455.679,88.3779,-4.11273,0,9.60403,0.150886,-1.47773,3.32317,4.90854,-1.09756,-9.90341,-0.225132,-0.819097,-12.0427,-0.609756,13.9634
455.689,88.384,-4.13477,0,9.63995,0.174836,-1.44659,2.95732,4.57317,-1.28049,-9.92736,-0.210762,-0.766406,-13.1707,-0.670732,12.5305
455.699,88.3882,-4.21041,0,9.63756,0.146096,-1.41785,1.98171,4.05488,-1.70732,-9.89862,-0.239502,-0.900527,-13.8415,-0.762195,11.4329
455.709,88.3811,-4.23758,0,9.57529,0.205972,-1.39869,1.55488,3.59756,-1.79878,-9.95131,-0.213157,-0.816702,-16.7683,-1.31098,11.0976
455.719,88.3683,-4.28429,0,9.59445,0.232317,-1.32924,0.884146,2.9878,-1.95122,-9.9537,-0.182021,-0.871787,-17.1341,-1.09756,9.14634
455.729,88.3498,-4.33123,0,9.61361,0.253872,-1.32205,-0.457317,1.67683,-2.19512,-9.95849,-0.177231,-0.847837,-17.1951,0.457317,8.56707
455.739,88.3423,-4.37137,0,9.62558,0.203577,-1.3963,-1.06707,0.853659,-1.95122,-10.0064,-0.165256,-0.855022,-18.7195,-0.609756,7.71341
455.749,88.3401,-4.4172,0,9.63995,0.167651,-1.35558,-1.95122,0,-1.98171,-9.97286,-0.170046,-0.907712,-20.6707,-1.37195,6.18902
455.759,88.3439,-4.4643,0,9.63277,0.191602,-1.36516,-2.46951,-0.884146,-1.31098,-9.98244,-0.196392,-0.946033,-19.5122,-2.04268,5.64024
455.769,88.3612,-4.49976,0,9.63995,0.170046,-1.33403,-2.92683,-1.61585,-0.823171,-9.93454,-0.203577,-0.912502,-17.7744,-2.34756,5.33537
455.779,88.3692,-4.54202,0,9.62558,0.217947,-1.33642,-3.41463,-3.07927,-0.670732,-9.92736,-0.184417,-0.948428,-15.6098,-2.56098,5.18293
455.789,88.3929,-4.56948,0,9.61121,0.193997,-1.36277,-3.71951,-3.78049,-0.243902,-9.89622,-0.213157,-0.900527,-12.9573,-3.07927,5.03049
455.799,88.408,-4.59054,0,9.59684,0.217947,-1.38193,-4.26829,-4.66463,-0.213415,-9.94412,-0.232317,-0.883762,-11.5549,-3.07927,4.42073
455.809,88.4301,-4.60623,0,9.62319,0.196392,-1.36995,-4.60366,-5.15244,-0.182927,-9.97286,-0.205972,-0.866997,-10.8537,-2.89634,3.20122
455.82,88.467,-4.62404,0,9.60403,0.153281,-1.48491,-4.78659,-6.12805,0.335366,-9.93454,-0.143701,-0.878972,-11.4939,-3.68902,4.72561
455.829,88.5039,-4.61678,0,9.58966,0.160466,-1.50647,-4.7561,-6.61585,0,-9.90101,-0.129331,-0.773591,-13.6585,-4.93902,3.04878
455.84,88.5481,-4.61341,0,9.56571,0.134121,-1.46575,-5.27439,-6.61585,-0.0304878,-9.85311,-0.167651,-0.785566,-17.3476,-5.2439,4.32927
455.849,88.5733,-4.60141,0,9.53457,0.155676,-1.50886,-5.18293,-6.67683,-0.304878,-9.8076,-0.162861,-0.744851,-21.372,-6.43293,3.47561
455.859,88.5838,-4.59546,0,9.60163,0.165256,-1.50168,-5.51829,-6.67683,-0.762195,-9.81958,-0.201182,-0.771196,-24.7561,-7.95732,4.20732
455.869,88.6092,-4.5968,0,9.65432,0.117356,-1.62143,-5.33537,-6.7378,-0.579268,-9.84593,-0.265847,-0.804727,-27.0122,-8.71951,4.20732
455.879,88.6229,-4.60654,0,9.67348,0.158071,-1.61664,-5.4878,-6.89024,-0.579268,-9.92257,-0.318538,-0.847837,-26.25,-8.32317,5.73171
455.889,88.6365,-4.61702,0,9.69743,0.114961,-1.65496,-5.85366,-6.31098,-1.03659,-10.0375,-0.385598,-0.862207,-25.6098,-7.77439,4.63415
455.899,88.633,-4.62482,0,9.72378,0.174836,-1.76034,-5.70122,-4.93902,-1.37195,-10.1237,-0.414338,-0.859812,-23.8415,-8.20122,3.84146
455.909,88.6324,-4.62059,0,9.74294,0.162861,-1.82021,-5.36585,-3.32317,-1.31098,-10.1621,-0.376018,-0.811912,-23.4756,-10.122,3.20122
455.919,88.6438,-4.6059,0,9.74533,0.100591,-1.825,-4.20732,-1.85976,-1.25,-10.174,-0.328118,-0.768801,-22.3476,-14.4512,3.59756
455.929,88.656,-4.59305,0,9.71899,0.0862207,-1.80345,-3.35366,-1.12805,-1.34146,-10.1693,-0.292192,-0.775986,-20.9756,-16.6463,3.07927
455.939,88.6626,-4.57544,0,9.70941,0.0718506,-1.7795,-2.59146,-0.121951,-1.79878,-10.1261,-0.232317,-0.749641,-19.2378,-17.2561,3.07927
455.949,88.6664,-4.55579,0,9.65193,0.107776,-1.75315,-2.10366,0.640244,-1.61585,-10.0423,-0.222737,-0.730481,-19.0244,-16.4024,2.04268
455.959,88.6633,-4.5458,0,9.67109,0.0981958,-1.71004,-2.34756,1.31098,-2.19512,-9.92017,-0.165256,-0.759221,-18.7195,-14.7561,1.58537
455.969,88.6451,-4.54128,0,9.58008,0.165256,-1.78908,-1.40244,2.16463,-2.68293,-9.84114,-0.165256,-0.773591,-19.3293,-12.7134,1.21951
455.979,88.6313,-4.51074,0,9.51781,0.110171,-1.72202,-0.182927,2.5,-2.9878,-9.83156,-0.162861,-0.65863,-19.6037,-12.6524,0.914634
455.989,88.6081,-4.4675,0,9.51062,0.150886,-1.64777,0.792683,2.9878,-3.38415,-9.87227,-0.184417,-0.603545,-21.5549,-16.0976,1.18902
455.999,88.5802,-4.43359,0,9.5226,0.177231,-1.61185,1.03659,2.34756,-3.56707,-9.92017,-0.189207,-0.641865,-22.1037,-18.3537,1.09756
456.009,88.5495,-4.41072,0,9.57289,0.191602,-1.50407,1.15854,2.10366,-3.71951,-9.94891,-0.213157,-0.684976,-23.872,-16.6463,-0.0304878
456.019,88.5207,-4.40212,0,9.57289,0.172441,-1.46096,0.701219,1.25,-3.84146,-9.92017,-0.237107,-0.742456,-22.561,-17.5305,0.945122
456.029,88.4987,-4.39129,0,9.62798,0.146096,-1.49928,0.640244,0,-3.56707,-9.89143,-0.251477,-0.728086,-22.8659,-16.372,-0.0304878
456.039,88.4781,-4.38125,0,9.6639,0.141306,-1.54958,0.548781,-0.731707,-3.53659,-9.83874,-0.263452,-0.725691,-22.1646,-16.311,0.945122
456.049,88.4571,-4.36861,0,9.63995,0.193997,-1.63101,0.518293,-0.823171,-2.9878,-9.8124,-0.268242,-0.711321,-20.6098,-17.0122,0.640244
456.059,88.4369,-4.35887,0,9.65911,0.201182,-1.61185,0.0914634,-0.97561,-2.86585,-9.79803,-0.263452,-0.720901,-19.3293,-17.2561,-0.548781
456.069,88.4217,-4.35759,0,9.63037,0.191602,-1.56874,0.0609756,-0.731707,-2.56098,-9.81,-0.282612,-0.754431,-17.8659,-14.3598,0.152439
456.079,88.411,-4.358,0,9.59445,0.179626,-1.51365,-0.396341,-1.0061,-2.34756,-9.81958,-0.244292,-0.759221,-17.3171,-10.7622,0.762195
456.089,88.4007,-4.37418,0,9.60403,0.186812,-1.55676,-0.396341,-1.58537,-2.2561,-9.79803,-0.208367,-0.821492,-15.1829,-5.7622,1.4939
456.099,88.3912,-4.3868,0,9.51541,0.174836,-1.48252,-0.640244,-1.89024,-2.34756,-9.81,-0.217947,-0.804727,-17.2256,-3.35366,1.34146
456.109,88.3843,-4.38834,0,9.54176,0.174836,-1.48012,-1.15854,-2.65244,-2.16463,-9.85072,-0.182021,-0.764011,-18.1098,-2.71341,3.04878
456.119,88.3759,-4.38849,0,9.55373,0.170046,-1.40348,-1.58537,-3.81098,-2.34756,-9.89383,-0.167651,-0.764011,-20.6707,-4.78659,1.21951
456.129,88.3593,-4.38127,0,9.54176,0.177231,-1.42743,-2.16463,-4.87805,-2.9878,-9.9561,-0.165256,-0.737666,-22.1646,-6.15854,1.67683
456.139,88.3355,-4.37626,0,9.55613,0.203577,-1.50168,-2.62195,-6.21951,-3.35366,-9.95849,-0.203577,-0.747246,-22.8659,-7.34756,1.92073
456.149,88.3121,-4.37686,0,9.63277,0.201182,-1.4921,-2.80488,-7.34756,-3.41463,-9.97765,-0.189207,-0.773591,-23.2317,-8.5061,1.25
456.159,88.29,-4.36384,0,9.6639,0.208367,-1.59748,-2.80488,-8.23171,-3.2622,-9.97765,-0.203577,-0.713716,-22.622,-8.71951,2.62195
456.169,88.2741,-4.34486,0,9.65911,0.193997,-1.64298,-2.7439,-8.14024,-2.89634,-9.99681,-0.210762,-0.684976,-24.0549,-6.95122,4.02439
456.179,88.2526,-4.33699,0,9.5681,0.285007,-1.69088,-2.40854,-8.2622,-2.2561,-10.0208,-0.256267,-0.732876,-22.9268,-7.40854,4.42073
456.189,88.2514,-4.32555,0,9.77886,0.184417,-1.73639,-2.13415,-8.17073,-1.85976,-10.0351,-0.261057,-0.716111,-23.5976,-6.70732,5.12195
456.199,88.2541,-4.31086,0,9.68785,0.177231,-1.81782,-1.70732,-8.20122,-1.67683,-9.99921,-0.287402,-0.696951,-22.2561,-6.37195,4.39024
456.209,88.2563,-4.28898,0,9.66869,0.148491,-1.84656,-1.21951,-7.34756,-2.0122,-10.016,-0.332908,-0.665815,-21.6463,-8.9939,5.18293
456.219,88.2583,-4.2648,0,9.68306,0.146096,-1.83219,-0.914634,-6.34146,-2.04268,-9.97526,-0.376018,-0.64905,-22.6524,-8.96341,3.75
456.229,88.2449,-4.23327,0,9.61121,0.234712,-1.95913,-0.152439,-5.12195,-2.22561,-9.96328,-0.368833,-0.613125,-20.9146,-10.7012,5.33537
456.239,88.2349,-4.20404,0,9.6663,0.198787,-1.94476,0.335366,-3.81098,-2.40854,-9.9561,-0.378413,-0.617915,-22.1341,-11.3415,4.81707
456.249,88.222,-4.17683,0,9.70222,0.198787,-1.96392,-0.152439,-2.68293,-2.68293,-9.89143,-0.431104,-0.617915,-22.1037,-11.6768,5.06098
456.259,88.2072,-4.14755,0,9.67348,0.191602,-1.96871,0.396341,-1.64634,-2.95732,-9.86509,-0.452659,-0.603545,-22.4695,-12.8354,3.5061
456.269,88.1849,-4.10595,0,9.68785,0.227527,-1.99266,1.25,0.182927,-3.2622,-9.83395,-0.483794,-0.543669,-22.5,-13.5976,4.14634
456.279,88.1707,-4.06882,0,9.68785,0.174836,-1.94955,1.4939,1.21951,-3.17073,-9.8603,-0.500559,-0.55804,-21.6768,-14.3293,4.5122
456.289,88.1544,-4.0363,0,9.72378,0.167651,-1.99984,1.89024,2.7439,-3.47561,-9.86269,-0.507744,-0.57241,-19.7866,-14.9085,5.03049
456.299,88.1353,-4.01657,0,9.63995,0.182021,-1.94955,1.85976,3.9939,-3.59756,-9.84114,-0.512534,-0.62031,-20.5793,-13.872,5.12195
456.309,88.1179,-3.99023,0,9.67827,0.174836,-1.8777,2.80488,5.30488,-3.56707,-9.83156,-0.502954,-0.58678,-18.8415,-12.9573,4.54268
456.319,88.0993,-3.98512,0,9.69264,0.160466,-1.90644,3.35366,6.28049,-3.87195,-9.8555,-0.445474,-0.675395,-19.9085,-11.9817,5.85366
456.329,88.0737,-3.97615,0,9.65911,0.203577,-1.86093,3.32317,7.19512,-4.08537,-9.8124,-0.395178,-0.65384,-18.5366,-10.7927,6.28049
456.339,88.0402,-3.95671,0,9.6639,0.256267,-1.81063,3.20122,8.17073,-4.26829,-9.83156,-0.402363,-0.60594,-18.5976,-8.38415,7.56098
456.349,88.0008,-3.94133,0,9.63516,0.285007,-1.76513,2.92683,9.02439,-4.57317,-9.82916,-0.387993,-0.62031,-17.3476,-8.59756,8.93293
456.359,87.9654,-3.92809,0,9.66151,0.277822,-1.66933,2.53049,9.35976,-4.35976,-9.9058,-0.378413,-0.632285,-17.8963,-9.14634,8.75
456.369,87.933,-3.91288,0,9.64953,0.275427,-1.64777,2.2561,8.84146,-4.14634,-9.92496,-0.397573,-0.622705,-18.1707,-9.29878,8.62805
456.379,87.8959,-3.89243,0,9.59684,0.361648,-1.5855,1.82927,7.2561,-3.59756,-9.93933,-0.378413,-0.59636,-16.0061,-7.37805,9.63415
456.389,87.8614,-3.8714,0,9.62798,0.376018,-1.54958,1.46341,6.79878,-3.23171,-9.91299,-0.349673,-0.589175,-13.5061,-8.01829,10.5793
456.399,87.8369,-3.86797,0,9.64953,0.344883,-1.53281,1.0061,6.37195,-2.71341,-9.94173,-0.323328,-0.66342,-11.9207,-6.64634,11.1585
456.409,87.8179,-3.87126,0,9.59445,0.356858,-1.51844,0.609756,5.51829,-2.04268,-9.90101,-0.296982,-0.689766,-11.5549,-6.89024,11.2805
456.419,87.8032,-3.85751,0,9.58247,0.335303,-1.53042,0.396341,4.87805,-1.98171,-9.97765,-0.258662,-0.62031,-9.57317,-6.61585,12.2561
456.429,87.7927,-3.8439,0,9.54655,0.330513,-1.46096,0.0304878,4.26829,-1.70732,-10.0088,-0.198787,-0.622705,-9.17683,-9.35976,13.2622
456.439,87.7899,-3.82871,0,9.57289,0.301772,-1.51365,-0.213415,3.01829,-1.52439,-10.0423,-0.189207,-0.61552,-8.68902,-9.48171,13.0488
456.449,87.7865,-3.80013,0,9.60163,0.325723,-1.50647,0.0304878,1.7378,-1.25,-10.0351,-0.160466,-0.55325,-7.95732,-9.81707,13.0183
456.459,87.7864,-3.76433,0,9.62558,0.330513,-1.52084,0.121951,1.03659,-0.945122,-9.99681,-0.182021,-0.514929,-8.38415,-10.6098,13.0793
456.469,87.796,-3.72697,0,9.62798,0.313748,-1.55197,0.243902,0.670732,-0.579268,-9.94891,-0.186812,-0.500559,-7.53049,-12.0122,13.9939
456.479,87.8216,-3.6883,0,9.58966,0.299377,-1.57353,0.487805,0.213415,-0.0304878,-9.9058,-0.170046,-0.486189,-6.46341,-12.0122,13.7195
456.489,87.8549,-3.65373,0,9.60642,0.268242,-1.59748,0.518293,-0.0609756,0.243902,-9.88664,-0.146096,-0.495769,-6.7378,-11.1585,12.4085
456.499,87.8902,-3.64259,0,9.60642,0.256267,-1.60945,0.97561,-0.335366,0.243902,-9.88664,-0.153281,-0.59157,-5.64024,-10.4878,11.0366
456.509,87.9368,-3.60351,0,9.5705,0.217947,-1.57832,1.43293,-0.701219,0.243902,-9.91778,-0.114961,-0.469424,-8.04878,-10.9146,11.4939
456.519,87.9701,-3.56575,0,9.58487,0.244292,-1.61664,1.76829,-0.670732,0.426829,-9.95131,-0.126936,-0.469424,-7.77439,-10.2439,11.5244
456.529,88.0041,-3.5434,0,9.63277,0.234712,-1.60227,1.85976,-0.518293,0.426829,-9.96568,-0.122146,-0.531694,-6.89024,-10.6707,10.7317
456.539,88.0552,-3.52641,0,9.63756,0.179626,-1.59987,2.04268,-0.365854,0.243902,-9.97765,-0.150886,-0.550855,-7.2561,-9.20732,11.0976
456.549,88.096,-3.51744,0,9.59445,0.208367,-1.54239,2.28659,-0.213415,0.213415,-9.95131,-0.136516,-0.58199,-8.68902,-9.5122,9.20732
456.559,88.1276,-3.49396,0,9.59205,0.227527,-1.61664,1.98171,-0.335366,-0.0914634,-9.92975,-0.167651,-0.514929,-9.78659,-8.87195,9.7561
456.569,88.1684,-3.48211,0,9.63516,0.177231,-1.60227,2.28659,0,-0.243902,-9.88425,-0.153281,-0.55804,-11.8293,-7.31707,7.56098
456.579,88.2062,-3.48098,0,9.63516,0.179626,-1.63101,2.31707,-0.0304878,-0.243902,-9.86748,-0.162861,-0.60115,-12.0122,-6.61585,6.76829
456.589,88.2308,-3.47985,0,9.62079,0.191602,-1.56395,1.98171,0.426829,-0.518293,-9.82916,-0.155676,-0.59636,-12.1951,-3.65854,6.09756
456.599,88.2524,-3.4969,0,9.63516,0.165256,-1.55676,2.0122,0.304878,-0.853659,-9.80042,-0.189207,-0.646655,-14.0549,-1.37195,4.90854
456.609,88.2742,-3.54594,0,9.63516,0.160466,-1.58071,1.52439,0.304878,-0.853659,-9.84593,-0.210762,-0.680186,-13.8415,0.0609756,3.07927
456.619,88.284,-3.58979,0,9.6184,0.172441,-1.61903,1.37195,0.396341,-1.28049,-9.86269,-0.256267,-0.742456,-15.7012,1.40244,4.35976
456.629,88.2919,-3.61133,0,9.6184,0.148491,-1.62622,0.914634,0.0304878,-1.61585,-9.92736,-0.217947,-0.694556,-17.0732,1.76829,2.86585
456.639,88.2902,-3.62763,0,9.63995,0.158071,-1.55197,0.518293,0.213415,-2.13415,-9.9537,-0.244292,-0.66342,-17.8049,0.487805,2.59146
456.649,88.2835,-3.6166,0,9.65911,0.160466,-1.58311,0.0914634,-0.243902,-2.5,-9.98244,-0.234712,-0.61073,-19.0549,0.27439,2.56098
456.659,88.2698,-3.62624,0,9.64235,0.191602,-1.57592,-0.701219,-0.304878,-2.7439,-9.93694,-0.234712,-0.64426,-19.4817,-0.0304878,3.56707
456.669,88.2554,-3.63442,0,9.64474,0.196392,-1.62143,-0.945122,-0.487805,-2.77439,-9.9058,-0.282612,-0.646655,-20.0915,0.731707,3.35366
456.679,88.237,-3.6535,0,9.60642,0.217947,-1.60945,-1.21951,-0.426829,-2.89634,-9.87946,-0.244292,-0.670605,-19.1463,0.670732,1.25
456.689,88.2174,-3.65176,0,9.58008,0.265847,-1.60227,-1.37195,-0.304878,-2.43902,-9.92736,-0.277822,-0.62989,-17.5915,-1.15854,1.55488
456.699,88.1947,-3.63115,0,9.59924,0.308958,-1.52563,-1.28049,-0.609756,-2.16463,-9.97286,-0.270637,-0.57241,-17.2256,-1.43293,1.37195
456.709,88.1725,-3.61882,0,9.60882,0.304167,-1.6334,-1.28049,-1.25,-2.2561,-9.98484,-0.270637,-0.584385,-17.2866,-3.81098,0.914634
456.719,88.1566,-3.61698,0,9.62319,0.285007,-1.62622,-1.34146,-1.28049,-1.98171,-10.0112,-0.289797,-0.62989,-17.378,-5.57927,-0.213415
456.729,88.1429,-3.59994,0,9.59205,0.270637,-1.61185,-1.37195,-1.28049,-2.0122,-9.99202,-0.265847,-0.56283,-16.0366,-7.43902,1.31098
456.739,88.1331,-3.57184,0,9.61121,0.263452,-1.5855,-1.0061,-1.70732,-1.79878,-10.0208,-0.249082,-0.514929,-15.6707,-10.3659,2.0122
456.749,88.1276,-3.54211,0,9.61361,0.273032,-1.61424,-1.15854,-1.4939,-1.34146,-10.0064,-0.220342,-0.502954,-13.7195,-11.4024,1.40244
456.759,88.1258,-3.51159,0,9.64235,0.249082,-1.64777,-0.823171,-1.95122,-1.40244,-10.0136,-0.210762,-0.495769,-14.5122,-12.7134,1.70732
456.769,88.1207,-3.47669,0,9.63995,0.263452,-1.6334,-0.609756,-1.82927,-1.46341,-10.0639,-0.225132,-0.474214,-15.061,-13.6585,0.640244
456.779,88.1178,-3.46498,0,9.63995,0.263452,-1.63101,-0.518293,-1.12805,-1.31098,-10.1118,-0.165256,-0.5772,-15.2439,-17.378,-0.335366
456.789,88.1113,-3.44846,0,9.62319,0.304167,-1.64059,-0.27439,-1.58537,-0.945122,-10.1285,-0.213157,-0.55804,-14.9085,-21.372,-0.0609756
456.799,88.1106,-3.41949,0,9.64474,0.287402,-1.6837,0.0304878,-1.61585,-0.792683,-10.1812,-0.217947,-0.505349,-14.5732,-25.1524,0.0914634
456.809,88.1081,-3.38785,0,9.62319,0.296982,-1.68609,0.213415,-1.12805,-0.762195,-10.2076,-0.263452,-0.493374,-13.811,-29.6646,-1.03659
456.819,88.1243,-3.35906,0,9.6184,0.258662,-1.70286,0.396341,-1.34146,-0.243902,-10.2004,-0.299377,-0.502954,-12.8963,-32.7439,-2.22561
456.829,88.1294,-3.33092,0,9.63516,0.301772,-1.70525,0.548781,-1.37195,0.0304878,-10.1956,-0.325723,-0.502954,-12.1037,-35.4573,-3.87195
456.839,88.1526,-3.31015,0,9.61121,0.249082,-1.6358,0.640244,-1.61585,0.152439,-10.1693,-0.299377,-0.531694,-13.0488,-37.6829,-3.96341
456.849,88.1877,-3.29401,0,9.65193,0.213157,-1.61424,0.701219,-1.64634,0.0304878,-10.1716,-0.323328,-0.550855,-10.5488,-39.878,-4.87805
456.859,88.2228,-3.27911,0,9.62558,0.201182,-1.62143,0.27439,-1.79878,0.213415,-10.1142,-0.316143,-0.55325,-10.122,-43.0793,-4.96951
456.869,88.2578,-3.26894,0,9.63516,0.184417,-1.61664,0.0914634,-1.85976,0.579268,-10.1261,-0.313748,-0.574805,-9.08537,-45.7927,-5.4878
456.879,88.2881,-3.24962,0,9.60163,0.201182,-1.59987,-0.426829,-2.0122,0.396341,-10.1046,-0.294587,-0.534089,-10.7012,-49.4207,-5.60976
456.889,88.319,-3.23475,0,9.64714,0.196392,-1.65496,-0.579268,-2.04268,0.213415,-10.1142,-0.296982,-0.55325,-10.3049,-51.8902,-5.91463
456.899,88.3415,-3.2185,0,9.63756,0.220342,-1.69567,-0.548781,-1.82927,0.0304878,-10.1237,-0.308958,-0.548459,-10.0305,-55.8841,-6.98171
456.909,88.3763,-3.1971,0,9.58966,0.177231,-1.63819,-0.670732,-2.13415,-0.0914634,-10.0758,-0.342488,-0.522114,-9.90854,-58.2317,-8.23171
456.919,88.3885,-3.17936,0,9.65432,0.203577,-1.67891,-1.15854,-2.34756,-0.579268,-10.0615,-0.325723,-0.536484,-9.63415,-61.2195,-9.96951
456.929,88.4052,-3.1424,0,9.61121,0.177231,-1.62382,-1.28049,-2.2561,-0.670732,-10.0735,-0.349673,-0.450264,-9.84756,-63.2927,-10.3354
456.939,88.4286,-3.14884,0,9.59205,0.138911,-1.67651,-1.06707,-1.85976,-0.762195,-10.0519,-0.368833,-0.63468,-8.5061,-62.2256,-10.3354
456.949,88.4612,-3.17936,0,9.54655,0.0838257,-1.70765,-1.09756,-2.19512,-0.884146,-9.97526,-0.311353,-0.732876,-8.81098,-57.0122,-9.57317
456.959,88.4868,-3.18962,0,9.52499,0.0814307,-1.69567,-0.670732,-1.46341,-1.12805,-9.94412,-0.265847,-0.64426,-8.68902,-54.2378,-9.78659
456.969,88.5026,-3.17176,0,9.53218,0.0958008,-1.62382,-0.487805,-1.85976,-1.40244,-10.0232,-0.213157,-0.529299,-9.54268,-57.439,-10.2439
456.979,88.5054,-3.13641,0,9.58247,0.105381,-1.59987,-0.884146,-2.34756,-2.0122,-10.2028,-0.205972,-0.462239,-9.11585,-63.6585,-11.0976
456.989,88.5015,-3.08397,0,9.60882,0.0958008,-1.6358,-0.853659,-2.77439,-2.59146,-10.289,-0.217947,-0.387993,-10.3049,-70.1524,-11.9817
456.999,88.4902,-3.04218,0,9.66151,0.107776,-1.69567,-0.823171,-3.20122,-3.07927,-10.3106,-0.234712,-0.431104,-10.1829,-73.8719,-13.2622
457.009,88.4774,-2.96567,0,9.67109,0.0934058,-1.7292,-0.762195,-2.71341,-3.38415,-10.2531,-0.277822,-0.268242,-11.7988,-78.5061,-12.5305
457.02,88.4576,-2.90501,0,9.69264,0.131726,-1.74836,-0.518293,-2.83537,-3.62805,-10.2004,-0.313748,-0.325723,-11.8902,-79.8476,-11.7073
457.029,88.4378,-2.84254,0,9.68546,0.138911,-1.76992,-0.121951,-2.10366,-3.56707,-10.1501,-0.385598,-0.306563,-11.6768,-81.311,-11.6463
457.039,88.4171,-2.78317,0,9.67109,0.126936,-1.78908,0.121951,-1.95122,-3.84146,-10.1453,-0.402363,-0.311353,-11.6159,-83.7195,-10.6402
457.049,88.3925,-2.70931,0,9.64235,0.150886,-1.77471,0.213415,-1.67683,-3.96341,-10.1836,-0.419128,-0.241897,-10.5183,-89.4817,-11.3415
457.059,88.3585,-2.62869,0,9.60882,0.191602,-1.73399,-0.243902,-1.79878,-4.45122,-10.2411,-0.428708,-0.203577,-10.6707,-94.0244,-11.8598
457.069,88.3239,-2.55761,0,9.59684,0.201182,-1.69567,0.243902,-2.0122,-4.45122,-10.2315,-0.450264,-0.237107,-8.62805,-99.7561,-12.1037
457.079,88.285,-2.46047,0,9.59684,0.232317,-1.69088,-0.213415,-2.5,-4.57317,-10.2794,-0.462239,-0.112566,-7.0122,-105.64,-11.6463
457.089,88.2408,-2.35591,0,9.60882,0.263452,-1.69088,-0.121951,-3.10976,-4.81707,-10.3249,-0.490979,-0.0670605,-5.18293,-111.524,-13.2622
457.099,88.1956,-2.23052,0,9.59445,0.275427,-1.70525,0.335366,-3.14024,-4.84756,-10.2818,-0.467029,0.0407153,-4.02439,-117.927,-13.9634
457.109,88.149,-2.11458,0,9.58008,0.299377,-1.71723,0.0609756,-3.38415,-4.78659,-10.2842,-0.450264,0.0143701,-4.08537,-124.695,-14.9695
457.119,88.107,-2.0054,0,9.57289,0.304167,-1.71962,-0.426829,-3.56707,-4.35976,-10.2411,-0.407153,-0.00239502,-3.87195,-132.53,-16.311
457.129,88.0638,-1.868,0,9.58487,0.323328,-1.72202,-0.335366,-3.90244,-4.32927,-10.2722,-0.526904,0.138911,-3.35366,-139.299,-16.7988
457.139,88.0163,-1.72525,0,9.55852,0.366438,-1.72441,-0.487805,-3.9939,-4.29878,-10.301,-0.457449,0.179626,-2.40854,-149.055,-19.4817
457.149,87.9839,-1.62065,0,9.55613,0.306563,-1.73399,-0.579268,-3.84146,-3.62805,-10.3058,-0.486189,0.0287402,-2.46951,-152.835,-20.5488
457.159,87.9447,-1.5357,0,9.51302,0.342488,-1.81782,-0.518293,-4.05488,-3.90244,-10.2674,-0.471819,-0.0431104,-1.64634,-154.573,-20.5793
457.169,87.9087,-1.38617,0,9.50104,0.325723,-1.7292,-0.914634,-4.02439,-3.87195,-10.3465,-0.488584,0.263452,-0.853659,-157.927,-20.3049
457.179,87.8746,-1.21606,0,9.53936,0.318538,-1.64059,-0.701219,-4.39024,-3.87195,-10.5046,-0.498164,0.383203,-0.97561,-165.732,-20.6707
457.189,87.8469,-1.03694,0,9.64714,0.275427,-1.72202,-1.15854,-5.30488,-3.87195,-10.586,-0.543669,0.452659,-0.335366,-173.506,-20.6707
457.199,87.8248,-0.856436,0,9.75731,0.237107,-1.78189,-1.31098,-6.06707,-3.87195,-10.5692,-0.565225,0.483794,0.335366,-181.921,-22.7439
457.209,87.8095,-0.700553,0,9.73815,0.189207,-1.825,-1.55488,-6.18902,-3.81098,-10.471,-0.60115,0.395178,0.579268,-185.61,-22.439
457.219,87.7938,-0.508183,0,9.72138,0.182021,-1.88488,-1.85976,-5.73171,-3.96341,-10.3201,-0.62989,0.5772,5.4878,-193.171,-22.1037
457.229,87.7815,-0.316378,0,9.76449,0.138911,-1.82979,-1.58537,-5.03049,-4.17683,-10.2698,-0.656235,0.60115,7.04268,-199.085,-20.1829
457.239,87.7545,-0.141376,0,9.65432,0.203577,-1.91362,-1.98171,-5,-4.84756,-10.2435,-0.64426,0.55325,8.01829,-204.329,-20.7317
457.249,87.7386,-0.0051575,0,9.79084,0,-1.88967,-0.213415,-2.31707,-6.21951,-10.174,-0.61552,0.407153,8.17073,-203.415,-19.7561
457.259,87.695,0.170977,0,9.50583,0.225132,-1.89446,-0.640244,-4.66463,-6.31098,-10.083,-0.617915,0.60594,7.62195,-202.774,-20.5793
457.269,87.6593,0.400156,0,9.62079,0.160466,-1.79147,0,-4.14634,-6.40244,-10.1237,-0.589175,0.874182,6.09756,-206.707,-20.5793
457.279,87.6094,0.682721,0,9.58487,0.131726,-1.9711,-0.0304878,-0.0609756,-8.2622,-10.2579,-0.574805,1.16398,5.79268,-214.543,-18.8415
457.289,87.5514,0.964942,0,9.65672,0.0862207,-1.98787,1.7378,3.96341,-9.7561,-10.2651,-0.675395,1.20709,12.439,-222.805,-17.6829
457.299,87.466,1.25039,0,9.77407,0.292192,-1.85135,1.76829,5,-10.2134,-10.2004,-0.64905,1.25978,14.6646,-228.841,-15.4878
457.309,87.3794,1.55461,0,9.70462,0.285007,-1.71004,1.03659,2.13415,-10.5793,-10.0878,-0.62031,1.37474,17.8049,-236.86,-14.6341
457.319,87.2963,1.84829,0,9.58487,0.304167,-1.63101,0.823171,-1.67683,-10.122,-9.9537,-0.550855,1.35798,19.878,-242.835,-11.9512
457.329,87.2104,2.13543,0,9.42201,0.340093,-1.67172,-0.518293,-4.63415,-10.061,-9.82197,-0.493374,1.36037,19.4207,-245.244,-11.372
457.339,87.1249,2.42104,0,9.39566,0.340093,-1.7292,-1.98171,-6.76829,-10.1829,-9.80042,-0.483794,1.39869,19.9085,-247.622,-11.9512
457.349,87.0368,2.719,0,9.35016,0.325723,-1.73878,-2.5,-8.23171,-10.7927,-9.74773,-0.390388,1.4921,17.3171,-251.037,-15.6098
457.359,86.9396,3.06465,0,9.49146,0.404758,-1.88728,-1.76829,-7.77439,-10.9756,-9.7597,-0.332908,1.75315,13.4146,-255.366,-18.8415
457.369,86.8413,3.44434,0,9.60163,0.433499,-1.89686,-0.884146,-5.94512,-11.0061,-9.8124,-0.352068,1.9711,9.11585,-261.555,-20.2134
457.379,86.7361,3.82535,0,9.69264,0.469424,-1.91362,-0.518293,-7.16463,-11.5244,-9.74773,-0.364043,2.02619,5.60976,-267.348,-21.9512
457.389,86.6367,4.19239,0,9.81719,0.440684,-2.04535,-1.55488,-7.59146,-11.5549,-9.62558,-0.404758,2.00224,2.71341,-271.463,-20.7622
457.399,86.5303,4.54885,0,9.71659,0.471819,-2.0214,-2.40854,-8.17073,-12.0427,-9.51062,-0.471819,1.99026,5.45732,-277.652,-18.0488
457.409,86.428,4.91548,0,9.50823,0.426313,-1.83458,-2.28659,-11.9207,-12.2866,-9.46751,-0.60115,2.08127,3.71951,-284.634,-14.939
457.419,86.3324,5.31207,0,9.35734,0.354463,-1.83938,-2.56098,-11.9512,-12.622,-9.48907,-0.716111,2.27527,5.30488,-292.287,-14.2378
457.429,86.2125,5.69127,0,9.29028,0.490979,-1.88249,-1.98171,-11.25,-13.5366,-9.44356,-0.723296,2.24892,8.71951,-301.616,-15.2439
457.439,86.1113,6.06431,0,9.45314,0.390388,-1.92799,-1.15854,-9.35976,-13.2317,-9.49625,-0.670605,2.29443,11.7073,-308.78,-15.2744
457.449,86.0016,6.41924,0,9.35016,0.450264,-1.88009,0.426829,-10.2744,-13.5061,-9.5681,-0.673001,2.28964,14.939,-317.073,-15.4878
457.459,85.8874,6.77828,0,9.49386,0.514929,-1.96631,0.884146,-10.8537,-13.4756,-9.63277,-0.711321,2.38065,13.0488,-324.055,-18.3232
457.469,85.7746,7.1964,0,9.5681,0.536484,-1.94955,1.79878,-14.0244,-13.3537,-9.69264,-0.720901,2.72314,13.3537,-332.195,-19.5732
457.479,85.6458,7.63495,0,9.57289,0.689766,-1.9735,1.61585,-15.2744,-13.3537,-9.67109,-0.65863,2.87881,13.1402,-342.287,-19.2378
457.489,85.5116,8.06259,0,9.67827,0.732876,-2.09804,0.396341,-14.7561,-13.75,-9.71899,-0.641865,2.91713,13.4451,-348.902,-18.2927
457.499,85.3684,8.49147,0,9.59445,0.816702,-2.10522,-0.27439,-14.7256,-13.8415,-9.70701,-0.58678,2.99138,14.9085,-356.707,-15.6707
457.509,85.2136,8.93149,0,9.46751,0.948428,-2.18186,-2.13415,-13.811,-13.5671,-9.75491,-0.55804,3.13269,13.628,-363.476,-15.3354
457.519,85.0861,9.36619,0,9.57768,0.816702,-2.18426,-3.41463,-12.3476,-12.8354,-9.70222,-0.462239,3.16622,14.1159,-370.793,-12.2561
457.529,84.9691,9.79564,0,9.5705,0.66821,-2.08846,-4.14634,-14.1768,-13.811,-9.76689,-0.498164,3.23807,13.1402,-377.591,-11.9207
457.539,84.8584,10.2579,0,9.71899,0.541274,-2.37586,-5.60976,-13.3841,-15.061,-9.91778,-0.56283,3.52068,12.4085,-388.841,-12.622
457.549,84.7475,10.7421,0,9.98005,0.467029,-2.42136,-7.2561,-12.1951,-16.3415,-9.96328,-0.59636,3.72426,10.4573,-402.165,-15.2439
457.559,84.6132,11.2198,0,9.80042,0.519719,-2.32796,-9.45122,-14.2988,-18.2317,-9.92257,-0.617915,3.76018,9.57317,-414.024,-16.1585
457.569,84.5116,11.7098,0,10.198,0.177231,-2.54351,-9.78659,-12.5915,-19.3293,-9.78844,-0.66821,3.85838,9.69512,-420.457,-15.122
457.579,84.415,12.2003,0,10.6818,-0.00958008,-3.16382,-11.4939,-9.90854,-21.1585,-9.63995,-0.713716,3.89191,10.8232,-426.524,-12.7134
457.589,84.3002,12.6826,0,10.962,-0.150886,-3.6069,-12.9878,-7.10366,-24.7256,-9.33818,-0.675395,3.82485,12.4085,-425.671,-8.9939
457.599,84.1618,13.2175,0,9.92975,-0.308958,-2.69919,-13.9329,-13.2317,-29.3902,-9.10347,-0.749641,4.07153,13.5976,-423.018,-3.87195
457.609,83.9233,13.7634,0,9.72857,0.167651,-1.84417,-17.1951,-8.78049,-34.2378,-9.06275,-0.931663,4.21044,17.9573,-420.884,-2.10366
457.619,83.6518,14.3365,0,9.73575,0.239502,-1.66454,-18.1098,-6.43293,-37.2256,-8.93821,-1.00591,4.39007,23.2927,-419.817,-1.40244
457.629,83.361,15.001,0,9.83395,0.239502,-1.77231,-16.4939,-10.2134,-39.7866,-8.92145,-1.03225,4.95051,23.4756,-422.256,-3.5061
457.639,83.0057,15.7462,0,9.84353,0.613125,-1.98308,-19.4512,-15.9451,-42.5305,-8.73224,-1.0083,5.39598,25.7317,-425.518,-4.39024
457.649,82.691,16.5264,0,10.4447,0.189207,-2.76625,-20.8232,-10.2744,-44.2683,-8.5598,-0.965193,5.63069,25.5183,-426.585,-3.75
457.659,82.345,17.3639,0,10.5261,0.296982,-2.75906,-20.061,-10.6707,-46.9207,-8.23408,-0.883762,5.89414,20.4878,-420.152,-0.304878
457.669,81.9507,18.2392,0,10.6602,0.550855,-2.55788,-19.2378,-12.6829,-49.8171,-7.98739,-0.869392,6.10969,18.2317,-415.152,2.89634
457.679,81.491,19.1793,0,9.83156,1.08255,-2.26329,-18.4756,-14.6646,-50.5183,-7.69041,-0.878972,6.445,18.3841,-406.494,5.85366
457.689,80.9912,20.2116,0,9.91059,1.45857,-2.57704,-18.5671,-14.4817,-51.2805,-7.43175,-0.876577,6.99585,13.2317,-399.756,7.59146
457.699,80.4888,21.2478,0,9.96568,1.62622,-2.65847,-18.5976,-13.0488,-50.7317,-7.12279,-1.00591,6.98627,10.7317,-390.793,7.07317
457.709,80.0072,22.3127,0,10.5237,1.59987,-2.90755,-18.1098,-6.61585,-50.9146,-6.66773,-1.07297,6.9719,13.5366,-376.098,6.15854
457.719,79.5385,23.4399,0,10.2267,1.68609,-2.51477,-18.0488,-10.6707,-49.1159,-6.21747,-1.04183,7.14195,17.3171,-367.104,6.31098
457.729,79.0216,24.6408,0,9.72378,1.99745,-2.4525,-15.2439,-11.9207,-50.3963,-5.79595,-1.09213,7.41259,28.1707,-361.463,6.82927
457.739,78.4863,25.9013,0,9.21125,2.36149,-2.19384,-14.7256,-12.8659,-47.6829,-5.52531,-1.21906,7.80537,35.0305,-356.616,4.72561
457.749,78.041,27.195,0,10.277,2.31359,-2.31119,-14.1463,-2.2561,-43.0488,-5.31455,-1.33882,8.13109,38.3232,-351.402,2.92683
457.759,77.7767,28.5302,0,12.0517,1.48491,-2.39023,-12.8354,16.6159,-37.0427,-4.88584,-1.27415,8.20294,38.8415,-341.921,0.609756
457.769,77.5626,29.9009,0,10.3345,1.27176,-1.81542,-13.0183,23.6585,-32.4695,-4.32301,-1.01549,7.97062,37.9573,-326.921,3.90244
457.779,77.4021,31.314,0,8.81367,1.10171,-2.213,-12.9573,31.5549,-27.2256,-3.74342,-0.752036,7.69041,36.2195,-311.128,12.0732
457.789,77.1191,32.723,0,8.10954,1.80584,-2.33035,-18.5366,22.0427,-28.9634,-3.43925,-0.529299,7.52515,38.0183,-294.207,19.1159
457.799,76.7784,34.0891,0,6.46176,1.85375,-1.16158,-20.122,-0.701219,-28.3841,-3.21891,-0.464634,7.18266,40.4573,-274.665,24.6951
457.809,76.5812,35.4226,0,8.12151,1.45138,-2.22018,-18.1707,17.5,-26.4329,-3.16861,-0.534089,7.29044,38.9024,-253.445,26.1585
457.819,76.3987,36.6773,0,7.98021,1.55676,-2.23455,-17.1037,18.628,-23.4756,-3.26441,-0.61073,7.31678,33.8415,-232.866,22.2561
457.829,76.1937,37.8653,0,7.8844,1.82979,-2.10762,-14.2683,14.7866,-22.0122,-3.16143,-0.397573,6.98867,32.622,-205.274,18.2317
457.839,76.0283,39.0442,0,8.74901,1.82979,-2.55549,-11.7073,10.7012,-20.9451,-3.1758,-0.189207,7.38145,29.2683,-185,17.6524
457.849,75.8512,40.1722,0,8.27958,1.90644,-2.08606,-8.90244,-2.43902,-20.122,-3.3195,0.00239502,7.69999,22.8049,-171.585,20.061
457.859,75.6633,41.2274,0,8.58136,2.20342,-2.20821,-8.14024,6.92073,-18.6585,-3.49912,0.158071,7.86285,18.689,-163.659,23.0793
457.869,75.4752,42.1811,0,8.7538,2.4022,-2.12678,-6.37195,6.40244,-17.1341,-3.65959,0.205972,7.6952,16.189,-150.61,24.5122
457.879,75.2542,43.046,0,8.464,2.71356,-1.9711,-4.32927,0.945122,-15.9146,-3.84401,0.0694556,7.65688,19.1159,-137.165,24.0549
457.889,75.0295,43.8358,0,8.4616,2.82852,-2.04295,-3.5061,3.38415,-15.3049,-4.03082,-0.160466,7.69999,19.0244,-125.884,21.5244
457.899,74.815,44.6094,0,8.61249,2.82612,-2.1651,-2.40854,7.92683,-15.3659,-4.10985,-0.296982,7.99697,14.5427,-115.274,16.7073
457.909,74.5806,45.3662,0,8.22689,2.91234,-1.76513,-2.2561,5.33537,-15.122,-4.15296,-0.227527,8.21252,8.07927,-109.939,14.7561
457.919,74.3675,46.1188,0,8.31551,2.83091,-1.9256,-1.98171,0.823171,-14.8476,-4.19847,0.0167651,8.54782,-0.762195,-107.256,16.0671
457.929,74.1856,46.8375,0,8.94779,2.79978,-2.63692,-2.04268,8.29268,-15,-4.31343,0.251477,8.74661,-6.70732,-104.634,21.2195
457.939,73.9946,47.4961,0,9.21125,3.02491,-2.59381,-2.40854,11.311,-14.6646,-4.44516,0.270637,8.71308,-9.54268,-100.823,23.3841
457.949,73.7536,48.0546,0,8.78972,3.37458,-1.94236,-1.79878,5.03049,-14.3902,-4.56012,0.186812,8.27479,-8.71951,-92.7134,24.3598
457.959,73.5149,48.5734,0,9.21603,3.55421,-2.19144,0.27439,3.5061,-14.4817,-4.62957,-0.0598755,8.26761,-8.56707,-81.4024,19.878
457.969,73.2869,49.1026,0,9.85311,3.7051,-2.63213,2.7439,8.14024,-14.8476,-4.7134,-0.182021,8.69392,-12.0732,-80.6707,14.4817
457.979,73.0092,49.6246,0,9.21364,3.88712,-2.12678,2.80488,3.20122,-15.7622,-4.73735,-0.261057,8.86397,-11.8293,-82.4085,11.7683
457.989,72.7498,50.1399,0,9.49386,3.82724,-2.31359,1.15854,9.32927,-16.3415,-4.69184,-0.316143,8.91187,-13.2317,-81.1585,10.2134
457.999,72.5136,50.688,0,9.58966,3.6045,-2.29922,-0.335366,6.61585,-17.2561,-4.61041,-0.347278,9.27591,-15.8537,-82.8963,10.9756
458.009,72.2963,51.2291,0,9.7621,3.49912,-2.49561,-1.12805,3.56707,-17.622,-4.56251,-0.253872,9.32621,-20.9146,-85.2134,12.6524
458.019,72.053,51.7433,0,9.47949,3.63803,-2.30161,-0.335366,0.609756,-18.1098,-4.5218,-0.0981958,9.18969,-25.5488,-83.2622,16.7988
458.029,71.8072,52.193,0,9.4723,3.62845,-2.27048,1.7378,-0.304878,-18.9329,-4.62239,-0.00479004,8.95977,-25.4878,-78.5366,21.5549
458.039,71.5518,52.5619,0,9.65672,3.71468,-2.68003,4.11585,2.04268,-20.2439,-4.89542,-0.162861,8.88552,-22.2561,-73.0488,22.622
458.049,71.242,52.9192,0,9.16813,3.99489,-2.26808,3.84146,2.13415,-21.2195,-4.99122,-0.304167,9.0891,-19.878,-72.1646,19.6037
458.059,70.9299,53.2865,0,8.98132,3.87754,-1.99745,3.23171,3.9939,-22.4695,-4.97446,-0.359253,9.2831,-18.9329,-76.8293,17.5915
458.069,70.6442,53.6697,0,9.52499,3.77934,-2.47406,2.71341,4.26829,-23.9024,-4.79483,-0.308958,9.2352,-21.2805,-81.0366,18.2622
458.079,70.3633,54.0771,0,9.63516,3.78892,-2.52914,1.46341,-1.70732,-24.3598,-4.65592,-0.263452,9.35734,-21.3415,-83.0488,18.872
458.089,70.0664,54.5084,0,9.48907,3.88951,-2.38065,1.4939,-2.77439,-24.878,-4.57449,-0.268242,9.60642,-23.3232,-87.0427,21.2195
458.099,69.7426,54.8998,0,9.29747,4.04279,-2.16031,2.7439,-5.85366,-25.7622,-4.6176,-0.287402,9.45793,-24.5122,-84.2378,21.9817
458.109,69.4098,55.2633,0,9.35974,4.10746,-2.38544,4.14634,-5.03049,-26.9512,-4.67747,-0.287402,9.46033,-23.0488,-78.2927,21.9817
458.119,69.0798,55.58,0,9.8076,4.2296,-2.47406,4.96951,-2.59146,-28.0793,-4.81638,-0.404758,9.40524,-17.4085,-76.1585,20.5183
458.129,68.7446,55.8695,0,9.91538,4.26553,-2.46687,3.14024,-2.56098,-29.3902,-4.89302,-0.505349,9.40285,-11.8293,-77.1341,17.0732
458.139,68.3931,56.1512,0,9.19448,4.06435,-2.3064,2.86585,-7.5,-30.5793,-4.83554,-0.56762,9.32621,-8.62805,-78.75,16.0671
458.149,68.0482,56.4551,0,9.12981,3.96376,-2.27527,2.07317,-5.85366,-31.4024,-4.59365,-0.529299,9.18729,-8.44512,-78.7805,16.5549
458.159,67.7141,56.7951,0,8.97653,3.77455,-2.17228,1.34146,-8.2622,-32.3476,-4.41881,-0.483794,9.32621,-12.5915,-79.7256,19.6341
458.169,67.3442,57.1521,0,8.62446,3.93502,-2.01421,-1.34146,-13.872,-33.1707,-4.35894,-0.411943,9.51781,-15.4573,-84.1463,23.0793
458.179,66.9911,57.4924,0,9.19448,4.06435,-2.26329,-2.68293,-9.69512,-33.5976,-4.33978,-0.330513,9.44596,-15.061,-85.1219,27.0732
458.189,66.6338,57.8064,0,9.63756,4.28948,-2.62494,-3.35366,-11.4329,-34.4512,-4.46192,-0.354463,9.58008,-12.9573,-79.7256,27.5915
458.199,66.2388,58.0806,0,8.86636,4.30625,-1.9232,-4.02439,-18.7805,-35.122,-4.61999,-0.399968,9.62079,-11.6159,-76.8598,25.9756
458.209,65.8559,58.3279,0,9.07712,4.28948,-2.2106,-5.42683,-7.95732,-35.9451,-4.6631,-0.399968,9.54176,-11.0061,-75.1219,23.0183
458.219,65.4878,58.565,0,9.30465,4.25834,-2.58183,-7.71341,-9.2378,-36.6463,-4.58646,-0.344883,9.38608,-12.2561,-72.1951,21.7378
458.229,65.1328,58.8107,0,9.02443,4.06195,-2.63213,-7.2561,-11.6463,-36.7988,-4.48587,-0.217947,9.36932,-17.3171,-71.3415,20.7317
458.239,64.7617,59.0663,0,8.64123,4.14338,-2.60578,-6.70732,-14.9085,-36.3415,-4.36852,-0.146096,9.331,-19.878,-71.3719,20.2744
458.249,64.3792,59.3225,0,8.6556,4.32301,-2.43813,-8.68902,-11.0671,-36.372,-4.32062,-0.155676,9.34537,-22.1646,-70.7317,20.5488
458.259,63.9941,59.5933,0,8.71308,4.39247,-2.48364,-9.7561,-10.6707,-36.9817,-4.27032,-0.244292,9.50583,-25.4573,-70.9146,17.5915
458.269,63.6064,59.8376,0,8.76098,4.50743,-2.36388,-10.3354,-13.1402,-37.0732,-4.20565,-0.332908,9.20166,-22.5,-65.9146,14.2073
458.279,63.2324,60.0752,0,8.88313,4.41881,-2.46208,-11.2195,-15.2744,-38.0488,-4.1338,-0.431104,9.0891,-22.0427,-59.0854,10.4878
458.289,62.8702,60.321,0,8.85199,4.30864,-2.44052,-11.372,-15.2744,-38.628,-4.07393,-0.474214,9.15376,-19.2378,-55.6707,7.95732
458.299,62.4951,60.6014,0,8.464,4.29906,-2.1651,-12.7439,-16.4024,-38.689,-3.94699,-0.519719,9.35974,-20.7927,-53.9939,7.95732
458.309,62.1442,60.8991,0,8.50711,4.15775,-2.44771,-11.7988,-19.1159,-38.7805,-3.84161,-0.490979,9.43877,-22.6524,-53.628,10.8841
458.319,61.7794,61.2129,0,8.54303,4.40444,-2.78062,-11.0671,-20.3963,-38.4146,-3.69312,-0.397573,9.41243,-22.4085,-49.8476,15.0305
458.329,61.3808,61.5304,0,8.23887,4.68466,-2.53872,-13.5671,-21.0976,-37.8049,-3.58534,-0.447869,9.34537,-23.811,-44.2378,20
458.339,60.9853,61.8186,0,8.11433,4.67987,-2.51238,-14.2073,-22.1951,-37.5915,-3.5566,-0.440684,9.0891,-22.4695,-35.8841,23.75
458.349,60.5972,62.1124,0,8.16462,4.67747,-2.65847,-15.122,-21.3415,-37.9878,-3.54463,-0.416733,9.2807,-23.9329,-28.811,27.1037
458.359,60.2104,62.4049,0,8.33946,4.78764,-2.77822,-15.7927,-18.3841,-38.5366,-3.5566,-0.409548,9.44596,-25.0915,-26.7378,27.6524
458.369,59.8071,62.6869,0,8.3203,5.07265,-2.64171,-17.0732,-21.7683,-37.9268,-3.53026,-0.349673,9.40285,-24.4817,-20.7317,27.5
458.379,59.3872,62.9681,0,8.23647,5.30736,-2.62255,-17.0427,-22.9573,-37.5305,-3.52068,-0.268242,9.52499,-24.0244,-15.0915,25.4573
458.389,58.95,63.2325,0,8.02811,5.39598,-2.63931,-16.8598,-20.9146,-37.8963,-3.47996,-0.263452,9.35734,-27.0732,-6.98171,26.4329
458.399,58.5131,63.5448,0,7.95386,5.40316,-2.62015,-15.6402,-22.8354,-38.1707,-3.42727,-0.280217,9.16095,-26.8598,2.04268,24.7866
458.409,58.085,63.7688,0,8.01134,5.37203,-2.75906,-15.2744,-21.6159,-38.872,-3.40811,-0.318538,8.99569,-25.9451,9.72561,24.2683
458.419,57.6446,63.9999,0,7.71196,5.384,-2.66805,-15.9451,-21.9207,-38.811,-3.33626,-0.361648,9.00288,-23.9939,12.5305,22.622
458.429,57.2106,64.2308,0,7.50839,5.31455,-2.47166,-17.7134,-23.1402,-38.2927,-3.29076,-0.416733,8.99569,-22.7134,15.6707,22.0122
458.439,56.7954,64.4716,0,7.42935,5.24749,-2.45729,-18.2317,-23.3537,-37.378,-3.14466,-0.452659,8.84241,-21.25,22.2866,21.7378
458.449,56.3782,64.7297,0,7.13237,5.21396,-2.45729,-18.9939,-25.3963,-36.5244,-3.05125,-0.387993,8.93103,-19.1768,30.2134,23.1098
458.459,56.0041,64.9838,0,7.22577,5.10379,-2.66087,-18.7805,-26.6463,-34.878,-2.96982,-0.423918,8.79212,-19.7256,38.1402,24.0244
458.469,55.6272,65.2361,0,7.03896,5.16606,-2.59381,-19.7256,-29.7256,-33.811,-2.91474,-0.416733,8.75619,-21.4329,47.3476,25.5793
458.479,55.2734,65.4672,0,7.24254,5.22833,-2.87402,-19.2378,-27.378,-33.1402,-2.96264,-0.404758,8.77296,-21.7073,53.689,25.5793
458.489,54.9126,65.672,0,7.14195,5.36484,-2.49322,-21.4634,-27.8354,-32.3476,-2.99138,-0.335303,8.658,-22.1951,61.0976,26.4329
458.499,54.5777,65.8404,0,7.34313,5.38161,-2.56267,-23.0183,-25.3049,-31.8293,-3.08,-0.313748,8.58375,-23.0183,67.8659,26.311
458.509,54.2645,65.99,0,7.49881,5.40556,-2.63692,-23.3232,-22.8659,-31.2195,-3.14227,-0.265847,8.62686,-23.9024,74.6646,24.6951
458.519,53.9509,66.1011,0,7.37906,5.44627,-2.75906,-22.7439,-20.1829,-30.5793,-3.22849,-0.241897,8.50232,-23.4146,82.8354,24.939
458.529,53.6261,66.1934,0,7.11321,5.48459,-2.53154,-21.7683,-25.4268,-29.9085,-3.3171,-0.263452,8.58375,-25.2134,88.8415,24.7866
458.539,53.304,66.2563,0,7.02938,5.53729,-2.88839,-19.6341,-26.9207,-29.0854,-3.43925,-0.251477,8.62207,-26.3415,95.2439,22.8354
458.549,52.9805,66.3033,0,6.99825,5.63548,-2.91234,-20.1829,-26.6159,-28.628,-3.48954,-0.273032,8.61489,-26.4329,102.622,20.8232
458.559,52.6817,66.3264,0,7.13476,5.58998,-2.93869,-21.4024,-27.622,-28.3232,-3.59492,-0.344883,8.64842,-26.5854,109.36,18.2927
458.569,52.3929,66.3179,0,7.27128,5.71452,-2.87881,-22.2256,-27.622,-27.7439,-3.67635,-0.335303,8.53345,-27.622,117.439,17.0122
458.579,52.1046,66.2887,0,7.13476,5.73368,-2.87163,-22.4695,-23.5061,-27.0122,-3.72905,-0.306563,8.45681,-28.1402,125.823,16.6463
458.589,51.8148,66.2332,0,7.07489,5.87498,-2.73511,-23.2622,-21.7683,-25.8841,-3.79371,-0.320933,8.33946,-25,131.585,18.0488
458.599,51.532,66.159,0,6.88089,5.83427,-2.87642,-22.5915,-21.4329,-24.5427,-3.88233,-0.356858,8.33946,-24.6341,137.134,18.1707
458.609,51.2283,66.0638,0,6.65576,5.94923,-2.72553,-21.5854,-22.6524,-24.2073,-3.95657,-0.443079,8.27958,-23.0183,141.951,18.9939
458.619,50.9447,65.9687,0,6.72521,6.00192,-2.90995,-22.2256,-23.9024,-22.8659,-4.02363,-0.450264,8.39454,-23.2012,147.439,19.2683
458.629,50.6777,65.8868,0,6.75635,6.057,-2.91234,-22.6829,-25.122,-21.4939,-4.09309,-0.428708,8.63644,-23.9024,149.421,17.8963
458.639,50.4065,65.7751,0,6.6845,6.14802,-2.6465,-23.5366,-29.5122,-20.9756,-4.15296,-0.361648,8.45681,-22.9878,157.713,17.9878
458.649,50.1496,65.6299,0,6.79467,6.18155,-2.63692,-24.1463,-33.811,-20.7012,-4.31822,-0.373623,8.45202,-21.6159,167.226,19.9085
458.659,49.8902,65.4512,0,6.79946,6.24621,-2.79499,-25.3049,-30.9756,-20.9146,-4.49306,-0.371228,8.44484,-19.5732,175.366,16.8598
458.669,49.6199,65.2446,0,6.94077,6.45937,-2.8381,-26.4329,-30.2134,-21.7988,-4.69663,-0.354463,8.51429,-19.2073,178.659,16.128
458.679,49.3352,65.0051,0,6.95035,6.5887,-3.00575,-26.8598,-25.7927,-22.7439,-4.84033,-0.313748,8.4137,-19.4207,179.939,14.6646
458.689,49.0282,64.6987,0,6.69887,6.66534,-2.83091,-26.7073,-26.2805,-22.7744,-5.06547,-0.229922,8.15983,-19.3293,182.134,13.7805
458.699,48.7455,64.3964,0,6.77551,6.6342,-2.86205,-25.9756,-28.4451,-21.8598,-5.17324,-0.102986,8.2724,-20.4878,185.122,12.8963
458.709,48.4808,64.0809,0,6.88329,6.6366,-2.87163,-26.3415,-28.4451,-21.4939,-5.28341,-0.0263452,8.24605,-21.311,186.098,12.3171
458.719,48.238,63.7776,0,6.98627,6.53361,-2.94827,-26.5854,-28.1402,-21.5854,-5.33371,0.0311353,8.32509,-23.3537,188.262,13.1707
458.729,48.0005,63.4561,0,6.96711,6.49769,-3.02251,-26.25,-28.3537,-21.7073,-5.37682,0.0646655,8.15504,-23.0793,190.518,12.0732
458.739,47.7583,63.1286,0,6.96472,6.55756,-3.02251,-26.0976,-27.1037,-22.1037,-5.44867,0,8.13109,-24.7561,199.848,11.7073
458.749,47.4953,62.8045,0,6.78988,6.57912,-3.06802,-26.6159,-22.9573,-23.0488,-5.47501,-0.0598755,8.09996,-23.9634,201.86,9.17683
458.759,47.2486,62.4304,0,6.98388,6.55277,-2.98659,-27.0122,-18.689,-23.811,-5.53729,-0.110171,7.72873,-26.8293,206.463,8.2622
458.769,46.9746,62.0655,0,6.90484,6.66534,-2.89079,-26.7073,-17.622,-25.4268,-5.5804,-0.105381,7.75268,-28.1402,209.848,6.98171
458.779,46.6927,61.7093,0,6.84257,6.62702,-3.03449,-26.25,-18.3537,-26.6159,-5.65943,-0.124541,7.81974,-30.9146,208.841,5.4878
458.789,46.37,61.3424,0,6.65576,6.82341,-3.18777,-26.6159,-21.6768,-28.0183,-5.68817,-0.141306,7.68322,-32.0427,210.915,3.75
458.799,46.0271,60.9955,0,6.59828,6.90005,-3.15424,-26.8598,-23.7195,-29.5732,-5.73847,-0.110171,7.79818,-31.7683,215.915,4.11585
458.809,45.672,60.6085,0,6.57193,6.924,-3.08718,-27.1341,-25.0915,-31.0976,-5.8199,-0.208367,7.53952,-32.2561,224.39,3.59756
458.819,45.3332,60.1787,0,6.82581,6.91442,-2.95306,-28.0488,-21.9512,-32.439,-5.92528,-0.277822,7.29762,-28.8415,236.402,3.29268
458.829,44.9837,59.7226,0,6.74917,6.89287,-2.68961,-28.5366,-17.378,-33.75,-6.03305,-0.287402,7.15871,-27.1037,245.762,3.96341
458.839,44.6418,59.2615,0,6.7324,6.79467,-2.78062,-27.0732,-12.4085,-34.3902,-6.20071,-0.332908,7.20901,-26.4024,247.165,4.57317
458.849,44.2786,58.7889,0,6.70366,6.86413,-2.86205,-25.7927,-9.02439,-36.4024,-6.35878,-0.335303,7.19703,-26.6768,244.604,5.2439
458.859,43.8559,58.3096,0,6.31088,7.01741,-2.86205,-25.2744,-10.4268,-38.4146,-6.43063,-0.316143,7.1156,-27.439,244.177,3.38415
458.869,43.3973,57.8125,0,6.21987,7.06052,-3.01533,-25.7012,-11.3415,-41.7378,-6.48092,-0.265847,6.94795,-27.7744,249.634,1.21951
458.879,42.8764,57.3162,0,5.90372,7.26409,-2.96264,-25.5793,-16.8293,-44.3902,-6.51685,-0.189207,6.88089,-28.2622,257.927,0.731707
458.889,42.324,56.7894,0,5.83906,7.33594,-2.91953,-25.9146,-23.9329,-47.4695,-6.59109,-0.148491,6.66773,-30.7012,266.402,-1.34146
458.899,41.7939,56.207,0,6.057,7.22817,-2.79499,-26.6159,-27.378,-49.2683,-6.68689,-0.172441,6.33243,-28.9939,274.329,-1.52439
458.909,41.2733,55.6335,0,6.251,7.20422,-2.63452,-25.7622,-22.9878,-51.4024,-6.73719,-0.205972,6.30369,-26.0061,277.012,-4.93902
458.919,40.7443,55.0319,0,6.2534,7.23296,-2.59381,-23.9939,-16.0366,-53.1098,-6.80186,-0.311353,6.08335,-24.2073,276.372,-5.94512
458.929,40.1935,54.4552,0,6.23663,7.44612,-2.69919,-24.4207,-11.8293,-54.5732,-6.83539,-0.435894,6.11688,-18.689,273.659,-6.92073
458.939,39.5897,53.8672,0,5.83666,7.67125,-2.68961,-24.7561,-9.17683,-55.6402,-6.84736,-0.541274,5.94444,-13.9939,273.994,-6.95122
458.949,38.9457,53.2376,0,5.56842,7.79579,-2.60339,-24.9085,-12.1037,-57.439,-6.80904,-0.64426,5.58279,-10.8841,279.177,-7.2561
458.959,38.2696,52.6242,0,5.20917,7.83171,-2.55309,-25.8232,-15.061,-58.1402,-6.74438,-0.670605,5.49178,-9.05488,284.238,-6.7378
458.969,37.5828,52.0503,0,4.84752,7.59461,-2.35191,-27.7439,-18.0183,-58.4146,-6.76593,-0.735271,5.58758,-7.7439,286.982,-5.67073
458.979,36.9249,51.4619,0,4.905,7.50599,-2.46448,-27.9268,-19.1768,-58.1098,-6.79467,-0.675395,5.42711,-3.5061,287.348,-5.30488
458.989,36.2886,50.8481,0,5.06547,7.57305,-2.53393,-29.2988,-21.7073,-58.5061,-6.79467,-0.641865,5.19719,2.13415,292.988,-4.5122
458.999,35.6603,50.2351,0,5.0487,7.53952,-2.44771,-29.7561,-21.5549,-59.0549,-6.83299,-0.55804,5.11816,5.60976,296.25,-3.93293
459.009,35.0358,49.6518,0,4.97685,7.59461,-2.30161,-29.939,-21.7683,-58.7805,-6.93358,-0.570015,5.22114,7.22561,298.079,-5.54878
459.019,34.4135,49.0383,0,4.77088,7.40301,-2.19863,-30.1524,-23.2927,-58.9329,-6.90005,-0.495769,4.94572,6.67683,297.652,-6.37195
459.03,33.8142,48.4058,0,4.65352,7.21619,-2.38544,-29.2378,-24.6037,-57.8963,-6.85455,-0.390388,4.72298,8.07927,303.567,-7.53049
459.039,33.1845,47.797,0,4.45234,7.36708,-2.37586,-28.2012,-28.5976,-58.811,-6.92161,-0.301772,4.76609,9.69512,306.555,-6.12805
459.049,32.5618,47.1589,0,4.44276,7.57545,-2.47166,-28.2927,-24.0854,-57.8354,-6.98627,-0.361648,4.57449,14.4207,309.665,-6.95122
459.059,31.9372,46.5607,0,4.3278,7.63772,-2.62255,-27.2866,-23.8415,-57.561,-7.01741,-0.431104,4.66071,15.4268,310.762,-7.95732
459.069,31.2843,45.96,0,4.01884,7.78142,-2.53872,-26.3415,-26.4939,-57.1951,-7.12518,-0.443079,4.6152,15.0305,311.494,-9.20732
459.079,30.6706,45.3183,0,4.23439,7.77184,-2.64889,-26.2195,-28.1098,-57.1037,-7.13716,-0.419128,4.34217,13.628,315.183,-9.05488
459.089,30.0339,44.6417,0,3.93023,7.97062,-2.36628,-27.439,-28.6585,-55.9451,-7.22577,-0.402363,4.14099,13.811,320.03,-7.28659
459.099,29.4602,43.9836,0,4.22002,7.80297,-1.93757,-27.6829,-28.9024,-55.2134,-7.32636,-0.347278,4.16494,12.0122,321.86,-7.56098
459.109,28.9043,43.3726,0,4.30625,8.04248,-2.23455,-27.8659,-25.4878,-54.0854,-7.43654,-0.332908,4.31822,8.32317,321.159,-7.56098
459.119,28.3749,42.7181,0,4.30385,8.0305,-2.54591,-27.439,-22.3476,-52.561,-7.61377,-0.404758,4.12183,7.10366,319.939,-8.68902
459.129,27.8505,41.9869,0,4.31343,8.22689,-2.5986,-27.0122,-18.4756,-52.0732,-7.7431,-0.368833,3.753,9.84756,324.665,-8.38415
459.139,27.3361,41.2491,0,4.34457,8.24126,-2.36867,-25.9756,-12.1646,-52.378,-7.95625,-0.364043,3.7051,14.6951,326.28,-11.128
459.149,26.8449,40.5554,0,4.20326,8.02332,-1.95913,-23.2927,-9.08537,-50.7622,-8.11193,-0.328118,3.83682,13.2622,319.482,-12.378
459.159,26.3386,39.8934,0,3.80569,8.03529,-1.75315,-21.6768,-10.122,-48.5976,-8.14546,-0.203577,3.86317,10.6402,310.213,-13.628
459.169,25.823,39.2615,0,3.5111,8.09517,-1.87051,-20.5488,-7.9878,-46.7073,-8.25084,-0.124541,3.92304,6.55488,302.043,-12.7134
459.179,25.3091,38.6164,0,3.4129,8.26761,-1.89446,-18.9939,-9.2378,-45.5183,-8.19576,-0.0407153,3.72665,2.10366,298.841,-12.8049
459.189,24.7719,37.9768,0,3.13987,8.67955,-2.56746,-19.5427,-7.0122,-43.75,-8.10235,-0.0598755,3.60211,-0.884146,303.902,-11.9512
459.199,24.2491,37.3484,0,3.15664,8.78972,-2.62734,-20.2134,-7.07317,-43.1098,-8.17181,-0.100591,3.57816,-4.78659,310.945,-12.5
459.209,23.7601,36.6843,0,3.23807,8.84241,-2.53393,-21.5854,-7.13415,-41.4634,-8.27479,-0.165256,3.365,-10.2744,313.445,-13.811
459.219,23.3175,36.0109,0,3.50631,8.67476,-1.67412,-20.5793,-7.68293,-41.5854,-8.34185,-0.174836,3.24286,-14.5427,316.006,-15.6707
459.229,22.8742,35.3893,0,3.51349,8.73224,-1.47054,-18.8415,-3.53659,-42.378,-8.52866,-0.134121,3.42009,-19.4512,310.732,-16.189
459.239,22.4127,34.7367,0,3.25244,8.81607,-1.44899,-16.372,1.06707,-41.7378,-8.68434,-0.122146,3.22849,-21.9817,299.543,-13.9329
459.249,21.926,34.0798,0,2.94827,8.92624,-1.7292,-15.2134,4.66463,-41.2195,-8.76577,-0.112566,3.12071,-23.0488,292.591,-11.128
459.259,21.4147,33.4633,0,2.62494,9.04599,-2.13636,-16.9207,4.93902,-40.4573,-8.89989,-0.138911,3.22849,-25.4573,288.293,-8.14024
459.269,20.9265,32.8425,0,2.5962,9.06754,-2.03816,-19.0244,-0.701219,-38.7195,-8.93582,-0.134121,3.11113,-30.6402,284.634,-7.7439
459.279,20.4731,32.1853,0,2.62734,8.85439,-1.84417,-21.128,-2.43902,-37.2866,-8.94061,-0.170046,2.84768,-35.4878,287.134,-8.10976
459.289,20.0662,31.5636,0,2.90037,8.83283,-1.51126,-20.9756,0.914634,-36.8293,-8.98611,-0.138911,2.90276,-42.5305,285.976,-8.41463
459.299,19.6633,30.9221,0,2.90037,8.92863,-1.61185,-21.311,6.0061,-36.8902,-9.01485,-0.0814307,2.71595,-47.4695,283.262,-8.81098
459.309,19.2957,30.2392,0,3.02012,8.79212,-1.6334,-18.1402,8.47561,-36.0671,-9.11305,-0.0359253,2.4549,-51.6463,282.866,-9.20732
459.319,18.9376,29.568,0,2.98419,8.7035,-1.57592,-15.0305,10.7927,-35.7927,-9.2304,-0.0215552,2.41657,-50.6098,279.299,-7.16463
459.329,18.5625,28.8923,0,2.84289,8.98372,-1.16637,-13.9329,14.0854,-35.4573,-9.34776,-0.0383203,2.3064,-51.0061,273.537,-7.0122
459.339,18.1663,28.2319,0,2.57704,9.15376,-1.44899,-15.3049,15.2439,-34.6341,-9.59684,-0.186812,2.3088,-52.9268,265.183,-6.76829
459.349,17.8084,27.5613,0,2.67524,8.93342,-1.52802,-12.5305,16.6768,-33.4756,-9.63037,-0.241897,2.14833,-54.2683,258.262,-8.59756
459.359,17.4357,26.8821,0,2.51956,9.04599,-1.7771,-9.72561,18.628,-33.4451,-9.64953,-0.306563,1.99266,-54.8171,253.994,-10.8537
459.369,17.022,26.2166,0,2.20102,9.12981,-1.74118,-8.35366,17.5915,-34.2988,-9.62798,-0.402363,1.9256,-55.3659,249.329,-12.6829
459.379,16.5893,25.5085,0,2.01182,9.0891,-1.70046,-8.38415,17.0122,-34.878,-9.59445,-0.483794,1.61424,-54.0244,245.61,-13.75
459.389,16.1693,24.8201,0,1.99745,9.03401,-1.54239,-8.53659,15.4573,-34.4512,-9.62798,-0.514929,1.58071,-53.811,242.287,-14.2378
459.399,15.7583,24.154,0,1.88488,9.01006,-1.45138,-9.17683,15.3354,-33.0488,-9.7118,-0.529299,1.56634,-54.1463,234.695,-14.6037
459.409,15.3411,23.4593,0,1.65496,9.02683,-1.24781,-8.75,10.9451,-31.6159,-9.76689,-0.486189,1.32684,-49.2073,227.195,-13.811
459.419,14.971,22.8034,0,1.90644,9.31663,-1.37714,-8.65854,10.122,-30.061,-9.75731,-0.486189,1.36756,-46.0366,218.933,-11.5854
459.429,14.651,22.1356,0,2.08606,9.31423,-1.46096,-9.08537,12.622,-27.8659,-9.7621,-0.534089,1.19751,-44.8476,212.774,-8.29268
459.439,14.3572,21.4713,0,2.11241,9.22322,-1.22625,-8.38415,12.5,-26.4024,-9.78844,-0.613125,1.09931,-45.0305,211.799,-5
459.449,14.1099,20.8186,0,2.34233,9.24957,-1.10171,-6.37195,9.08537,-24.939,-9.86748,-0.613125,1.04183,-44.6341,209.36,-1.79878
459.459,13.8853,20.1609,0,2.47885,9.35974,-1.01549,-5.39634,5.18293,-24.3902,-9.84832,-0.56762,0.900527,-47.9573,204.97,-0.914634
459.469,13.6619,19.5014,0,2.35191,9.36453,-0.958008,-5.79268,2.16463,-23.2317,-9.93454,-0.56762,0.783171,-49.7866,202.287,1.89024
459.479,13.4346,18.887,0,2.29922,9.27831,-1.24062,-5.15244,3.04878,-23.7195,-10.0711,-0.526904,0.874182,-53.1098,196.768,3.2622
459.489,13.1577,18.2778,0,1.99266,9.37171,-1.50407,-3.35366,4.7561,-25.3354,-10.1285,-0.507744,0.785566,-53.9939,188.567,4.93902
459.499,12.9218,17.6719,0,2.1651,9.12502,-1.45138,-0.579268,8.44512,-24.4512,-10.1764,-0.476609,0.689766,-53.5976,181.677,7.53049
459.509,12.6741,17.0711,0,2.04295,9.35255,-1.50168,1.58537,8.9939,-24.0549,-10.2674,-0.526904,0.603545,-50.1829,174.604,11.189
459.519,12.4129,16.5199,0,1.86333,9.50823,-1.4442,2.19512,9.60366,-23.4146,-10.2674,-0.548459,0.713716,-51.0976,166.524,11.9207
459.529,12.2026,16.0219,0,2.09804,9.62798,-1.53042,2.56098,10.061,-21.2195,-10.368,-0.708926,0.857417,-52.9878,158.445,13.2927
459.539,12.0187,15.5245,0,2.09325,9.61361,-1.46096,1.03659,8.23171,-18.9329,-10.4207,-0.847837,0.768801,-55.4268,153.262,11.7378
459.549,11.8747,15.0155,0,2.2106,9.616,-1.51365,0.640244,8.38415,-16.5854,-10.4758,-0.962798,0.622705,-54.4817,147.53,8.87195
459.559,11.767,14.5159,0,2.15552,9.5705,-1.61185,1.31098,8.75,-12.6524,-10.4375,-1.00591,0.56762,-49.6037,144.238,7.43902
459.569,11.6871,14.0323,0,2.08127,9.39566,-1.57592,1.95122,9.11585,-9.63415,-10.3153,-0.965193,0.538879,-45.122,138.415,7.56098
459.579,11.6272,13.5352,0,1.97589,9.29986,-1.32205,1.64634,8.9939,-6.7378,-10.119,-0.922083,0.380808,-39.8171,136.829,13.1098
459.589,11.5604,13.0677,0,1.79866,9.39806,-1.27176,1.15854,9.2378,-5.18293,-9.99681,-0.962798,0.416733,-37.5305,132.805,15.3659
459.599,11.4943,12.6334,0,1.7771,9.48188,-1.29571,0.457317,11.5854,-4.78659,-9.93933,-0.914897,0.474214,-34.2988,127.561,18.2012
459.609,11.4065,12.1569,0,1.64298,9.48907,-1.24062,1.37195,15.061,-5.51829,-9.96568,-0.905317,0.210762,-33.0793,123.567,19.3598
459.619,11.2772,11.6876,0,1.41306,9.62319,-1.06818,1.61585,17.378,-6.95122,-9.95131,-0.898132,0.153281,-31.0366,116.372,18.7805
459.629,11.1173,11.1887,0,1.24781,9.71899,-1.08734,2.28659,19.2378,-8.23171,-10.0256,-0.843047,-0.0622705,-29.878,112.012,18.1402
459.639,10.9363,10.6992,0,1.06339,9.70222,-1.22625,3.84146,18.8415,-8.53659,-10.0735,-0.866997,-0.112566,-28.1707,107.622,16.8598
459.649,10.7379,10.2042,0,0.902922,9.69264,-1.19032,2.95732,15.061,-8.78049,-10.1812,-0.926873,-0.227527,-27.378,105.061,14.5427
459.659,10.548,9.74607,0,0.953218,9.58487,-1.3484,3.07927,11.9207,-9.05488,-10.2459,-0.931663,-0.155676,-26.4329,99.939,12.8963
459.669,10.3739,9.31593,0,1.02267,9.56571,-1.45138,2.92683,8.90244,-8.68902,-10.2986,-0.979563,-0.114961,-24.6037,96.25,11.6463
459.679,10.2291,8.90522,0,1.10171,9.6663,-1.66933,3.75,8.20122,-6.85976,-10.3609,-1.1041,-0.107776,-23.0793,92.8659,9.14634
459.689,10.0977,8.48521,0,1.09931,9.75731,-1.93997,3.5061,8.41463,-5.60976,-10.3632,-1.09452,-0.227527,-23.6585,89.5732,6.79878
459.699,9.97712,8.08707,0,1.1065,9.69983,-1.9256,1.89024,9.29878,-4.87805,-10.277,-0.967588,-0.203577,-21.4329,87.7134,5.79268
459.709,9.82858,7.70062,0,0.886157,9.69983,-1.76992,1.12805,9.02439,-5.36585,-10.2363,-0.862207,-0.225132,-20.6098,83.2012,7.56098
459.719,9.6818,7.30674,0,0.914897,9.7118,-1.41785,-1.06707,7.83537,-5.85366,-10.1621,-0.773591,-0.328118,-21.6159,80.0915,8.96341
459.729,9.53479,6.9251,0,0.986748,9.73336,-1.08015,-3.90244,8.35366,-7.04268,-10.1214,-0.637075,-0.344883,-24.5122,76.5854,10.6707
459.739,9.39581,6.52262,0,1.08015,9.81719,-1.13284,-4.48171,9.42073,-7.53049,-10.0351,-0.514929,-0.502954,-29.9695,74.6341,12.7134
459.749,9.27625,6.16125,0,1.24062,9.78126,-1.35798,-3.20122,9.29878,-7.77439,-10.0711,-0.541274,-0.395178,-34.6646,71.8902,14.6037
459.759,9.16451,5.83308,0,1.346,9.77168,-1.3963,-3.84146,7.65244,-8.47561,-10.2195,-0.380808,-0.320933,-39.1159,66.0671,16.0671
459.769,9.06421,5.54538,0,1.47054,9.70462,-1.346,-3.93293,6.40244,-9.11585,-10.0806,-0.483794,-0.198787,-40.6402,61.0976,17.4085
459.779,8.97436,5.28741,0,1.56395,9.55852,-1.3005,-2.77439,7.28659,-9.63415,-10.0495,-0.457449,-0.124541,-43.872,52.3171,20.7622
459.789,8.89334,5.05101,0,1.59748,9.50583,-1.3939,-0.914634,8.32317,-9.42073,-9.9537,-0.512534,-0.0814307,-48.4146,43.1707,23.2012
459.799,8.82662,4.82242,0,1.61424,9.55373,-1.48252,1.12805,8.9939,-8.23171,-9.93694,-0.632285,-0.0934058,-48.5061,36.9512,23.3537
459.809,8.76989,4.59977,0,1.60227,9.57529,-1.76273,1.98171,10.4573,-7.16463,-9.92257,-0.725691,-0.110171,-49.2378,33.1402,21.5549
459.819,8.72917,4.3641,0,1.62861,9.51062,-1.78189,2.16463,12.2561,-6.09756,-9.99681,-0.759221,-0.210762,-48.3232,28.9939,19.4817
459.829,8.66275,4.07415,0,1.31008,9.38848,-1.36756,3.90244,13.5061,-5.15244,-9.99921,-0.756826,-0.493374,-48.0183,26.8902,16.9207
459.839,8.57909,3.74161,0,1.12566,9.50583,-0.991538,2.40854,15.6707,-4.54268,-10.0232,-0.680186,-0.732876,-45.4878,28.5671,16.3415
459.849,8.52083,3.40633,0,1.26218,9.54655,-0.953218,1.37195,16.189,-3.68902,-10.1525,-0.637075,-0.811912,-47.4695,30.8841,15.5183
459.859,8.47355,3.11704,0,1.30768,9.69025,-1.27655,0.335366,16.6159,-2.95732,-10.2531,-0.593965,-0.673001,-48.3232,28.9939,14.8476
459.87,8.42717,2.85198,0,1.27176,9.81479,-1.48731,0,15.7622,-2.04268,-10.2842,-0.467029,-0.62031,-50.5488,25.1829,14.7256
459.879,8.35286,2.60033,0,1.07536,9.89862,-1.56874,-0.792683,12.1646,-2.43902,-10.2195,-0.426313,-0.60594,-52.561,22.1646,15
459.889,8.24413,2.36216,0,0.835862,9.94173,-1.41785,-2.83537,8.04878,-3.53659,-10.0495,-0.371228,-0.584385,-52.6524,17.3476,14.7256
459.899,8.11191,2.14432,0,0.687371,9.89862,-1.20709,-3.41463,3.65854,-4.63415,-9.89383,-0.359253,-0.529299,-51.189,15.4878,13.3537
459.909,7.98893,1.92715,0,0.728086,9.79563,-1.19032,-3.44512,-0.0914634,-4.5122,-9.79323,-0.474214,-0.560435,-48.9329,13.0183,14.1463
459.919,7.86976,1.72257,0,0.754431,9.79803,-1.20948,-3.62805,-2.16463,-4.72561,-9.74294,-0.543669,-0.543669,-46.8902,8.84146,11.7073
459.929,7.75696,1.50207,0,0.795146,9.67827,-1.06818,-3.35366,-2.83537,-4.93902,-9.76928,-0.58199,-0.64426,-42.1341,5.4878,8.59756
459.939,7.69155,1.26413,0,1.04902,9.50823,-1.02267,-1.85976,-2.19512,-3.47561,-9.89143,-0.60115,-0.747246,-39.2683,4.11585,6.82927
459.949,7.65839,0.998194,0,1.23104,9.55134,-1.11608,-0.640244,1.12805,-2.56098,-10.0256,-0.58678,-0.905317,-35,3.56707,4.69512
459.959,7.66223,0.746225,0,1.46336,9.6663,-1.15919,-0.518293,3.01829,-2.04268,-10.0854,-0.517324,-0.934058,-32.4695,5.2439,3.62805
459.969,7.69486,0.506294,0,1.64059,9.68785,-1.19751,-1.67683,4.7561,-1.82927,-10.1405,-0.469424,-0.924478,-30.5793,4.60366,3.78049
459.979,7.74229,0.292756,0,1.72681,9.70462,-1.21188,-3.23171,5.06098,-1.67683,-10.107,-0.438289,-0.840652,-29.7561,4.20732,3.38415
459.989,7.77946,0.0736445,0,1.65735,9.66869,-1.1999,-4.11585,4.39024,-1.67683,-10.0232,-0.411943,-0.771196,-28.2317,2.16463,5.18293
459.999,7.80488,-0.307599,0,1.5879,9.63995,-1.09692,-4.54268,2.46951,-1.7378,-9.93215,-0.428708,-0.711321,-28.5366,0.243902,6.4939
460.009,7.83235,-0.499748,0,1.54718,9.62558,-1.04662,-4.87805,0,-1.34146,-9.86988,-0.447869,-0.756826,-27.1341,-2.22561,6.92073
460.019,7.86282,-0.647276,0,1.47773,9.6184,-1.05141,-4.69512,-2.56098,-0.670732,-9.87227,-0.455054,-0.723296,-26.6159,-4.72561,6.79878
460.029,7.92323,-0.78949,0,1.50886,9.58726,-1.02028,-3.87195,-3.5061,0.213415,-9.92975,-0.397573,-0.740061,-24.6951,-6.55488,7.59146
460.039,7.97945,-0.943007,0,1.53521,9.51781,-1.04423,-3.59756,-4.02439,0.884146,-9.99921,-0.356858,-0.821492,-24.1159,-7.13415,7.10366
460.049,8.04323,-1.11175,0,1.60227,9.46272,-1.0586,-2.83537,-3.47561,1.55488,-10.0543,-0.320933,-0.919688,-25.3354,-6.46341,6.09756
460.059,8.11317,-1.28151,0,1.65975,9.46033,-1.11847,-1.89024,-2.46951,2.56098,-10.0806,-0.273032,-0.958008,-25.122,-7.10366,6.09756
460.069,8.19593,-1.44761,0,1.76273,9.51062,-1.08015,-1.12805,-1.46341,3.10976,-10.0303,-0.253872,-0.969983,-25.8537,-9.72561,6.25
460.079,8.28482,-1.60616,0,1.85375,9.63277,-1.09931,-1.64634,0.121951,3.10976,-9.9537,-0.155676,-0.960403,-24.3902,-12.0732,7.34756
460.089,8.36173,-1.75671,0,1.81063,9.7142,-1.25499,-2.04268,1.98171,2.65244,-9.98723,-0.105381,-0.955613,-25.4573,-11.7073,9.63415
460.099,8.43034,-1.89847,0,1.75555,9.63756,-1.35079,-2.22561,3.5061,2.10366,-9.93694,-0.141306,-0.938848,-27.1646,-12.2866,11.9512
460.109,8.48801,-2.0191,0,1.68849,9.63995,-1.26457,-2.46951,3.47561,1.40244,-9.92975,-0.138911,-0.871787,-29.6341,-14.6646,12.7744
460.119,8.55475,-2.14213,0,1.69807,9.63995,-1.24302,-3.75,3.29268,0.609756,-9.89383,-0.179626,-0.902922,-32.561,-17.9268,12.7134
460.129,8.62044,-2.27284,0,1.74357,9.58966,-1.13045,-4.48171,2.95732,-0.640244,-9.8603,-0.179626,-0.955613,-33.4451,-18.7195,13.2317
460.139,8.65867,-2.4318,0,1.76992,9.50104,-0.991538,-3.90244,2.83537,-1.67683,-9.89862,-0.182021,-1.1065,-33.9634,-18.4146,13.5976
460.149,8.67633,-2.59868,0,1.70046,9.49386,-0.922083,-2.7439,2.65244,-2.10366,-9.9561,-0.196392,-1.17595,-33.1098,-18.2317,11.128
460.159,8.69639,-2.77761,0,1.74836,9.48428,-0.986748,-2.16463,2.59146,-2.34756,-9.96568,-0.201182,-1.25978,-31.5549,-17.7134,9.60366
460.169,8.71159,-2.95201,0,1.73399,9.47949,-0.953218,-2.19512,2.5,-2.5,-10.0016,-0.210762,-1.27655,-27.9268,-18.5366,9.2378
460.179,8.72154,-3.12072,0,1.75794,9.5681,-1.01309,-2.77439,3.84146,-2.86585,-9.97526,-0.234712,-1.28134,-26.9817,-21.7073,10.4878
460.189,8.71976,-3.28223,0,1.69328,9.616,-1.11608,-2.86585,5.27439,-3.01829,-9.90341,-0.332908,-1.26936,-24.1768,-21.1585,9.84756
460.199,8.71393,-3.42053,0,1.69088,9.7118,-1.24541,-2.86585,5.57927,-3.14024,-9.88904,-0.385598,-1.19272,-21.6768,-20.7317,11.4024
460.209,8.69747,-3.5356,0,1.62622,9.70222,-1.27415,-3.07927,5.51829,-3.41463,-9.84353,-0.452659,-1.10889,-22.4085,-20.4268,12.1037
460.219,8.67401,-3.66168,0,1.55197,9.63516,-1.22146,-3.23171,3.9939,-3.38415,-9.96328,-0.598755,-1.19272,-18.0488,-21.6159,12.2256
460.23,8.64576,-3.78263,0,1.53281,9.60882,-1.21906,-3.75,2.77439,-3.71951,-10.1932,-0.699346,-1.22386,-14.2683,-26.372,7.86585
460.239,8.61593,-3.93206,0,1.54718,9.55613,-1.12087,-4.26829,1.95122,-4.20732,-10.1094,-0.565225,-1.36756,-10.2439,-29.8476,4.60366
460.249,8.58418,-4.11494,0,1.57592,9.52978,-1.14242,-4.29878,2.10366,-4.84756,-10.0256,-0.426313,-1.53042,-6.28049,-26.0671,5.39634
460.259,8.54507,-4.29313,0,1.51126,9.57768,-1.1041,-4.08537,1.79878,-4.78659,-9.96807,-0.359253,-1.53042,-4.84756,-23.0183,6.31098
460.269,8.505,-4.43832,0,1.50647,9.70701,-1.03465,-4.54268,0.396341,-4.66463,-9.96089,-0.419128,-1.40827,-7.28659,-17.7134,7.7439
460.279,8.46014,-4.54957,0,1.46575,9.80521,-1.14242,-6.12805,-1.89024,-4.57317,-9.74533,-0.526904,-1.2502,-10.1829,-12.6829,7.95732
460.289,8.41111,-4.65623,0,1.45617,9.81,-1.26457,-7.71341,-3.71951,-4.96951,-9.55852,-0.555645,-1.22146,-13.4146,-8.2622,9.17683
460.299,8.35405,-4.7416,0,1.43462,9.8076,-1.31726,-9.17683,-5.88415,-5.64024,-9.35734,-0.512534,-1.12087,-15.0915,-6.21951,12.378
460.309,8.30027,-4.80156,0,1.45857,9.68785,-1.28134,-9.7561,-8.87195,-5.91463,-9.29028,-0.514929,-1.02028,-18.0183,-5.64024,14.6341
460.319,8.2675,-4.85703,0,1.69088,9.55613,-1.40588,-9.84756,-11.0366,-6.89024,-9.31663,-0.517324,-1.00112,-20.2439,-3.81098,18.9939
460.329,8.24979,-4.90721,0,1.86572,9.51062,-1.54239,-10.2134,-11.7988,-7.59146,-9.41722,-0.500559,-0.996328,-23.5671,-3.44512,21.0976
460.339,8.27019,-4.95932,0,2.13157,9.46033,-1.54479,-9.02439,-11.7683,-7.0122,-9.60403,-0.519719,-1.04902,-26.311,-5.2439,21.5854
460.349,8.33355,-5.02923,0,2.44052,9.44117,-1.50168,-8.75,-10.2439,-6.28049,-9.77647,-0.526904,-1.15679,-28.6585,-6.15854,24.2073
460.359,8.43963,-5.09019,0,2.70398,9.38129,-1.55916,-7.46951,-8.41463,-5.15244,-9.91299,-0.517324,-1.14721,-29.9695,-7.04268,25.7317
460.369,8.58781,-5.15631,0,2.90276,9.32142,-1.53042,-6.61585,-4.72561,-3.75,-10.004,-0.524509,-1.19272,-32.3171,-8.07927,30.061
460.379,8.77101,-5.22858,0,3.07042,9.30944,-1.53521,-6.85976,-1.09756,-2.92683,-10.0327,-0.495769,-1.23583,-34.3293,-8.41463,32.0427
460.389,8.99349,-5.28982,0,3.0273,9.33339,-1.52323,-6.61585,2.89634,-1.76829,-9.86988,-0.505349,-1.17835,-37.0732,-7.13415,35.3659
460.399,9.24203,-5.36696,0,2.88121,9.3286,-1.46575,-6.25,6.67683,-1.15854,-9.75491,-0.512534,-1.24062,-39.9085,-5.39634,39.4512
460.409,9.50051,-5.44319,0,2.73272,9.33339,-1.48731,-5.54878,10.4878,-0.792683,-9.72138,-0.522114,-1.21188,-40.3354,-2.83537,42.8963
460.419,9.76394,-5.54228,0,2.51238,9.41482,-1.51126,-5.06098,12.561,-0.27439,-9.7142,-0.548459,-1.19751,-41.0061,-1.21951,45.5793
460.429,9.9403,-5.61862,0,2.28724,9.51062,-1.56395,-4.66463,14.1768,-0.27439,-9.76449,-0.617915,-1.23583,-44.5732,2.56098,47.1951
460.439,10.0457,-5.68549,0,2.12678,9.51781,-1.54958,-4.35976,14.2378,-0.548781,-9.77168,-0.627495,-1.18074,-48.1098,1.76829,48.689
460.449,10.1042,-5.76775,0,1.95673,9.54894,-1.60706,-3.78049,14.3293,-0.548781,-9.69983,-0.57241,-1.28134,-50.9146,2.80488,50.6402
460.459,10.1663,-5.83412,0,1.93278,9.60163,-1.54479,-3.47561,15.3963,-0.182927,-9.74773,-0.598755,-1.25978,-54.0244,3.93293,52.378
460.469,10.2312,-5.88348,0,1.98787,9.62079,-1.62861,-3.35366,16.4634,0.579268,-9.76928,-0.608335,-1.20709,-54.9695,5.4878,51.5854
460.479,10.29,-5.94031,0,1.99984,9.56571,-1.61185,-3.2622,17.439,1.52439,-9.78605,-0.565225,-1.2502,-56.6463,7.40854,51.5244
460.489,10.3459,-5.99089,0,1.9735,9.52499,-1.61185,-3.2622,17.2256,2.22561,-9.8076,-0.517324,-1.23344,-54.5122,10,48.9024
460.499,10.4134,-6.06393,0,1.98787,9.4244,-1.65735,-3.71951,16.3415,3.5061,-9.87706,-0.555645,-1.3484,-52.6524,12.378,48.8415
460.509,10.5044,-6.1273,0,2.05493,9.41243,-1.64538,-3.93293,15.2134,5.36585,-9.93454,-0.57241,-1.32445,-50.7927,14.2683,46.0976
460.519,10.6271,-6.18484,0,2.15073,9.43638,-1.56155,-3.84146,13.4146,7.7439,-9.88664,-0.617915,-1.30289,-47.2561,14.7561,44.5122
460.529,10.7957,-6.22405,0,2.26569,9.37171,-1.46336,-3.41463,11.4024,11.1585,-9.93454,-0.673001,-1.23823,-42.6524,14.1768,44.939
460.539,11.0284,-6.23688,0,2.42376,9.2831,-1.42743,-2.86585,9.02439,15.9146,-9.95849,-0.754431,-1.13284,-35.5183,11.7683,47.378
460.549,11.3288,-6.24187,0,2.51238,9.13221,-1.23104,-2.04268,6.06707,21.7683,-9.94891,-0.859812,-1.10171,-26.6159,8.87195,51.4329
460.559,11.7246,-6.23414,0,2.6465,8.82086,-1.19751,-0.152439,2.46951,29.4207,-9.97286,-0.898132,-1.05381,-14.0854,4.02439,56.0671
460.569,12.2495,-6.17927,0,2.84289,8.36341,-1.08734,1.21951,-1.70732,39.1768,-10.0591,-1.04183,-0.969983,0.365854,-0.426829,59.9085
460.579,12.954,-6.15877,0,3.22849,7.75507,-0.946033,2.37805,-6.25,50.7622,-10.0471,-1.14482,-1.00351,17.0732,-8.5061,61.0671
460.589,13.8944,-6.11749,0,3.82245,6.99346,-0.876577,4.72561,-10.7012,63.9024,-10.0687,-1.14482,-0.917292,41.311,-17.9878,60.0915
460.599,15.0857,-6.0337,0,4.49306,6.49769,-0.996328,8.71951,-12.9573,79.1768,-10.0495,-1.1041,-0.732876,66.1585,-34.2378,56.372
460.609,16.5345,-5.93989,0,5.7696,6.27016,-0.934058,16.2805,-12.2561,91.6463,-9.98005,-0.972378,-0.682581,92.561,-50.0915,49.6951
460.619,18.1348,-5.89451,0,6.57672,6.65336,-1.2502,24.0854,0.823171,105.884,-9.63756,-0.821492,-0.857417,120.366,-58.628,43.2927
460.629,19.8283,-5.82306,0,7.44612,7.66406,-1.55916,34.4207,21.6463,119.665,-9.77168,-0.0981958,-0.756826,141.433,-68.3841,33.9939
460.639,21.4979,-5.73395,0,7.5515,9.62558,-2.13636,44.2378,47.3476,133.049,-9.9082,0.256267,-0.682581,160.274,-74.3598,29.4817
460.649,23.0794,-5.70821,0,7.20182,12.0565,-2.83331,53.0793,70,142.287,-10.1501,0.423918,-0.969983,175.671,-75.7622,26.0366
460.659,24.5536,-5.78596,0,6.52403,13.2301,-3.1734,59.6646,85.4878,143.963,-10.3034,0.55325,-1.45138,183.506,-70,24.9695
460.669,25.9102,-5.98292,0,4.98164,12.9954,-2.54112,63.872,92.0122,145.732,-10.2962,0.764011,-2.00942,185.915,-57.2866,30.8232
460.679,27.1941,-6.21164,0,4.65113,12.138,-1.48731,65.4573,97.439,141.098,-10.2172,1.11368,-2.16749,181.402,-44.1463,39.6341
460.689,28.3373,-6.43264,0,3.65719,10.9764,-0.239502,69.6341,83.3537,134.543,-10.2028,1.42264,-2.16031,169.207,-32.8659,51.6159
460.699,29.2103,-6.6506,0,0.60115,11.3644,0.816702,65.6402,41.128,140.732,-10.0878,1.74118,-2.1627,149.207,-33.0793,60.5488
460.709,29.9721,-6.82286,0,-1.24541,10.9907,0.749641,54.5427,-14.4817,150.549,-9.99442,1.96392,-1.97589,129.939,-36.8598,63.5366
460.719,30.7332,-6.97226,0,-0.661025,10.5237,0.220342,36.1585,-44.0854,146.159,-9.87227,2.24892,-1.88488,112.744,-43.1707,62.7439
460.729,31.6045,-7.09897,0,1.94476,9.43638,-1.346,25.3049,-46.25,127.866,-9.88425,2.36628,-1.81782,97.7134,-50.3049,54.7256
460.739,32.5464,-7.19136,0,4.00926,9.00048,-2.39262,24.1768,-46.25,111.616,-10.0351,2.28485,-1.71723,84.2988,-56.25,46.0366
460.749,33.5445,-7.27001,0,6.47374,8.01853,-3.47038,23.9939,-35.2744,88.8415,-10.1573,2.04535,-1.69567,73.689,-60.6402,40
460.759,34.4256,-7.3317,0,7.08447,7.86764,-2.83331,22.7439,-30.9146,72.6524,-10.186,1.7292,-1.64059,68.5976,-65.0305,37.4695
460.769,35.1395,-7.3867,0,6.22945,7.89638,-1.60945,22.7134,-31.3415,65,-10.1118,1.40109,-1.61424,65.8537,-70.6098,36.128
460.779,35.7451,-7.42294,0,5.54208,7.597,-0.483794,24.6037,-28.2317,59.8171,-9.86988,1.04902,-1.50647,63.2622,-76.0366,37.8049
460.789,36.2299,-7.44927,0,4.80441,7.52515,0.0646655,21.2805,-13.689,55.9756,-9.59684,0.845442,-1.43462,63.1707,-83.7195,37.1341
460.799,36.6496,-7.4661,0,4.68466,7.14434,0.225132,17.8963,8.32317,48.9024,-9.35016,0.735271,-1.36756,60.7622,-90.2744,34.7561
460.809,37.0258,-7.46547,0,4.99841,6.82581,0.00718506,18.872,30.9756,39.2683,-9.2328,0.768801,-1.28373,60.4573,-94.0549,31.4024
460.819,37.3609,-7.4566,0,5.45346,6.53122,-0.548459,20.6402,46.4634,28.4146,-9.18969,0.816702,-1.24541,57.9573,-96.25,25.3354
460.829,37.6261,-7.48349,0,5.81271,6.42823,-1.07536,20.0915,53.9939,17.3476,-9.27112,1.04183,-1.40109,56.5549,-92.5305,20.2134
460.839,37.7953,-7.54895,0,5.9636,6.50248,-1.59508,18.7195,56.4939,7.22561,-9.40764,1.28134,-1.58311,51.372,-83.9939,17.6524
460.849,37.9742,-7.61115,0,5.90133,6.50487,-1.98787,16.5244,55.1829,-1.34146,-9.55134,1.35558,-1.59987,47.7439,-78.6281,15.6098
460.859,37.9308,-7.66114,0,5.44627,6.5887,-2.11959,14.1768,49.1768,-7.71341,-9.69983,1.33882,-1.57832,41.1585,-74.4512,11.2805
460.869,37.7718,-7.7045,0,4.83315,6.60786,-2.0669,12.4695,39.878,-12.6524,-9.75012,1.39151,-1.56395,33.3537,-72.0732,9.7561
460.879,37.519,-7.73424,0,4.46911,6.78749,-2.01661,10.122,23.8415,-16.7988,-9.77407,1.35079,-1.51365,23.5976,-70.2134,7.43902
460.889,37.1792,-7.77772,0,4.11464,6.85934,-1.89686,6.28049,5.97561,-21.2805,-9.74054,1.33163,-1.57113,17.561,-66.7988,6.7378
460.899,36.7596,-7.84658,0,3.82724,6.85694,-1.77231,3.29268,-15.5183,-26.4634,-9.69504,1.36037,-1.67651,9.45122,-59.4512,6.52439
460.909,36.2199,-7.91144,0,3.48715,6.97909,-1.57592,2.92683,-40.7622,-34.2378,-9.78605,1.32684,-1.6813,6.03659,-53.3537,7.28659
460.919,35.5694,-7.96567,0,3.38416,7.17069,-1.5855,2.65244,-65.0305,-44.0244,-9.97286,1.2981,-1.67412,2.16463,-50.1829,4.69512
460.929,34.8556,-8.01753,0,3.69073,7.4557,-1.66693,-2.04268,-82.8049,-53.9939,-10.1142,1.31726,-1.69567,-1.7378,-48.9024,1.09756
460.939,34.1359,-8.04566,0,4.25834,7.41498,-1.40588,-10.5488,-95.3354,-63.2622,-10.1908,1.36995,-1.60706,-7.28659,-47.2256,-4.42073
460.949,33.4658,-8.06991,0,4.99122,7.27846,-1.20948,-19.2378,-101.372,-68.9939,-10.1812,1.50168,-1.59029,-12.5305,-44.3598,-13.4146
460.959,32.8873,-8.0817,0,5.98276,7.12039,-1.37953,-26.9817,-98.9634,-72.439,-10.1453,1.64777,-1.52802,-16.5549,-39.939,-21.189
460.969,32.4262,-8.08192,0,7.2138,6.86173,-1.75794,-32.0732,-92.9573,-74.6951,-10.0806,1.72681,-1.46336,-21.6768,-34.8171,-29.5122
460.979,32.094,-8.07983,0,8.32988,6.46655,-2.20102,-32.8049,-81.6768,-74.2073,-9.94652,1.59987,-1.42743,-25.9756,-27.8049,-37.561
460.989,31.8717,-8.10931,0,8.89989,6.05221,-2.54591,-28.9634,-63.3537,-71.0366,-9.87227,1.43222,-1.54958,-32.3476,-19.4817,-45.2439
460.999,31.7197,-8.16609,0,8.97653,5.92528,-2.67045,-22.5915,-43.0183,-65.9146,-9.7621,1.30289,-1.64777,-40.6402,-7.80488,-52.1037
461.009,31.5833,-8.25206,0,8.87594,6.3013,-2.96264,-13.3232,-24.3598,-60.6707,-9.74054,1.25499,-1.74357,-47.6524,2.95732,-57.7134
461.019,31.4065,-8.35187,0,8.57177,7.02459,-3.20454,-6.40244,-7.95732,-56.9817,-9.77168,1.22386,-1.84656,-53.3841,14.4207,-59.6951
461.029,31.1549,-8.51551,0,7.8868,7.68801,-3.37219,-4.02439,0.823171,-54.9085,-9.84114,1.2023,-2.15552,-55.7012,26.2195,-59.7256
461.039,30.8419,-8.70262,0,7.09644,8.02092,-3.50152,-5.60976,-2.83537,-53.0488,-9.98963,1.05381,-2.31359,-55.6402,40.5488,-58.3232
461.049,30.5131,-8.89185,0,6.33722,7.95146,-3.32189,-8.14024,-15.4878,-49.2988,-10.1309,0.950823,-2.37825,-55.0305,54.5427,-59.7866
461.059,30.1893,-9.05099,0,5.70973,7.77663,-3.22849,-9.42073,-30.4878,-44.8171,-10.1764,0.874182,-2.27287,-55.3963,64.7561,-62.7134
461.069,29.9261,-9.19312,0,5.41753,7.50599,-3.43925,-9.5122,-43.2012,-38.3537,-10.1237,0.850232,-2.20342,-57.2561,72.9878,-68.2927
461.079,29.7353,-9.27314,0,5.79595,7.62095,-3.2213,-11.1585,-47.8963,-34.4207,-9.93215,0.948428,-1.89925,-61.3415,78.4451,-71.5244
461.089,29.5717,-9.30608,0,6.57672,8.09517,-2.91234,-8.32317,-40.3963,-35.7927,-9.8124,1.09931,-1.67651,-69.1159,82.6829,-74.6037
461.099,29.3413,-9.24886,0,7.13476,9.06994,-2.62734,-5.27439,-23.0488,-41.0976,-9.93454,1.19511,-1.29571,-76.9207,86.9512,-74.7256
461.109,28.9998,-9.14851,0,7.25212,10.3489,-2.49082,-4.2378,5.03049,-46.4329,-10.4351,1.17835,-1.14961,-85.6402,86.4634,-73.689
461.119,28.4975,-9.10171,0,6.37315,11.2015,-3.04167,-1.61585,26.6463,-52.561,-10.986,0.958008,-1.44659,-87.0122,93.9939,-71.8598
461.129,27.8679,-9.0728,0,5.83666,11.9679,-2.76385,-6.09756,38.5976,-59.1463,-11.5584,0.735271,-1.59508,-84.0549,103.933,-68.5976
461.139,27.2054,-9.00213,0,5.73128,12.0781,-1.93518,-15.061,46.9817,-62.5305,-12.0326,0.57241,-1.42264,-78.7805,110.152,-63.1707
461.149,26.623,-8.80309,0,6.24142,12.1284,-0.974773,-25.2134,53.7195,-59.4817,-12.4924,0.483794,-0.756826,-68.8719,102.835,-55.1829
461.159,26.171,-8.55469,0,6.445,12.205,-0.843047,-26.4939,50.2439,-48.5976,-12.8996,0.234712,-0.467029,-52.9268,92.3171,-47.7744
461.169,25.8509,-8.36668,0,5.96599,11.6925,-1.23344,-16.8598,35.9451,-34.4207,-13.1606,-0.383203,-0.766406,-38.9329,95.7927,-42.6829
461.179,25.5779,-8.25281,0,4.98883,10.6674,-1.48731,-4.11585,22.9573,-26.25,-12.8948,-1.18314,-1.12087,-31.0366,105.732,-43.3232
461.189,25.1231,-8.09923,0,2.98419,9.20166,-1.34121,5.39634,16.9817,-30.8841,-12.1667,-1.26218,-0.821492,-23.872,103.384,-45.2744
461.199,24.3276,-7.87988,0,0.874182,8.63165,-1.32445,12.0122,18.75,-41.7073,-10.8518,-0.603545,-0.397573,-18.3537,93.3232,-41.128
461.209,23.1716,-7.54513,0,-1.07776,8.48555,-1.12087,12.622,13.7195,-53.5366,-9.64235,0.0167651,0.167651,-19.5427,85.4268,-33.4146
461.219,21.8272,-7.0146,0,-2.02379,8.42328,-0.950823,9.42073,3.10976,-62.3171,-8.88313,0.380808,0.967588,-32.8354,73.5976,-28.8415
461.229,20.4603,-6.27237,0,-1.94236,8.4161,-1.18314,0.762195,-8.68902,-68.4146,-8.42568,0.507744,1.78908,-51.7378,52.4085,-27.6829
461.239,19.1719,-5.49269,0,-1.46096,8.64842,-1.49449,-14.2683,-14.939,-70.1524,-8.15744,0.354463,1.96631,-72.2866,27.4085,-30.2744
461.249,18.069,-4.76881,0,-0.493374,8.63644,-1.38911,-28.628,-18.5671,-66.7378,-8.00416,0.0119751,1.82021,-85.4573,9.08537,-36.8902
461.259,17.2149,-3.91862,0,0.579595,8.88792,-1.12566,-37.6829,-23.6585,-57.8963,-8.10475,-0.306563,1.54239,-99.6646,-3.20122,-47.9878
461.269,16.6055,-3.44428,0,1.62861,9.03641,-0.905317,-41.8293,-32.5915,-47.8963,-8.32988,-0.500559,1.17116,-112.226,-11.128,-57.8659
461.279,16.1571,-3.10545,0,2.1172,9.0891,-1.03225,-41.0366,-44.6646,-38.628,-8.53106,-0.787961,0.752036,-120.518,-15,-59.8171
461.289,15.816,-2.99681,0,2.56267,8.73943,-1.26218,-35.5488,-51.25,-35.1829,-8.73224,-0.914897,-0.0622705,-113.476,-7.2561,-55.8841
461.299,15.4724,-2.93858,0,2.53633,8.67716,-2.09564,-26.372,-41.4024,-36.0366,-9.10826,-1.21667,-0.249082,-105.274,-6.58537,-46.4634
461.309,15.086,-2.96202,0,2.5028,8.77775,-2.76146,-18.2927,-23.1402,-40.3354,-9.49146,-1.53521,-0.58678,-93.811,-4.5122,-38.3232
461.319,14.585,-2.98652,0,1.86333,8.91426,-2.97701,-12.9573,-6.85976,-44.4207,-9.88664,-1.87051,-0.622705,-77.9573,-5.45732,-27.7134
461.329,14.077,-3.06116,0,2.15552,8.80409,-3.06323,-11.5549,12.4695,-50.1524,-10.2794,-2.17707,-0.878972,-63.628,-5.21341,-26.128
461.339,13.4636,-3.15001,0,1.45857,8.85199,-2.73751,-9.96951,18.872,-52.9573,-10.4782,-2.4022,-0.965193,-47.2256,-3.32317,-28.689
461.349,12.8563,-3.22179,0,1.38193,8.87355,-2.36628,-8.59756,22.3476,-52.561,-10.4183,-2.34472,-0.902922,-34.5122,-3.90244,-36.0976
461.359,12.2697,-3.33524,0,1.21906,8.93103,-2.02619,-7.28659,21.0061,-49.4817,-10.2962,-2.14354,-0.893342,-22.439,0.365854,-43.628
461.369,11.7357,-3.44977,0,1.27894,9.06994,-1.95673,-5.85366,18.2622,-45.8232,-10.1237,-1.85854,-0.850232,-17.6524,0.182927,-50.5183
461.379,11.2556,-3.5297,0,1.42743,9.19927,-2.04535,-4.87805,12.8049,-43.0488,-9.96328,-1.49449,-0.914897,-19.4512,-2.40854,-52.7134
461.389,10.8186,-3.60098,0,1.53521,9.30705,-2.09804,-5.03049,5.12195,-40.7317,-9.74294,-1.22625,-0.914897,-16.6159,-7.43902,-52.2866
461.399,10.3835,-3.67215,0,1.39869,9.32621,-2.00224,-5.85366,-3.93293,-39.7256,-9.51541,-1.00112,-0.907712,-16.0671,-10.3659,-46.0061
461.409,9.94313,-3.74376,0,1.22625,9.36932,-1.85854,-7.80488,-11.8293,-38.9634,-9.35016,-0.922083,-0.907712,-15.2134,-13.0183,-41.6768
461.419,9.48552,-3.81477,0,1.0107,9.25915,-1.76992,-9.17683,-20.5183,-39.1159,-9.19927,-0.931663,-0.905317,-14.0854,-16.8598,-36.6768
461.43,9.01988,-3.87768,0,0.814307,9.28549,-1.79147,-10.5793,-28.9329,-38.3841,-9.08191,-0.953218,-0.876577,-12.7439,-22.1341,-35.5183
461.439,8.57485,-3.93923,0,0.778381,9.3286,-1.81063,-12.2866,-34.4817,-36.7378,-8.95498,-0.993933,-0.871787,-10,-25.9451,-33.9024
461.449,8.17938,-3.9915,0,0.967588,9.4244,-1.79866,-15.2134,-37.5305,-34.8171,-8.89031,-1.01309,-0.843047,-9.14634,-31.9207,-33.1098
461.459,7.84484,-4.06413,0,1.25499,9.51781,-1.79147,-18.628,-35.9756,-32.7744,-8.83044,-0.941243,-0.929268,-7.46951,-36.7073,-33.5061
461.469,7.55432,-4.17692,0,1.45617,9.36213,-1.57832,-21.7378,-33.6585,-31.6768,-8.72985,-0.886157,-1.08734,-5.7622,-37.8963,-31.9512
461.479,7.29821,-4.30261,0,1.61903,9.12502,-1.43941,-23.5976,-31.9207,-31.25,-8.68195,-0.850232,-1.14961,-5.18293,-38.7805,-26.4939
461.489,7.06316,-4.43447,0,1.75555,9.06275,-1.31487,-25.122,-29.7561,-31.4634,-8.76817,-0.907712,-1.20709,-3.75,-41.6463,-21.3415
461.499,6.86116,-4.56178,0,2.02379,9.08431,-1.30768,-25.5793,-26.0366,-31.8293,-8.96216,-0.981958,-1.24062,-3.23171,-46.8293,-16.6159
461.509,6.68372,-4.66166,0,2.28485,9.15137,-1.55197,-24.5427,-19.4512,-32.7134,-9.15856,-1.09692,-1.18074,-3.04878,-52.9878,-11.4329
461.519,6.4808,-4.7482,0,2.13396,9.22083,-1.6358,-21.9817,-15.0915,-33.6585,-9.37171,-1.19032,-1.17356,-2.86585,-58.7195,-5.70122
461.529,6.22518,-4.87405,0,1.79147,9.4268,-1.65256,-20.2439,-13.7805,-34.8171,-9.46751,-1.25978,-1.36995,-1.95122,-62.1037,-0.27439
461.539,5.88744,-5.02443,0,1.27176,9.75252,-1.69328,-19.3598,-13.4756,-36.9207,-9.39087,-1.27894,-1.48252,1.12805,-60.5183,5.30488
461.549,5.54242,-5.24357,0,1.37714,9.78366,-1.89686,-18.689,-7.86585,-39.5427,-9.1346,-1.27415,-1.74597,2.86585,-53.0488,12.4085
461.559,5.15664,-5.54336,0,1.28852,9.75252,-2.0669,-18.5061,-3.90244,-43.4146,-8.90229,-1.28613,-2.05732,7.7439,-40.122,18.2012
461.569,4.73331,-5.87884,0,1.2526,9.64474,-2.20342,-19.3902,-1.52439,-47.7744,-8.78014,-1.36037,-2.21539,9.72561,-29.5427,21.8598
461.579,4.2615,-6.2561,0,1.18074,9.67588,-2.22737,-19.0854,-3.04878,-52.6829,-8.69871,-1.3005,-2.41418,9.96951,-21.311,24.3902
461.589,3.7569,-6.65578,0,1.20709,9.48667,-2.28485,-18.4756,-2.10366,-57.5915,-8.66997,-1.29331,-2.55549,11.5854,-14.939,27.5305
461.599,3.24734,-7.03527,0,1.40109,9.52739,-2.27048,-18.811,-2.92683,-61.4024,-8.82086,-1.27655,-2.57465,9.81707,-8.2622,29.6341
461.609,2.73001,-7.29643,0,1.45617,9.67588,-2.28724,-18.9634,-4.69512,-63.628,-9.01485,-1.2981,-2.19384,5.54878,-9.78659,32.378
461.619,2.21374,-7.49727,0,1.48252,9.69743,-2.1148,-20.2134,-7.28659,-64.8476,-9.17292,-1.43222,-2.019,3.47561,-9.32927,32.4695
461.629,1.73851,-7.6615,0,1.79866,9.93933,-2.27048,-21.189,-11.7073,-64.9085,-9.32381,-1.6837,-1.9232,2.68293,-6.15854,31.128
461.639,1.26489,-7.94213,0,1.55916,9.83156,-2.3064,-22.5,-14.6037,-63.1707,-9.40285,-1.8753,-1.82021,5.06098,-0.579268,29.0854
461.649,0.840446,-8.05813,0,1.58071,10.2459,-2.48124,-23.4146,-16.9817,-58.628,-9.51781,-1.96152,-1.81782,7.5,5.06098,27.5
461.659,0.502604,-8.18222,0,1.76034,10.0735,-2.72074,-26.189,-18.9634,-52.9878,-9.74054,-1.99026,-1.91602,10.1829,12.8049,27.2256
461.669,0.272212,-8.24109,0,2.09085,9.96089,-2.90037,-30.5183,-20.7622,-46.6768,-10.1429,-1.84177,-1.71244,13.628,17.3476,30.4268
461.679,0.184922,-8.15505,0,2.56746,10.1405,-2.90995,-35.1524,-19.5427,-37.3476,-10.7129,-1.69328,-1.12326,6.89024,16.7378,30.3354
461.689,0.24455,-8.12399,0,2.96743,10.0423,-2.73511,-37.6524,-18.2012,-27.1341,-11.1728,-1.45138,-1.42743,-7.04268,18.1707,27.3171
461.699,0.435038,-8.24993,0,3.2692,9.70701,-2.76625,-38.4451,-15.5183,-18.0488,-11.1273,-1.12326,-2.19384,-15,30.4878,24.0854
461.709,0.707755,-8.56436,0,3.26681,9.35255,-2.68482,-37.1341,-12.5,-10.5793,-10.6602,-0.711321,-3.04167,-17.0427,53.5976,25.9451
461.719,1.03121,-8.89911,0,3.07521,9.1825,-2.61297,-34.4817,-10.6098,-4.20732,-10.4303,-0.747246,-3.12311,-11.0061,70.3963,27.5
461.729,1.40174,-9.23178,0,2.8836,9.35495,-2.50998,-28.5061,-11.9817,4.26829,-10.5381,-1.05381,-3.19975,-5.70122,82.7744,27.2561
461.739,1.83969,-9.49347,0,2.88839,9.73096,-2.82133,-22.5305,-13.5366,13.811,-11.0003,-1.45857,-3.0273,3.87195,91.5854,23.5366
461.749,2.35658,-9.62432,0,2.8381,10.0447,-3.28597,-18.4146,-13.1098,24.2988,-11.8074,-1.64538,-2.57944,12.7134,95.8537,18.9634
461.759,2.99926,-9.61745,0,3.20693,10.3369,-3.50391,-14.5122,-11.311,35.2134,-12.6146,-1.63819,-1.99026,17.4695,97.9878,13.872
461.769,3.81988,-9.44187,0,3.71707,10.3082,-3.32908,-12.1646,-11.7073,49.3902,-13.4959,-1.4418,-1.11129,13.9329,96.25,7.31707
461.779,4.82299,-9.01558,0,4.15775,10.0088,-3.19975,-10.5488,-13.7805,64.1159,-14.3605,-0.728086,0.440684,1.64634,87.8049,0.152439
461.789,5.98845,-8.37544,0,4.36852,9.39327,-3.28118,-6.67683,-15.2744,77.8659,-15.8215,1.03465,2.06451,-35.7317,57.5305,4.05488
461.799,7.30364,-7.96038,0,4.32301,8.67716,-3.23567,4.93902,-13.1707,92.3781,-15.5413,0.330513,0.651445,-42.439,59.5122,7.46951
461.809,8.69125,-7.72119,0,3.93023,8.76817,-2.33514,16.8293,-8.14024,107.226,-15.4263,1.57592,-0.426313,-55.7927,68.1098,13.0793
461.819,10.0824,-7.4805,0,3.33147,9.52978,-2.17228,18.811,5.09146,120.366,-13.3187,1.32205,-0.306563,-61.4939,65.5793,22.5915
461.829,11.5252,-7.16825,0,2.67045,8.88313,-1.37474,19.6646,7.22561,133.659,-10.8351,-0.325723,0.119751,-51.128,46.2195,20.8232
461.839,13.106,-6.73538,0,2.6465,7.98021,-0.488584,21.4329,-4.7561,147.378,-8.90468,-1.52084,0.60594,-29.5732,26.25,11.4634
461.849,14.8063,-6.23889,0,2.85486,7.44612,0.831072,23.9024,-12.7744,157.439,-7.5491,-1.87291,0.775986,1.15854,13.5061,9.20732
461.859,16.4531,-5.81935,0,1.86093,7.32876,2.14833,31.25,-8.10976,169.177,-6.77791,-1.85375,0.445474,34.939,6.21951,13.3841
461.869,17.9039,-5.21769,0,0.258662,7.56108,2.31119,45.3049,-0.487805,177.622,-6.89047,-1.63101,1.12805,67.5915,-9.57317,21.25
461.879,19.2613,-4.63334,0,-0.486189,9.07712,2.96264,60,-5.33537,181.311,-7.19703,-1.72202,1.19511,86.311,-22.2866,25.4573
461.889,20.5848,-4.06207,0,-0.661025,11.7188,1.84656,72.4695,-18.6585,180.945,-7.84129,-1.73878,1.33163,86.4634,-31.2195,22.8963
461.899,21.8425,-3.54062,0,-0.522114,13.1032,-0.510139,80.3049,-23.0488,175,-8.30114,-1.35079,1.30289,76.6463,-37.5305,20.2439
461.909,23.0603,-3.06214,0,0.675395,14.3007,-1.83458,85.4268,-29.2378,163.323,-9.29028,-0.354463,1.35558,68.1402,-48.628,23.9024
461.919,24.2871,-2.76101,0,2.80696,14.6767,-2.9818,88.9939,-33.4146,150.152,-9.76928,0.613125,0.730481,56.0061,-53.7195,29.6037
461.929,25.5486,-2.55229,0,5.07984,13.8552,-2.98898,85.4573,-30.5183,137.195,-9.94652,1.19751,0.390388,47.1951,-52.9268,40.1524
461.939,26.8018,-2.40148,0,5.92767,11.6901,-2.20581,83.8719,-20.1829,125.152,-10.38,1.93278,0.179626,35.2744,-53.5061,50.5488
461.949,27.9972,-2.29925,0,5.57561,10.5213,-0.922083,84.1768,-8.9939,119.695,-10.3177,1.96392,-0.0119751,20.7622,-49.7866,58.1402
461.959,29.1111,-2.20634,0,4.6176,10.2148,0.184417,89.2073,2.68293,121.159,-9.88664,1.6358,-0.0335303,5.94512,-48.7805,61.4939
461.969,30.1893,-2.14263,0,4.41642,10.4303,0.452659,94.1768,27.1341,122.591,-9.31184,1.24062,-0.136516,-7.62195,-48.9329,60.8232
461.979,31.2492,-2.11228,0,4.41881,10.2938,0.323328,95.4268,59.6037,122.348,-8.96216,0.953218,-0.253872,-18.9939,-49.7866,58.4146
461.989,32.1847,-2.13381,0,3.6524,10.5692,0.0766406,90.1524,85.8232,120.335,-8.87834,0.775986,-0.452659,-25.6098,-53.0793,55.7317
461.999,33.1328,-2.19125,0,3.6548,10.2435,-0.0934058,85.4573,101.067,122.348,-8.96935,0.692161,-0.603545,-28.5976,-53.628,51.4939
462.009,33.9767,-2.28223,0,3.03688,9.82916,0.0359253,77.0427,106.829,118.689,-9.17053,0.59157,-0.761616,-28.1402,-52.2866,47.4085
462.019,34.7476,-2.40752,0,2.95545,9.39806,-0.0479004,70,107.439,112.378,-9.4244,0.457449,-0.941243,-26.3415,-51.9512,42.9573
462.029,35.3822,-2.52917,0,2.39981,9.36692,-0.191602,61.8293,101.951,106.341,-9.58487,0.301772,-0.960403,-22.7439,-49.0244,36.7073
462.039,35.9185,-2.65143,0,2.10283,9.46512,-0.62989,55.2439,94.9085,101.372,-9.62079,0.150886,-0.986748,-19.9085,-48.3537,32.2866
462.049,36.3344,-2.73426,0,1.83458,9.2831,-0.704136,51.4329,80.6098,92.9268,-9.6184,-0.0335303,-0.840652,-15.061,-50.8841,28.9329
462.059,36.672,-2.79457,0,2.00703,9.23999,-1.16398,45.5488,65.6707,83.5976,-9.52978,-0.191602,-0.754431,-9.78659,-54.3902,26.25
462.069,36.901,-2.88241,0,2.06211,9.02922,-1.29331,37.7439,49.939,71.9512,-9.35974,-0.277822,-0.866997,-5.82317,-56.4634,23.3537
462.079,37.0255,-2.98688,0,2.11001,8.54303,-1.25499,32.9878,32.9573,59.6951,-9.20166,-0.311353,-0.936453,-4.81707,-58.689,21.0061
462.089,36.9924,-3.1001,0,1.80345,8.10475,-1.23344,31.4329,17.9268,46.5854,-9.10826,-0.191602,-0.979563,-3.56707,-59.0854,19.5122
462.099,36.7675,-3.23576,0,1.38672,7.85327,-1.19511,29.5427,3.93293,32.1037,-9.14658,0.0455054,-1.09452,-2.0122,-60.1829,16.8293
462.109,36.3659,-3.35439,0,1.10171,7.5994,-1.16398,26.7073,-9.26829,17.2256,-9.38848,0.387993,-1.07776,-1.89024,-64.1159,14.5427
462.119,36.3662,-3.43082,0,0.285007,7.28086,-1.21667,23.3232,-26.0671,0.0304878,-9.69264,0.61073,-0.953218,-2.56098,-67.1037,12.6829
462.129,35.4433,-3.53182,0,-0.148491,6.82102,-1.27415,19.4512,-49.8476,-17.4085,-9.92975,0.680186,-1.09692,-1.37195,-65.1524,7.28659
462.139,34.3337,-3.69464,0,-0.395178,6.74917,-1.70765,8.96341,-73.9634,-34.0549,-9.76449,0.641865,-1.35798,-5.2439,-55.3659,0.0609756
462.149,33.0745,-3.93464,0,-0.304167,6.57433,-1.69088,4.90854,-105.488,-53.0183,-9.35255,0.747246,-1.64059,-10.5488,-39.2378,-6.7378
462.159,31.8992,-4.24667,0,1.88249,7.90835,-2.00463,-4.02439,-121.067,-79.7561,-8.8951,0.912502,-1.88009,-20.5488,-24.2988,-11.2805
462.169,31.013,-4.55235,0,6.71563,8.63884,-2.37586,-33.2317,-95.3963,-102.591,-8.67716,0.979563,-1.84896,-30.6098,-12.7744,-14.4207
462.179,30.0666,-4.77671,0,6.10969,7.60179,-0.368833,-54.7256,-87.1037,-112.439,-8.67237,1.13524,-1.55676,-37.9573,-5.97561,-17.4695
462.189,29.3084,-5.04189,0,6.76114,6.38512,0.543669,-61.4939,-71.311,-111.189,-8.83283,1.35319,-1.3939,-49.0244,-1.95122,-19.4512
462.199,28.7498,-5.19912,0,8.28677,5.93965,-1.14961,-57.1951,-70.9756,-108.14,-8.96935,1.50886,-1.41546,-60.6707,7.83537,-20.2439
462.209,28.2403,-5.36379,0,9.60882,6.50487,-3.47517,-56.7683,-64.5427,-107.409,-9.1346,1.59029,-1.48731,-73.689,22.1341,-22.1951
462.219,27.698,-5.53895,0,8.94061,6.52882,-4.52419,-53.3537,-57.4695,-107.622,-9.27831,1.6837,-1.57113,-83.5671,35.5793,-23.628
462.229,27.2187,-5.69121,0,10.483,7.01501,-6.27735,-42.5,-25.3354,-107.104,-9.58487,1.75315,-1.54239,-97.0122,48.9634,-24.1463
462.239,26.7569,-5.79906,0,11.2015,7.87003,-6.44979,-31.6159,11.4329,-103.628,-10.0735,1.54718,-1.4418,-102.927,54.3902,-24.1768
462.249,26.4285,-5.896,0,11.5248,7.86045,-5.97797,-16.1585,43.9329,-92.5915,-10.689,0.876577,-1.49689,-99.5122,55.5793,-26.5244
462.259,26.2972,-6.0277,0,11.1297,7.55629,-5.35526,1.12805,51.8902,-73.3841,-11.0626,0.0934058,-1.73639,-87.8963,60.8841,-33.1098
462.269,26.3473,-6.25402,0,9.79323,7.53713,-4.18649,19.8476,39.6037,-48.2012,-11.1392,-0.60594,-2.24413,-74.8171,71.2195,-37.7439
462.279,26.5678,-6.59916,0,8.41849,7.00064,-3.50152,27.8354,28.6585,-26.2805,-11.0195,-1.20709,-2.85726,-65.0915,87.561,-43.4146
462.289,26.8122,-7.00994,0,6.64378,6.76593,-2.886,28.4756,24.2378,-11.6159,-10.6387,-1.52563,-3.14466,-58.9329,102.104,-48.9329
462.299,26.8859,-7.40446,0,5.07026,7.90596,-1.65496,22.4695,20.3049,-4.72561,-10.3393,-1.03944,-3.04407,-53.5671,114.634,-49.8476
462.309,26.8454,-7.63538,0,4.53617,9.14897,-0.807122,13.1402,11.9817,-3.01829,-10.5309,-0.560435,-2.37346,-56.2195,107.988,-50.0915
462.319,26.66,-7.66246,0,4.29667,11.0315,-0.56762,9.84756,10.3354,-7.56098,-11.3237,-0.215552,-1.56634,-58.2622,89.6951,-52.2561
462.329,26.2273,-7.64775,0,3.04646,12.6098,-1.93997,9.02439,4.60366,-17.4695,-12.1116,-0.114961,-1.46096,-54.9695,83.3841,-58.3841
462.339,25.5525,-7.60996,0,2.38304,14.2815,-2.79499,-4.57317,-10.2134,-34.6646,-12.7152,0.117356,-1.3939,-50.3049,88.3841,-65.1219
462.349,24.7703,-7.51965,0,3.32668,15.6012,-1.72202,-23.9329,-30.3659,-52.2256,-13.3427,-0.0119751,-1.13763,-41.9207,92.1341,-65.4878
462.359,24.1504,-7.26977,0,5.66183,15.7952,0.251477,-48.9939,-40.3659,-52.9573,-13.86,-0.380808,-0.193997,-29.6951,82.3781,-65.4573
462.369,23.7618,-6.8765,0,6.07377,15.3281,0.359253,-64.5122,-42.8659,-34.4817,-14.2647,-1.01549,0.732876,-12.5915,56.5244,-59.5427
462.379,23.6336,-6.56697,0,6.04503,12.399,-0.469424,-57.1951,-50.9146,-17.622,-13.8959,-2.13636,0.287402,1.31098,49.4512,-48.628
462.389,23.5178,-6.54722,0,5.01517,8.82325,-1.83938,-22.7744,-18.3232,-24.0244,-12.8684,-2.81654,-1.30529,10.1829,55.8841,-38.2012
462.399,22.9781,-6.17484,0,1.93039,6.66055,-2.65129,15.8537,31.1585,-40.061,-11.3452,-1.80345,0.598755,13.4146,33.2622,-16.8902
462.409,21.7971,-5.61612,0,-1.2023,7.41259,-2.23695,16.2805,42.8354,-54.8171,-9.36932,-0.764011,1.31726,3.44512,13.9024,19.7256
462.419,20.4022,-2.33185,0,-2.54351,8.74422,-0.754431,-9.5122,25.5183,-64.7561,-8.36101,0.0718506,1.72681,-18.4451,-0.579268,49.5427
462.429,18.9334,-1.69362,0,-2.46927,8.41849,-0.934058,-16.8598,2.31707,-74.8781,-7.87961,0.452659,1.9232,-43.9939,-13.8415,59.878
462.439,17.4838,-0.918047,0,-1.68849,8.48795,-1.825,-20.3354,-7.62195,-86.311,-8.0808,0.859812,2.57225,-56.6768,-47.378,64.6646
462.449,16.1552,-0.484965,0,-0.608335,8.87355,-1.86333,-32.4085,-8.07927,-91.8902,-7.58263,1.40588,1.31726,-101.22,-32.9878,57.8659
462.459,15.0232,-0.0856317,0,0.459844,8.82565,-1.55197,-42.7439,-7.34756,-88.6281,-8.19576,0.943638,1.35798,-112.622,-38.628,42.0427
462.469,14.1078,0.195724,0,1.20469,8.58375,-1.75076,-42.8049,-8.47561,-79.0549,-8.91426,0.701741,1.06099,-117.591,-46.8293,27.5915
462.479,13.3902,0.374081,0,1.67412,8.22929,-2.44531,-34.3293,-2.89634,-67.8963,-9.68785,0.270637,0.752036,-114.512,-52.7134,10.5793
462.489,12.7883,0.431863,0,1.70765,7.94667,-2.86684,-24.1768,6.85976,-58.8415,-10.2076,-0.502954,0.280217,-101.25,-52.6829,-4.11585
462.499,12.2959,0.378697,0,2.18905,8.05206,-2.76385,-17.2256,17.7134,-55.1829,-10.5668,-1.37953,-0.213157,-86.4939,-49.4817,-19.7866
462.509,11.6474,0.297304,0,1.00351,8.56459,-2.27287,-13.811,20.0305,-54.7256,-10.5261,-2.28006,-0.354463,-73.6281,-50.9146,-30.9451
462.519,10.923,0.18635,0,0.495769,9.07233,-2.04535,-13.5061,16.7683,-56.5244,-10.2028,-2.81654,-0.493374,-60.6098,-53.3232,-39.1159
462.529,10.2284,0.0296149,0,0.747246,9.12742,-2.16989,-13.7195,11.2805,-58.1402,-9.51541,-3.21651,-0.673001,-49.1463,-55.3659,-43.2622
462.539,9.58346,-0.150433,0,1.06578,8.94061,-2.30401,-14.3598,3.59756,-58.811,-8.75859,-3.06323,-0.732876,-38.628,-53.75,-43.0793
462.549,8.9959,-0.347849,0,1.23104,8.97174,-2.14594,-15.4878,-3.96341,-56.3415,-8.2245,-2.53633,-0.775986,-29.9695,-51.372,-39.5732
462.559,8.51236,-0.53873,0,1.62382,9.02443,-1.95913,-17.2866,-10.7317,-51.7988,-8.07601,-1.96871,-0.764011,-20.122,-47.7134,-35.5793
462.569,8.13511,-0.729271,0,2.00224,9.02683,-1.90165,-18.7805,-16.25,-46.6463,-8.06164,-1.97829,-0.790356,-18.0793,-50.3049,-31.0366
462.579,7.85184,-0.956808,0,2.25132,8.98611,-1.85854,-19.5427,-21.8902,-41.0061,-8.29635,-1.72441,-0.977168,-12.378,-48.9634,-26.6463
462.589,7.64067,-1.17649,0,2.41418,9.00288,-1.70286,-19.6037,-26.7073,-36.1585,-8.5574,-1.6334,-1.0107,-3.87195,-46.7683,-24.5427
462.599,7.46015,-1.40082,0,2.34472,9.06994,-1.78189,-21.4939,-30,-32.4085,-8.72985,-1.4442,-1.08015,1.82927,-42.8354,-21.6159
462.609,7.29902,-1.62257,0,2.3543,9.23759,-2.03577,-24.5732,-32.1951,-30.3963,-8.87834,-1.31008,-1.11847,8.68902,-36.311,-15.9756
462.619,7.10656,-1.8612,0,2.08127,9.18729,-2.07888,-26.5244,-32.0732,-30.7927,-8.99809,-1.14242,-1.23104,17.8963,-28.628,-8.59756
462.629,6.88374,-2.09353,0,2.019,9.12742,-2.06451,-28.0183,-28.628,-33.689,-8.96216,-0.869392,-1.23583,24.1768,-24.9085,2.04268
462.639,6.6254,-2.34301,0,1.93518,9.09389,-1.88009,-27.7134,-24.1768,-36.8293,-8.86157,-0.59636,-1.32445,28.75,-21.5854,13.2927
462.649,6.31986,-2.5638,0,1.8274,9.01725,-1.67891,-25.2439,-19.5732,-41.0366,-8.76817,-0.387993,-1.23583,27.5915,-21.0366,24.0854
462.659,6.0185,-2.77299,0,2.09325,8.8951,-1.75794,-21.9207,-15.1829,-44.878,-8.86876,-0.325723,-1.23823,22.7744,-20.5488,29.9695
462.669,5.69427,-2.96753,0,2.10762,8.943,-1.74836,-19.4817,-11.9207,-47.8659,-8.95977,-0.385598,-1.22625,18.0183,-21.7683,32.561
462.679,5.36721,-3.14435,0,2.18905,9.09868,-1.6837,-17.4085,-7.22561,-49.3598,-9.06754,-0.524509,-1.1999,11.3415,-21.2805,31.7988
462.689,5.03037,-3.32286,0,2.23216,9.18969,-1.64777,-15.2744,-2.16463,-51.2805,-9.21364,-0.804727,-1.25499,5.67073,-21.0671,30
462.699,4.64174,-3.47796,0,1.92799,9.29986,-1.78908,-13.5671,0.609756,-53.2927,-9.38369,-0.958008,-1.20948,-1.4939,-21.2195,27.5
462.709,4.20363,-3.70986,0,1.69088,9.41722,-1.94955,-13.2012,3.65854,-56.0061,-9.32381,-1.11368,-1.54718,-6.43293,-17.7439,23.3841
462.719,3.70157,-4.01041,0,1.39151,9.6184,-2.2106,-14.0549,6.52439,-59.4512,-9.10107,-1.19032,-1.8274,-7.31707,-10.9451,24.2073
462.729,3.12934,-4.53043,0,1.07297,9.76928,-2.19623,-16.5244,9.7561,-63.628,-8.78733,-1.28373,-2.15312,-6.34146,-2.40854,26.6463
462.739,2.52482,-4.97673,0,1.04423,10.0471,-2.25132,-19.4817,12.2866,-67.4085,-8.53585,-1.39151,-2.4046,-5.7622,7.40854,30.3354
462.749,1.9074,-5.42672,0,1.18793,9.99921,-2.19623,-22.8963,11.5244,-71.6768,-8.39215,-1.48491,-2.44771,-2.89634,16.128,33.5976
462.759,1.29729,-5.87912,0,1.49928,9.91299,-2.213,-25.3659,9.45122,-75.9146,-8.32509,-1.54,-2.50519,-0.823171,20.9146,36.4634
462.769,0.70248,-6.31761,0,1.75076,9.68306,-2.28006,-27.561,5.03049,-78.9634,-8.3658,-1.50886,-2.53154,3.35366,23.4451,39.5122
462.779,0.117291,-6.69384,0,1.76513,9.35255,-2.22976,-29.3902,-0.945122,-80.0915,-8.48555,-1.61185,-2.38304,9.96951,26.5854,41.7683
462.789,-0.426211,-6.94055,0,1.86333,9.29507,-2.33514,-29.7866,-8.07927,-78.3537,-8.74901,-1.80345,-1.98787,15.8841,24.8476,39.939
462.799,-0.91699,-7.13525,0,1.92081,8.98372,-2.48603,-30.4573,-10.8232,-75.5793,-9.09149,-2.10283,-1.88967,22.5915,23.3537,34.3293
462.809,-1.3217,-7.33629,0,1.98787,9.27112,-2.77822,-30.3659,-13.4146,-67.8659,-9.44117,-2.07888,-2.019,29.7866,28.5061,27.5305
462.819,-1.64759,-7.5174,0,1.91841,9.10107,-2.80457,-31.5244,-17.1037,-60.2439,-9.87227,-1.89925,-2.04774,37.4085,38.6585,24.878
462.829,-1.85242,-7.53024,0,2.14833,9.11065,-2.86923,-34.0549,-19.7866,-51.3415,-10.5501,-1.56634,-1.41546,41.372,40.4268,23.9329
462.839,-1.90037,-7.32821,0,2.60818,9.16334,-2.85965,-36.2195,-19.878,-41.0976,-11.532,-1.2981,-0.459844,28.9634,29.2988,19.7561
462.849,-1.78004,-7.21444,0,3.08718,9.27352,-2.84049,-36.4634,-16.2805,-29.1768,-12.1308,-0.874182,-0.919688,7.68293,24.2073,13.5671
462.859,-1.49589,-7.38921,0,3.37937,9.00527,-2.75188,-37.0427,-11.189,-16.6159,-11.8386,0.0574805,-2.39262,-4.20732,40.7927,12.3476
462.869,-1.11567,-7.75751,0,3.14945,8.66758,-2.41178,-36.6159,-7.2561,-5.4878,-11.0961,0.450264,-3.25483,-1.06707,69.0549,25.1524
462.879,-0.692756,-8.388,0,2.74948,8.88073,-2.05014,-30.8537,-9.26829,5.2439,-9.93933,-0.00479004,-4.25834,3.38415,98.3841,30.6402
462.889,-0.197583,-9.04162,0,2.77822,9.42919,-2.12678,-23.7805,-13.7195,15.6098,-9.24478,-0.809517,-4.1817,15.9451,112.104,31.7073
462.899,0.378689,-9.46152,0,2.96024,10.1094,-2.6441,-21.1585,-17.9268,25.0915,-9.35495,-1.82261,-3.23567,30.9146,114.299,29.3598
462.909,1.06706,-9.62411,0,3.365,10.4734,-3.16143,-20.122,-20.0305,34.6646,-10.1405,-2.1172,-2.34951,39.9695,105.549,28.3232
462.919,1.92241,-9.67567,0,4.07393,10.3656,-3.15424,-18.5976,-22.2561,45.6707,-11.4674,-1.69807,-2.10283,47.622,108.079,34.9085
462.929,2.97291,-9.60391,0,4.79004,9.91778,-3.12071,-16.6159,-22.9878,58.5061,-13.0481,-1.08015,-1.67172,54.2073,113.659,42.9268
462.939,4.20564,-9.36389,0,4.98164,8.92863,-2.89318,-12.0732,-25.2439,72.3476,-14.0731,-0.914897,-0.725691,48.5061,119.39,48.9634
462.949,5.5983,-8.79784,0,5.00799,8.21013,-3.42488,-7.0122,-24.8171,86.6463,-15.7401,-0.134121,1.48491,25.7012,92.7439,43.4756
462.959,7.12623,-8.23809,0,4.71819,7.68562,-3.92544,-4.2378,-19.2073,102.957,-16.9687,0.486189,1.69328,-2.40854,73.0183,28.689
462.969,8.79263,-7.86938,0,4.10746,6.92879,-2.47406,1.67683,-18.3537,122.012,-16.643,1.73878,0.399968,-10.9756,61.372,19.5427
462.979,10.5509,-7.56192,0,3.54223,6.91203,-1.20948,8.38415,-14.7561,141.982,-14.2432,2.43334,0.0239502,-8.10976,40.7317,32.4085
462.989,12.441,-7.15013,0,3.3674,7.17308,0.0359253,14.4817,-5.7622,163.079,-11.3787,1.1065,0.579595,-2.13415,16.0061,37.5
462.999,14.3379,-6.73191,0,2.67524,7.597,2.01421,19.939,-1.89024,179.36,-8.96935,-0.402363,0.543669,13.1098,11.7073,24.0854
463.009,16.0373,-6.09378,0,1.08494,8.33227,1.66693,27.7134,3.90244,187.53,-8.15025,-0.902922,1.33403,22.7744,-8.01829,7.86585
463.019,17.5211,-5.42234,0,-0.665815,10.4758,1.06578,43.4451,-4.11585,191.555,-7.41977,-2.22737,1.17356,60,-4.7561,-8.17073
463.029,19.086,-4.81456,0,0.387993,13.9701,-0.661025,56.8902,-22.1646,192.195,-7.39103,-2.15791,1.15679,81.1281,-5.36585,-15.3049
463.039,20.5856,-4.31156,0,1.09692,14.6336,-3.17101,68.0793,-18.4451,183.232,-7.87961,-1.97589,1.08255,96.0976,-13.0488,-13.5976
463.049,21.9676,-3.85474,0,1.54718,15.0695,-4.16015,87.1646,-17.8049,171.067,-8.69153,-1.77471,1.08734,97.8963,-18.8415,-9.78659
463.059,23.2571,-3.5127,0,2.97461,14.6312,-4.32541,95.4268,-22.8049,152.957,-9.49865,-1.48012,0.775986,87.5305,-22.6829,-2.46951
463.069,24.3882,-3.24125,0,3.50631,13.9318,-2.69679,89.1159,-32.5,134.055,-10.107,-0.761616,0.57241,70.2134,-20.3659,6.7378
463.079,25.405,-3.07073,0,3.14706,12.5858,-0.665815,84.7561,-41.6463,124.878,-10.5381,0.366438,0.174836,55.8841,-23.0793,21.8293
463.089,26.3989,-2.9734,0,3.25962,11.2135,0.462239,92.9268,-35.4573,120.183,-10.471,1.17356,-0.136516,40.9756,-27.0732,39.939
463.099,27.4756,-2.90477,0,4.37091,10.5022,0.354463,103.506,-8.90244,117.622,-10.3177,1.80584,-0.251477,28.2622,-31.5244,55.3963
463.109,28.6005,-2.86034,0,4.89781,10.4399,0.232317,112.317,23.5976,119.573,-9.94891,2.13157,-0.340093,12.378,-35.3659,63.628
463.119,29.7067,-2.87314,0,4.7589,10.8782,0.107776,106.829,51.4329,123.018,-9.46272,2.02379,-0.55804,-0.0914634,-38.6585,66.7988
463.129,30.8562,-2.90459,0,5.21635,10.756,0.0550855,97.1341,83.75,125.122,-8.95019,1.71244,-0.60594,-12.7744,-41.5549,61.8293
463.139,32.0084,-2.9718,0,4.79004,10.1309,0.167651,95.8537,104.421,128.902,-8.58854,1.34121,-0.725691,-22.378,-46.0366,51.372
463.149,33.0602,-3.03172,0,3.96615,9.77886,0.0550855,93.0793,119.665,127.591,-8.5574,1.04902,-0.708926,-28.75,-50.7012,39.7866
463.159,33.9853,-3.06015,0,3.31231,9.45554,-0.244292,87.2256,126.159,122.47,-8.81367,0.819097,-0.617915,-31.372,-52.6524,29.6341
463.169,34.7694,-3.08536,0,2.67524,9.18969,-0.299377,78.7805,123.171,116.25,-9.20646,0.661025,-0.63468,-37.1037,-49.9085,20.0305
463.179,35.4283,-3.12882,0,2.3088,9.16334,-0.550855,71.2195,117.378,109.329,-9.53936,0.526904,-0.735271,-44.8171,-45.3659,13.3841
463.189,35.9587,-3.20021,0,2.02858,9.11544,-0.878972,64.0549,105.03,100.823,-9.66869,0.390388,-0.866997,-52.5305,-38.9024,9.2378
463.199,36.3614,-3.27267,0,1.81542,9.01964,-0.986748,57.1037,89.3293,91.25,-9.64474,0.313748,-0.878972,-59.5732,-35.8232,8.59756
463.209,36.6375,-3.37317,0,1.69328,9.20166,-1.25499,51.6768,75.2744,81.0976,-9.45075,0.222737,-0.991538,-67.6219,-36.0976,9.17683
463.219,36.7728,-3.49758,0,1.45857,8.90708,-1.38193,45.8841,61.0976,69.6037,-9.21603,0.112566,-1.08255,-70.1524,-37.3171,9.78659
463.229,36.72,-3.62258,0,0.996328,8.43765,-1.26457,39.6037,44.0244,55.9146,-8.99569,0.160466,-1.08255,-72.8659,-42.0122,10.7622
463.239,36.4604,-3.72096,0,0.627495,8.10954,-1.19751,35,26.8902,39.4207,-8.88792,0.215552,-0.989143,-75.1829,-49.1768,10.3659
463.249,35.9911,-3.84238,0,0.332908,7.74789,-0.938848,28.8415,8.96341,21.4939,-8.86397,0.313748,-1.09931,-74.9085,-57.1037,9.78659
463.259,34.3707,-3.95807,0,-0.306563,7.25691,-0.883762,23.7805,-11.372,3.04878,-8.91666,0.476609,-1.1065,-73.811,-62.622,8.47561
463.269,33.3496,-4.13683,0,-0.993933,6.80904,-0.826282,21.4024,-36.9817,-17.1037,-8.95737,0.55325,-1.38432,-72.6219,-63.2927,6.82927
463.279,32.0735,-4.42529,0,-1.44659,6.76114,-1.23583,19.1768,-67.1037,-37.5,-8.95019,0.519719,-1.85135,-73.5671,-53.628,6.18902
463.289,30.6017,-4.78508,0,-1.5879,6.95274,-1.40348,14.2683,-91.8293,-58.4756,-8.94061,0.320933,-2.17947,-73.3841,-38.2317,1.12805
463.299,29.1325,-5.25428,0,-0.167651,8.05206,-1.7771,7.92683,-110.396,-85.0305,-8.76338,0.270637,-2.63452,-72.8659,-19.9085,-3.29268
463.309,27.7602,-5.86126,0,2.31359,8.8017,-1.38193,-13.9329,-95.9756,-110.64,-8.64363,0.359253,-2.73032,-75.6098,-2.80488,-5.88415
463.319,26.4922,-6.29,0,4.26313,8.33467,-0.0694556,-37.1646,-71.7988,-128.018,-8.65081,0.443079,-2.58183,-76.0061,7.19512,-7.65244
463.329,25.3897,-6.65049,0,5.6283,7.32157,0.845442,-52.2256,-57.7744,-135.061,-8.71308,0.632285,-2.39023,-79.4207,10.4573,-9.2378
463.339,24.4625,-6.99338,0,6.64378,6.48332,0.55804,-56.372,-67.1951,-136.067,-8.68913,0.929268,-2.36628,-85.7317,15.2439,-9.81707
463.349,23.6661,-7.27332,0,8.26042,6.90484,-1.14482,-58.2317,-96.7683,-133.598,-8.7035,1.18314,-2.1627,-90.4573,21.8293,-8.53659
463.359,22.9887,-7.54337,0,10.0327,7.67125,-3.68833,-60.6402,-115.518,-128.171,-8.73224,1.30529,-2.16749,-95.5183,30.8537,-6.18902
463.369,22.4876,-7.78435,0,11.5009,7.61377,-6.70605,-53.9939,-98.4451,-119.512,-8.943,1.17116,-2.13396,-99.8171,42.0122,-7.16463
463.379,22.1488,-7.98895,0,12.2266,7.29523,-8.29395,-33.3232,-45.4573,-109.451,-9.39087,0.725691,-2.1148,-100.488,52.5,-12.3171
463.389,22.002,-8.16052,0,12.7894,7.24254,-8.51429,-5.33537,15.9756,-93.2012,-10.107,0.0263452,-2.15312,-98.2012,59.6646,-21.5854
463.399,22.092,-8.30273,0,11.4889,6.74198,-7.94667,19.1159,42.2561,-67.5305,-10.859,-0.62031,-2.19863,-83.5366,61.7988,-33.3841
463.409,22.4251,-8.47653,0,10.4638,6.52643,-7.18266,36.3415,29.5427,-39.3902,-11.6302,-1.25739,-2.55309,-61.0366,62.6524,-40.4573
463.419,22.9111,-8.71807,0,9.67827,6.33483,-5.4798,39.6037,8.2622,-20.5488,-11.9943,-1.69088,-3.04167,-41.4939,69.939,-46.6159
463.429,23.3511,-8.97619,0,7.08926,6.3013,-4.01166,38.1098,4.32927,-7.10366,-11.7308,-1.59987,-3.10634,-31.0061,81.7683,-48.8415
463.439,23.6694,-9.15205,0,4.94811,6.72521,-2.88121,39.2683,11.25,5.15244,-11.2111,-1.07536,-2.59141,-29.1768,81.2195,-49.8476
463.449,23.8349,-9.16821,0,4.39007,9.23999,-1.23823,25.3659,22.4085,13.3232,-11.1536,-0.665815,-1.81063,-38.2622,68.5366,-56.4024
463.459,23.7298,-9.15176,0,3.95178,13.0672,-0.500559,10.061,45.5183,3.59756,-11.4626,-0.699346,-1.69807,-54.4817,65.9451,-75.5488
463.469,23.2775,-9.10776,0,2.31359,14.6527,-1.65975,-7.22561,36.5244,-16.0366,-11.7164,-0.486189,-1.57592,-74.1159,76.7683,-97.6219
463.479,22.6088,-9.03966,0,2.24413,15.479,-2.00224,-28.9329,-6.34146,-37.561,-11.9416,0.0215552,-1.45617,-88.3841,88.0183,-105.579
463.489,22.0525,-8.75097,0,6.59828,16.2622,-0.100591,-52.6829,-37.8354,-55.7012,-12.6409,0.402363,-0.299377,-97.2256,79.3598,-97.0122
463.499,21.6967,-8.31153,0,8.9909,16.6765,-0.62989,-64.5732,-34.1768,-49.1159,-13.357,0.797541,0.60594,-87.561,50.8232,-72.1037
463.509,21.5954,-7.91489,0,9.06275,13.8264,-3.25723,-48.3537,-24.4207,-33.9024,-14.3438,0.0790356,0.474214,-70.1524,38.1402,-39.0244
463.519,21.4665,-7.51922,0,6.47134,10.6051,-2.23934,-13.3841,44.878,-33.1402,-14.315,-1.75076,0.555645,-63.7195,29.5122,-15.2744
463.529,20.6594,-7.06017,0,0.158071,8.73943,-0.507744,3.35366,91.8598,-40.6707,-13.2325,-2.16031,0.950823,-73.4756,7.56098,-7.13415
463.539,19.2268,-6.55179,0,-4.22481,7.97781,0.534089,2.19512,81.0976,-47.0732,-10.9883,-1.6358,1.09213,-73.4756,-20.5488,13.872
463.549,17.7355,-5.94913,0,-3.68114,7.48923,-0.929268,6.76829,64.9085,-59.5122,-9.4268,-0.689766,1.40827,-84.0854,-34.4207,39.6951
463.559,16.2096,-5.26193,0,-3.34105,8.41849,-2.36867,13.4451,48.628,-75.3354,-8.7059,-0.124541,1.71962,-99.2378,-46.6463,53.9024
463.569,14.7135,-4.7702,0,-2.51238,9.2304,-3.10155,1.37195,25.6402,-88.5061,-7.28325,-1.2981,0.888552,-110.183,-40.3659,57.561
463.579,13.2453,-4.28408,0,-1.75794,9.33339,-3.1279,-15.6707,6.4939,-98.0183,-8.79691,0.486189,1.11129,-109.726,-61.7988,42.6524
463.589,11.8888,-4.03098,0,-1.06578,8.95019,-2.46448,-27.8354,-6.58537,-97.5305,-9.07952,0.371228,0.287402,-110.854,-59.4207,26.128
463.599,10.774,-3.88918,0,-0.0862207,8.83044,-1.95194,-34.2683,-11.2195,-88.3537,-9.63516,0.0431104,-0.119751,-99.2378,-52.9268,9.45122
463.609,9.91292,-3.82712,0,0.383203,9.45793,-1.88009,-39.6646,-12.5915,-70.6098,-10.3752,-0.66342,-0.464634,-82.6219,-48.9329,-9.29878
463.619,9.27239,-3.79772,0,1.02267,9.11065,-1.65735,-35.3049,-5.88415,-58.2012,-10.7441,-1.38432,-0.622705,-67.6219,-46.9512,-26.3415
463.629,8.68452,-3.76924,0,0.888552,9.05557,-1.78908,-31.4024,-4.48171,-52.5,-10.5501,-2.04295,-0.613125,-55.2439,-50,-38.5671
463.639,8.07082,-3.76402,0,0.57241,8.89989,-1.85375,-27.561,-7.46951,-52.4085,-9.97526,-2.43094,-0.680186,-43.75,-53.2012,-44.4207
463.649,7.44263,-3.73624,0,0.61073,8.90229,-2.05732,-26.8293,-11.311,-55.6402,-9.09868,-2.65129,-0.534089,-32.7744,-59.9695,-47.439
463.659,6.79877,-3.71726,0,0.593965,8.91187,-2.00224,-25.6098,-17.0732,-58.2927,-8.28677,-2.48843,-0.517324,-23.9329,-63.7195,-46.189
463.669,6.15798,-3.75166,0,0.60594,8.97893,-1.91841,-23.2012,-22.9268,-59.3902,-7.73112,-2.26569,-0.66342,-15.3049,-64.3902,-42.9878
463.679,5.59669,-3.77667,0,1.02028,9.11305,-2.019,-22.2561,-26.1585,-57.7439,-7.59221,-1.95434,-0.622705,-6.37195,-61.7378,-38.9939
463.689,5.18407,-3.84445,0,1.69328,8.96935,-1.99026,-22.6524,-29.5122,-52.5,-7.61856,-1.96871,-0.773591,-3.35366,-62.561,-36.6768
463.699,4.9514,-3.95048,0,2.59141,8.75859,-1.93039,-23.0488,-32.6524,-46.7988,-7.91793,-1.66933,-0.948428,0.0304878,-62.3476,-35.3049
463.709,4.8122,-4.06361,0,2.9794,8.88792,-1.98547,-26.7073,-37.1037,-41.9207,-8.35862,-1.62861,-1.04183,9.29878,-60.0915,-35.9451
463.719,4.70795,-4.17624,0,3.00335,8.96935,-1.93039,-30.3963,-40.9146,-38.5976,-8.69871,-1.46096,-1.09692,15.9756,-56.4634,-36.9207
463.729,4.5676,-4.31491,0,2.68242,9.14418,-1.90644,-33.628,-43.0488,-38.0793,-8.94779,-1.21906,-1.24541,26.0366,-49.6646,-33.2012
463.739,4.38086,-4.45945,0,2.47645,9.35255,-1.88967,-35.3659,-38.7195,-40,-9.12263,-0.989143,-1.31008,34.5732,-41.8902,-25.0305
463.749,4.13617,-4.64025,0,2.25371,9.33818,-1.85135,-35.7927,-31.4939,-43.7195,-8.99569,-0.675395,-1.45617,43.689,-34.3293,-12.2866
463.759,3.82788,-4.82746,0,2.0214,9.53697,-1.98308,-34.8171,-24.2988,-47.439,-8.75859,-0.323328,-1.46575,46.7683,-26.7988,7.04268
463.769,3.49781,-4.99046,0,1.97589,9.29268,-2.03816,-32.6829,-17.622,-50.3659,-8.58136,-0.280217,-1.36995,43.7805,-25.5793,24.2378
463.779,3.19948,-5.11759,0,2.22497,8.7538,-2.1172,-29.4817,-12.0732,-52.4085,-8.56459,-0.385598,-1.25499,37.8354,-27.378,35.7622
463.789,2.95702,-5.25285,0,2.58902,8.47837,-2.02858,-25.4573,-6.61585,-52.8659,-8.66039,-0.57241,-1.32205,31.7073,-29.5732,39.3293
463.799,2.79063,-5.39764,0,3.11353,8.37538,-1.92799,-20.2134,0.426829,-52.561,-8.86157,-0.761616,-1.41306,25.5183,-30.4878,40.4268
463.809,2.62394,-5.52009,0,3.16622,8.54543,-1.74836,-14.9695,7.7439,-52.8049,-9.20646,-0.979563,-1.39869,21.2195,-30.061,36.5244
463.819,2.40908,-5.65263,0,2.95545,8.91666,-1.62861,-11.7988,12.3171,-53.9939,-9.44596,-1.08494,-1.49689,16.0366,-27.7744,31.6463
463.829,2.12654,-5.82484,0,2.60818,9.24478,-1.67172,-11.4939,15.2134,-56.0671,-9.50104,-1.22146,-1.69328,10.9756,-20.9756,27.5915
463.839,1.74498,-6.05911,0,2.02379,9.46033,-1.71244,-13.872,18.2012,-59.2378,-9.34297,-1.24062,-1.95194,7.34756,-12.1037,25.6098
463.849,1.29362,-6.47988,0,1.63101,9.82197,-2.04295,-16.7073,21.1585,-61.7378,-9.05317,-1.28613,-2.25132,7.07317,-2.13415,23.9939
463.859,0.818262,-6.80474,0,1.65256,10.2579,-2.30401,-20.2439,22.622,-64.5427,-8.73224,-1.30289,-2.28006,4.63415,8.14024,23.6585
463.87,0.313828,-7.17148,0,1.5855,10.562,-2.53633,-23.9329,19.6646,-67.2256,-8.39933,-1.30529,-2.4046,0.182927,18.2317,25.0915
463.879,-0.194822,-7.5932,0,1.67651,10.4591,-2.65608,-28.4451,13.5671,-69.8476,-8.09038,-1.2023,-2.57704,-2.28659,30.8537,29.6951
463.889,-0.706194,-8.01749,0,1.75794,10.0303,-2.82133,-32.378,5.21341,-72.8659,-7.83171,-0.946033,-2.56028,0.0304878,41.2805,38.7805
463.899,-1.18153,-8.42218,0,1.93039,9.66869,-2.692,-34.4512,-6.28049,-72.9878,-7.75507,-0.852627,-2.51717,3.2622,51.4329,50.9146
463.909,-1.59594,-8.74401,0,2.09564,9.38129,-2.6944,-33.5061,-17.5305,-70.3963,-8.09038,-1.20948,-2.35909,6.95122,59.1463,55.0305
463.919,-1.90801,-8.99891,0,2.3567,9.04359,-2.73751,-31.0061,-22.8354,-64.9085,-8.7035,-1.71962,-2.3088,11.8293,65.4573,51.1585
463.929,-2.11702,-9.16633,0,2.49322,8.88073,-2.72793,-28.9634,-25.4268,-57.2256,-9.40045,-1.90644,-2.15073,15.9146,68.6585,40.8537
463.939,-2.1734,-9.21258,0,3.03449,8.58854,-2.74469,-28.4756,-21.6768,-49.7866,-10.3201,-1.86812,-1.81782,18.4451,69.6341,33.4756
463.949,-2.04738,-9.08198,0,3.58055,8.50471,-2.81894,-27.8354,-13.1402,-38.1707,-11.3213,-1.7771,-1.10889,14.9695,64.7256,25.8841
463.959,-1.76916,-8.92125,0,3.63324,7.94428,-2.37825,-26.9817,-4.02439,-25.9451,-11.9535,-1.43701,-0.991538,2.9878,56.8598,20
463.969,-1.33715,-9.00748,0,3.55421,7.35032,-2.04774,-25.7622,3.59756,-12.1951,-11.6302,-0.723296,-2.213,-2.89634,65.7012,25.5183
463.979,-0.536008,-9.29465,0,3.12071,6.91442,-1.74836,-20.8537,9.81707,3.41463,-10.5453,-0.148491,-2.99377,2.16463,82.8659,44.6646
463.989,0.0705221,-9.61768,0,2.60099,7.24972,-1.41785,-15,7.77439,20.5183,-9.67348,-0.138911,-2.95545,18.1707,93.5366,66.9512
463.999,0.828732,-9.79377,0,2.66087,7.91793,-1.35558,-7.53049,-1.61585,39.6037,-9.25436,-0.443079,-2.23934,37.7744,93.2927,84.1768
464.009,1.7504,-9.67521,0,2.80936,8.36101,-1.95673,-3.29268,-10.8841,57.8354,-9.9082,-0.922083,-1.11368,58.9939,78.0793,92.2866
464.019,2.84118,-9.37939,0,2.99138,8.464,-2.1627,0.335366,-20.2744,75.1524,-11.3284,-0.840652,-0.364043,78.9024,73.6585,94.939
464.029,4.18342,-8.75471,0,3.8009,8.60291,-2.84528,4.57317,-27.2561,94.1159,-13.5941,-0.795146,1.59508,84.4207,59.9695,81.25
464.039,5.76879,-7.89048,0,4.6655,8.66039,-3.8009,7.56098,-25.7317,112.53,-17.007,-2.20342,4.00208,92.1037,34.878,55.5488
464.049,7.47594,-7.53138,0,4.68226,9.28789,-4.31343,8.14024,-18.5976,131.372,-19.0308,-0.728086,0.498164,46.6768,65.0305,14.6951
464.059,9.20642,-7.39224,0,3.72905,10.5309,-2.45729,8.2622,-20.4878,152.043,-20.1373,2.07888,-1.27894,65.3354,77.5305,-16.6768
464.069,11.0468,-7.24667,0,3.62606,11.0626,-1.00112,8.14024,-23.2012,169.543,-15.4766,2.00463,-0.883762,84.1159,90.4878,-17.7744
464.079,12.8969,-6.94046,0,3.35782,10.5117,0.126936,-3.93293,-37.8049,175.183,-11.4386,0.0742456,0.150886,90.0305,54.5427,-15.1524
464.089,14.6297,-6.39914,0,2.18905,10.2914,0.196392,-4.84756,-35.9756,178.628,-9.25915,-1.38193,1.11368,87.3476,26.128,-26.6768
464.099,16.0525,-5.7475,0,-0.706531,11.5368,1.22386,-0.731707,-42.3476,182.195,-7.95386,-2.04774,1.41546,90.8232,9.35976,-32.0122
464.109,17.2554,-5.00452,0,-2.96982,12.2194,0.701741,18.5976,-59.9695,183.384,-7.597,-1.71962,1.74118,95.061,-8.17073,-30
464.119,18.4546,-4.44206,0,-2.99138,14.145,-0.766406,37.0732,-76.8902,181.951,-7.67364,-0.888552,1.22864,95.4878,-20.7012,-17.5305
464.129,19.6854,-3.95369,0,-1.74118,14.2767,-2.76385,57.9573,-87.6524,177.439,-8.31311,-0.114961,1.13763,93.4146,-19.8171,0.792683
464.139,20.9598,-3.57733,0,0.713716,14.3749,-3.25723,61.8293,-102.256,164.421,-9.64235,0.675395,0.914897,94.6646,-26.311,19.0854
464.149,22.165,-3.26553,0,2.78301,14.4707,-2.14594,51.2805,-120.244,143.537,-10.6339,0.821492,0.771196,75.7012,-30,26.5854
464.159,23.3281,-3.00447,0,4.49785,13.0457,-0.646655,48.9634,-122.957,125.091,-11.3644,0.838257,0.627495,59.939,-33.628,29.3902
464.169,24.4692,-2.84962,0,5.85822,11.326,0.383203,63.3232,-98.2317,108.232,-11.235,0.993933,0.148491,45.2439,-30.061,27.0427
464.179,25.6108,-2.74857,0,6.64857,9.84593,1.0107,85.2134,-59.6646,96.9817,-10.6411,1.22625,-0.0886157,34.9695,-36.189,28.3232
464.189,26.7476,-2.68089,0,6.81383,9.24478,1.11129,99.8171,-11.372,93.9939,-9.80042,1.31726,-0.213157,27.4695,-41.7073,32.9878
464.199,27.8993,-2.61397,0,6.83299,8.91426,1.07536,103.384,37.0427,95.6402,-9.0891,1.21427,-0.193997,17.1951,-46.8293,40.122
464.209,29.0037,-2.55164,0,6.27256,9.00767,1.0562,99.6341,82.7439,98.5061,-8.64602,1.02986,-0.193997,10.061,-49.5732,45.7622
464.219,29.9867,-2.50846,0,4.4236,9.49386,1.25499,100.274,118.415,108.506,-8.32509,0.869392,-0.249082,3.68902,-51.0366,48.4451
464.229,30.9232,-2.48887,0,3.91825,9.79323,0.416733,97.6524,143.232,112.256,-8.1287,0.797541,-0.320933,0.304878,-49.939,50.3659
464.239,31.7647,-2.5016,0,3.10395,9.89862,-0.114961,91.1585,156.768,113.445,-8.08798,0.694556,-0.431104,0.182927,-48.628,48.75
464.249,32.5157,-2.50528,0,2.73751,9.49146,-0.546064,83.75,158.841,108.628,-8.28916,0.543669,-0.409548,-2.59146,-47.3171,46.0671
464.26,33.1376,-2.55357,0,2.28964,9.37171,-0.931663,76.0976,148.567,101.799,-8.51908,0.399968,-0.58678,-3.62805,-43.5061,38.5366
464.27,33.639,-2.6227,0,2.05014,9.28549,-1.17116,66.8293,132.5,93.3841,-8.88313,0.229922,-0.696951,-6.61585,-37.7439,30.6098
464.279,34.0106,-2.69127,0,1.79387,9.7118,-1.36756,58.5366,114.665,85.2134,-9.34058,0.0359253,-0.740061,-12.3476,-35.5183,24.2683
464.289,34.2329,-2.76966,0,1.50886,9.60403,-1.13284,51.4024,95.4268,73.8719,-9.73096,-0.146096,-0.826282,-14.878,-36.9512,15.6402
464.299,34.3024,-2.83484,0,1.14482,9.81958,-1.5855,43.5061,79.9695,63.3841,-10.0471,-0.330513,-0.809517,-18.1707,-38.5366,9.08537
464.309,34.155,-2.9063,0,0.486189,9.66869,-1.23344,30.6098,58.628,49.0854,-10.1956,-0.390388,-0.866997,-17.6829,-44.6646,2.22561
464.319,33.8555,-2.95571,0,0.335303,9.24717,-0.866997,21.0366,35.9756,34.9085,-10.1237,-0.241897,-0.780776,-17.8659,-51.7683,-5.67073
464.329,33.4101,-3.00312,0,0.165256,9.02443,-0.802332,13.75,11.8598,21.4939,-10.0208,-0.0455054,-0.780776,-16.7378,-61.0671,-11.4329
464.339,32.8346,-3.05064,0,0.0502954,8.56459,-0.728086,4.78659,-7.5,8.84146,-9.93694,0.251477,-0.787961,-15.3354,-66.8293,-12.2256
464.349,27.6294,-3.08723,0,-0.280217,8.05445,-0.677791,-4.54268,-24.6951,-0.548781,-9.96328,0.450264,-0.756826,-16.25,-74.6037,-16.311
464.359,26.8618,-3.12537,0,-0.850232,7.29523,-0.831072,-10.9146,-46.2195,-7.5,-10.0016,0.593965,-0.775986,-17.1951,-78.0183,-18.9024
464.369,26.0397,-3.20542,0,-0.876577,7.09644,-1.15679,-17.3476,-68.6585,-14.6951,-9.9058,0.692161,-0.958008,-19.8476,-76.2195,-22.2866
464.379,25.0938,-3.32907,0,-1.0107,7.07728,-1.37474,-18.0183,-92.1037,-26.7988,-9.64714,0.775986,-1.12566,-26.9512,-66.1585,-26.7073
464.389,24.005,-3.52214,0,-0.651445,7.9347,-2.07648,-9.72561,-124.939,-50.3049,-9.31902,0.816702,-1.38672,-36.5854,-52.378,-32.0427
464.399,22.7999,-3.7722,0,0.799937,9.67827,-3.02251,-16.9817,-145.884,-83.6281,-8.99569,0.929268,-1.59029,-48.628,-38.1098,-37.2561
464.409,21.5963,-4.04434,0,3.08958,10.2291,-2.76385,-44.5427,-136.037,-110.579,-8.78493,1.07297,-1.66933,-59.2988,-23.1402,-40.2439
464.419,20.5182,-4.29004,0,4.90021,9.01725,-1.3939,-64.1768,-107.409,-124.146,-8.66758,1.21427,-1.57592,-70.1829,-11.4024,-42.1037
464.429,19.6615,-4.52317,0,6.47374,8.09517,-0.761616,-75.0915,-89.6037,-124.421,-8.64363,1.40827,-1.46815,-80.061,-3.87195,-41.8902
464.439,19.0738,-4.72694,0,8.86876,6.86892,-1.82261,-74.1463,-94.0244,-126.463,-8.64363,1.47294,-1.46336,-85.8232,6.89024,-40.5183
464.449,18.6174,-4.95772,0,9.82677,6.3492,-3.45841,-65.4878,-104.299,-124.238,-8.58615,1.28852,-1.58311,-93.5976,21.7988,-40.061
464.459,18.2126,-5.21058,0,9.7597,6.32046,-5.21396,-58.3537,-97.5305,-119.787,-8.57177,1.01788,-1.68849,-100.671,40.2744,-42.0122
464.469,17.8248,-5.4715,0,9.96807,7.14195,-5.68099,-53.5061,-65.4878,-113.384,-8.58375,0.790356,-1.75076,-105.549,54.878,-44.3293
464.479,17.4978,-5.69976,0,10.2339,7.90117,-5.45585,-46.0366,-14.3598,-103.78,-8.80649,0.565225,-1.69807,-108.171,65,-45.4268
464.489,17.3337,-5.88173,0,9.96807,7.51078,-4.44516,-31.9207,27.3171,-89.2073,-9.22562,0.136516,-1.61903,-104.634,68.9634,-48.3841
464.499,17.4421,-6.03901,0,9.68785,5.87738,-4.16973,-10.061,44.0244,-73.4756,-9.73096,-0.196392,-1.63101,-94.6646,68.3841,-52.9878
464.509,17.7466,-6.16793,0,9.42919,5.41993,-4.83794,12.6524,47.2561,-56.0061,-10.3249,-0.526904,-1.62382,-80.7012,72.0732,-57.622
464.519,18.1212,-6.33508,0,8.74661,5.64027,-5.22593,28.5366,57.1646,-42.2561,-10.7967,-0.706531,-1.90165,-72.2561,80.7927,-60.5488
464.529,18.3853,-6.39295,0,7.25212,6.45218,-4.46671,32.8659,76.6159,-34.7256,-11.0219,-0.819097,-1.42264,-70.6402,89.2378,-65.1524
464.539,18.3569,-6.24693,0,5.9133,9.52499,-2.99138,28.7805,99.8171,-30.3354,-11.2973,-0.55804,-0.452659,-79.9695,83.0488,-70.0305
464.549,18.09,-6.00948,0,4.72777,12.7367,-1.93518,20.2744,113.872,-31.3415,-11.7284,-0.222737,0.0239502,-95.3963,74.2683,-75.2439
