time,angle1,angle2,intgangle,accX1,accY1,accZ1,gyroX1,gyroY1,gyroZ1,accX2,accY2,accZ2,gyroX2,gyroY2,gyroZ2
735.699,20.2621,-0.20813,0,1.06818,10.7944,-1.59029,32.1341,61.5549,79.0854,-39.2065,-0.550855,-1.97829,-35.7927,-20.0305,23.689
735.709,20.7051,-0.3091,0,1.13284,11.0147,-1.32445,34.2988,72.0427,74.5732,-39.1873,-1.28852,-1.96871,-36.372,-23.872,21.9207
735.719,21.1183,-0.421849,0,1.1041,10.7872,-0.960403,34.1463,79.2988,72.5,-39.0915,-1.70046,-2.24653,-37.0427,-26.8293,19.6646
735.729,21.5674,-0.553448,0,1.60227,9.91059,-0.914897,36.3415,84.7256,70.1829,-38.8807,-1.48012,-2.64889,-38.2927,-30.7927,18.75
735.739,21.9832,-0.692825,0,1.54718,9.12263,-0.692161,39.8171,80.7927,66.7988,-38.7562,-1.73878,-2.87881,-33.8415,-35.3659,19.0854
735.749,22.4228,-0.83325,0,1.95194,8.68674,-1.11129,44.3598,81.8293,63.872,-38.4975,-1.37474,-2.98419,-33.0793,-39.1159,19.6037
735.759,22.8068,-0.965332,0,1.87051,8.38257,-1.21427,47.0122,80.3963,59.2683,-38.8903,-1.19272,-2.98419,-33.8415,-44.2988,21.6463
735.769,23.0739,-1.13132,0,1.42983,8.41131,-1.24062,49.4512,77.7134,54.1159,-38.9095,-0.943638,-3.67396,-32.9878,-47.9268,24.878
735.779,23.2725,-1.31694,0,1.28373,8.43526,-1.44659,52.439,70.6402,49.6951,-38.5646,-1.07776,-4.0859,-29.6037,-46.311,24.4207
735.789,23.3937,-1.54353,0,1.07536,9.09628,-1.71004,47.2866,61.189,46.0976,-38.0952,-1.22146,-4.85231,-26.372,-44.4207,25.5488
735.799,23.4188,-1.76623,0,0.397573,9.41003,-1.70765,38.4756,51.2195,45.3659,-37.8078,-1.49928,-4.89063,-21.6463,-41.0671,20.2439
735.809,23.324,-2.01028,0,-0.320933,9.28549,-1.3939,33.8415,36.8598,42.1646,-37.4725,-2.02619,-5.35047,-16.311,-39.7866,15.7622
735.819,23.1497,-2.28941,0,-0.59157,9.02443,-1.18074,31.4939,25.1829,37.4695,-37.0414,-2.20821,-6.03066,-13.5061,-38.0183,9.14634
735.829,22.9106,-2.54837,0,-0.838257,8.4161,-0.66821,29.6646,19.2073,34.4512,-36.5624,-2.03577,-5.80074,-9.63415,-37.622,5.09146
735.839,22.5523,-2.79563,0,-1.28134,8.78254,-0.462239,28.2012,10.4878,27.1341,-36.3708,-2.01661,-5.75284,-4.87805,-39.5732,2.04268
735.849,22.2183,-3.03781,0,-0.732876,8.00176,-0.335303,24.878,-0.701219,22.622,-36.5145,-2.07409,-5.85822,-4.39024,-41.0671,-0.701219
735.859,21.8258,-3.24609,0,-0.6251,7.86045,-0.301772,23.1402,-14.6951,14.5732,-36.8019,-2.08367,-5.49417,-4.54268,-39.1159,-5
735.869,21.3846,-3.45563,0,0.165256,8.00655,-0.165256,24.1159,-23.4451,4.26829,-36.7252,-1.55676,-5.63788,-7.40854,-38.4146,-9.78659
735.879,21.0451,-3.64602,0,1.09452,7.96823,0.114961,23.7195,-29.2073,-5.21341,-36.1792,-0.886157,-5.36963,-12.622,-36.0671,-15.1524
735.889,20.8237,-3.82956,0,2.10043,7.80776,0.56762,19.2988,-33.9329,-10.3659,-36.0642,-0.387993,-5.35047,-18.4756,-31.9512,-19.5122
735.899,20.6941,-4.01482,0,3.16861,7.9347,0.754431,16.5854,-38.75,-15.1524,-35.7768,0.330513,-5.43669,-24.6646,-26.7988,-24.3293
735.909,20.5976,-4.23611,0,4.03082,7.9323,0.397573,14.2378,-47.439,-22.5915,-35.4702,0.646655,-6.0594,-31.9207,-18.4756,-29.1463
735.919,20.527,-4.47187,0,4.73256,7.84129,-0.241897,13.0488,-59.2988,-28.6585,-35.2595,1.43222,-6.36596,-39.1768,-9.02439,-31.6463
735.929,20.4512,-4.70526,0,5.40077,7.94188,-1.10171,11.0061,-65.1524,-35.6707,-35.499,1.6813,-6.4905,-46.9207,0.853659,-32.9573
735.939,20.38,-4.92221,0,5.95881,8.02092,-1.93039,8.17073,-68.6585,-40.2439,-36.2558,2.27527,-6.4905,-54.9695,6.95122,-31.5854
735.949,20.3921,-5.08136,0,6.67252,7.6952,-2.31838,6.58537,-71.0976,-40.7012,-37.4821,2.60099,-5.8678,-63.2927,8.84146,-28.9939
735.959,20.5095,-5.22746,0,7.38385,7.36947,-2.5028,6.43293,-71.0671,-38.3537,-38.6796,2.83091,-5.93486,-70.9146,9.60366,-23.75
735.969,20.6822,-5.35441,0,7.98499,7.55629,-2.68242,7.07317,-69.3598,-35.5793,-40.0783,2.74469,-5.90612,-75.1829,10.122,-18.872
735.979,20.8423,-5.46499,0,8.19576,7.97302,-2.67524,5.88415,-62.561,-34.9085,-40.8734,2.51477,-5.81032,-82.3781,11.372,-16.7378
735.989,20.9329,-5.56434,0,7.60898,8.30114,-2.54591,4.60366,-47.561,-34.9695,-41.3811,1.78668,-5.74326,-88.9024,14.5732,-13.9024
735.999,20.9451,-5.69582,0,6.81862,8.5095,-2.55309,4.7561,-27.2561,-35.0305,-40.6147,1.08734,-6.27974,-93.0488,19.2378,-12.6524
736.009,20.9135,-5.84484,0,6.50487,8.49513,-2.60578,6.98171,-7.07317,-36.8902,-39.4939,0.761616,-6.50008,-96.0671,22.7744,-8.9939
736.019,20.9069,-6.02313,0,6.80904,8.18618,-2.49322,9.14634,8.65854,-39.1159,-38.5263,0.627495,-6.94077,-98.2012,27.1951,-5
736.029,20.9634,-6.22727,0,7.3575,7.77423,-2.25132,11.6463,22.1646,-40.1829,-37.4629,0.570015,-7.29523,-102.348,32.0732,-1.46341
736.039,21.0591,-6.46538,0,7.47246,7.31678,-2.20102,14.4512,32.2256,-40.5183,-36.8881,0.474214,-7.87961,-106.921,36.8598,1.98171
736.049,21.1564,-6.7647,0,7.18506,6.93837,-2.30401,16.7073,40.4878,-40.9756,-36.342,1.03944,-8.92384,-113.628,46.0366,4.42073
736.059,21.1495,-7.044,0,6.28693,7.01741,-2.20342,18.4756,48.3537,-42.9573,-36.2845,1.80584,-8.7514,-119.817,52.0732,6.76829
736.069,20.9015,-7.2771,0,4.77327,7.76465,-2.49082,19.3598,55.6402,-46.5854,-37.1851,2.56267,-8.34904,-127.043,55.7012,7.46951
736.079,20.3508,-7.39284,0,3.23567,9.22562,-2.39741,14.9695,60.9146,-52.9878,-39.5705,2.29443,-6.92161,-134.695,56.189,5.94512
736.089,19.5406,-7.47594,0,1.91123,11.1943,-2.03577,7.89634,65.9146,-60.9146,-42.2146,1.64298,-6.85455,-141.22,54.2378,1.09756
736.099,18.5212,-7.5454,0,0.58678,12.1404,-1.9256,0.731707,62.6829,-69.7866,-44.8396,0.819097,-7.05573,-142.104,58.1098,-3.23171
736.109,17.4116,-7.53396,0,-0.0670605,11.7811,-0.404758,-4.2378,42.8963,-74.7561,-46.8131,-0.330513,-5.71452,-137.744,59.939,-8.10976
736.119,16.482,-7.4083,0,1.3963,12.8517,0.673001,-11.7073,10.3963,-71.9817,-48.1159,-1.95913,-3.44404,-127.439,53.9024,-7.7439
736.129,15.8994,-7.22517,0,4.35894,14.145,0.656235,-21.7683,-20.6707,-60.7622,-49.8883,-4.04758,-2.21779,-113.963,48.1707,-5.36585
736.139,15.6537,-6.98345,0,7.15632,14.2983,0.155676,-21.0366,-39.2683,-46.8902,-50.99,-6.90245,-0.799937,-101.22,44.878,-3.20122
736.149,15.5945,-6.73575,0,7.99937,12.8421,-0.517324,-8.14024,-39.0549,-39.2378,-51.6702,-9.58487,-0.445474,-86.3415,47.4085,-4.48171
736.159,15.5099,-6.48229,0,6.69168,11.92,-2.09804,5.30488,-25.122,-36.6159,-51.6414,-11.2422,-0.0814307,-76.0671,49.4512,-7.37805
736.169,15.3085,-6.27654,0,4.52659,10.6435,-3.48715,11.6159,-5.60976,-35.9146,-50.9708,-9.49865,-0.953218,-74.0244,43.4756,-4.54268
736.179,14.9065,-6.08059,0,2.24413,9.4723,-3.53505,16.7378,16.7988,-36.9817,-45.4527,-10.8399,-0.819097,-44.2073,59.7866,3.53659
736.189,14.2366,-5.76977,0,0.282612,9.28549,-2.85486,17.8659,39.0244,-41.4939,-43.3834,-9.02922,1.54718,-31.25,55.3963,12.8659
736.199,13.3338,-5.37651,0,-1.41067,9.79323,-1.60466,14.7866,47.0427,-46.3415,-42.3583,-7.06531,3.23328,-26.2805,41.2195,19.2073
736.209,12.3219,-4.9381,0,-2.14354,10.0351,-0.905317,7.92683,35.7622,-51.4329,-42.5595,-4.32541,4.32541,-29.6951,21.9512,18.9634
736.219,11.2204,-4.44304,0,-2.48124,9.5705,-0.62031,-0.884146,13.9634,-57.5915,-42.32,-1.51844,5.61872,-38.872,-0.121951,8.62805
736.229,10.0861,-4.01738,0,-2.48124,9.11305,-0.62989,-9.63415,-9.81707,-61.7683,-38.009,-0.962798,4.14338,-55.6707,-17.1037,4.05488
736.239,8.97622,-3.35059,0,-2.4046,8.943,-0.814307,-17.6829,-36.0061,-61.9512,-44.9833,2.92671,10.0543,-74.2683,-44.7561,-4.2378
736.249,7.94953,-2.78701,0,-2.17947,8.85678,-1.18314,-24.2378,-63.5976,-58.2317,-40.883,2.09325,7.66885,-101.524,-51.9512,-13.2622
736.259,7.07437,-2.29653,0,-1.56634,8.71548,-1.92081,-27.0427,-84.2073,-52.2866,-39.5226,3.2716,6.47134,-127.652,-60.5793,-19.1463
736.269,6.38486,-1.87374,0,-0.66342,8.60291,-2.86684,-25.2439,-91.9512,-46.9207,-38.8328,3.4632,5.50376,-150,-63.3232,-22.1646
736.279,5.9513,-1.58396,0,0.749641,8.40173,-3.82964,-19.4817,-84.5427,-41.6159,-38.0952,2.88839,3.42488,-164.39,-61.9512,-22.7744
736.289,5.52692,-1.37124,0,0.754431,8.85439,-4.52659,-11.189,-67.3781,-41.0976,-37.9898,1.346,2.31359,-174.695,-61.1585,-23.5976
736.299,5.19382,-1.23885,0,1.29092,9.07233,-4.57209,-6.28049,-44.6341,-39.2378,-37.9132,-0.320933,1.1065,-183.933,-60.6707,-25.1524
736.309,4.87933,-1.15819,0,1.41067,9.06515,-4.48108,-2.34756,-26.2805,-39.5427,-37.9419,-2.94587,0.340093,-186.463,-57.439,-27.5915
736.319,4.63113,-1.11703,0,2.0693,9.29747,-3.83203,-4.20732,-7.40854,-40.9756,-38.2389,-5.54208,-0.263452,-184.055,-55.7927,-33.5671
736.329,4.38648,-1.12942,0,2.17947,9.09389,-3.16382,-5.15244,8.32317,-43.0183,-38.3059,-7.95625,-1.13524,-180.03,-54.0549,-42.0122
736.339,4.17712,-1.13202,0,2.53633,8.943,-2.6944,-4.69512,22.561,-44.7256,-38.2868,-9.69025,-0.972378,-171.524,-52.5,-50.9756
736.349,4.01109,-1.12781,0,2.95785,8.8975,-2.30401,-3.14024,32.5305,-45.9451,-38.3538,-10.7153,-0.866997,-164.329,-54.3902,-60.1524
736.359,3.84945,-1.13938,0,3.08,8.84241,-2.18426,-0.731707,39.1768,-47.5,-38.0952,-11.8649,-1.12566,-157.409,-55.0305,-69.7256
736.369,3.66543,-1.14797,0,2.8836,8.7514,-2.2609,2.10366,44.5732,-48.1402,-37.8653,-11.8074,-1.07776,-151.829,-55.3963,-72.1341
736.379,3.45168,-1.15585,0,2.53154,8.7514,-2.10522,5.03049,48.0793,-47.2561,-37.9706,-11.0219,-1.07776,-147.805,-56.3415,-69.4207
736.389,3.21668,-1.19291,0,2.22976,8.96935,-1.99505,8.01829,48.7195,-45.4268,-37.9706,-10.2842,-1.57592,-143.72,-57.5915,-68.0183
736.399,2.97298,-1.20395,0,2.00942,9.24717,-2.01661,9.72561,47.8963,-43.3232,-38.1622,-9.32621,-1.19272,-142.774,-64.3293,-59.7866
736.409,2.70932,-1.24451,0,1.70046,9.38369,-1.97829,8.81098,45.8232,-41.7988,-38.2485,-7.96584,-1.71962,-140.915,-69.9085,-53.1402
736.419,2.41351,-1.29424,0,1.17116,9.36213,-1.88728,7.56098,42.561,-39.2073,-37.9706,-6.66294,-1.89207,-139.878,-71.189,-44.7866
736.429,2.13018,-1.37811,0,1.0562,9.30944,-1.85614,7.10366,39.7256,-37.1951,-37.5204,-5.35047,-2.46687,-139.573,-70.5793,-37.8354
736.439,1.8397,-1.47506,0,0.862207,9.30465,-1.89446,7.04268,35.8537,-36.0976,-36.8689,-4.01884,-2.68721,-138.963,-69.1768,-31.5244
736.449,1.55158,-1.5609,0,0.768801,9.34537,-1.96152,5.79268,32.5305,-35.2439,-36.4474,-3.01293,-2.53393,-142.652,-67.561,-24.9085
736.459,1.246,-1.6667,0,0.55325,9.29028,-2.02619,4.54268,28.0488,-34.9695,-35.6523,-2.35191,-2.85007,-147.287,-68.2622,-19.3293
736.469,0.926653,-1.76339,0,0.414338,9.25675,-2.019,3.2622,22.622,-35.2744,-35.5277,-2.73511,-2.76385,-153.78,-68.689,-13.9939
736.479,0.59145,-1.85164,0,0.280217,9.25196,-2.03577,2.37805,16.3415,-35.8537,-35.7002,-2.79259,-2.70637,-159.695,-69.3598,-11.9207
736.489,0.248107,-1.96879,0,0.189207,9.24957,-2.0669,0.731707,10.1524,-36.2195,-35.7002,-3.21412,-3.2237,-169.146,-70.6707,-10.4573
736.499,-0.103444,-2.06626,0,0.00718506,9.22801,-2.14115,-2.89634,4.7561,-35.4573,-35.8726,-3.69312,-3.00335,-176.921,-71.8293,-7.62195
736.509,-0.441973,-2.15623,0,0.210762,9.39327,-2.26329,-4.81707,1.64634,-37.378,-36.16,-4.00926,-2.97461,-186.037,-73.6585,-1.67683
736.519,-0.794977,-2.26829,0,0.225132,9.59924,-2.43813,-5.82317,-0.640244,-39.6646,-36.2462,-4.42121,-3.39614,-192.988,-74.1159,3.75
736.529,-1.13953,-2.38747,0,0.373623,9.51062,-2.58423,-6.7378,-0.701219,-41.372,-36.2175,-4.89063,-3.58774,-200.488,-76.6463,10.6098
736.539,-1.46502,-2.51454,0,0.627495,9.48667,-2.71116,-6.64634,1.64634,-43.2622,-35.8151,-5.10139,-3.7506,-207.226,-77.1646,18.5366
736.549,-1.79403,-2.65224,0,0.63947,9.35495,-2.62015,-5.85366,5.88415,-44.5427,-35.1637,-5.33131,-3.92304,-214.482,-75.6098,24.5122
736.559,-2.10937,-2.80232,0,0.883762,9.12023,-2.67045,-5.51829,10.8232,-47.1341,-34.6176,-5.57082,-4.1338,-219.726,-74.2073,32.1951
736.569,-2.40419,-2.99878,0,1.08494,8.96216,-2.81175,-5.97561,14.8171,-48.4756,-33.6883,-5.47501,-4.79483,-223.384,-68.1098,39.1463
736.579,-2.68327,-3.25023,0,1.20948,8.88313,-2.84528,-4.17683,19.6037,-49.2073,-33.5063,-5.75284,-5.70494,-223.079,-63.5061,43.9329
736.589,-2.93877,-3.55608,0,1.36756,8.81607,-2.85965,-1.92073,24.9085,-49.5427,-33.171,-6.0594,-6.59588,-220.213,-55.061,47.8049
736.599,-3.17502,-3.86963,0,1.46575,8.79212,-2.75427,-0.182927,29.3598,-49.4207,-33.3626,-6.35638,-6.91203,-212.744,-46.6159,49.4817
736.609,-3.4177,-4.18644,0,1.31966,8.98611,-2.65847,0.518293,31.4024,-48.2927,-34.0141,-6.79707,-7.26649,-206.006,-38.2317,51.9512
736.619,-3.64833,-4.49674,0,1.25739,9.24717,-2.4022,0.548781,29.2073,-46.311,-34.5506,-7.27607,-7.45809,-198.384,-32.0427,53.2012
736.629,-3.84302,-4.7986,0,1.37714,9.48188,-2.23934,-0.365854,26.7073,-44.1768,-35.02,-7.64011,-7.60179,-190.793,-25.7927,53.9329
736.639,-3.99005,-5.03998,0,1.56155,9.59684,-1.95434,-1.79878,23.0183,-41.7073,-35.9397,-8.43526,-6.98867,-181.677,-22.2561,56.4939
736.649,-4.04741,-5.2369,0,2.13396,9.63516,-1.8777,-3.96341,21.4939,-39.4817,-37.2042,-8.78972,-6.6342,-173.933,-19.7866,58.7195
736.659,-4.04999,-5.42709,0,2.49082,9.8555,-1.84177,-6.37195,20.7927,-37.4695,-38.3538,-9.53697,-6.85455,-167.226,-18.8415,61.5854
736.669,-4.02385,-5.59237,0,2.67763,9.74533,-1.81063,-8.04878,22.2866,-36.9512,-39.0149,-10.198,-6.65336,-160.732,-15.5488,63.0183
736.679,-3.99334,-5.75063,0,2.60818,9.45075,-1.76992,-7.86585,23.9329,-36.5854,-39.513,-10.1214,-6.71084,-152.957,-10.122,67.5305
736.689,-3.97071,-5.92913,0,2.28964,9.07952,-1.76513,-6.34146,24.6951,-34.7256,-39.9154,-9.65193,-7.23775,-142.5,-3.93293,72.1951
736.699,-3.9805,-6.06061,0,1.80105,8.84481,-2.03577,-4.7561,23.2622,-32.5915,-40.2603,-8.98132,-6.55756,-134.329,-0.335366,77.8963
736.709,-4.01965,-6.15385,0,1.28613,8.78493,-2.45729,-3.87195,21.25,-29.1159,-41.0363,-8.54064,-6.06898,-127.043,0.487805,80
736.719,-4.07658,-6.21392,0,0.845442,8.77535,-2.95785,-5.12195,18.2622,-25.2439,-41.7931,-7.66885,-5.6283,-121.799,0.182927,76.5854
736.729,-4.11926,-6.28462,0,0.641865,8.83044,-3.30273,-7.7439,15.2744,-21.1585,-41.4578,-6.3468,-5.82948,-118.049,-0.945122,68.75
736.739,-4.12544,-6.37709,0,0.59636,8.97174,-3.51589,-12.0427,13.689,-16.7988,-41.0075,-5.64746,-6.21268,-115.488,0.97561,61.1585
736.749,-4.06806,-6.52131,0,0.799937,9.11065,-3.54702,-15.6707,14.6037,-12.8049,-39.81,-5.59956,-7.00783,-116.677,7.13415,47.8049
736.759,-3.95798,-6.73529,0,1.00351,9.25915,-3.45122,-17.8963,17.3171,-9.69512,-38.4688,-5.9636,-8.06164,-118.415,17.9878,33.2317
736.769,-3.84285,-6.96569,0,0.919688,9.47949,-3.26202,-17.8659,19.5427,-7.65244,-37.6545,-6.5384,-8.28198,-116.616,30.0915,21.372
736.779,-3.72724,-7.22395,0,0.852627,9.78605,-3.19017,-15.9756,20.9451,-6.25,-37.6449,-7.69759,-8.88552,-111.646,41.7988,9.26829
736.789,-3.61943,-7.52045,0,0.785566,10.0974,-3.2237,-15,20.3659,-5.73171,-38.2868,-8.44484,-9.86269,-102.683,53.689,0.640244
736.799,-3.49326,-7.78699,0,0.943638,10.3153,-3.40811,-15.061,18.9329,-5.2439,-39.9825,-10.1309,-9.90101,-90.9451,69.2683,-7.7439
736.809,-3.32109,-8.00039,0,1.30289,10.3728,-3.73384,-16.372,17.3476,-4.32927,-41.8602,-11.9607,-9.48907,-83.3537,81.5549,-16.7683
736.819,-3.09122,-8.19978,0,1.69567,10.4902,-4.07872,-18.7805,16.7378,-2.7439,-43.4792,-12.8708,-9.69983,-76.4329,92.7744,-26.0671
736.829,-2.75384,-8.35075,0,2.24653,10.7297,-4.14817,-22.8963,14.8476,1.15854,-43.7283,-12.4302,-8.8951,-64.0244,103.841,-31.6463
736.839,-2.32504,-8.39941,0,2.92911,10.6075,-3.74342,-28.1098,12.9878,6.61585,-43.5175,-11.453,-6.92161,-54.2988,109.543,-28.7195
736.849,-1.76221,-8.3646,0,3.59013,10.4064,-3.14706,-32.7439,10.3963,13.8415,-42.8565,-10.4183,-5.24509,-47.8963,109.695,-20.2439
736.859,-1.03321,-8.22516,0,4.4236,10.095,-2.37825,-35.4878,8.29268,22.5,-42.7415,-8.72266,-3.2237,-47.3171,107.104,-9.29878
736.869,-0.167113,-7.98602,0,5.099,9.99921,-1.75794,-36.2805,8.5061,31.128,-43.4409,-7.00783,-1.27894,-49.2378,101.006,1.98171
736.879,0.810456,-7.68877,0,5.62351,9.8555,-1.15919,-36.6768,11.5549,38.7805,-44.0923,-5.39837,-0.00479004,-55.2744,95.6707,7.7439
736.889,1.88967,-7.35647,0,5.93965,9.77407,-0.747246,-35.122,18.811,47.9268,-45.491,-3.39614,0.914897,-60.2744,90.8232,8.41463
736.899,3.05197,-6.97501,0,6.03066,9.40045,-0.435894,-33.5366,30.122,55.7622,-46.3149,-1.69088,2.17947,-67.0732,84.4207,3.35366
736.909,4.25567,-6.34725,0,5.60435,9.42201,-0.258662,-32.0732,44.9695,66.311,-53.3754,1.02028,8.62686,-83.1707,61.311,1.43293
736.919,5.40034,-5.9132,0,4.44995,10.1764,-0.0598755,-30.3963,56.7073,77.2866,-46.2478,-1.24062,3.95178,-94.3902,54.6341,-7.62195
736.929,6.52531,-5.41899,0,3.50152,9.8603,-0.364043,-29.6646,64.6646,85.9146,-45.7113,3.49194,5.45585,-100.518,48.3537,-12.7439
736.939,7.63367,-4.91368,0,2.81175,9.02443,-0.838257,-25.0305,70.1524,91.0976,-43.8911,1.97829,5.78158,-104.817,32.8963,-13.9329
736.949,8.75889,-4.39599,0,2.7423,8.21252,-1.45138,-16.4939,77.5915,92.7134,-42.2721,1.5855,6.12646,-104.817,17.622,-16.4634
736.959,9.80069,-3.92583,0,1.56395,7.59221,-2.10522,-5.91463,85.6707,100.427,-40.4136,0.608335,5.32173,-101.921,5.03049,-17.378
736.969,10.7621,-3.43653,0,0.799937,7.68322,-2.40699,0.0914634,88.9939,105.976,-39.3023,-1.0586,5.8199,-95.7927,-1.43293,-18.7195
736.979,11.5263,-3.10249,0,-0.598755,8.09996,-2.55309,6.79878,83.75,108.567,-38.4688,-2.32317,3.35782,-88.5061,-2.07317,-22.6524
736.989,12.1151,-2.79128,0,-2.09564,9.32621,-3.04167,13.0183,76.7683,109.451,-38.4305,-3.38656,3.18538,-80.3659,-3.68902,-25.4268
736.999,12.6831,-2.52846,0,-2.74709,10.768,-3.41769,14.8171,68.8415,111.89,-37.7982,-4.80441,2.52435,-73.2622,-4.96951,-26.8902
737.009,13.2877,-2.30678,0,-2.58183,11.9152,-3.49194,13.0183,54.3293,112.53,-37.5874,-5.41753,1.98787,-65.1829,-8.53659,-26.8902
737.019,13.9577,-2.09879,0,-1.07536,12.3152,-4.09309,10.2744,45.6098,105.671,-37.4821,-5.69536,1.89207,-61.4024,-11.2805,-23.811
737.029,14.6963,-1.89683,0,0.507744,12.6912,-4.58407,10.2744,43.689,99.1768,-37.7311,-5.38879,1.93039,-60.7622,-14.6341,-19.5732
737.039,15.469,-1.74127,0,1.80345,12.6816,-4.72537,10.6098,37.2256,92.3171,-38.1718,-4.44037,1.28852,-61.9817,-19.7866,-10.7317
737.049,16.2388,-1.63872,0,2.7902,12.0996,-4.24158,10.4268,30.0305,83.6281,-38.2197,-3.4153,0.493374,-65.4878,-21.9817,-0.518293
737.059,16.8826,-1.55404,0,2.32317,11.4386,-3.34345,14.3902,30.4573,75.3963,-37.8174,-2.33275,0.263452,-67.3781,-20.3354,10.6402
737.069,17.3882,-1.45139,0,1.37953,11.0482,-2.43094,20.3963,38.2317,71.5244,-39.2065,0.0910107,0.617915,-74.7561,-27.3171,20.4878
737.079,17.8017,-1.40073,0,0.857417,10.7584,-1.81063,26.128,49.1463,68.3841,-38.9478,0.675395,-0.205972,-79.9695,-26.4329,28.1402
737.089,18.1702,-1.40719,0,0.845442,10.313,-1.67891,30.4878,59.4207,64.3598,-39.264,1.19272,-1.1544,-86.5244,-24.2988,33.1098
737.099,18.5857,-1.43307,0,1.66454,9.83395,-1.88728,33.7195,75.3659,59.878,-39.3789,1.5855,-1.49928,-91.0061,-24.1768,34.6646
737.109,19.016,-1.46511,0,2.18665,9.57289,-1.9256,37.1951,93.2622,55.5793,-39.4843,1.2023,-1.6334,-91.0671,-25.5793,33.1707
737.119,19.4193,-1.49929,0,2.55309,9.57289,-1.82261,43.5976,111.677,49.4817,-39.0532,0.522114,-1.6813,-89.5122,-27.6829,32.0122
737.129,19.7117,-1.52324,0,2.07169,9.76449,-1.86093,47.7439,122.591,45.0305,-38.852,-0.0622705,-1.52802,-86.7988,-29.939,27.439
737.139,19.9435,-1.55414,0,1.86572,9.44356,-1.44659,53.0488,132.317,41.0671,-38.6125,-0.819097,-1.66214,-85.1524,-32.561,24.1159
737.149,20.134,-1.56123,0,1.78189,9.331,-1.15919,57.5305,141.25,38.0793,-38.3347,-1.1544,-1.27894,-84.6341,-35.9146,21.8293
737.159,20.3019,-1.57763,0,1.76034,8.84481,-1.18553,60.6707,144.665,35.2439,-38.1718,-1.5376,-1.4418,-87.6219,-37.9268,19.4207
737.169,20.4268,-1.64131,0,1.57353,8.60052,-1.66214,64.939,142.043,33.0183,-38.009,-1.96871,-2.24653,-89.6341,-39.7866,17.0427
737.179,20.5007,-1.73294,0,1.29331,8.6077,-2.08846,67.6219,135.305,31.7988,-37.7695,-1.90165,-2.74469,-92.3476,-40.6402,15.6402
737.189,20.4653,-1.84066,0,0.445474,8.55022,-2.55309,65.5793,124.878,32.1341,-37.9994,-1.825,-3.09916,-93.9024,-42.3171,16.6768
737.199,20.3528,-1.98128,0,-0.0191602,8.51908,-2.5986,58.9329,107.47,30.5488,-37.7311,-1.88249,-3.7027,-96.8598,-43.0183,17.439
737.209,20.2127,-2.11489,0,-0.373623,8.92384,-2.36388,54.0244,86.7378,32.1341,-38.3922,-1.59508,-3.74102,-95.4878,-42.4695,15.0305
737.219,20.0704,-2.26644,0,-0.706531,9.41243,-2.32317,48.4146,67.561,35.4878,-38.3634,-1.5855,-4.14338,-98.2622,-44.9085,14.0549
737.229,19.9203,-2.43967,0,-0.66342,9.41722,-1.98547,46.0061,49.8171,33.872,-38.8999,-1.6813,-4.68945,-99.939,-47.1037,9.81707
737.239,19.6852,-2.64097,0,-0.888552,10.0711,-2.05493,39.6341,30.1829,26.9512,-38.5454,-1.96871,-5.25467,-98.9634,-48.4756,3.35366
737.249,19.366,-2.88732,0,-1.28373,9.80042,-1.43941,31.6768,10.2439,22.8354,-38.373,-1.96871,-6.14562,-98.3841,-47.8963,-3.23171
737.259,19.0851,-3.15776,0,-0.6251,9.50104,-0.866997,24.4207,-0.884146,18.5366,-37.894,-1.93039,-6.64378,-99.1159,-45.9756,-10.2134
737.269,18.7597,-3.40619,0,-0.546064,9.27352,-0.256267,19.7866,-12.8963,12.622,-37.5491,-2.21779,-6.38512,-100.305,-44.3293,-16.128
737.279,18.4827,-3.66429,0,-0.0263452,8.51908,0.316143,18.9939,-22.2561,10.3963,-37.4437,-2.41897,-6.69168,-101.22,-42.1646,-23.3841
737.289,18.2784,-3.8872,0,0.747246,7.91314,0.941243,22.7744,-26.4024,6.40244,-37.2809,-2.62015,-6.24142,-102.652,-42.5915,-28.9939
737.299,18.2305,-4.1029,0,2.00703,8.1263,1.26218,25.3659,-21.7683,4.72561,-37.4437,-2.98419,-6.2989,-103.598,-43.4451,-34.2073
737.309,18.2655,-4.33194,0,2.87402,8.49992,1.24302,22.7744,-16.7988,2.2561,-37.2905,-3.30034,-6.6342,-103.75,-40.6098,-40.6707
737.319,18.4458,-4.58423,0,3.89191,8.37778,1.04183,15.9451,-18.2622,3.65854,-37.0989,-3.4153,-7.14195,-104.268,-39.1463,-44.3902
737.329,18.9562,-4.835,0,4.52659,8.25563,0.56283,11.8598,-26.311,0.701219,-37.0126,-3.4632,-7.26649,-102.957,-38.5061,-48.1707
737.339,19.1786,-5.08492,0,5.19719,8.13349,-0.179626,11.372,-35.2134,-5.39634,-37.2138,-3.09916,-7.44851,-100.457,-34.8171,-49.2378
737.349,19.3164,-5.30687,0,5.08942,8.04248,-0.828677,10.4268,-41.2805,-12.7744,-36.9647,-2.39023,-7.08447,-98.2927,-32.2866,-48.9024
737.359,19.4221,-5.49767,0,4.94572,7.70478,-1.31966,9.93902,-51.8293,-16.5244,-36.8881,-1.36516,-6.69168,-97.0427,-31.6463,-45.1524
737.369,19.5424,-5.66353,0,4.96967,7.33115,-1.79147,14.2378,-68.4756,-17.7439,-37.3575,-0.627495,-6.48092,-95.3963,-31.4939,-41.6463
737.379,19.7604,-5.82419,0,5.99234,7.41498,-2.08606,20.2439,-81.0976,-17.3476,-37.6066,-0.359253,-6.5384,-95.4268,-28.7805,-37.4085
737.389,20.0057,-5.95964,0,6.85694,7.89159,-2.32796,24.1463,-84.1159,-18.2927,-38.4209,-0.186812,-6.33722,-99.1463,-24.5732,-35.2134
737.399,20.2003,-6.07621,0,6.95753,8.38017,-2.57465,22.4085,-79.9695,-20.3354,-38.4688,-0.186812,-6.08814,-103.628,-18.1402,-32.1951
737.409,20.365,-6.1966,0,6.89766,8.53585,-2.92192,18.2927,-70.5488,-21.4329,-38.6125,-0.205972,-6.23184,-108.537,-10.4573,-30.3049
737.419,20.5143,-6.31294,0,6.8282,8.44484,-3.44404,18.8415,-51.8293,-22.7134,-38.4592,-0.359253,-6.19352,-115.366,-2.80488,-26.5549
737.429,20.6137,-6.43437,0,6.74438,8.40412,-4.20805,20.6707,-22.3476,-27.0732,-38.4496,-0.426313,-6.33722,-122.744,4.02439,-21.5854
737.439,20.6341,-6.56929,0,6.445,8.38017,-4.78764,20.8841,8.38415,-32.5,-38.6221,-0.541274,-6.66294,-133.872,10.7927,-15.7012
737.449,20.5828,-6.70288,0,6.13604,8.16702,-4.6152,19.939,32.8049,-38.4756,-38.5454,-0.426313,-6.70126,-143.628,16.189,-9.7561
737.459,20.5048,-6.8339,0,6.11448,7.92272,-3.99729,20.7927,51.128,-42.8049,-38.4401,0.129331,-6.72042,-155.183,19.1768,-4.69512
737.469,20.4036,-6.98301,0,6.17915,7.99458,-3.25004,21.6159,63.9634,-45.4268,-38.4688,0.656235,-7.12279,-164.421,22.0732,1.0061
737.479,20.2671,-7.12834,0,6.16718,8.19576,-2.60578,22.2866,71.5244,-47.7134,-38.4688,0.512534,-7.14195,-171.524,27.378,3.32317
737.489,20.0468,-7.23918,0,5.79116,8.72506,-1.93278,19.6037,75.5183,-49.6341,-38.5742,0.359253,-6.65336,-178.201,28.5061,4.39024
737.499,19.711,-7.22972,0,5.27383,9.69983,-1.50647,12.2561,77.3171,-51.5854,-39.9154,-0.148491,-4.81399,-184.817,24.939,3.81098
737.509,19.235,-7.16533,0,4.60802,11.1153,-1.41546,4.48171,78.0183,-54.2988,-41.1895,-0.953218,-3.98052,-191.189,16.9207,0.670732
737.519,18.6116,-7.09573,0,3.52786,11.7572,-1.76513,1.31098,77.1646,-58.4451,-42.502,-1.41306,-3.9901,-193.476,8.9939,-0.0304878
737.529,17.8465,-6.99674,0,2.09325,10.8183,-1.4418,6.03659,70.4878,-62.439,-43.5367,-2.63931,-3.48236,-192.317,4.60366,2.53049
737.539,17.0049,-6.83046,0,1.46815,10.7249,-0.866997,11.6159,60.2744,-65.3659,-44.6288,-4.07632,-2.17947,-191.89,0.365854,6.18902
737.549,16.2444,-6.6594,0,1.79866,11.7595,-0.416733,10.7622,54.1159,-60.6402,-45.309,-5.90612,-1.97829,-192.195,2.19512,10.3659
737.559,15.6052,-6.46508,0,2.54591,12.9235,0.0622705,5.18293,48.5976,-54.8171,-46.8897,-7.34313,-1.38432,-189.817,12.3476,11.8293
737.569,15.046,-6.271,0,2.83091,12.6409,0.464634,0.853659,42.3476,-50.9756,-48.48,-8.37778,-1.24062,-184.543,19.878,11.189
737.579,14.5007,-6.09054,0,2.33993,11.7787,0.423918,5.51829,35.8537,-47.8659,-48.6333,-8.98132,-1.35558,-175.305,23.689,9.14634
737.589,13.9273,-5.91139,0,1.81063,11.1871,-0.59636,9.72561,26.25,-47.6829,-48.183,-9.68067,-1.21188,-163.232,25.4268,8.41463
737.599,13.288,-5.70408,0,0.996328,10.5022,-1.52802,9.20732,15.7622,-47.8659,-47.6465,-9.20166,-0.455054,-152.409,26.0366,12.5305
737.609,12.6084,-5.47289,0,0.479004,10.0998,-1.91362,6.03659,7.68293,-47.7744,-45.8646,-8.15744,0.196392,-142.866,22.5305,13.4756
737.619,11.9147,-5.20809,0,0.172441,10.0016,-2.02619,0.304878,-0.731707,-47.0732,-44.0348,-6.04982,1.00112,-138.079,17.8354,13.4756
737.629,11.1941,-4.92613,0,-0.0670605,9.80042,-1.96631,-6.12805,-10.8232,-48.4146,-42.9906,-3.93262,1.47054,-134.939,9.5122,10.3049
737.639,10.4101,-4.57607,0,-0.411943,9.20646,-1.69807,-9.5122,-19.4512,-51.9207,-43.393,-0.0239502,2.96503,-134.36,-0.97561,10.2134
737.649,9.56024,-4.24818,0,-0.744851,8.77775,-1.5376,-10.5488,-25.6098,-55.5793,-39.3214,-2.04535,2.49561,-142.287,-14.6341,3.65854
737.659,8.67052,-3.83079,0,-1.03944,8.74182,-1.58071,-10.9451,-33.0793,-57.439,-40.0208,1.3939,4.29667,-153.963,-33.2012,-1.43293
737.669,7.7809,-3.39037,0,-1.152,8.78493,-1.6837,-12.2256,-42.5,-57.8354,-38.8328,2.01661,4.80441,-165.427,-48.1098,-4.63415
737.679,6.93531,-2.93199,0,-1.0586,9.01485,-1.8753,-15.2744,-51.2195,-56.7378,-37.6545,1.94955,5.21635,-180.213,-60.122,-7.07317
737.689,6.1664,-2.45914,0,-0.637075,9.06036,-2.18186,-16.9512,-54.5732,-56.0976,-37.0318,1.36516,5.63788,-194.817,-71.1585,-10
737.699,5.46782,-2.05514,0,-0.347278,8.97414,-2.63931,-15.4268,-52.9878,-54.1768,-36.2366,0.426313,4.67987,-207.104,-77.5915,-12.7439
737.709,4.88107,-1.71838,0,0.217947,8.77775,-3.06802,-10.9451,-45.9146,-51.6159,-36.342,-1.02986,3.8464,-215,-82.2866,-15.9756
737.719,4.45435,-1.4468,0,1.18553,8.69871,-3.38177,-7.89634,-34.6646,-49.4207,-36.8689,-2.99377,3.05125,-221.982,-82.5915,-19.4817
737.729,4.22224,-1.21721,0,2.4501,8.76577,-3.23807,-7.07317,-22.5305,-46.4634,-37.894,-4.82357,2.61057,-226.829,-82.8354,-23.7805
737.739,4.19827,-1.02362,0,4.21044,8.85439,-2.87163,-6.09756,-7.68293,-45.7317,-39.1298,-6.92161,2.22737,-229.085,-83.5366,-29.8171
737.749,3.97404,-0.883051,0,2.70158,9.69264,-2.52435,-4.87805,1.61585,-46.0976,-39.9346,-8.18618,1.48012,-232.683,-81.5244,-37.5
737.759,3.83582,-0.775219,0,3.23328,9.21364,-2.46687,-5.45732,14.2683,-45.4573,-40.289,-9.01006,1.02028,-232.988,-78.6585,-43.9939
737.769,3.66283,-0.693326,0,2.85965,9.22562,-2.80696,-1.64634,17.7744,-44.9695,-40.1741,-9.63277,0.646655,-232.165,-74.8781,-49.9695
737.779,3.53744,-0.627859,0,3.21891,9.10347,-2.67284,-0.823171,29.0854,-45.061,-39.3885,-9.50823,0.416733,-229.268,-71.4634,-50.6098
737.789,3.41733,-0.587248,0,3.16382,8.78493,-2.94827,4.90854,44.7256,-45.4573,-39.0053,-9.28789,0.0335303,-228.018,-70.3963,-49.6341
737.799,3.28481,-0.517657,0,2.87881,8.61249,-3.14466,9.17683,58.6585,-44.2683,-39.1777,-9.01006,0.560435,-225.061,-70.8232,-47.2866
737.809,3.13417,-0.465137,0,2.51956,8.66997,-3.13029,10.2439,66.8293,-41.7378,-40.0399,-9.16334,0.301772,-223.75,-76.1281,-47.378
737.819,2.98782,-0.37091,0,2.33754,8.84481,-2.95306,10.122,71.5549,-38.75,-40.4231,-8.80888,1.0586,-222.165,-83.689,-46.8902
737.829,2.82162,-0.306075,0,2.15552,9.24238,-2.70158,10.3963,74.9695,-37.6524,-40.3848,-8.18618,0.579595,-223.72,-89.7256,-48.4146
737.839,2.62188,-0.247447,0,1.83938,9.43638,-2.53633,11.3415,77.8659,-37.1341,-39.9346,-7.06531,0.502954,-223.72,-91.4939,-47.9878
737.849,2.36752,-0.221666,0,1.28373,9.44356,-2.43094,11.6768,77.0732,-36.4024,-39.4076,-6.17436,-0.0431104,-226.159,-94.2073,-45.7927
737.859,2.06282,-0.243538,0,0.699346,9.50583,-2.30401,10.9756,73.0488,-34.8476,-38.8999,-5.70494,-0.847837,-230,-95.8841,-43.6585
737.869,1.73195,-0.264939,0,0.246687,9.48907,-2.13396,9.63415,66.4024,-32.5915,-38.1335,-4.86189,-0.838257,-233.049,-96.0366,-40.4573
737.879,1.38925,-0.300851,0,-0.0646655,9.5226,-2.0693,7.95732,57.8963,-30.6402,-37.7503,-4.09548,-1.08734,-237.927,-96.5854,-38.4146
737.889,1.05396,-0.359311,0,-0.167651,9.4244,-1.96152,6.7378,47.2256,-29.2988,-37.1851,-4.17212,-1.47054,-243.14,-98.5061,-34.9085
737.899,0.734997,-0.416715,0,-0.141306,9.34537,-1.82261,4.69512,36.4024,-28.628,-36.8977,-4.28709,-1.4897,-246.768,-101.646,-31.0671
737.909,0.441583,-0.47472,0,-0.0167651,9.40285,-1.83458,2.95732,26.9207,-28.2317,-36.3803,-4.42121,-1.51844,-252.287,-102.744,-27.8354
737.919,0.178062,-0.529617,0,0.138911,9.41722,-1.81782,0.548781,18.1707,-27.7134,-35.9684,-4.67029,-1.49928,-257.012,-106.25,-24.2988
737.929,-0.0684542,-0.586647,0,0.208367,9.52978,-1.80584,-1.85976,9.93902,-27.3476,-35.9684,-4.84273,-1.56634,-261.311,-105.823,-19.1159
737.939,-0.280636,-0.65314,0,0.373623,9.72617,-1.99984,-3.87195,4.66463,-26.2805,-35.8918,-5.20677,-1.74836,-264.939,-105.671,-14.0549
737.949,-0.449781,-0.723974,0,0.637075,9.67827,-2.32796,-6.34146,2.77439,-25.5183,-35.9397,-5.26425,-1.86333,-268.262,-106.28,-9.57317
737.959,-0.578079,-0.816961,0,0.912502,9.54655,-2.4501,-9.20732,4.42073,-25.1524,-36.0546,-5.60914,-2.26569,-270.427,-105.793,-4.35976
737.969,-0.674975,-0.952859,0,1.13763,9.25675,-2.44531,-11.25,7.22561,-25.3659,-35.9876,-5.64746,-2.99377,-270.854,-102.378,0.0609756
737.979,-0.76123,-1.09226,0,1.3005,9.15616,-2.26329,-10.9146,12.7439,-26.6768,-36.1408,-6.22226,-3.13748,-271.372,-98.689,7.13415
737.989,-0.842563,-1.25089,0,1.46096,9.11065,-2.09804,-8.5061,20.5793,-28.4451,-36.1792,-6.85455,-3.53026,-270.61,-95.9756,12.2866
737.999,-0.941143,-1.40129,0,1.4897,9.12502,-2.18665,-5.42683,29.7256,-30.7012,-36.3037,-7.24733,-3.50152,-269.421,-92.9878,18.811
738.009,-1.07672,-1.56105,0,1.30529,9.23999,-2.23455,-1.95122,39.6341,-32.1646,-36.2845,-7.72633,-3.74102,-267.348,-91.0976,24.2988
738.019,-1.21211,-1.73304,0,1.6334,9.09149,-2.38304,2.86585,47.3476,-36.7988,-35.978,-7.90835,-3.99968,-264.848,-88.75,29.6341
738.029,-1.38837,-1.92442,0,1.47294,9.06275,-2.53872,2.92683,51.4329,-39.2988,-35.8918,-8.34904,-4.39247,-259.848,-83.1098,34.6037
738.039,-1.60105,-2.14439,0,1.26936,9.00288,-2.53154,3.9939,55.5183,-40.9146,-35.5469,-8.43526,-4.90979,-256.524,-77.7439,39.5122
738.049,-1.83008,-2.36757,0,1.17835,9.05557,-2.58183,4.84756,58.811,-41.7683,-35.1062,-8.56938,-5.01517,-252.835,-70.7012,41.8293
738.059,-2.07694,-2.61623,0,1.04662,9.1825,-2.63452,5.12195,60.6707,-42.1951,-34.723,-8.54064,-5.47501,-248.476,-63.3841,44.6037
738.069,-2.3495,-2.89712,0,0.852627,9.27112,-2.63452,5.21341,59.7256,-42.7744,-34.3781,-8.63644,-6.04982,-245.701,-54.7866,46.0366
738.079,-2.65962,-3.18947,0,0.579595,9.3765,-2.65129,5.33537,56.5854,-43.6585,-33.7458,-8.28198,-6.26058,-241.311,-46.5244,49.5427
738.089,-2.98633,-3.45572,0,0.459844,9.39806,-2.68003,5.06098,51.4634,-44.4817,-33.832,-7.75507,-6.03066,-237.073,-39.2378,55.2439
738.099,-3.33715,-3.65876,0,0.316143,9.4747,-2.6465,4.87805,44.3902,-45.7927,-34.4452,-7.35271,-5.30257,-236.159,-34.0244,61.0366
738.109,-3.69363,-3.81841,0,0.273032,9.56092,-2.44531,3.65854,37.8659,-46.5244,-35.317,-7.43893,-4.86189,-234.207,-29.9085,65.4878
738.119,-4.02122,-3.97266,0,0.486189,9.68785,-2.22737,0.731707,32.7134,-46.8293,-35.7002,-7.07489,-4.91937,-234.268,-26.7073,69.5122
738.129,-4.29472,-4.13959,0,0.821492,9.77886,-2.019,-2.19512,27.8354,-45.9146,-36.2654,-7.09405,-5.28341,-232.256,-20.3963,75.3354
738.139,-4.46465,-4.31479,0,1.4921,9.8124,-1.92081,-4.7561,24.3293,-43.75,-36.4666,-6.82581,-5.54208,-225.396,-15.7012,80.3049
738.149,-4.54992,-4.5293,0,2.03098,9.68546,-1.91362,-6.52439,23.872,-41.9817,-37.2905,-7.54431,-6.43302,-219.207,-11.311,85.4878
738.159,-4.58527,-4.72155,0,2.27527,9.54894,-1.78189,-7.56098,24.1463,-40.2439,-38.3538,-8.26282,-6.35638,-209.939,-5.2439,88.4451
738.169,-4.60125,-4.91426,0,2.20581,9.49386,-1.74357,-6.92073,23.1402,-37.6829,-39.5035,-8.98132,-6.67252,-199.146,0.0914634,86.0366
738.179,-4.59856,-5.09894,0,2.08606,9.45314,-1.81782,-6.89024,21.0671,-34.5122,-40.404,-9.99681,-6.79707,-189.787,5.7622,81.4024
738.189,-4.59091,-5.25315,0,1.84177,9.28789,-2.01421,-7.56098,17.8963,-31.4939,-40.5189,-10.2267,-6.37554,-179.421,10.3659,75.6098
738.199,-4.58839,-5.41231,0,1.49689,9.19209,-2.34472,-9.32927,15.3659,-27.9878,-39.9729,-10.4279,-6.47134,-173.75,15.3963,70.1524
738.209,-4.56859,-5.58103,0,1.37474,9.16334,-2.79499,-11.5854,14.0549,-24.7561,-39.7717,-10.5716,-6.70126,-166.982,21.9817,66.7683
738.219,-4.5384,-5.71156,0,1.2502,9.26873,-3.07521,-13.4451,13.4146,-21.9207,-40.222,-10.8111,-6.18394,-161.128,27.6524,60.061
738.229,-4.47542,-5.84138,0,1.30289,9.42201,-3.33147,-15.9451,12.439,-18.9024,-40.3082,-10.6004,-6.26058,-156.494,32.561,53.689
738.239,-4.35406,-5.97896,0,1.54239,9.65432,-3.39853,-18.628,10.8232,-15.2744,-40.6052,-10.3896,-6.51924,-151.341,39.2988,46.9817
738.249,-4.15727,-6.1331,0,1.93278,9.70222,-3.52786,-21.7683,11.25,-11.7988,-40.5285,-10.2076,-6.88329,-145.61,46.9512,39.8476
738.259,-3.89408,-6.29284,0,2.20102,9.62558,-3.42727,-22.622,13.4756,-7.92683,-40.5764,-10.3417,-7.07489,-141.524,55.8232,33.7805
738.269,-3.5872,-6.4434,0,2.28964,9.4723,-3.56139,-21.0061,19.2073,-4.72561,-40.9021,-10.9165,-7.05573,-134.482,62.1341,27.5
738.279,-3.16782,-6.55487,0,2.21539,9.1825,-3.48236,-17.6829,26.7073,-1.7378,-41.2662,-11.6637,-6.47134,-126.646,69.8476,17.4695
738.289,-2.61812,-6.66631,0,2.07888,9.05317,-3.55421,-14.878,34.5122,0.945122,-41.2758,-11.9703,-6.52882,-119.573,76.9512,6.06707
738.299,-2.28363,-6.71738,0,1.90165,9.20406,-3.5087,-13.5976,41.5549,3.38415,-41.247,-11.9224,-5.46543,-111.128,82.4085,-4.60366
738.309,-1.98204,-6.68429,0,1.69567,9.47949,-3.48475,-14.8171,48.3537,5.2439,-40.8351,-11.3093,-3.90388,-104.817,85,-11.25
738.319,-1.68896,-6.55697,0,1.59269,9.94891,-3.51589,-16.5244,52.9268,7.28659,-41.0937,-10.9261,-2.18905,-101.463,84.8476,-14.9695
738.329,-1.40931,-6.41645,0,1.45138,10.5189,-3.47996,-19.0854,55.122,9.05488,-41.1129,-9.74773,-1.85375,-100.732,86.2195,-14.9085
738.339,-1.11551,-6.2719,0,1.47533,11.0075,-3.32668,-22.622,55.3659,11.5244,-41.8985,-8.71308,-1.69088,-103.201,92.0122,-11.5244
738.349,-0.789026,-6.12137,0,1.62861,11.3404,-3.08958,-25.9146,53.2927,14.3598,-42.981,-7.45809,-1.4897,-110.122,98.0793,-7.46951
738.359,-0.407832,-5.91791,0,1.97589,11.5105,-2.90755,-28.2012,49.4512,17.4085,-44.7342,-5.43669,-0.368833,-121.006,103.262,-4.17683
738.369,0.0515887,-5.69886,0,2.4525,11.3907,-2.58183,-29.4512,45.061,21.25,-45.788,-3.48236,0.100591,-133.018,103.506,0
738.379,0.602215,-5.47782,0,2.9315,10.9716,-2.24653,-30.6402,41.8902,25.7622,-45.376,-1.75794,0.311353,-144.146,103.079,0.792683
738.389,1.2486,-5.19178,0,3.32668,10.3968,-1.84417,-31.0061,40.2439,30.9756,-44.9641,3.1758,1.74836,-159.634,97.2256,10.6098
738.399,1.97014,-4.88445,0,3.40093,9.91299,-1.49689,-30.061,40.4573,37.5305,-45.7688,2.55309,2.39023,-170.457,84.939,8.93293
738.409,2.81448,-4.59737,0,3.57816,9.37171,-1.31247,-29.5427,42.6829,47.5305,-42.0518,-1.57592,2.03577,-174.238,82.1646,6.79878
738.419,3.73251,-4.25192,0,3.51828,8.92624,-1.28373,-27.8963,45.9756,55.5183,-41.0554,-1.24062,3.20454,-183.11,68.0488,5.85366
738.429,4.71988,-3.87755,0,3.38177,8.40891,-1.41785,-25.3354,53.5671,63.6585,-40.0495,-1.49928,3.82724,-187.165,51.9207,6.25
738.439,5.74288,-3.49748,0,3.02251,8.05445,-1.42025,-21.9207,63.5366,72.0427,-39.5322,-1.92081,4.0859,-185,36.5244,6.98171
738.449,6.77303,-3.12771,0,3.01293,7.49881,-1.5376,-16.4329,74.3293,72.1646,-38.8903,-2.77343,4.05716,-180.854,23.3537,10.9756
738.459,7.73281,-2.72081,0,2.37586,7.50599,-1.76992,-9.90854,84.0549,75.9146,-38.6987,-2.75427,4.89063,-175.518,11.1585,14.1159
738.469,8.69224,-2.6044,0,2.32077,7.2138,-2.00942,-3.07927,93.4756,77.2866,-38.2101,-4.86189,0.158071,-162.927,3.65854,16.9207
738.479,9.6244,-2.24197,0,2.21779,6.96232,-2.24892,6.43293,106.098,76.7988,-37.6545,-3.4632,4.29667,-157.47,-7.71341,19.9085
738.489,10.4913,-1.89676,0,1.67651,7.15632,-2.19384,14.2378,115.396,81.189,-37.9323,-3.63564,4.2775,-148.689,-8.41463,19.939
738.499,11.3166,-1.5626,0,1.48491,7.95625,-2.03577,18.4756,119.939,84.0549,-38.2676,-3.4632,4.33499,-145.793,-15.8841,16.7378
738.509,12.0531,-1.26485,0,0.996328,8.81607,-1.88728,24.6341,119.268,85.0915,-38.8616,-3.33866,3.98052,-142.47,-21.8293,15.3963
738.519,12.6792,-1.02925,0,0.196392,9.87467,-1.83219,29.6646,114.268,86.1585,-38.7849,-2.71595,3.09916,-141.341,-23.4451,11.8598
738.529,13.265,-0.8199,0,-0.160466,10.689,-2.44771,34.1768,108.963,87.4085,-38.7275,-2.27527,2.79259,-138.902,-26.8598,10.9451
738.539,13.8408,-0.625565,0,0.0598755,11.4099,-3.54942,36.128,108.628,85.2134,-38.5071,-1.11608,2.64889,-139.421,-30.7927,12.4695
738.549,14.4092,-0.464182,0,0.443079,12.0661,-4.26313,37.5,106.28,81.9512,-38.67,-0.359253,2.21779,-139.695,-33.811,14.939
738.559,14.9456,-0.348853,0,0.684976,12.4541,-4.62239,36.7683,96.8598,77.7134,-38.9957,-0.0431104,1.54718,-141.311,-35.5793,16.0976
738.569,15.4367,-0.262771,0,0.802332,11.999,-4.57449,35.8232,83.6585,72.8049,-39.4268,0.0335303,1.13524,-145.03,-35.4878,16.311
738.579,15.8942,-0.185824,0,0.984353,11.7452,-4.38528,35.3354,74.939,68.4146,-40.0399,0.196392,1.04902,-147.317,-36.2805,16.5549
738.589,16.3006,-0.169192,0,1.06099,11.1728,-3.90867,37.1646,70.4878,62.8354,-40.6435,0.110171,0.0431104,-149.939,-35.0305,16.4329
738.599,16.643,-0.219092,0,0.749641,10.7824,-3.43925,41.128,67.4085,60.0915,-40.6435,0.110171,-1.13524,-156.006,-34.4817,18.7195
738.609,16.9758,-0.279472,0,0.857417,10.4159,-3.18538,43.3537,70.0305,58.3232,-41.1991,-0.445474,-1.38432,-159.939,-36.4939,21.25
738.619,17.2934,-0.369255,0,0.948428,10.0375,-2.9794,46.7073,76.3719,56.0366,-41.6207,-0.876577,-1.98787,-161.159,-37.9268,22.561
738.629,17.5772,-0.48011,0,1.02986,10.0543,-3.07042,49.6341,83.9634,52.3171,-41.2374,-1.14482,-2.42855,-161.738,-40.7622,24.3598
738.639,17.8748,-0.595805,0,1.70046,10.1525,-2.79738,53.5366,96.0061,46.8293,-41.1704,-0.704136,-2.61057,-163.323,-45.7622,24.7561
738.649,18.1559,-0.6816,0,2.17468,10.0256,-2.5483,56.6768,110.061,40.1829,-40.5764,-1.12566,-2.13157,-165.244,-49.4512,24.8171
738.659,18.3873,-0.778311,0,2.29443,9.73096,-2.18905,61.189,125.701,33.5976,-39.8483,-0.790356,-2.35191,-166.524,-51.311,25.061
738.669,18.58,-0.88752,0,2.19144,9.55613,-2.3064,68.8719,137.073,30.8232,-39.2256,-0.723296,-2.61057,-170,-54.8476,24.878
738.679,18.7339,-1.00769,0,1.91123,9.39327,-2.46927,74.1159,143.75,30.1524,-38.8807,-0.608335,-2.85007,-172.988,-54.6341,23.4756
738.689,18.8664,-1.14966,0,1.84417,8.87834,-2.39981,76.2805,146.28,27.8049,-38.2006,-0.531694,-3.24286,-173.598,-52.378,24.4817
738.699,18.9453,-1.30807,0,1.78668,9.08191,-2.27048,78.0793,145.03,23.8415,-38.0664,-0.320933,-3.58774,-176.738,-47.378,25
738.709,18.9537,-1.46829,0,1.16158,9.4268,-2.33275,73.2317,139.482,25.1829,-37.8461,-0.320933,-3.7027,-179.482,-47.2256,26.4939
738.719,18.9627,-1.65101,0,1.25739,9.12742,-2.17228,68.1707,131.006,23.5976,-37.9227,-0.292192,-4.19128,-182.043,-45.3354,26.8293
738.729,18.916,-1.82046,0,0.910107,9.01246,-1.98787,67.439,117.835,22.1646,-37.7695,-0.445474,-4.06674,-183.994,-43.5061,27.3476
738.739,18.7431,-1.98524,0,0.330513,9.41961,-1.91841,64.9695,105.579,16.8598,-37.8557,-0.713716,-4.10506,-186.951,-41.9207,25.8841
738.749,18.486,-2.13994,0,-0.263452,9.54176,-1.825,55.7622,93.6281,15.2439,-37.7311,-0.819097,-4.02842,-190.396,-40.8841,23.75
738.759,18.2091,-2.30719,0,-0.337698,9.15616,-1.20709,50.7622,78.3537,13.7805,-37.8653,-1.16398,-4.35415,-194.39,-39.6341,22.5305
738.769,17.911,-2.49405,0,-0.277822,9.52978,-0.855022,46.8902,64.3598,10.1524,-37.712,-1.42264,-4.76609,-199.604,-35.7927,17.1037
738.779,17.618,-2.70907,0,0.308958,9.95131,-0.677791,41.5244,54.2073,4.02439,-37.5395,-1.75794,-5.33131,-203.049,-32.1341,10.6098
738.789,17.3322,-2.9224,0,1.03465,9.70222,-0.150886,37.2256,47.0732,-2.89634,-37.4246,-1.91123,-5.41753,-207.744,-28.4146,5.97561
738.799,17.0809,-3.12599,0,1.36756,9.10347,0.565225,35.3049,40.4268,-7.68293,-37.7311,-1.90165,-5.43669,-211.067,-27.4695,-0.640244
738.809,16.9254,-3.32407,0,1.94715,8.6077,1.1041,36.5549,35,-6.98171,-37.9898,-2.17947,-5.52291,-210.762,-28.9939,-4.11585
738.819,16.7982,-3.51759,0,2.02619,8.44723,1.17116,35.4268,27.4085,-5.85366,-38.2485,-2.44771,-5.61872,-206.616,-29.5122,-7.80488
738.829,16.7008,-3.72606,0,2.11959,8.25803,0.802332,31.0366,17.8963,-2.65244,-38.2772,-3.2716,-6.0115,-199.299,-28.9939,-12.1341
738.839,16.4911,-3.92939,0,2.22018,8.34664,0.364043,26.311,5.21341,0.27439,-38.555,-3.99968,-6.1073,-191.372,-28.3841,-17.8049
738.849,16.4264,-4.13095,0,2.0669,8.33946,-0.0119751,21.0671,-12.5,2.28659,-38.4305,-4.52659,-6.19352,-180.366,-27.439,-23.0183
738.859,16.3749,-4.35107,0,2.24174,8.30353,-0.359253,18.2317,-28.75,1.4939,-37.894,-4.81399,-6.56714,-168.872,-28.7805,-29.4817
738.869,16.3796,-4.57679,0,2.60818,8.48795,-0.57241,16.7988,-43.8415,-1.98171,-37.4533,-4.58407,-6.73,-159.055,-27.4085,-33.811
738.879,16.367,-4.79256,0,2.80696,8.48555,-0.732876,14.2683,-59.7866,-5.30488,-37.5395,-4.33499,-6.73,-148.14,-27.9573,-37.8659
738.889,16.4212,-4.98701,0,3.34345,8.21252,-0.795146,12.2866,-74.8476,-6.37195,-37.5874,-4.1817,-6.51924,-138.415,-27.622,-40.3354
738.899,16.59,-5.16504,0,4.02603,7.82213,-1.22625,15.4878,-88.811,-5.36585,-37.6162,-3.49194,-6.37554,-130.793,-27.6524,-39.6341
738.909,16.8693,-5.31885,0,4.68705,7.58024,-1.80824,22.378,-100.305,-4.2378,-37.7024,-2.75427,-6.09772,-125.152,-27.8659,-37.5
738.919,17.1661,-5.48693,0,5.2906,7.6473,-2.62255,30.7622,-101.25,-6.21951,-37.4533,-2.37107,-6.3947,-120.64,-25.4268,-34.0854
738.929,17.4931,-5.64437,0,6.22466,7.87482,-3.36021,33.9634,-83.811,-9.81707,-37.4533,-1.6334,-6.30848,-119.695,-19.878,-29.5732
738.939,17.7982,-5.77563,0,6.82102,8.06643,-3.94939,34.2988,-55.5793,-15.2439,-37.4533,-1.27894,-5.95402,-121.433,-14.878,-26.7683
738.949,18.0405,-5.91532,0,6.99346,8.20773,-4.20805,32.4695,-24.7561,-21.4634,-37.6545,-0.838257,-6.19352,-124.604,-7.56098,-24.2683
738.959,18.2158,-6.04932,0,6.97669,8.15504,-4.40684,30.8841,3.38415,-28.0488,-37.7886,-0.205972,-6.18394,-131.372,1.06707,-21.372
738.969,18.3161,-6.17434,0,6.73,7.97542,-4.43558,30.9756,27.1341,-34.5427,-38.4113,0.531694,-6.2031,-138.72,6.64634,-17.3476
738.979,18.363,-6.31671,0,6.64139,7.8389,-4.40205,30.0305,46.0671,-40.0305,-38.6317,0.934058,-6.60546,-147.957,13.4756,-13.2927
738.989,18.3752,-6.45726,0,6.77551,7.85806,-4.038,27.8354,63.1098,-44.4817,-38.7466,1.08734,-6.67252,-158.049,19.1463,-10.5793
738.999,18.3629,-6.62478,0,6.93598,7.97302,-3.37219,24.939,77.0122,-47.4695,-38.6125,1.22146,-7.18985,-170.518,28.2317,-8.04878
739.009,18.3119,-6.81459,0,6.90484,8.14307,-2.53633,21.9817,86.9207,-49.9695,-38.67,1.12566,-7.68801,-181.86,35.061,-7.0122
739.019,18.1986,-6.99927,0,6.55756,8.3658,-1.89207,19.1159,92.2256,-51.9207,-38.3826,1.02986,-7.64969,-192.988,41.7683,-5.70122
739.029,17.9795,-7.18139,0,5.76481,8.59573,-1.75076,17.7439,94.7256,-54.2988,-38.2006,1.19272,-7.67843,-203.72,47.0732,-5.42683
739.039,17.6433,-7.34572,0,4.81638,8.78493,-1.54479,17.378,93.4146,-56.25,-38.4209,1.03944,-7.52515,-212.53,50.4268,-3.84146
739.049,17.1635,-7.42521,0,3.87993,9.52739,-1.38672,17.7744,91.0671,-58.1707,-39.4651,0.349673,-6.32764,-219.695,49.2988,-1.76829
739.059,16.5251,-7.44885,0,2.94827,10.7441,-1.61664,17.2866,86.4024,-61.4329,-41.0458,-0.474214,-5.61872,-227.043,45.9756,-1.76829
739.069,15.7491,-7.44406,0,1.90404,11.0602,-2.08367,17.0732,76.1281,-65.3963,-42.1092,-1.07776,-5.25467,-229.909,43.3841,1.95122
739.079,14.884,-7.41143,0,1.1065,10.495,-2.01421,18.8415,58.1402,-68.4146,-43.0577,-2.32317,-4.84273,-231.524,41.0366,6.4939
739.089,14.0543,-7.30782,0,1.14003,10.4111,-1.48252,18.9024,39.2073,-67.0427,-44.1977,-3.88472,-3.56858,-227.378,36.128,10.9756
739.099,13.3743,-7.18959,0,2.05732,11.3811,-1.04423,13.1402,27.1646,-61.6159,-45.1844,-5.65704,-3.30034,-222.957,29.2378,11.9207
739.109,12.8569,-7.07505,0,3.3171,12.1595,-0.651445,5.57927,21.0366,-56.6463,-46.0754,-7.28565,-3.35782,-215.488,26.0366,7.56098
739.119,12.4319,-6.93278,0,4.07153,12.1691,-0.210762,0.640244,20.3049,-54.878,-46.3245,-7.70717,-2.71595,-203.262,25.6707,3.23171
739.129,12.0296,-6.779,0,3.92065,11.9104,-0.344883,-0.426829,22.2256,-52.8659,-46.8514,-7.62095,-2.39023,-187.165,26.0366,0.548781
739.139,11.6226,-6.60545,0,3.28357,11.4266,-0.866997,-0.27439,20.9756,-49.6951,-46.4203,-7.62095,-1.825,-171.433,29.2988,-1.98171
739.149,11.2281,-6.4309,0,2.7902,10.756,-1.62382,-0.426829,17.7744,-46.2195,-45.5006,-7.29523,-1.62382,-160.427,31.0671,-3.62805
739.159,10.8441,-6.23258,0,2.4046,10.3034,-2.24174,-2.04268,16.189,-43.0793,-44.8396,-6.79707,-1.00112,-150.122,29.0549,-3.81098
739.169,10.4448,-6.04558,0,1.89686,10.1094,-2.36628,-5.85366,13.872,-40.3049,-44.2073,-5.9157,-1.06818,-141.921,25.5183,-3.38415
739.179,10.0119,-5.85849,0,1.31966,9.58966,-2.24413,-8.81098,7.22561,-38.8415,-43.6612,-4.44995,-0.914897,-134.604,24.3598,-3.96341
739.189,9.50987,-5.66286,0,0.732876,8.9933,-1.96152,-9.45122,-0.853659,-40.3049,-42.7703,-3.07042,-0.598755,-131.738,23.4756,-6.21951
739.199,8.93657,-5.38816,0,0.220342,8.55262,-1.73639,-8.56707,-8.2622,-42.1037,-42.617,-1.346,1.02028,-128.689,19.6951,-10
739.209,8.29651,-5.08928,0,-0.263452,8.4137,-1.65496,-7.86585,-15.9756,-43.4146,-40.768,-0.435894,1.56634,-131.646,8.29268,-16.311
739.219,7.64539,-4.70225,0,-0.409548,8.35383,-1.49689,-7.65244,-22.8963,-43.7805,-39.7142,0.694556,3.2237,-138.537,-8.81098,-21.7683
739.229,7.00828,-4.24747,0,-0.328118,8.40652,-1.67412,-7.59146,-29.6037,-44.8476,-38.9574,1.26936,4.53617,-151.707,-28.4146,-26.2805
739.239,6.36517,-3.75746,0,-0.371228,8.45442,-1.93997,-7.19512,-32.1341,-46.189,-38.4401,1.80584,5.33131,-169.909,-46.5549,-29.8476
739.249,5.76332,-3.23229,0,-0.129331,8.50711,-2.39262,-6.0061,-30.061,-46.6463,-37.8653,2.04535,6.13604,-191.463,-60.5183,-32.7134
739.259,5.21486,-2.73831,0,0.217947,8.69392,-2.84049,-4.26829,-23.0183,-47.1341,-37.3575,1.6334,5.83906,-211.677,-72.439,-34.5122
739.269,4.72452,-2.288,0,0.62031,9.03401,-3.02012,-5.67073,-15.7927,-47.4085,-36.936,1.00112,5.35047,-231.341,-78.9329,-33.628
739.279,4.32691,-1.9022,0,1.30529,9.21843,-3.0273,-8.5061,-6.85976,-47.378,-36.7061,0.234712,4.53617,-249.97,-82.7439,-31.4939
739.289,4.00365,-1.62237,0,1.93278,9.50104,-2.71116,-10.6402,-2.5,-47.622,-37.233,-0.742456,3.09916,-265.457,-82.0122,-27.7134
739.299,3.60942,-1.41204,0,1.6334,9.79803,-2.36149,-7.83537,10.2744,-51.372,-38.2772,-2.30401,2.20821,-277.591,-78.2317,-25.2134
739.309,3.10573,-1.28805,0,0.907712,9.9537,-1.90404,-8.62805,20.3354,-54.6646,-39.3502,-3.71228,0.934058,-286.311,-72.6219,-24.9085
739.319,2.53549,-1.23883,0,0.273032,9.57529,-2.09804,-4.60366,22.0427,-55.1829,-40.0495,-5.03433,-0.263452,-292.043,-67.0122,-27.7744
739.329,1.98217,-1.2362,0,0.308958,9.88904,-2.51238,-6.92073,22.8354,-54.939,-40.3657,-6.2989,-1.03944,-290.701,-61.128,-29.6341
739.339,1.50308,-1.28506,0,0.878972,9.41003,-2.42136,-6.31098,30.3659,-55.7317,-40.3273,-7.29523,-1.93039,-288.171,-54.6646,-33.1098
739.349,1.09401,-1.32039,0,1.30289,9.08191,-2.78062,-1.0061,42.4695,-55.3354,-40.0591,-8.30114,-1.70046,-283.659,-51.2195,-36.9207
739.359,0.756219,-1.35791,0,1.64777,8.85439,-3.00335,1.55488,50.6707,-53.75,-39.8292,-8.77056,-1.75794,-277.53,-52.4085,-39.5732
739.369,0.458991,-1.37278,0,1.61185,8.72266,-3.13508,2.83537,51.2195,-50.1524,-39.5993,-9.16334,-1.3939,-272.409,-57.1037,-42.561
739.379,0.231849,-1.39408,0,1.88488,8.84241,-3.15903,3.59756,48.5671,-46.7988,-39.513,-9.15376,-1.52802,-264.665,-61.372,-46.25
739.389,0.0393986,-1.41451,0,1.93997,9.05557,-2.97461,4.60366,45.7317,-43.8415,-39.4556,-9.41243,-1.5376,-259.817,-65,-47.1341
739.399,-0.133534,-1.4594,0,2.00942,9.18729,-2.9339,5.64024,42.2561,-42.7439,-39.6472,-9.07712,-2.01661,-257.226,-73.5061,-50.4573
739.409,-0.306245,-1.491,0,1.84896,9.32142,-2.80457,6.28049,39.3902,-40.7927,-39.8483,-8.87594,-1.83458,-250.03,-76.4939,-50.4878
739.419,-0.462688,-1.51332,0,1.72681,9.35734,-2.56507,5.03049,36.8293,-37.9268,-40.1549,-8.39694,-1.71004,-244.97,-77.5305,-50.5183
739.429,-0.591687,-1.53971,0,1.69567,9.33339,-2.3567,4.02439,36.9512,-35.122,-40.0112,-7.76465,-1.79626,-241.799,-78.9634,-52.0732
739.439,-0.693354,-1.56646,0,1.74597,9.29507,-2.27048,4.08537,38.3537,-33.2927,-39.7813,-7.07489,-1.81542,-239.207,-80.3354,-52.9573
739.449,-0.775958,-1.61393,0,1.75555,9.29268,-2.13875,4.7561,40.7622,-31.6768,-39.3502,-6.59588,-2.17947,-235.976,-81.8598,-53.628
739.459,-0.872717,-1.64249,0,1.58071,9.29268,-2.05732,4.90854,42.2256,-31.1585,-38.3922,-5.60914,-1.84417,-236.098,-83.811,-53.0488
739.469,-0.992543,-1.66608,0,1.346,9.27831,-2.019,4.57317,42.1341,-30.8537,-37.712,-5.11097,-1.75794,-238.628,-87.0122,-49.4207
739.479,-1.15777,-1.69294,0,0.993933,9.29507,-2.0214,3.44512,39.8171,-31.3415,-36.5145,-4.53617,-1.7771,-241.372,-89.2988,-44.939
739.489,-1.36819,-1.72915,0,0.665815,9.36453,-2.05732,2.46951,36.7988,-32.1341,-35.8534,-3.96136,-1.91123,-246.707,-89.6951,-40
739.499,-1.61392,-1.77826,0,0.356858,9.37171,-2.00703,0.97561,31.7378,-32.3171,-35.2403,-3.76018,-2.10283,-250.427,-90.0305,-33.4146
739.509,-1.90812,-1.83103,0,-0.0311353,9.40764,-1.95434,-0.609756,24.8171,-32.9268,-35.2307,-3.7027,-2.18905,-254.97,-89.8476,-26.372
739.519,-2.221,-1.93079,0,-0.275427,9.35016,-1.96392,-2.65244,18.5061,-32.378,-35.4511,-3.83682,-2.97461,-261.433,-90.1219,-21.3415
739.529,-2.52518,-2.01637,0,-0.337698,9.40045,-2.04535,-3.93293,12.2256,-31.372,-35.6235,-4.31582,-2.83091,-265.732,-91.25,-16.0366
739.539,-2.81116,-2.16213,0,-0.261057,9.51541,-2.13875,-5.06098,8.04878,-31.128,-35.9109,-4.79483,-3.86556,-269.543,-90.2744,-10.6707
739.549,-3.07769,-2.30878,0,-0.102986,9.57529,-2.20581,-5.79268,6.58537,-31.6768,-36.2654,-5.12055,-4.00926,-271.098,-89.5122,-7.86585
739.559,-3.33056,-2.47982,0,0.0239502,9.5202,-2.3088,-6.18902,7.10366,-32.378,-36.5528,-6.09772,-4.52659,-273.171,-87.1951,-3.9939
739.569,-3.55598,-2.65036,0,0.277822,9.3765,-2.38304,-7.07317,9.69512,-33.2622,-36.3229,-6.66294,-4.59365,-273.323,-85.1219,0.304878
739.579,-3.74592,-2.82383,0,0.608335,9.34776,-2.33993,-6.89024,14.2683,-34.2378,-36.2079,-7.01741,-4.72777,-270.061,-82.4695,6.03659
739.589,-3.91015,-3.007,0,0.936453,9.2831,-2.41897,-5.15244,21.372,-36.1585,-35.7768,-7.36229,-4.92895,-268.415,-79.8171,10.8841
739.599,-4.07889,-3.19465,0,1.02986,9.20166,-2.58662,-4.66463,27.8659,-38.2317,-35.3936,-7.43893,-5.05349,-265.732,-76.7988,18.8415
739.609,-4.23974,-3.39305,0,1.15919,9.10586,-2.67045,-3.59756,35.122,-39.5427,-34.8284,-7.55389,-5.25467,-261.189,-75.7317,25.7317
739.619,-4.3882,-3.5955,0,1.39151,9.03162,-2.58662,-1.0061,42.1341,-41.6768,-34.4931,-7.46767,-5.37921,-257.195,-72.439,34.3598
739.629,-4.53332,-3.84626,0,1.61903,9.09628,-2.59381,-0.121951,48.5061,-44.3598,-33.9662,-7.31439,-6.14562,-253.75,-66.25,39.7561
739.639,-4.68375,-4.12439,0,1.78189,9.17053,-2.33275,-0.121951,55.5488,-47.0427,-33.8225,-7.42935,-6.67252,-248.537,-58.6585,44.3598
739.649,-4.8547,-4.4037,0,1.71004,9.10107,-2.19144,-0.426829,61.128,-48.7195,-33.9566,-7.79339,-6.86413,-245.03,-50.6098,48.3232
739.659,-5.05838,-4.6924,0,1.47054,9.23999,-2.16031,0.609756,64.2988,-49.1463,-34.3877,-8.00416,-7.24733,-237.439,-41.7988,49.9695
739.669,-5.28288,-5.01176,0,1.27894,9.39327,-2.26329,2.22561,63.9329,-49.0549,-35.2786,-8.19576,-8.09996,-228.841,-35.1524,51.0976
739.679,-5.51535,-5.35737,0,1.12326,9.54415,-2.37586,3.23171,61.2195,-48.2012,-35.9588,-8.42568,-8.88552,-220.945,-28.3841,53.3841
739.689,-5.74109,-5.62023,0,1.03465,9.61121,-2.44771,3.35366,55.2744,-46.8293,-37.1755,-9.07712,-7.97542,-211.189,-22.8963,54.5427
739.699,-5.94697,-5.84453,0,0.972378,9.6639,-2.46208,1.82927,46.8293,-44.4512,-37.6449,-9.36453,-7.57305,-203.994,-18.1707,56.7988
739.709,-6.07186,-6.04359,0,1.38911,9.55134,-2.54591,-0.548781,40.061,-41.7683,-38.4305,-9.77647,-7.42935,-199.909,-14.1768,58.3232
739.719,-6.15462,-6.22956,0,1.49449,9.43398,-2.42855,-3.2622,34.4817,-39.2073,-38.3538,-9.68067,-7.30481,-190.488,-8.78049,59.2073
739.729,-6.21212,-6.44241,0,1.46336,9.29986,-2.34712,-4.26829,29.3598,-36.6768,-37.7407,-9.67109,-7.76465,-182.287,-4.26829,64.4207
739.739,-6.23783,-6.63601,0,1.48012,9.18011,-2.15552,-5.03049,24.6037,-33.9939,-37.5874,-9.1825,-7.52515,-171.524,2.07317,69.8171
739.749,-6.24602,-6.80335,0,1.35079,9.16813,-1.99984,-6.82927,20.7622,-30.6707,-37.4821,-9.00048,-7.17069,-159.39,6.31098,75.6402
739.759,-6.2527,-6.88032,0,1.1041,9.25196,-1.8753,-9.02439,17.8354,-27.3171,-38.3347,-9.26873,-5.8678,-149.451,9.02439,76.6463
739.769,-6.26545,-6.94705,0,0.852627,9.43159,-2.05732,-10.5488,15.122,-24.6037,-39.3502,-9.25915,-5.88696,-141.555,11.4329,72.6219
739.779,-6.28631,-7.02283,0,0.58678,9.53218,-2.25132,-11.8293,12.0122,-22.1037,-40.1836,-9.51781,-6.21268,-132.683,14.5732,66.0061
739.789,-6.31921,-7.1365,0,0.265847,9.5202,-2.42855,-14.1463,6.82927,-19.4512,-39.8292,-9.53697,-6.86413,-124.024,23.2012,57.2561
739.799,-6.31766,-7.34504,0,0.263452,9.4244,-2.73272,-16.0366,2.46951,-16.0061,-39.0723,-9.77647,-8.464,-114.97,36.3415,49.2378
739.809,-6.27737,-7.63177,0,0.268242,9.35255,-2.93629,-17.8963,-0.579268,-12.1341,-37.9611,-10.4375,-9.69983,-104.085,50.9451,40.2134
739.819,-6.19669,-7.94846,0,0.289797,9.29507,-3.13269,-18.2317,-2.31707,-8.23171,-37.4437,-11.5967,-10.2459,-89.8781,65.7927,31.4329
739.829,-6.06903,-8.28203,0,0.335303,9.31184,-3.30273,-18.1402,-4.20732,-4.26829,-37.3958,-12.5547,-10.7057,-74.9085,80.1219,22.3476
739.839,-5.64745,-8.55605,0,0.387993,9.35255,-3.38416,-18.2927,-7.19512,0.152439,-38.0473,-13.1199,-10.016,-56.7683,91.5244,12.0732
739.849,-5.40627,-8.76649,0,0.673001,9.38369,-3.48236,-18.0183,-9.32927,4.26829,-39.1203,-13.8863,-9.31663,-38.4146,95.9146,2.83537
739.859,-5.10592,-8.89073,0,1.00591,9.49865,-3.61169,-18.3232,-9.66463,7.2561,-40.6818,-13.7426,-8.19576,-22.7439,103.72,-7.34756
739.869,-4.77621,-8.85473,0,1.23583,9.83156,-3.65719,-20.7012,-7.5,8.59756,-42.2817,-13.3019,-5.5325,-11.8902,106.494,-16.4939
739.879,-4.4321,-8.63109,0,1.35079,10.0591,-3.76018,-23.0183,-4.26829,9.7561,-44.3605,-12.4493,-2.10283,-6.98171,99.6646,-23.2927
739.889,-4.06616,-8.37004,0,1.59508,10.3034,-3.69312,-23.3232,-2.22561,10.3354,-46.4298,-10.2746,-1.26936,-10.5183,95.5183,-23.9939
739.899,-3.66543,-8.11322,0,1.91602,10.8063,-3.60211,-24.1463,-0.152439,12.0732,-47.8381,-7.35271,-1.16398,-19.8171,99.2073,-15.9146
739.909,-3.21807,-7.9021,0,2.34472,11.2374,-3.45601,-26.311,0.853659,14.1159,-49.0644,-3.97094,-1.94955,-31.0061,102.287,-0.304878
739.919,-2.70353,-7.63615,0,2.77104,11.4626,-3.20933,-28.7195,1.18902,18.2012,-50.4535,-0.771196,-0.579595,-44.5122,106.707,13.8415
739.929,-2.10486,-7.65157,0,3.26441,11.4889,-2.72074,-29.6341,3.5061,23.2012,-41.4769,-6.81623,-5.38879,-52.5915,125.884,36.6768
739.939,-1.41475,-7.1946,0,3.60929,11.1584,-2.21539,-28.4756,7.80488,29.5427,-53.1072,4.26792,4.06674,-69.6951,99.1463,37.7134
739.949,-0.631821,-6.8333,0,3.97813,10.6698,-1.74836,-26.4939,14.6341,35.2744,-50.3385,0.656235,2.08367,-90.8232,89.1159,34.2683
739.959,0.233251,-6.45293,0,4.15536,10.2818,-1.36277,-24.0854,24.2988,42.0732,-47.7711,1.02028,2.63931,-108.476,78.8719,22.2256
739.969,1.15159,-6.02161,0,3.99489,9.82437,-1.16398,-20.7622,35.8232,49.0244,-45.5006,0.914897,3.78892,-124.329,64.9085,7.7439
739.979,2.1297,-5.57159,0,4.02842,9.65672,-1.21906,-17.3476,47.2256,55.9451,-42.1284,0.627495,4.14338,-137.043,55.4573,-0.731707
739.989,3.09389,-5.11418,0,3.49912,9.39327,-1.14961,-15.5488,57.5,61.0366,-39.3214,-0.273032,4.2775,-146.585,46.311,-6.46341
739.999,4.06072,-4.63635,0,3.00575,9.14418,-0.981958,-15.4573,68.1707,67.8354,-37.4342,-1.23104,4.67987,-153.11,35.0915,-5.09146
740.009,5.01705,-4.18096,0,2.50998,8.59573,-0.773591,-14.2073,80.5488,72.6524,-36.6582,-2.49561,4.48827,-154.238,23.628,-0.457317
740.019,5.90206,-3.75691,0,1.6813,8.45442,-0.55325,-11.0671,90.6098,77.5915,-36.0642,-3.7027,4.16254,-151.707,11.4024,7.46951
740.029,6.75733,-3.34149,0,1.31008,8.18618,-0.62031,-6.28049,98.1098,80.7622,-36.4378,-3.82724,4.29667,-145.488,-1.67683,16.5244
740.039,7.59886,-3.09964,0,1.19272,7.95386,-0.787961,-1.79878,104.726,82.2561,-37.1851,-7.14195,1.76752,-127.5,-8.96341,23.6585
740.049,8.41926,-2.79782,0,1.04423,8.03769,-1.07057,4.84756,109.695,84.1159,-35.796,-4.68945,2.79259,-122.896,-12.378,31.9207
740.059,9.22408,-2.47472,0,1.0562,8.37299,-1.45617,11.4939,111.494,84.6341,-36.0355,-4.40205,3.33866,-107.896,-13.75,37.7134
740.069,9.98901,-2.15787,0,0.948428,8.86876,-1.76992,15.1829,109.726,84.4207,-36.8498,-4.33499,3.50152,-101.341,-19.9085,39.6341
740.079,10.7132,-1.9182,0,0.950823,9.3789,-2.15552,17.439,108.354,82.4695,-36.9647,-3.49194,2.43813,-94.8781,-24.3598,39.6646
740.089,11.3619,-1.71548,0,0.62031,9.88904,-2.41418,19.5427,107.774,80.7317,-37.3863,-2.51477,2.00703,-88.689,-25.8841,38.9939
740.099,11.9679,-1.5501,0,0.390388,10.5429,-2.58662,21.0976,103.811,80.7012,-37.7503,-0.761616,1.5376,-85.5488,-25.9451,40.0915
740.109,12.5441,-1.45545,0,0.193997,11.0506,-2.70398,21.9817,95.8537,81.1585,-38.555,0.905317,0.493374,-87.0122,-21.5854,40.6402
740.119,13.1088,-1.38553,0,0.280217,11.4626,-2.81415,22.5,84.6037,80.3659,-38.8903,2.32317,0.158071,-89.8476,-15.6402,40.1524
740.129,13.6296,-1.32295,0,0.182021,11.7045,-2.99377,23.9939,74.1768,78.0793,-39.2735,3.2237,0.100591,-96.4024,-9.69512,38.3537
740.139,14.1022,-1.27827,0,0.107776,11.7548,-3.14227,25.4573,66.6463,74.9695,-39.6759,3.47278,-0.158071,-103.323,-6.76829,35.9146
740.149,14.5403,-1.24132,0,0.191602,11.5919,-3.13987,25.9146,61.7073,71.5549,-40.2124,3.66438,-0.263452,-112.439,-6.09756,32.561
740.159,14.9548,-1.22932,0,0.282612,11.2207,-2.96264,28.628,57.5,69.0244,-40.3657,3.58774,-0.694556,-119.817,-9.60366,33.5366
740.169,15.3917,-1.2458,0,0.63947,10.6387,-2.83091,30.6707,55.1524,68.0793,-40.7393,3.1279,-1.21188,-126.494,-11.8293,33.0183
740.179,15.8337,-1.29545,0,0.934058,10.1836,-2.68721,32.4085,54.939,65.8232,-40.8351,2.23695,-1.83458,-133.293,-14.6951,33.7195
740.189,16.2765,-1.36094,0,1.22146,9.69264,-2.54351,34.5732,54.3598,62.8354,-40.701,1.75794,-2.16031,-139.238,-17.9878,36.372
740.199,16.7363,-1.42566,0,1.76513,9.50104,-2.44292,41.1585,53.5671,58.6585,-40.471,1.23104,-2.19863,-143.445,-23.1098,36.7988
740.209,17.1324,-1.51983,0,1.84896,10.0758,-2.6944,42.0427,58.75,53.3537,-39.8962,0.522114,-2.74469,-147.134,-26.6159,35.6098
740.219,17.502,-1.59069,0,2.14354,10.1549,-2.12678,36.5854,71.3415,48.3537,-39.6951,0.416733,-2.39981,-147.287,-30.3659,33.9939
740.229,17.7961,-1.68483,0,1.79147,9.75012,-1.41306,38.811,77.7744,44.4817,-39.628,-0.0910107,-2.86923,-147.713,-35.0305,31.9817
740.239,18.085,-1.79418,0,1.96871,9.54415,-1.30529,43.75,87.6219,42.0122,-39.7525,-0.675395,-3.2237,-147.622,-38.4146,29.0549
740.249,18.3185,-1.92873,0,1.54958,9.24478,-1.49689,50.8537,90.5183,41.311,-39.4651,-0.876577,-3.72186,-147.683,-39.4817,27.1646
740.259,18.5404,-2.08682,0,1.6334,9.0891,-1.79387,56.3415,91.311,39.2378,-39.5514,-1.2502,-4.23918,-144.39,-39.7866,24.5732
740.269,18.7627,-2.24627,0,1.97829,8.99809,-1.99026,59.7866,94.4512,35.2134,-39.3789,-1.42264,-4.35415,-142.348,-39.6341,21.0366
740.279,18.8959,-2.4369,0,1.6813,8.84002,-1.76752,59.5122,96.7378,29.9085,-38.6508,-1.4418,-4.91937,-138.018,-39.0549,19.2378
740.289,18.9454,-2.62121,0,1.39869,8.87594,-1.52084,59.1768,97.6219,25.3354,-38.1718,-1.4418,-4.88105,-134.207,-39.5427,17.2256
740.299,18.9171,-2.79128,0,0.941243,9.11544,-1.55437,55.4573,92.7134,23.75,-37.7024,-1.35558,-4.70861,-130.305,-41.0061,15.0915
740.309,18.9355,-2.99446,0,1.23344,9.09628,-1.26457,51.6463,83.689,24.7256,-37.3384,-1.03944,-5.33131,-126.006,-41.189,13.2317
740.319,18.9601,-3.20329,0,1.2502,8.76098,-1.0562,51.7378,74.0854,24.5732,-37.0989,-1.21188,-5.52291,-122.348,-40.2744,11.3415
740.329,19.0159,-3.41312,0,1.71962,8.7993,-0.845442,53.4451,70.6707,21.8293,-36.7827,-1.25978,-5.6283,-118.11,-39.939,8.44512
740.339,18.9724,-3.62891,0,1.3939,9.44356,-0.735271,50.8232,69.5122,17.2256,-36.8689,-1.47054,-5.87738,-114.177,-39.4207,3.29268
740.349,18.9388,-3.84637,0,1.27655,9.27352,-0.445474,45.3659,66.0976,19.2988,-36.936,-1.49928,-6.04982,-111.28,-36.7073,-1.85976
740.359,18.9092,-4.07479,0,1.28613,8.6556,-0.148491,39.6951,59.1768,18.3841,-36.9647,-1.71004,-6.37554,-107.378,-34.6037,-7.71341
740.369,18.8639,-4.2745,0,1.44899,8.54543,0.0383203,37.3476,51.6768,14.3293,-36.9456,-1.65256,-6.04024,-102.226,-33.7805,-12.1341
740.379,18.7791,-4.4813,0,1.42025,8.7993,0.105381,32.9573,39.878,11.128,-37.1659,-1.76752,-6.32764,-95.1829,-33.4451,-16.8598
740.389,18.7053,-4.73073,0,1.68609,8.8975,0.146096,28.2622,28.5976,8.90244,-37.4246,-2.09325,-7.23775,-90.7317,-33.4451,-23.0488
740.399,18.6483,-4.97381,0,1.97829,8.82325,0.153281,25,18.689,6.64634,-37.7503,-2.35191,-7.35271,-85.5488,-30.8232,-26.5244
740.409,18.5712,-5.19505,0,1.86093,8.72985,-0.0167651,20.8232,6.79878,5.82317,-37.6449,-2.73511,-7.12279,-78.2927,-31.0366,-30.5793
740.419,18.4778,-5.45317,0,1.83219,8.61728,-0.249082,14.2683,-4.60366,4.60366,-37.53,-3.08958,-7.87961,-70.0305,-29.1159,-33.5976
740.429,18.387,-5.69953,0,1.78908,8.27719,-0.325723,9.29878,-17.6829,4.57317,-37.3575,-3.03209,-7.81255,-61.189,-27.8049,-36.6159
740.439,18.3469,-5.93635,0,2.01421,7.98499,-0.438289,8.2622,-31.5549,5.06098,-37.1851,-3.16622,-7.77423,-52.6829,-26.0061,-39.6037
740.449,18.3538,-6.17323,0,2.31598,7.75507,-0.646655,8.90244,-45.6098,4.60366,-37.2138,-2.86923,-7.93709,-42.622,-24.5732,-40.061
740.459,18.3816,-6.40198,0,2.49322,7.50599,-0.696951,10.4268,-59.4512,2.80488,-37.3096,-2.46687,-7.97542,-32.2256,-23.5061,-42.8963
740.469,18.8697,-6.62277,0,2.91474,7.5515,-0.756826,14.5122,-73.3537,0.304878,-37.3096,-2.05493,-7.98499,-25.3049,-20.7927,-44.2988
740.479,19.069,-6.83071,0,3.58534,7.94428,-0.996328,17.1341,-88.0183,-1.7378,-37.3575,-1.85375,-7.91793,-19.4512,-18.75,-48.3841
740.489,19.2357,-7.01937,0,4.53138,8.20773,-1.24781,17.561,-98.9939,-4.05488,-37.5204,-1.47054,-7.74549,-14.878,-13.9939,-50.5793
740.499,19.4353,-7.20129,0,5.20677,8.38017,-1.55437,16.1585,-106.159,-5.54878,-37.5587,-0.981958,-7.75507,-12.9878,-10.7012,-50.4573
740.509,19.6934,-7.3687,0,5.81511,8.23887,-1.91362,14.7866,-107.988,-5.97561,-38.1239,-0.445474,-7.73591,-14.3293,-8.41463,-49.1768
740.519,20.013,-7.52848,0,6.43542,8.06882,-2.44052,16.189,-101.433,-6.0061,-38.8616,-0.167651,-7.86045,-16.5549,-6.34146,-47.622
740.529,20.3433,-7.66729,0,6.924,8.10235,-3.00814,17.8049,-89.6341,-8.14024,-39.1777,0.665815,-7.65927,-19.8476,-5.67073,-40.9146
740.539,20.699,-7.80272,0,7.31678,8.06882,-3.54463,19.2683,-78.5671,-8.32317,-39.3693,0.914897,-7.73591,-22.0122,-5.94512,-34.1463
740.549,21.073,-7.93011,0,7.76705,7.99697,-4.1841,20.061,-63.1098,-9.72561,-39.4939,1.06818,-7.70717,-24.3293,-4.60366,-26.9817
740.559,21.4197,-8.03762,0,8.02092,8.04727,-4.75651,20.5488,-42.1951,-13.2622,-39.7238,1.0107,-7.47725,-27.1037,-3.04878,-21.4939
740.569,21.6862,-8.16256,0,7.9323,8.15983,-4.70382,20.0915,-18.7195,-19.2683,-39.5035,0.866997,-7.81255,-31.0061,1.15854,-16.4024
740.579,21.8324,-8.31946,0,7.42217,8.26282,-4.13859,19.4207,3.62805,-26.4024,-39.1586,0.819097,-8.37778,-35.5183,9.78659,-11.0061
740.589,21.8794,-8.4704,0,7.02938,8.30114,-3.27878,18.2012,21.8598,-32.8049,-38.8424,0.704136,-8.29156,-42.1037,16.4329,-8.10976
740.599,21.8521,-8.6518,0,6.6821,8.26282,-2.42615,16.4939,34.8171,-37.6524,-38.4113,0.704136,-8.81846,-48.2622,24.4817,-3.68902
740.609,21.7169,-8.82675,0,6.2055,8.58615,-1.96392,14.6341,40.7012,-42.378,-38.2868,0.962798,-8.78014,-56.0976,31.0671,-0.701219
740.619,21.4765,-8.9797,0,5.66183,8.77296,-1.94955,12.439,39.8171,-47.2256,-38.4688,1.24062,-8.54064,-66.311,34.6646,3.93293
740.629,21.1482,-9.08318,0,5.10379,8.89989,-1.80584,8.62805,37.9878,-50.5488,-38.7945,1.27894,-7.83171,-74.6037,36.311,8.53659
740.639,20.7032,-9.12437,0,4.43558,9.48907,-1.62861,4.26829,38.689,-53.3841,-39.8867,1.32684,-6.99825,-83.2927,34.6951,12.1341
740.649,20.1024,-9.13946,0,3.59492,10.6075,-1.57353,1.12805,42.4695,-57.2561,-40.9021,0.819097,-6.72042,-88.689,35.3354,14.8171
740.659,19.3518,-9.14826,0,2.70158,11.0291,-1.79626,1.76829,44.3293,-63.6585,-42.0901,0.397573,-6.79707,-88.4451,38.0183,17.5305
740.669,18.4932,-9.14142,0,1.95194,10.7848,-1.50647,2.56098,39.3293,-69.0549,-42.8756,-0.215552,-6.61504,-88.4451,41.4024,21.1585
740.679,17.6666,-9.09449,0,2.23695,10.8279,-0.977168,1.31098,30.3963,-70.4268,-43.7953,-1.1065,-5.95402,-84.7561,43.2927,23.7195
740.689,16.9969,-9.02132,0,3.52068,11.3548,-0.450264,-5.57927,20.2134,-67.439,-45.0791,-2.13157,-5.56124,-76.2805,43.2622,27.8659
740.699,16.4826,-8.91887,0,4.70621,11.453,-0.177231,-8.23171,10.5488,-63.3841,-46.8035,-3.19496,-5.11097,-65.9451,40.8232,26.7378
740.709,16.0969,-8.80586,0,5.46543,11.0722,-0.385598,-4.66463,9.29878,-59.3293,-47.5986,-4.00926,-4.88105,-50.7012,42.4695,22.439
740.719,15.7246,-8.69712,0,5.07026,11.0243,-0.855022,-0.0304878,12.1037,-55.5488,-47.8764,-5.23551,-4.89063,-36.311,45.8841,15.8537
740.729,15.3229,-8.4987,0,4.24158,11.1225,-1.54958,2.86585,16.0976,-51.4939,-47.407,-5.30257,-2.85007,-21.25,49.7256,7.43902
740.739,14.8581,-8.26171,0,3.08958,11.1943,-2.36867,3.87195,15.4878,-47.6524,-46.3724,-5.08223,-1.83458,-9.11585,50.2439,2.62195
740.749,14.3448,-7.97822,0,2.12678,10.95,-3.19017,2.62195,11.2805,-44.4817,-45.4239,-4.61281,-0.675395,-2.2561,50.7012,-0.853659
740.759,13.7362,-7.64211,0,0.881367,10.2435,-3.26681,-1.61585,4.48171,-42.8659,-43.939,-4.22002,0.579595,-0.884146,49.7561,-0.579268
740.769,13.0316,-7.2959,0,-0.150886,9.35016,-2.82852,-5.7622,-1.85976,-41.9817,-42.1763,-3.69312,0.972378,-0.396341,44.5122,-0.304878
740.779,12.2137,-6.89741,0,-1.09213,8.79212,-2.15312,-7.71341,-9.69512,-42.4085,-40.6626,-3.07042,2.09325,-2.13415,36.311,2.86585
740.789,11.303,-6.43646,0,-1.85375,8.52148,-1.56155,-7.92683,-22.2561,-42.9573,-39.8388,-2.18905,3.39614,-4.2378,26.25,1.61585
740.799,10.3786,-5.88793,0,-2.12199,8.62446,-1.36516,-9.78659,-39.7561,-43.0488,-39.5897,-0.972378,5.19719,-12.7744,12.8049,-1.15854
740.809,9.51381,-5.27368,0,-1.78189,8.6101,-1.36037,-13.2622,-57.1037,-43.2012,-39.5705,-0.292192,6.69168,-24.0244,-5.06098,-6.25
740.819,8.72497,-4.66232,0,-1.27415,8.7538,-1.65496,-16.6463,-68.7805,-44.1768,-39.5514,0.560435,7.01741,-39.2073,-20.9146,-12.1646
740.829,8.00411,-4.0764,0,-0.835862,8.93821,-2.04535,-17.5305,-74.1159,-44.8476,-39.1969,1.06818,6.89287,-54.4512,-32.3476,-15.7012
740.839,7.368,-3.53988,0,-0.294587,9.23999,-2.7878,-16.7988,-73.1402,-44.8476,-38.4113,1.31726,6.27016,-71.7988,-40.6402,-17.7744
740.849,6.81887,-3.07538,0,0.352068,9.41961,-3.49194,-16.9817,-66.5854,-45.3659,-38.258,1.4897,5.36963,-88.2012,-40.4878,-15.3963
740.859,6.43066,-2.70299,0,1.42025,9.17292,-3.74581,-16.7683,-54.9695,-43.6585,-38.0377,1.02986,4.0859,-105.488,-39.878,-13.628
740.869,6.26464,-2.41694,0,3.13269,8.91666,-3.40093,-13.2927,-32.439,-43.3232,-38.5742,0.340093,2.91713,-118.872,-39.5732,-11.5244
740.879,5.92234,-2.19722,0,1.88009,9.56092,-3.25004,-12.4085,-19.0244,-44.8476,-38.967,-0.847837,1.99745,-128.78,-39.7866,-11.6159
740.889,5.56577,-2.08219,0,1.75076,8.92384,-2.88839,-10.3659,-5.03049,-46.9512,-39.3119,-1.92081,0.359253,-132.226,-37.1951,-14.5122
740.899,5.22987,-2.01259,0,2.04774,8.92145,-3.17101,-7.31707,2.59146,-49.2988,-39.7046,-3.39614,-0.340093,-132.195,-33.5671,-18.872
740.909,4.85202,-1.99709,0,1.55916,8.64363,-2.72793,-7.7439,10.4573,-48.75,-39.8675,-5.13971,-1.23104,-129.817,-29.8171,-25.3659
740.919,4.49302,-1.9669,0,1.46336,8.33946,-2.76625,-2.92683,22.1341,-47.0427,-39.8771,-6.55756,-0.962798,-124.97,-29.9695,-31.311
740.929,4.18668,-1.91275,0,1.55916,8.34425,-2.97701,3.96341,30.2134,-43.689,-40.1453,-7.62095,-0.531694,-121.799,-32.1951,-37.4085
740.939,3.90841,-1.88715,0,1.5879,8.61728,-3.21172,7.2561,29.5732,-41.1585,-40.5573,-8.47358,-1.02028,-116.25,-35.2744,-45.3049
740.949,3.64964,-1.88994,0,1.6358,8.86876,-3.32429,7.86585,27.0732,-39.7561,-40.2794,-9.26873,-1.50886,-109.482,-37.9268,-50.9756
740.959,3.40128,-1.91185,0,1.65496,9.13939,-3.24765,7.95732,25.7927,-38.8415,-39.5226,-9.37411,-1.825,-100.762,-40.5183,-55.1524
740.969,3.12202,-1.93157,0,1.33882,9.34058,-3.05125,8.10976,23.9329,-38.2012,-39.0532,-8.96216,-1.78668,-92.8963,-42.378,-55.7317
740.979,2.81046,-1.96858,0,0.931663,9.41722,-2.78541,7.10366,20.6402,-36.9512,-38.1143,-8.39694,-2.05493,-84.7561,-44.4512,-53.689
740.989,2.45969,-2.00995,0,0.445474,9.52978,-2.42136,5.36585,15.061,-35.5183,-37.4725,-7.56347,-2.12199,-79.4817,-46.0061,-49.0854
740.999,2.13101,-2.04268,0,0.392783,9.55613,-2.22737,4.60366,9.02439,-33.3232,-37.6449,-7.27607,-2.01661,-73.0793,-46.4329,-46.128
741.009,1.83729,-2.09968,0,0.455054,9.49865,-2.14833,3.04878,2.43902,-31.2195,-38.1143,-6.86413,-2.47645,-67.439,-47.5915,-44.5732
741.019,1.58807,-2.14896,0,0.58199,9.33339,-2.02858,0.640244,-3.90244,-28.9634,-38.4305,-6.35638,-2.40939,-61.2195,-49.1463,-44.5427
741.029,1.37442,-2.17947,0,0.704136,9.25436,-2.07169,-0.884146,-9.2378,-27.439,-38.4592,-5.30257,-2.13157,-58.872,-51.128,-43.5671
741.039,1.18169,-2.2091,0,0.773591,9.137,-2.10283,-1.82927,-12.7744,-26.7378,-38.1718,-4.38289,-2.13157,-59.4512,-54.2378,-42.2256
741.049,0.988547,-2.213,0,0.735271,9.14658,-2.24413,-3.2622,-15.8841,-26.6768,-37.7311,-3.85598,-1.71004,-61.25,-58.0488,-39.878
741.059,0.792557,-2.22667,0,0.694556,9.09868,-2.3567,-4.93902,-18.1707,-26.8902,-37.2713,-3.16622,-1.87291,-67.9573,-64.3598,-33.2317
741.069,0.572061,-2.26362,0,0.486189,9.08431,-2.44531,-6.64634,-20.2439,-27.1341,-36.821,-2.71595,-2.24653,-74.3902,-66.9817,-29.2683
741.079,0.329758,-2.29416,0,0.308958,9.0891,-2.5483,-7.86585,-22.0122,-27.5305,-36.7061,-2.53393,-2.16031,-81.2805,-67.3781,-24.3902
741.089,0.072711,-2.35426,0,0.239502,9.20646,-2.52675,-7.34756,-21.4634,-28.5976,-36.6582,-2.57225,-2.65847,-90.4268,-67.8659,-18.9329
741.099,-0.215666,-2.44232,0,0.0383203,9.36932,-2.61057,-7.07317,-21.0671,-29.7561,-36.5049,-2.94587,-3.13748,-99.2683,-67.5915,-15.3963
741.109,-0.523086,-2.56542,0,-0.0670605,9.40285,-2.62255,-7.89634,-19.1463,-30.9756,-36.2271,-3.2237,-3.73144,-106.006,-66.6159,-12.1037
741.119,-0.810941,-2.68395,0,0.0718506,9.32381,-2.73751,-9.02439,-16.0061,-31.3415,-36.1313,-3.559,-3.73144,-111.86,-68.2622,-7.80488
741.129,-1.06553,-2.83912,0,0.356858,9.26633,-2.74709,-9.60366,-12.378,-32.1341,-36.2271,-4.29667,-4.41163,-115.732,-68.8415,-5.06098
741.139,-1.29482,-2.99127,0,0.62989,9.2328,-2.72793,-9.90854,-8.01829,-33.5366,-35.978,-5.00559,-4.43079,-119.634,-68.5671,-1.12805
741.149,-1.49079,-3.14696,0,1.06578,9.36932,-2.77343,-9.26829,-3.47561,-35.8841,-35.9301,-5.18761,-4.57449,-120.793,-67.2561,2.7439
741.159,-1.69939,-3.31318,0,1.20948,9.26154,-2.73272,-9.57317,1.18902,-39.5122,-35.8055,-6.19352,-4.82357,-121.341,-66.2805,7.5
741.169,-1.92007,-3.52497,0,1.24062,9.15376,-2.61536,-9.45122,6.25,-41.7378,-36.3037,-6.88329,-5.73368,-119.848,-63.3537,10.3659
741.179,-2.15273,-3.76313,0,1.2023,9.04599,-2.65608,-9.20732,10.8537,-43.1098,-36.1887,-7.14195,-6.27974,-116.433,-61.6463,12.6829
741.189,-2.41089,-4.04586,0,0.974773,8.91187,-2.6441,-7.9878,14.7256,-43.4756,-35.7193,-7.23775,-7.05573,-112.378,-54.8171,16.311
741.199,-2.67464,-4.32638,0,0.869392,8.93821,-2.56986,-6.0061,17.7134,-43.1707,-35.7097,-7.60179,-7.18027,-106.22,-48.3537,18.2927
741.209,-2.9459,-4.64004,0,0.735271,9.1346,-2.49801,-4.02439,19.5732,-42.5305,-35.384,-7.52515,-7.81255,-97.9573,-41.128,19.5427
741.219,-3.22326,-4.95008,0,0.58678,9.34537,-2.46448,-2.89634,19.1159,-41.6463,-35.0104,-7.18985,-7.85087,-90.061,-34.2988,22.7439
741.229,-3.47796,-5.245,0,0.670605,9.55373,-2.4022,-3.17073,16.8293,-40.7622,-35.202,-6.87371,-7.83171,-82.4695,-29.3598,27.378
741.239,-3.70351,-5.50212,0,0.780776,9.69264,-2.40939,-4.54268,12.5305,-39.5122,-35.6714,-6.78749,-7.49641,-76.5854,-26.311,31.5549
741.249,-3.86352,-5.6982,0,1.18074,9.63756,-2.42136,-6.52439,7.59146,-38.1402,-35.8151,-6.88329,-6.6821,-70.7012,-23.1402,36.311
741.259,-3.97432,-5.8632,0,1.46815,9.69264,-2.38065,-9.42073,3.75,-36.7683,-36.4282,-6.5863,-6.40428,-66.4329,-21.4634,41.6463
741.269,-4.02883,-6.01032,0,1.78668,9.57529,-2.27048,-11.3415,1.28049,-35.2439,-37.2234,-7.21859,-6.33722,-63.5671,-16.8598,43.3537
741.279,-4.06561,-6.15835,0,1.7795,9.4723,-2.24892,-11.7073,-1.28049,-33.689,-37.8461,-7.15153,-6.5384,-57.8049,-10.7927,44.4207
741.289,-4.0926,-6.26833,0,1.72441,9.33579,-2.31119,-10.7927,-3.71951,-32.4085,-38.6221,-6.82581,-6.08814,-51.8293,-4.54268,44.0549
741.299,-4.12526,-6.36514,0,1.46815,9.18729,-2.52914,-9.45122,-6.43293,-30.2134,-39.4364,-6.79707,-6.04024,-48.5366,1.0061,44.4817
741.309,-4.16957,-6.4371,0,1.16877,9.05078,-2.71595,-9.11585,-9.5122,-27.9573,-39.8962,-6.69168,-5.7241,-44.2683,3.53659,42.2561
741.319,-4.19855,-6.47858,0,1.0562,8.88313,-2.95066,-9.60366,-11.4024,-25.3049,-39.7621,-6.73958,-5.20677,-42.8963,4.90854,40.0915
741.329,-4.22302,-6.4849,0,0.907712,8.82565,-3.08239,-11.2805,-11.6463,-23.0488,-39.5035,-6.4905,-4.58407,-41.8598,3.87195,37.9573
741.339,-4.23577,-6.50932,0,0.855022,8.89271,-3.0776,-13.8415,-11.189,-21.128,-38.8328,-6.2031,-4.82357,-44.6341,4.20732,34.4207
741.349,-4.23978,-6.59051,0,0.768801,9.02204,-2.90995,-16.3415,-10.8232,-18.9939,-38.0377,-6.45218,-5.69536,-45.6707,8.90244,29.3598
741.359,-4.24592,-6.77268,0,0.641865,9.1825,-2.74709,-17.8963,-10.4268,-17.439,-37.1563,-6.57672,-7.28565,-45.6098,19.5732,22.5
741.369,-4.24722,-7.11441,0,0.534089,9.36692,-2.49801,-17.8049,-10.061,-15.4573,-36.2366,-7.23775,-9.86269,-40.9146,35.7012,15.5793
741.379,-4.24905,-7.55049,0,0.378413,9.69983,-2.37586,-16.9512,-10.2439,-13.4146,-35.6427,-7.97542,-11.4817,-28.0488,54.7561,9.78659
741.389,-4.22709,-7.96398,0,0.383203,10.0567,-2.42615,-16.3415,-10.6707,-10.8841,-36.4091,-9.0388,-11.5775,-11.4024,71.1585,4.48171
741.399,-4.17373,-8.26265,0,0.435894,10.2794,-2.71595,-15.9451,-11.3415,-8.14024,-38.1335,-10.1693,-10.3034,7.77439,78.0488,-1.21951
741.409,-4.06192,-8.48597,0,0.723296,10.4159,-3.04886,-15.8537,-11.9817,-5.27439,-40.6052,-11.338,-9.73815,23.1098,84.0244,-4.60366
741.419,-3.8858,-8.6692,0,1.09213,10.5692,-3.40093,-16.0671,-12.3476,-2.92683,-42.9044,-12.3152,-9.62319,35.7622,95.1829,-11.9207
741.429,-3.62394,-8.81068,0,1.49928,10.7536,-3.84401,-17.622,-12.6524,-0.914634,-44.8875,-12.0469,-9.29747,44.1463,109.055,-17.1646
741.439,-3.31457,-8.84746,0,1.98308,10.9285,-4.03561,-20.8232,-13.4451,1.52439,-46.085,-10.3417,-7.42935,49.0549,117.5,-19.8476
741.449,-2.95044,-8.79508,0,2.45729,10.8686,-3.91586,-25.3354,-14.2988,4.26829,-46.5927,-8.58854,-5.66662,48.7805,119.299,-16.128
741.459,-2.49163,-8.67263,0,3.01293,10.5908,-3.44164,-28.7195,-13.5366,8.38415,-46.5161,-6.96951,-4.1817,47.2561,114.36,-7.80488
741.469,-1.94566,-8.49382,0,3.49194,10.3273,-2.98659,-30.2744,-12.439,12.5,-46.5161,-4.93853,-2.94587,43.3232,107.774,0.640244
741.479,-1.28836,-8.28644,0,4.02603,9.99442,-2.29443,-29.9085,-9.45122,18.3232,-47.3974,-3.09916,-2.27527,35.9451,102.744,9.48171
741.489,-0.537914,-8.0491,0,4.36852,9.87467,-1.79626,-27.3171,-3.29268,25.2439,-48.8344,-1.18314,-1.52802,28.4146,101.189,8.44512
741.499,0.299668,-7.94537,0,4.64873,10.0591,-1.67412,-24.7866,4.57317,33.75,-45.5102,-2.10283,-3.91346,18.2012,104.055,7.89634
741.509,1.24377,-7.61342,0,4.9553,10.083,-1.61424,-23.5061,13.5976,43.5366,-49.8212,1.5855,0.799937,17.8963,97.5,2.28659
741.519,2.27075,-7.28447,0,4.60802,10.0591,-1.44899,-22.7134,21.4024,57.1037,-46.9568,-0.349673,0.962798,4.17683,97.2256,-9.11585
741.529,3.36606,-6.93482,0,4.43558,10.016,-1.59748,-25,25.8232,67.6524,-44.83,-0.550855,1.55676,-8.93293,89.6646,-17.9573
741.539,4.56173,-6.5454,0,4.66071,9.80281,-1.30768,-28.6585,29.4512,76.9817,-42.6266,-1.04902,2.43813,-22.622,75.7012,-24.9695
741.549,5.77784,-6.11008,0,3.86077,9.53457,-0.809517,-32.2866,31.189,88.4146,-40.5668,-1.96871,3.35782,-30.6707,57.378,-26.6768
741.559,7.0057,-5.66471,0,3.11592,9.20885,-0.256267,-36.3415,35.122,98.9329,-39.1011,-2.36149,3.64522,-31.7378,38.2927,-23.3537
741.569,8.21322,-5.16602,0,2.14594,8.43526,0.0359253,-35.0305,38.9024,108.384,-38.5071,-3.08958,4.73735,-27.0732,17.1646,-16.6159
741.579,9.39958,-4.67385,0,1.41785,8.02811,-0.0694556,-31.4329,37.8049,117.378,-38.0185,-3.68354,4.83315,-15.122,-3.53659,-8.10976
741.589,10.5495,-4.22904,0,0.821492,7.43893,-0.684976,-22.7439,38.628,123.659,-36.7635,-4.67029,4.16254,-1.06707,-19.9695,0.701219
741.599,11.5988,-4.10789,0,-0.0167651,7.23775,-1.42983,-11.0061,45.3659,128.872,-33.6692,-6.46176,-0.771196,4.60366,-28.7805,11.2195
741.609,12.6086,-3.60766,0,-0.469424,7.49881,-1.90165,-3.75,49.1768,134.024,-39.6184,-3.82724,5.80074,32.2256,-39.2988,13.5366
741.619,13.5819,-3.28153,0,-0.65384,7.64011,-2.18186,2.89634,52.1341,135.03,-37.7503,-4.87147,2.93629,52.3171,-36.4329,12.0122
741.629,14.5162,-3.03952,0,-0.821492,9.03162,-2.36628,8.32317,52.0427,133.659,-37.712,-4.97685,1.74836,57.622,-35.4268,6.15854
741.639,15.4545,-2.82253,0,-0.823887,11.2326,-2.22018,9.39024,43.1402,133.933,-39.1873,-4.06674,1.54718,60.1524,-36.189,-0.670732
741.649,16.3584,-2.68903,0,-1.0562,13.3403,-1.89207,8.84146,25.2744,133.018,-39.3598,-2.25611,0.253872,61.9512,-36.189,-5.12195
741.659,17.2059,-2.58065,0,-0.764011,15.0431,-2.16031,13.5671,3.5061,125.793,-39.5897,-0.349673,-0.0814307,59.4512,-33.4756,-2.19512
741.669,17.9956,-2.48701,0,-0.0574805,15.5868,-3.18298,16.4024,-18.4451,116.128,-39.8579,1.78668,-0.253872,51.0061,-30.0915,4.7561
741.679,18.7841,-2.42366,0,1.14003,14.4707,-3.69791,14.0854,-31.2805,107.988,-39.8675,3.07042,-0.704136,40.8232,-25.1829,14.6341
741.689,19.6004,-2.34994,0,1.97589,12.3248,-3.16861,15.5488,-28.3841,103.049,-39.9537,3.63564,-0.474214,29.0244,-23.811,25.7317
741.699,20.4406,-2.29828,0,2.39741,10.7584,-2.22018,22.7439,-15.1829,100.091,-39.3214,4.43079,-0.809517,15.5793,-27.1037,36.4024
741.709,21.2448,-2.22922,0,2.35191,10.3513,-1.41306,28.8415,-3.65854,97.6524,-39.4651,4.24876,-0.483794,2.65244,-29.9085,43.6585
741.719,21.9822,-2.18177,0,2.23455,10.4878,-0.960403,32.9268,2.65244,94.0549,-39.6472,3.67396,-0.828677,-8.9939,-33.5976,48.4451
741.729,22.6728,-2.148,0,2.64889,10.7081,-0.819097,35.2439,12.9573,86.9817,-39.8388,3.19496,-1.0586,-18.7805,-39.0244,51.0976
741.739,23.229,-2.12993,0,1.93518,10.8806,-0.699346,38.2927,25.0915,82.439,-40.0112,2.60099,-1.33642,-27.2561,-44.7256,52.3171
741.749,23.7744,-2.10936,0,2.33993,10.2914,-0.941243,41.25,45.4878,76.9207,-40.1549,1.85375,-1.30768,-35.3049,-51.4634,52.1341
741.759,24.2301,-2.10723,0,2.17707,9.7621,-0.922083,44.6646,63.8415,69.3598,-40.2794,1.19272,-1.65256,-41.311,-59.3293,50.6402
741.769,24.6074,-2.11005,0,2.03577,9.63277,-0.905317,45.9451,79.8781,63.5976,-39.8771,1.04902,-1.73878,-44.3902,-64.3293,51.0366
741.779,24.9329,-2.14658,0,2.15791,9.35495,-0.850232,46.9207,95.061,56.9207,-39.034,0.780776,-2.29443,-48.3232,-66.9512,50.6707
741.789,25.1966,-2.1872,0,2.17228,8.80409,-0.61073,46.5854,105.884,49.5122,-38.2964,0.483794,-2.35191,-51.8293,-69.1159,51.0671
741.799,25.3845,-2.24061,0,2.00703,8.44963,-0.332908,47.8049,112.805,43.3232,-37.6832,0.273032,-2.55309,-55.8537,-68.689,51.5549
741.809,25.5319,-2.3124,0,2.12917,8.04966,-0.292192,50.8537,112.439,36.6159,-37.1084,-0.359253,-2.85007,-58.3841,-68.3841,50.8841
741.819,25.5992,-2.40737,0,1.80824,8.02332,-0.878972,55.7012,107.5,33.0488,-36.6486,-0.560435,-3.23328,-56.0671,-66.9207,49.5427
741.829,25.6301,-2.54823,0,1.73399,7.81016,-1.48491,60.7927,100.152,29.8476,-36.2366,-1.09692,-3.9901,-52.7744,-64.4817,47.4695
741.839,25.5721,-2.71016,0,1.40588,8.0305,-1.95194,62.561,91.0671,26.128,-36.1696,-1.31726,-4.40205,-49.1463,-60.9756,42.9573
741.849,25.4037,-2.90522,0,0.905317,8.54303,-2.04056,59.3293,81.7073,22.6524,-35.9397,-1.96871,-4.99601,-43.1707,-56.1585,37.9573
741.859,25.1237,-3.13521,0,0.311353,8.87594,-1.85375,54.0549,71.25,19.1768,-35.9971,-2.59141,-5.68578,-35.1829,-53.1098,33.1402
741.869,24.7597,-3.38965,0,-0.0622705,9.05317,-1.5376,47.9573,60.9146,14.939,-35.5948,-2.59141,-6.14562,-27.3476,-47.561,27.8354
741.879,24.297,-3.6604,0,-0.704136,8.56699,-1.08255,39.4512,49.7866,12.8963,-35.7002,-2.90755,-6.5863,-18.0488,-45.6707,23.2317
741.889,23.8388,-3.94548,0,-0.998723,9.06275,-0.57241,37.9573,36.8293,15.6707,-35.5373,-3.11832,-6.95035,-8.04878,-41.7988,18.1707
741.899,23.4806,-4.2271,0,-0.294587,8.23887,-0.589175,32.7134,22.5,16.2805,-35.4415,-3.49194,-7.04615,1.15854,-37.8354,11.1585
741.909,23.0318,-4.51798,0,-0.673001,7.69759,-0.495769,29.0549,7.19512,12.3171,-35.2595,-3.81766,-7.33355,8.75,-35.7012,4.29878
741.919,22.3768,-4.80995,0,-0.574805,7.8389,-0.344883,30.0305,-11.8293,3.93293,-34.9817,-3.6548,-7.45809,15.4573,-29.1463,-3.81098
741.929,21.8802,-5.09295,0,0.196392,8.10714,-0.694556,26.311,-33.4756,-5.12195,-34.8954,-3.20454,-7.46767,20.8537,-24.8171,-12.1951
741.939,21.5133,-5.36893,0,1.21188,7.77663,-0.366438,18.2927,-48.75,-10.8537,-34.8475,-2.85007,-7.51557,24.1463,-21.9207,-18.2317
741.949,21.3122,-5.65367,0,2.56028,7.91554,-0.0910107,12.1951,-61.372,-13.2012,-34.905,-2.33275,-7.83171,26.6159,-17.5,-26.5244
741.959,21.1795,-5.94661,0,3.03209,7.77184,-0.160466,7.56098,-75.6707,-13.5366,-35.5469,-2.03577,-8.28198,26.8902,-12.9878,-32.2256
741.969,21.1235,-6.21844,0,3.56139,7.41498,-0.402363,7.56098,-90.2744,-14.8476,-36.1313,-1.32684,-8.24366,24.8476,-8.38415,-37.0732
741.979,21.1565,-6.4811,0,4.64634,7.29044,-1.04902,8.9939,-98.6585,-19.878,-36.8689,-0.742456,-8.42568,23.1098,-4.32927,-40.7012
741.989,21.1456,-6.72566,0,4.62239,7.57784,-1.55197,6.18902,-106.677,-21.9817,-37.6545,0.0239502,-8.45442,22.7744,0.457317,-42.8354
741.999,21.1822,-6.95144,0,5.01996,7.55629,-2.17228,3.41463,-118.841,-21.6768,-38.4401,1.1065,-8.45442,18.1707,4.69512,-43.3841
742.009,21.316,-7.1467,0,5.69536,7.46049,-2.57465,3.10976,-133.354,-19.3598,-39.3693,1.87291,-8.25324,16.25,8.56707,-39.7866
742.019,21.4999,-7.31888,0,6.80904,7.87003,-2.56746,2.89634,-148.841,-21.128,-39.6855,1.78668,-8.02332,12.4085,13.1402,-38.3232
742.029,21.7549,-7.47442,0,8.17181,8.20055,-2.53393,1.58537,-158.232,-21.7378,-39.8771,1.73878,-7.86045,6.52439,19.3598,-37.7439
742.039,22.1125,-7.58518,0,9.8579,8.01613,-2.38304,1.40244,-149.299,-22.9573,-39.9441,1.27894,-7.16111,-0.97561,21.6768,-38.1707
742.049,22.5818,-7.7044,0,10.9261,7.47246,-2.52675,4.96951,-125.64,-20.5183,-39.6759,0.943638,-7.34313,-3.29268,22.3171,-35.2439
742.059,23.1275,-7.85452,0,11.5392,7.28325,-3.34105,12.6829,-92.2256,-16.0671,-39.6951,0.330513,-7.98499,-5.06098,24.5427,-32.0732
742.069,23.6817,-7.96393,0,11.4386,7.38385,-4.48587,20.1524,-58.4146,-12.8963,-39.7046,-0.196392,-7.34313,-9.54268,28.1402,-25.1524
742.079,24.1646,-8.09853,0,10.8183,7.86045,-5.65704,20.3049,-25.6402,-12.5915,-39.1011,-0.704136,-7.74549,-13.4146,31.9817,-20.3354
742.089,24.4917,-8.26728,0,9.25196,8.1742,-5.94683,14.6341,3.41463,-16.372,-38.67,-0.637075,-8.34904,-18.6585,35.6402,-14.4207
742.099,24.6252,-8.45708,0,7.77663,8.46639,-5.0966,9.84756,28.9024,-23.2622,-37.9611,-0.253872,-8.66518,-25.9451,40.8232,-9.69512
742.109,24.5482,-8.65794,0,6.44021,8.64123,-3.90628,7.0122,49.9085,-32.5,-37.5204,0.445474,-8.86636,-32.8963,47.1951,-3.87195
742.119,24.3084,-8.83018,0,5.46064,8.54543,-2.81175,3.93293,61.4939,-40.8537,-37.3,0.924478,-8.42568,-42.6524,56.311,0.0609756
742.129,23.8944,-8.91282,0,4.70861,9.21125,-1.98068,-0.0304878,68.811,-47.8963,-38.3538,1.78668,-7.19943,-52.0427,57.7134,5.73171
742.139,23.2772,-8.95776,0,3.91825,10.1429,-1.79147,-2.59146,73.3232,-57.3171,-40.1166,2.86923,-6.89287,-58.6585,60.2439,12.9573
742.149,22.4518,-8.98177,0,2.88839,10.6411,-2.20102,-1.64634,71.2195,-67.7134,-42.5691,3.28118,-6.92161,-62.0122,66.4634,22.1341
742.159,21.4858,-8.94119,0,1.9735,11.0818,-1.9256,-3.38415,61.4329,-73.3537,-45.4527,2.35191,-6.06898,-62.4085,71.0366,31.25
742.169,20.5559,-8.871,0,2.28245,12.2625,-1.3963,-9.35976,50.4268,-72.561,-48.8728,0.943638,-5.8199,-57.8049,76.3415,38.5061
742.179,19.7596,-8.7748,0,3.4129,13.7091,-0.986748,-17.6524,39.2073,-67.8354,-52.015,-1.24062,-5.50376,-49.878,81.1281,37.0427
742.189,19.1218,-8.68152,0,4.49306,13.8145,-0.876577,-19.4817,29.5427,-61.5244,-54.5633,-3.69312,-5.70494,-36.1585,91.0061,31.4634
742.199,18.5926,-8.55801,0,4.79004,12.9499,-0.677791,-11.7378,33.3537,-56.4024,-56.2973,-5.06307,-4.97685,-16.128,103.14,22.9573
742.209,18.0688,-8.38365,0,3.88233,11.9416,-0.902922,0.243902,41.9817,-52.2561,-56.5177,-6.251,-3.57816,2.92683,107.561,16.3415
742.219,17.3964,-8.18039,0,1.76034,11.4554,-1.3005,11.5244,48.5671,-49.5732,-54.4196,-7.77423,-2.61057,19.5122,101.921,12.8049
742.229,16.5356,-7.94761,0,-0.395178,11.2686,-1.7316,16.8293,43.811,-48.2317,-50.9516,-8.09038,-1.66214,38.2317,87.5915,17.1037
742.239,15.6047,-7.64212,0,-1.37714,11.0434,-1.98308,14.1159,32.0122,-46.7378,-46.8035,-7.53473,0.100591,52.0427,72.0122,23.7195
742.249,14.6464,-7.25326,0,-1.88009,10.3082,-1.97829,7.16463,14.1463,-44.8476,-41.956,-7.22817,1.81542,60.061,60.6098,31.5549
742.259,13.6329,-6.73127,0,-2.30161,9.29747,-1.45378,-1.55488,-9.54268,-45.1524,-38.7754,-6.59588,4.1817,63.2927,45.8537,30.3354
742.269,12.5063,-6.08478,0,-3.24525,8.78733,-0.914897,-10.7622,-40.5488,-45.7622,-37.2521,-4.99601,6.38512,58.4756,26.6463,23.2012
742.279,11.3644,-5.41547,0,-3.58055,8.72985,-0.828677,-20.7317,-78.9024,-45.4878,-35.1349,-5.30257,6.71084,47.4695,-0.701219,19.0549
742.289,10.2717,-4.65909,0,-3.22849,8.52387,-1.10889,-29.1159,-109.268,-45.9756,-33.7267,-2.39023,8.1766,40.4268,-11.6159,10.6402
742.299,9.30445,-3.95873,0,-2.33754,8.44484,-1.65256,-35.3354,-126.616,-46.1585,-35.4894,-0.464634,8.09996,22.5915,-34.3293,5.09146
742.309,8.46498,-3.41474,0,-1.56874,8.56459,-2.33275,-37.9268,-132.073,-45.4878,-34.3398,1.09692,5.80074,11.9207,-38.4756,5.33537
742.319,7.72051,-2.98648,0,-1.1999,8.88073,-3.10874,-36.3415,-134.695,-42.9878,-34.7805,1.61424,4.40205,4.7561,-37.6829,4.54268
742.329,7.29446,-2.68597,0,0.864602,8.6556,-4.232,-31.9207,-122.073,-39.3598,-35.9205,2.09325,2.78301,0.579268,-34.7561,4.90854
742.339,7.09661,-2.45068,0,2.61297,8.7993,-4.6152,-23.3232,-95.2134,-39.0549,-37.4342,1.99745,2.02619,-2.31707,-31.7988,5.67073
742.349,6.79777,-2.29508,0,2.28485,9.21843,-4.93374,-13.9329,-62.439,-44.4207,-38.4688,1.0107,0.895737,-3.75,-29.2378,3.29268
742.359,6.57294,-2.21239,0,2.81415,8.38736,-4.65831,-7.71341,-31.4634,-46.9207,-39.1681,-0.320933,-0.225132,-4.81707,-24.7256,0.426829
742.369,6.31597,-2.16114,0,2.76385,8.69871,-4.37331,-9.2378,-15.4878,-48.7805,-39.1107,-2.01661,-0.694556,-4.60366,-20.0305,-6.55488
742.379,6.01956,-2.15821,0,2.49322,8.59573,-2.84528,-10.6402,0,-50.3659,-38.8424,-4.20086,-1.47054,-1.98171,-16.372,-12.7439
742.389,5.6712,-2.18558,0,2.28485,8.62686,-2.59141,-3.29268,16.5854,-53.5366,-38.1431,-5.99234,-1.93997,-1.98171,-12.5915,-21.0061
742.399,5.23383,-2.22271,0,1.55676,8.66518,-2.63452,0.518293,24.2073,-53.8415,-37.5204,-7.13237,-2.08367,-1.4939,-11.1585,-27.0427
742.409,4.81978,-2.24609,0,1.46336,8.59812,-2.70637,1.61585,19.9695,-51.2805,-37.5874,-8.2245,-1.88249,-1.95122,-10.9451,-32.6524
742.419,4.45799,-2.30064,0,1.51126,8.78014,-2.85726,2.53049,11.8902,-47.0122,-38.0952,-8.81846,-2.44771,-0.640244,-10.6402,-36.4634
742.429,4.1432,-2.36078,0,1.62861,9.09149,-2.82612,2.13415,2.46951,-43.75,-38.3634,-9.04838,-2.59141,2.92683,-9.11585,-38.1402
742.439,3.90019,-2.40737,0,1.89207,9.22322,-2.84528,0.823171,-8.04878,-40,-38.2006,-9.24957,-2.39981,3.56707,-11.5854,-36.7378
742.449,3.71788,-2.46429,0,1.98068,9.15856,-2.82133,-1.70732,-17.9573,-35.5488,-38.3059,-8.78972,-2.62973,6.58537,-16.6768,-32.5915
742.459,3.59381,-2.55343,0,2.13157,9.05557,-2.80936,-2.95732,-23.0793,-32.1037,-38.1431,-8.14786,-3.20454,12.4085,-17.5915,-26.6768
742.469,3.50676,-2.65535,0,2.14833,8.943,-2.72553,-3.2622,-25.0915,-29.1159,-38.009,-7.02699,-3.47278,17.9268,-18.811,-19.4512
742.479,3.44245,-2.73039,0,2.11001,8.92384,-2.61297,-3.23171,-23.9634,-26.5549,-38.0281,-5.95402,-3.08958,23.9939,-19.0854,-16.6463
742.489,3.35981,-2.81744,0,1.78668,9.03401,-2.34951,-3.53659,-22.8659,-24.2378,-37.9611,-5.23551,-3.33866,27.3476,-19.7561,-14.6037
742.499,3.25342,-2.91035,0,1.48252,9.09389,-2.20821,-3.90244,-22.8049,-22.8963,-37.9898,-4.52659,-3.50152,30.6402,-20.6707,-15.1524
742.509,3.13955,-2.98623,0,1.33403,9.06036,-2.22976,-4.20732,-21.9512,-22.0732,-38.1622,-3.61648,-3.30034,31.1585,-23.5061,-17.5
742.519,2.99639,-3.06293,0,1.15679,9.09868,-2.34233,-3.68902,-20.5183,-22.9878,-38.0856,-2.98419,-3.3674,28.9939,-26.189,-18.3232
742.529,2.81133,-3.12564,0,0.802332,9.04838,-2.48843,-3.87195,-19.878,-23.1098,-37.8174,-2.37107,-3.16622,21.9207,-28.1402,-17.8049
742.539,2.6018,-3.20508,0,0.661025,9.13939,-2.5986,-5.27439,-20.0915,-24.0854,-37.415,-2.25611,-3.45362,13.9024,-28.689,-16.6768
742.549,2.37033,-3.29361,0,0.56762,9.35495,-2.62015,-5.88415,-21.7988,-25.3963,-36.7252,-1.88249,-3.58774,4.45122,-28.1098,-14.9085
742.559,2.12407,-3.40553,0,0.64905,9.50583,-2.62015,-6.46341,-23.8415,-28.2622,-35.9876,-1.62382,-3.95178,-7.10366,-29.6037,-11.5244
742.569,1.8294,-3.53875,0,0.395178,9.41243,-2.51717,-8.53659,-25.8841,-30.6402,-35.384,-1.67172,-4.28709,-19.5732,-27.9878,-7.5
742.579,1.50158,-3.6924,0,0.158071,9.14658,-2.52675,-10.9451,-27.561,-31.7378,-35.5852,-2.02619,-4.72777,-29.5122,-30.122,-2.59146
742.589,1.18186,-3.86486,0,0.177231,9.01246,-2.56746,-11.2195,-28.4451,-31.8598,-35.4511,-2.39981,-5.11097,-37.4695,-31.5854,2.28659
742.599,0.877094,-4.07308,0,0.289797,9.02683,-2.70877,-10.9451,-27.9573,-32.439,-35.2691,-2.76385,-5.76242,-44.6037,-31.5854,7.37805
742.609,0.579929,-4.27905,0,0.445474,9.02683,-2.89079,-11.0671,-23.2012,-34.2988,-35.1924,-3.42488,-5.84864,-49.2988,-32.622,10.6098
742.619,0.269847,-4.50896,0,0.404758,9.01964,-2.87163,-11.8598,-16.7073,-35.7012,-35.2116,-4.14338,-6.36596,-51.4024,-32.9268,13.9024
742.629,-0.0447393,-4.78217,0,0.376018,9.11305,-2.79738,-11.6159,-10.0915,-36.372,-34.9721,-4.67987,-7.15153,-51.3415,-30.0915,14.6037
742.639,-0.35302,-5.08065,0,0.481399,9.21364,-2.69919,-10.8841,-5.54878,-37.6524,-35.0583,-5.23551,-7.73591,-49.6037,-25.0305,18.3537
742.649,-0.673657,-5.3976,0,0.402363,9.27831,-2.61057,-10.8841,-3.90244,-38.5061,-34.8954,-5.39837,-8.16702,-45.4268,-17.8354,20.2744
742.659,-0.998661,-5.7049,0,0.366438,9.2328,-2.4046,-11.1585,-4.63415,-39.1768,-34.7901,-5.60914,-8.1766,-40.5488,-13.811,24.0244
742.669,-1.2762,-5.96666,0,0.689766,9.19209,-2.37586,-10.6707,-5.36585,-39.1159,-34.5122,-5.9157,-7.57305,-37.6829,-12.378,29.1159
742.679,-1.50571,-6.21626,0,1.06099,9.19927,-2.26329,-10.8537,-4.96951,-39.4512,-34.1673,-6.09772,-7.46767,-35.2134,-11.9207,33.7805
742.689,-1.68547,-6.45343,0,1.45138,9.14658,-2.28006,-11.0671,-4.14634,-39.8171,-34.2248,-5.88696,-7.43893,-32.1951,-11.6159,38.689
742.699,-1.81945,-6.6388,0,1.82021,9.05557,-2.39981,-11.128,-3.20122,-40.3049,-35.0966,-6.31806,-6.93119,-31.0366,-7.43902,43.2012
742.709,-1.93727,-6.79737,0,1.98787,8.97653,-2.57944,-10.6098,-2.59146,-41.2195,-35.7385,-6.70126,-6.73,-33.4756,-4.39024,43.9329
742.719,-2.06458,-6.95632,0,1.90165,8.84481,-2.71835,-9.5122,-1.95122,-41.7073,-36.639,-6.27016,-6.99825,-34.6951,-0.457317,43.2012
742.729,-2.23691,-7.13131,0,1.51126,8.78972,-2.76864,-8.10976,-1.61585,-41.7073,-37.5874,-5.90612,-7.54431,-33.2317,5.2439,42.8354
742.739,-2.43437,-7.31308,0,1.19511,8.82325,-2.89318,-7.16463,-2.56098,-40.4573,-38.1622,-5.44627,-7.87961,-31.311,11.189,41.2195
742.749,-2.61566,-7.47917,0,1.13763,8.86876,-3.10874,-7.68293,-3.93293,-38.3841,-38.9765,-5.60914,-7.87961,-28.1402,15.7927,38.9634
742.759,-2.76754,-7.61141,0,1.13763,9.01246,-3.11832,-8.53659,-6.98171,-35.5183,-39.8771,-5.9157,-7.55389,-23.0793,18.5976,35.3049
742.769,-2.85422,-7.76536,0,1.3484,9.15856,-3.06083,-10.3963,-9.08537,-31.5854,-40.1645,-6.28932,-8.09996,-20.6098,19.6646,29.2378
742.779,-2.90285,-7.91909,0,1.35558,9.31663,-2.97701,-12.0427,-11.189,-27.6829,-40.0112,-6.62462,-8.16702,-17.0427,22.3476,22.7134
742.789,-2.92504,-8.12915,0,1.26697,9.5202,-2.89079,-13.5671,-13.1707,-23.6585,-39.5705,-7.10363,-9.20166,-11.9817,26.8598,16.6463
742.799,-2.94848,-8.37912,0,0.924478,9.88185,-2.72314,-14.7866,-16.9817,-19.2683,-38.7754,-7.58263,-9.87227,-3.56707,31.7988,11.25
742.809,-2.95637,-8.70546,0,0.747246,10.2459,-2.65608,-16.8598,-21.0366,-15.3354,-38.076,-7.71675,-11.2039,5.36585,45.122,9.7561
742.819,-2.92664,-9.04236,0,0.799937,10.3585,-2.6441,-19.1159,-24.7256,-12.0122,-38.0569,-8.31072,-11.5775,14.9085,59.0854,10.3963
742.829,-2.83283,-9.35494,0,1.12805,10.2842,-2.72314,-20.6098,-24.8476,-9.17683,-38.5359,-8.90468,-11.4721,26.6159,72.2561,9.2378
742.839,-2.71597,-9.60763,0,1.13284,10.1836,-2.79259,-20.0305,-24.0244,-6.82927,-40.768,-9.26873,-11.1847,38.2622,79.6341,9.54268
742.849,-2.57595,-9.7982,0,1.12326,10.1405,-3.04407,-18.5671,-22.7744,-4.35976,-43.0577,-9.98723,-10.7249,47.0732,87.561,7.77439
742.859,-2.33546,-9.92297,0,1.41067,10.2052,-3.4153,-17.561,-21.372,-1.21951,-46.267,-9.85311,-10.2459,52.8659,93.4146,2.53049
742.869,-2.0581,-9.97448,0,1.71962,10.2818,-3.69312,-18.4451,-22.4085,3.87195,-48.4033,-8.78972,-9.19209,62.4695,95.1524,-0.0304878
742.879,-1.67506,-9.88009,0,2.16989,10.3417,-3.77216,-20.4573,-26.3415,10.7012,-50.5493,-7.41019,-6.32764,68.2927,92.1037,-0.640244
742.889,-1.16835,-9.70193,0,2.6441,10.2219,-3.54942,-22.561,-30.5488,18.689,-52.3599,-5.75284,-4.55533,72.6524,82.5915,-0.762195
742.899,-0.512441,-9.47208,0,3.26681,10.1333,-3.14466,-23.872,-32.4085,28.0793,-52.7814,-3.4153,-3.25244,76.189,75.0305,-0.27439
742.909,0.317486,-9.20555,0,3.99489,10.0399,-2.68242,-24.7866,-30.9146,39.3598,-52.8581,-0.522114,-2.25611,71.7683,60.122,3.68902
742.919,1.29435,-8.86005,0,4.46911,10.0998,-2.05493,-25,-27.378,51.6159,-51.536,1.52802,-0.138911,72.8659,65.9146,10.1829
742.929,2.39675,-8.46477,0,4.81399,10.2411,-1.60227,-24.4817,-21.6463,63.75,-50.8463,2.56267,1.23104,53.2927,53.5976,6.85976
742.939,3.62218,-8.04925,0,5.08942,10.2411,-1.1041,-24.7256,-13.1402,76.0061,-48.3554,3.4632,1.91123,39.5427,47.5305,0
742.949,4.95573,-7.55591,0,5.27383,9.78605,-0.55325,-26.25,-2.53049,85.6707,-45.1461,2.82133,3.62606,27.9878,37.0122,-11.0366
742.959,6.28497,-7.03119,0,4.91219,10.198,0.198787,-28.3537,9.45122,93.2622,-42.138,1.99745,4.30625,16.25,28.3537,-18.4756
742.969,7.56158,-6.46047,0,3.87275,10.2746,0.737666,-29.9695,19.5732,100.945,-39.925,0.541274,5.22593,7.31707,15.4573,-21.8598
742.979,8.75318,-5.93208,0,2.53393,10.016,0.941243,-31.2195,33.5976,108.049,-38.2101,-0.914897,4.62239,3.17073,3.01829,-23.1098
742.989,9.82275,-5.40296,0,1.1041,9.5226,0.467029,-27.0122,42.8354,113.506,-37.1276,-1.4897,4.81399,2.89634,-8.44512,-18.2927
742.999,10.7773,-4.73759,0,0.0311353,8.90229,-0.531694,-19.7866,45.9451,117.043,-35.2786,-5.10139,7.03657,7.10366,-24.0854,-11.0671
743.009,11.5668,-4.40172,0,-1.24302,8.59093,-1.27415,-12.5,46.8293,119.36,-36.8019,-3.76976,2.29443,20.5183,-35.6402,-2.16463
743.019,12.2353,-3.98252,0,-2.38783,8.91905,-1.49689,-7.95732,42.5305,122.409,-36.6199,-4.34457,3.8464,30.9146,-37.9878,5.73171
743.029,12.8888,-3.64359,0,-2.58183,9.59684,-1.3484,-6.92073,30.8537,122.378,-35.9684,-5.10139,2.76385,37.9573,-36.8293,11.8902
743.039,13.5827,-3.34112,0,-2.55549,10.8063,-1.22386,-7.34756,19.7256,124.268,-36.0642,-5.27383,2.39981,40.9756,-37.8963,17.0427
743.049,14.3704,-3.09532,0,-1.70525,11.8003,-1.27655,-9.96951,11.4024,124.878,-36.9264,-5.13013,1.71962,44.2988,-40.3354,19.8476
743.059,15.2125,-2.92622,0,-0.740061,12.4517,-1.1999,-11.9512,4.05488,122.195,-37.415,-4.53617,0.637075,47.0122,-40.3049,24.0244
743.069,16.0662,-2.79717,0,0.296982,12.8756,-1.1544,-12.1951,-6.40244,115.457,-38.1239,-3.45362,0.0910107,47.6829,-39.5427,27.1341
743.079,16.9138,-2.66692,0,1.19032,12.878,-1.4897,-11.9207,-11.5854,108.506,-38.4975,-1.00112,0.205972,48.5671,-37.5,32.2866
743.089,17.7592,-2.55669,0,2.37346,12.3104,-1.57832,-8.78049,-8.44512,98.5061,-39.3406,0.665815,-0.0431104,46.5549,-36.2195,39.9695
743.099,18.4464,-2.45837,0,1.68609,11.5967,-1.42025,-3.04878,-5.12195,89.4817,-39.8292,2.25611,-0.177231,43.5671,-36.5854,47.9268
743.109,19.168,-2.37433,0,2.51238,10.7441,-1.71244,3.5061,5.70122,84.4207,-40.0016,3.4632,-0.349673,39.2988,-33.2927,56.2195
743.119,19.8317,-2.3181,0,2.3567,10.4926,-1.46096,9.05488,15.9146,81.0061,-40.0591,4.21044,-0.771196,34.939,-30.0305,64.0244
743.129,20.3955,-2.27589,0,1.55676,10.3848,-1.14003,12.8963,22.378,80.6098,-40.1932,3.47278,-0.972378,31.7988,-26.9817,65.5793
743.139,20.9369,-2.268,0,1.3484,10.4064,-0.919688,16.0366,27.3476,81.7988,-39.8771,2.71595,-1.52802,29.9695,-23.7805,64.2073
743.149,21.493,-2.28462,0,1.5376,10.4231,-0.890947,19.5122,34.8171,82.3476,-39.3693,2.23695,-1.93039,28.0183,-24.1463,60.5183
743.159,21.9928,-2.30966,0,1.18314,10.5716,-0.958008,21.7073,38.2622,81.8293,-38.9478,1.13524,-2.07409,25.4573,-26.5549,57.6524
743.169,22.4614,-2.36193,0,1.1544,10.6387,-1.05141,21.7683,41.6159,80.061,-38.5646,0.225132,-2.54351,27.0122,-29.0549,53.1707
743.179,22.9036,-2.43988,0,1.3005,10.2387,-1.01309,21.4329,42.8049,76.189,-38.4975,-1.02028,-3.02251,28.2012,-32.0732,51.0671
743.189,23.2931,-2.51767,0,1.42983,9.67348,-0.701741,22.5915,43.0183,69.3293,-38.3059,-1.81542,-3.07042,31.9207,-36.0671,49.4512
743.199,23.6302,-2.59994,0,1.67172,9.43638,-0.701741,27.3476,42.8963,61.4329,-37.8844,-2.39023,-3.1758,37.561,-39.7256,48.4146
743.209,23.8283,-2.68419,0,1.06339,9.4244,-0.692161,28.4756,42.6829,55.3049,-37.8078,-2.71595,-3.2716,43.0183,-44.0854,49.2073
743.219,24.0065,-2.77107,0,1.18074,9.23999,-0.55804,29.2378,43.689,51.9512,-37.5012,-2.95545,-3.34824,50.3963,-45.2134,49.3598
743.229,24.1266,-2.86705,0,0.819097,8.95737,-0.56762,29.6341,43.0183,50.5793,-37.2521,-2.70637,-3.53984,56.4939,-47.1646,48.1402
743.239,24.2697,-2.95113,0,1.04902,8.55262,-0.579595,31.9817,43.689,49.5732,-37.2426,-2.33275,-3.40572,60.7622,-47.439,47.5305
743.249,24.4655,-3.05479,0,1.66454,8.38257,-0.886157,36.8902,43.3537,46.5854,-37.1755,-1.91123,-3.77934,65.1829,-47.6524,47.0122
743.259,24.5861,-3.16215,0,1.34361,8.42807,-1.28373,37.9573,40.5183,43.75,-36.9456,-1.346,-3.88472,70.2744,-47.8049,44.6951
743.269,24.6451,-3.27626,0,1.17356,8.18139,-1.50168,32.9573,31.25,39.5427,-36.8881,-0.828677,-4.05716,74.8476,-47.0122,43.5061
743.279,24.665,-3.41483,0,1.11847,8.32509,-1.45378,27.5915,21.7683,36.7073,-36.6007,-0.522114,-4.49785,76.7073,-46.5854,39.7256
743.289,24.6322,-3.57563,0,0.706531,8.30832,-1.60227,24.2683,12.0732,37.0732,-36.3708,-0.225132,-4.91937,78.9634,-45.9146,35.4878
743.299,24.581,-3.7354,0,0.684976,8.13349,-1.31726,21.6463,5.73171,35.2134,-36.4666,0.110171,-5.01517,80.0915,-44.5732,29.7866
743.309,24.5002,-3.91895,0,0.756826,8.26761,-1.13284,19.8171,-0.579268,31.25,-36.9935,0.234712,-5.58998,79.7866,-44.878,23.9024
743.319,24.4016,-4.09799,0,0.898132,8.66997,-1.07297,17.9573,-9.72561,27.8659,-37.2713,0.0622705,-5.6762,80.6402,-44.2988,14.1159
743.329,24.3141,-4.30728,0,1.13045,8.13349,-1.09931,16.3415,-18.872,24.7256,-37.3096,-0.148491,-6.30848,80.9451,-43.2012,6.4939
743.339,24.1638,-4.53349,0,0.965193,7.19224,-0.826282,15.8537,-25.9451,18.689,-37.4437,-0.0622705,-6.74917,79.6037,-40.061,-1.7378
743.349,23.9902,-4.74045,0,1.14721,7.44372,-0.914897,19.5122,-35.4878,13.7195,-37.5108,0.0526904,-6.57672,77.6524,-37.3171,-6.98171
743.359,23.6972,-4.96112,0,0.802332,7.79579,-1.11129,17.4695,-49.1463,7.37805,-37.415,0.158071,-6.92161,74.3598,-33.9329,-12.0122
743.369,21.9703,-5.17931,0,1.46336,7.8844,-1.02267,13.689,-58.7195,0.701219,-37.5491,-0.00479004,-7.04615,70.7012,-31.7378,-17.0122
743.379,21.8035,-5.38426,0,2.39502,7.77423,-0.998723,9.32927,-64.2378,-3.23171,-37.3288,0.167651,-6.91203,66.8902,-27.4085,-22.2256
743.389,21.7128,-5.59442,0,2.84049,7.69041,-1.17116,5.51829,-71.6159,-6.06707,-36.9839,0.292192,-7.06531,62.6524,-25.0305,-27.0427
743.399,21.5991,-5.81016,0,2.94348,7.89877,-1.43941,2.92683,-82.9573,-8.9939,-36.9072,0.301772,-7.26649,56.7683,-19.3598,-30.5183
743.409,21.5422,-6.03184,0,3.71228,7.84369,-1.66693,4.5122,-88.1707,-13.4146,-37.0414,0.550855,-7.52515,49.8476,-15.3049,-34.9085
743.419,21.4844,-6.22767,0,4.62478,8.02332,-1.90644,8.78049,-84.939,-23.0793,-37.1563,1.1065,-7.24733,46.9512,-12.0732,-38.4451
743.429,21.3576,-6.39494,0,4.40923,8.0305,-2.41178,6.92073,-90.8232,-27.8049,-37.6449,1.35558,-6.97909,43.3537,-10.3659,-40.3049
743.439,21.3111,-6.54733,0,4.92416,7.78142,-2.6465,3.87195,-99.0854,-27.1341,-38.2964,1.42264,-6.95035,41.7988,-8.75,-40.9146
743.449,21.4355,-6.6927,0,6.21268,7.50839,-2.67045,2.22561,-109.085,-24.6341,-39.0053,1.19272,-7.05573,38.4451,-7.10366,-42.9268
743.459,21.6732,-6.82502,0,7.597,7.597,-2.56746,4.29878,-115.396,-23.8415,-39.1777,0.914897,-6.94077,34.6951,-2.46951,-44.2683
743.469,21.9919,-6.9449,0,8.73943,7.75268,-2.74709,5.27439,-111.768,-22.0732,-39.6567,0.560435,-6.88329,30.7317,1.09756,-46.8598
743.479,22.3671,-7.04716,0,9.37171,7.67364,-2.97701,5.97561,-96.7683,-20.2744,-39.9441,0.177231,-6.69168,27.8049,3.44512,-46.0061
743.489,22.759,-7.15722,0,9.65672,7.67125,-3.21172,9.45122,-74.9085,-19.5427,-39.6184,0.301772,-6.84497,25.5183,4.84756,-44.7561
743.499,23.1421,-7.25013,0,9.63516,7.68801,-3.5566,13.5061,-49.1768,-19.3902,-39.4843,0.464634,-6.5863,21.6159,6.70732,-39.3598
743.509,23.4978,-7.33628,0,9.45075,7.80537,-3.88951,16.4024,-25.0915,-19.4207,-39.2352,0.522114,-6.4905,15.9146,6.58537,-31.5244
743.519,23.8064,-7.42068,0,9.06515,7.98979,-4.0883,15.0305,-4.72561,-19.7561,-38.6125,0.464634,-6.41386,9.96951,7.34756,-22.561
743.529,24.088,-7.54035,0,8.74661,7.89638,-3.90867,13.0488,15.1524,-20.4878,-38.1048,0.531694,-6.98867,3.71951,10.0305,-15.7622
743.539,24.338,-7.68579,0,8.34904,7.6928,-3.44883,12.2561,32.1951,-21.9512,-37.3671,0.934058,-7.35271,-5.97561,16.4329,-9.54268
743.549,24.5115,-7.85957,0,7.72873,7.70957,-3.04886,13.0488,44.878,-24.6037,-36.9743,1.94955,-7.83171,-16.7378,23.2012,-3.59756
743.559,24.5428,-8.0336,0,6.77791,7.91793,-2.68482,14.1159,51.7988,-29.5732,-36.7635,2.55309,-7.88919,-29.7866,28.811,1.40244
743.569,24.3707,-8.13331,0,5.69775,8.40891,-2.2106,14.2988,56.8293,-37.1037,-37.5683,3.5111,-6.88329,-44.0549,34.1159,6.46341
743.579,23.9294,-8.20423,0,4.59844,9.80281,-2.18905,10.4573,61.2195,-46.5854,-39.4172,4.00926,-6.76833,-57.561,36.5854,10.4878
743.589,23.2038,-8.31523,0,3.00096,10.7369,-2.85486,5.4878,59.1463,-57.0732,-41.3237,4.40205,-7.87961,-66.5244,42.7439,17.4695
743.599,22.2855,-8.40632,0,1.63819,10.4064,-2.90995,3.84146,47.0122,-64.6037,-43.3259,3.8943,-7.91793,-71.8598,52.3171,25.5183
743.609,21.3271,-8.44892,0,1.22864,10.1094,-2.08127,3.53659,27.7439,-66.4634,-45.2611,2.01661,-7.32397,-73.1402,58.6585,30.1829
743.619,20.5116,-8.45209,0,2.24653,10.7488,-1.16158,-0.0304878,15.7317,-63.7805,-46.4011,-0.225132,-6.71084,-74.3902,60.5183,30.1829
743.629,19.8202,-8.41214,0,3.37458,11.6542,-0.852627,-4.11585,9.11585,-61.6463,-46.7652,-1.67172,-5.8678,-75.1829,58.9024,25.5793
743.639,19.2044,-8.30916,0,4.05956,11.829,-0.464634,-2.04268,8.53659,-61.0366,-47.6274,-2.95545,-4.62239,-72.7744,54.2073,17.5
743.649,18.6171,-8.1698,0,4.26074,11.7931,-0.318538,4.05488,20.8841,-61.2805,-47.7136,-3.32908,-3.7985,-65.3963,48.1402,9.42073
743.659,18.0555,-8.01148,0,4.20565,11.8841,-0.59636,6.70732,39.0549,-59.0854,-47.2921,-3.85598,-3.26202,-56.9512,45.6707,3.10976
743.669,17.4887,-7.79864,0,3.54223,11.5464,-1.07057,8.17073,47.2256,-55.7927,-46.4394,-4.78525,-1.93997,-48.4756,49.3902,1.34146
743.679,16.9368,-7.50851,0,2.89797,11.1105,-1.61424,7.19512,47.1037,-50.4573,-45.5102,-4.86189,-0.177231,-41.4329,50.3354,-0.243902
743.689,16.3737,-7.19328,0,1.99984,11.0961,-2.19863,1.58537,39.7256,-43.75,-44.418,-5.23551,0.541274,-39.6951,49.7561,2.56098
743.699,15.7915,-6.87471,0,1.27655,10.7488,-2.53154,-5.45732,24.6037,-39.8171,-44.2935,-4.55533,0.838257,-37.2256,47.0122,4.81707
743.709,15.157,-6.47565,0,0.550855,9.78605,-2.33754,-10.2134,6.67683,-39.0854,-43.3546,-3.05125,2.60099,-31.6768,46.6463,7.34756
743.719,14.4042,-6.14344,0,-0.349673,9.04359,-1.7771,-13.9939,-10.5793,-41.372,-41.9176,-4.04758,1.55676,-29.6037,43.0793,8.2622
743.729,13.549,-5.69055,0,-1.11368,8.61968,-1.24302,-16.9207,-27.5915,-42.8354,-40.9979,-2.60099,3.91346,-32.7439,32.2561,7.04268
743.739,12.6361,-5.15106,0,-1.71723,8.75619,-0.850232,-20.0915,-47.1951,-42.8659,-39.8292,-1.12566,5.60914,-40.5793,16.8293,3.5061
743.749,11.724,-4.59568,0,-1.76992,8.81846,-0.814307,-22.0732,-62.8659,-44.1159,-39.6184,-0.177231,6.18394,-53.4146,-0.457317,0.121951
743.759,10.8524,-4.0358,0,-1.51365,8.75859,-1.32445,-20.6707,-73.2622,-45,-38.5838,0.464634,6.43302,-67.3476,-15.5183,-5.12195
743.769,10.0254,-3.52481,0,-1.3005,8.80409,-2.1148,-19.3902,-78.0488,-45.0915,-37.779,0.934058,5.81032,-82.4085,-25.1829,-9.81707
743.779,9.28244,-3.07491,0,-0.924478,8.92863,-3.10874,-18.1098,-76.4329,-43.2927,-37.6162,0.914897,5.08223,-94.2988,-28.6585,-12.3171
743.789,8.67402,-2.68376,0,-0.0958008,8.95737,-4.01884,-16.128,-69.0854,-41.8902,-37.4725,0.962798,4.37331,-103.11,-29.4512,-14.3293
743.799,8.18094,-2.38633,0,0.603545,9.01725,-4.45713,-14.6341,-55.7012,-40.4268,-37.9419,0.110171,3.10874,-111.311,-28.9329,-14.2378
743.809,8.00583,-2.1773,0,2.67763,8.67237,-4.59844,-12.8963,-39.6341,-36.189,-38.5838,-1.14482,1.86333,-115.396,-25.7012,-12.6524
743.819,7.81898,-2.03618,0,2.75906,9.22562,-4.25355,-10.2134,-23.5061,-36.7073,-39.2735,-2.84049,0.876577,-118.018,-21.7683,-16.0976
743.829,7.55386,-1.96665,0,2.27766,9.31184,-3.35063,-11.7683,-10.0305,-39.1463,-39.5226,-4.33499,-0.253872,-118.171,-17.7134,-18.0793
743.839,7.2358,-1.96925,0,1.91602,8.85678,-3.07281,-8.2622,-4.39024,-41.9512,-39.3885,-6.00192,-1.43222,-115.518,-10.1524,-25.122
743.849,6.88398,-1.99232,0,1.6334,8.73703,-2.46448,-9.29878,2.92683,-42.7439,-39.513,-7.44851,-1.7771,-110.793,-4.69512,-29.8171
743.859,6.48957,-2.02589,0,1.32445,8.61968,-2.3088,-5.70122,13.4756,-44.0244,-39.7142,-8.26282,-1.97829,-105.762,-2.34756,-35.8841
743.869,6.10588,-2.07136,0,1.41785,8.67716,-2.5507,1.43293,26.9512,-44.8476,-39.9154,-8.7514,-2.22737,-101.28,-4.02439,-41.1585
743.879,5.71169,-2.09056,0,1.23104,8.77775,-2.92911,4.42073,33.9939,-44.0549,-39.81,-9.01006,-1.80584,-96.0366,-8.29268,-47.8659
743.889,5.33986,-2.11317,0,1.18074,8.8472,-2.88839,3.2622,34.0244,-41.7988,-39.513,-8.78014,-1.88249,-90.2439,-13.3537,-51.7683
743.899,5.00627,-2.12531,0,1.38911,9.02204,-2.76864,2.83537,32.0427,-41.0061,-39.0723,-8.47358,-1.70046,-83.5976,-14.5732,-55.1829
743.909,4.67032,-2.11584,0,1.33882,9.20885,-2.62015,3.59756,28.75,-40.9451,-38.1239,-7.94667,-1.32684,-80.8537,-21.6768,-54.3293
743.919,4.30136,-2.14076,0,0.962798,9.32142,-2.39262,4.26829,24.2988,-40.1524,-38.0664,-7.24733,-1.92081,-79.0854,-28.9634,-51.9817
743.929,3.89628,-2.179,0,0.536484,9.3789,-2.32556,4.20732,16.5549,-39.2378,-38.009,-6.64378,-2.16989,-73.811,-32.5305,-47.9878
743.939,3.50609,-2.22899,0,0.452659,9.2831,-2.28245,3.75,9.84756,-37.561,-37.9227,-6.12646,-2.39981,-68.8415,-36.2805,-44.2378
743.949,3.14209,-2.25943,0,0.426313,9.26154,-2.21539,2.59146,4.60366,-35.3659,-37.9802,-5.63788,-2.11241,-67.0732,-37.5305,-40.4268
743.959,2.81984,-2.3065,0,0.55325,9.34537,-2.12917,1.09756,0.640244,-33.3841,-38.2101,-5.56124,-2.43813,-66.0366,-41.0061,-38.1707
743.969,2.51864,-2.35922,0,0.550855,9.39327,-2.10043,-0.0609756,-3.56707,-31.8293,-38.009,-5.45585,-2.56267,-63.3537,-44.3293,-36.8293
743.979,2.25102,-2.38635,0,0.692161,9.40045,-2.2106,-2.19512,-7.04268,-30.7622,-38.2101,-4.90021,-2.18905,-61.25,-47.378,-34.6341
743.989,2.01449,-2.39486,0,0.797541,9.331,-2.24413,-3.96341,-10.5793,-29.5122,-38.009,-4.46911,-1.89207,-61.9817,-50.2134,-31.8598
743.999,1.79425,-2.41535,0,0.807122,9.2807,-2.46687,-6.0061,-13.0488,-28.5061,-37.7216,-4.26792,-2.08367,-64.1768,-50.4268,-29.1463
744.009,1.59387,-2.45095,0,0.857417,9.19927,-2.53393,-6.7378,-15.2134,-27.6524,-37.2809,-4.23918,-2.32317,-68.2317,-50.7927,-24.7866
744.019,1.39047,-2.49527,0,0.771196,9.22322,-2.5962,-6.98171,-16.8598,-27.2561,-36.9839,-4.16254,-2.47645,-72.439,-52.6829,-20.6707
744.029,1.17236,-2.54547,0,0.656235,9.20166,-2.72314,-7.37805,-16.3415,-27.7439,-36.6869,-4.20086,-2.58183,-78.2317,-53.0488,-16.0671
744.039,0.947215,-2.59647,0,0.680186,9.30226,-2.67763,-6.76829,-14.7256,-29.1159,-36.5719,-4.20086,-2.62015,-84.2378,-53.4451,-10.7012
744.049,0.700309,-2.67679,0,0.524509,9.30226,-2.77104,-7.04268,-12.2866,-29.8476,-36.4953,-4.1817,-3.11832,-91.0366,-52.2866,-6.46341
744.059,0.456765,-2.74062,0,0.58199,9.3765,-2.79738,-7.5,-9.11585,-30.6707,-36.8115,-4.01884,-2.92671,-98.9634,-51.9817,-0.152439
744.069,0.211444,-2.81913,0,0.57241,9.35016,-2.7399,-7.68293,-7.37805,-31.25,-36.7923,-4.15296,-3.20454,-105.03,-51.4329,3.56707
744.079,-0.0212347,-2.91499,0,0.692161,9.45075,-2.76625,-7.53049,-6.21951,-31.8598,-36.7731,-4.42121,-3.53984,-112.409,-52.2256,8.41463
744.089,-0.224333,-3.03124,0,0.991538,9.33579,-2.82852,-7.5,-3.38415,-33.1402,-36.524,-4.67029,-3.90388,-116.646,-50.5793,13.7805
744.099,-0.417499,-3.17712,0,1.09692,9.21364,-2.83091,-7.89634,-0.365854,-34.0244,-36.1025,-5.05349,-4.40205,-123.049,-47.8354,15.5793
744.109,-0.598969,-3.36816,0,1.17116,9.14179,-2.77822,-7.5,2.95732,-34.2683,-35.5948,-5.36963,-5.13971,-123.323,-43.4451,18.9939
744.119,-0.776496,-3.56503,0,1.15679,9.01006,-2.7423,-7.13415,5.94512,-34.2683,-35.4702,-5.70494,-5.32173,-122.287,-39.0244,23.1402
744.129,-0.967326,-3.77317,0,1.0083,8.9909,-2.62494,-6.4939,8.04878,-34.1159,-35.202,-5.92528,-5.57082,-122.134,-34.6646,26.2195
744.139,-1.16557,-4.01151,0,0.890947,9.0412,-2.48364,-5.45732,9.45122,-33.689,-35.2212,-5.8678,-6.17436,-119.817,-30.5488,30.5183
744.149,-1.3521,-4.23347,0,0.900527,9.11544,-2.42855,-4.66463,9.32927,-32.9268,-35.2403,-5.88696,-6.04982,-118.049,-25.1829,35.4573
744.159,-1.51359,-4.48821,0,1.05141,9.31663,-2.37586,-4.72561,10.0305,-32.378,-35.4128,-5.97318,-6.73958,-115.091,-22.0122,39.0244
744.169,-1.65076,-4.72737,0,1.22864,9.43638,-2.38544,-5.57927,9.48171,-32.2256,-35.4798,-5.9636,-6.65336,-113.811,-18.9024,42.8354
744.179,-1.78457,-4.94862,0,1.20709,9.50104,-2.28245,-7.07317,8.5061,-31.7988,-35.5086,-5.92528,-6.50966,-112.348,-14.9695,48.3537
744.189,-1.88416,-5.1515,0,1.4442,9.40764,-2.25132,-8.68902,8.68902,-31.6159,-35.978,-6.04024,-6.43302,-111.921,-13.2622,53.0793
744.199,-1.97398,-5.32756,0,1.48012,9.39566,-2.2106,-10.0915,7.56098,-31.2805,-36.5911,-6.14562,-6.22226,-111.799,-10.7622,56.6463
744.209,-2.04405,-5.48191,0,1.59748,9.35974,-2.26808,-10.8232,6.79878,-30.9451,-37.2426,-6.24142,-6.07856,-111.098,-9.02439,61.128
744.219,-2.10372,-5.59577,0,1.61664,9.26633,-2.3064,-10.9146,6.09756,-30.4573,-37.8844,-6.33722,-5.59956,-110.823,-10.2134,67.2866
744.229,-2.17233,-5.72268,0,1.47294,9.14418,-2.38783,-10.3354,7.07317,-29.9695,-38.2676,-6.3947,-5.9636,-109.024,-11.5244,72.5915
744.239,-2.25252,-5.83591,0,1.26697,9.00288,-2.56028,-9.35976,8.23171,-28.9634,-38.5646,-6.47134,-5.85822,-105.335,-11.25,78.7805
744.249,-2.36412,-5.93973,0,0.905317,8.97174,-2.64889,-9.57317,9.57317,-27.7439,-38.8137,-6.5863,-5.81032,-101.311,-11.3415,81.2195
744.259,-2.51626,-6.02278,0,0.445474,9.05557,-2.66566,-9.90854,10.0915,-26.0976,-39.264,-6.59588,-5.5804,-97.7744,-10.5183,82.2866
744.269,-2.69484,-6.13411,0,0.0455054,9.23999,-2.65608,-10.8841,7.83537,-23.9329,-39.1681,-6.43302,-6.11688,-93.1707,-8.5061,79.8476
744.279,-2.87332,-6.28184,0,-0.198787,9.32381,-2.54591,-12.5,4.48171,-21.2195,-38.8137,-6.45218,-6.76833,-89.2683,-5.45732,76.0976
744.289,-3.02064,-6.46763,0,-0.196392,9.36453,-2.52675,-14.2988,0.731707,-18.4451,-38.1718,-6.14562,-7.40061,-83.75,0.27439,69.3902
744.299,-3.1076,-6.68461,0,0.0215552,9.42201,-2.56986,-16.1585,-1.95122,-15.3049,-37.9611,-6.28932,-8.00416,-77.1646,8.14024,63.3537
744.309,-3.1309,-6.95283,0,0.330513,9.38608,-2.66326,-17.378,-3.20122,-12.8354,-37.9036,-7.12279,-9.01006,-73.0488,17.439,54.1159
744.319,-3.0987,-7.28629,0,0.61552,9.38608,-2.78541,-17.439,-2.43902,-10.7622,-38.1048,-7.62095,-10.3704,-64.2683,30.0915,43.5976
744.329,-3.03255,-7.66398,0,0.819097,9.38369,-2.92432,-16.189,-1.15854,-9.7561,-38.2006,-8.28198,-11.3859,-51.0671,45.8537,33.5671
744.339,-2.9353,-8.04471,0,1.02028,9.45314,-3.11832,-15.3659,0.457317,-8.84146,-38.5263,-9.25915,-11.7691,-36.8598,58.872,24.6341
744.349,-2.81818,-8.3218,0,1.13284,9.50104,-3.37937,-15.4573,1.25,-7.92683,-39.5514,-10.2172,-10.38,-21.128,67.9878,14.4207
744.359,-2.68923,-8.58375,0,1.1999,9.51062,-3.59971,-16.2805,0.792683,-7.28659,-41.0075,-11.0889,-10.6578,-3.41463,74.2988,6.31098
744.369,-2.54024,-8.8068,0,1.30289,9.55134,-3.75779,-17.8659,-0.487805,-6.18902,-42.2434,-11.7308,-10.38,10.5793,83.1098,-1.4939
744.379,-2.37698,-9.00116,0,1.38672,9.62798,-3.6524,-19.6951,-0.792683,-5.36585,-42.6745,-11.1847,-10.0543,20.8841,92.439,-7.16463
744.389,-2.1752,-9.13437,0,1.44659,9.90341,-3.58055,-21.6159,-1.55488,-2.62195,-42.435,-9.45075,-8.92384,25.122,98.811,-7.28659
744.399,-1.86876,-9.15971,0,1.65017,10.2195,-3.28836,-23.8415,-3.44512,0.792683,-41.9943,-7.90835,-6.86413,26.25,99.2073,-0.823171
744.409,-1.57892,-9.08285,0,1.88728,10.4543,-3.07042,-26.6159,-5.88415,4.7561,-42.4637,-6.88329,-5.03433,22.8049,92.4695,6.76829
744.419,-1.20147,-8.97709,0,2.26569,10.4016,-2.692,-28.9939,-7.46951,10.2134,-42.4062,-4.85231,-4.44995,20.0305,85.2134,16.9207
744.429,-0.722458,-8.82945,0,2.68482,10.368,-2.33275,-30.122,-7.56098,16.7988,-43.2876,-2.82133,-3.66438,17.1646,82.8354,29.5427
744.439,-0.129251,-8.56651,0,3.20933,10.4088,-2.00942,-30.4268,-6.28049,24.0854,-45.3281,-1.1544,-1.43222,7.71341,76.7683,37.2561
744.449,0.565519,-8.24411,0,3.64043,10.5381,-1.78668,-30.5183,-4.78659,31.7378,-47.5603,-1.36516,-0.0910107,-7.46951,63.689,35.2439
744.459,1.38945,-7.99741,0,4.17931,10.392,-1.72441,-30.0305,-0.243902,40.5183,-47.7711,-3.23328,-1.346,-10.2134,80.9146,33.5671
744.469,2.34374,-7.66414,0,4.67029,10.2627,-1.55197,-28.811,6.52439,50.2744,-50.1278,0.100591,0.704136,-33.3537,78.0183,18.811
744.479,3.39129,-7.30189,0,4.95769,10.0279,-1.4442,-28.628,16.0976,57.9878,-49.6967,1.87291,1.61424,-47.0122,76.1585,4.60366
744.489,4.50682,-6.93798,0,5.09181,9.9082,-1.18553,-28.1707,29.4817,65.2439,-46.8322,2.18905,1.83458,-67.5,71.8598,-6.06707
744.499,5.66919,-6.55701,0,5.05589,9.70462,-0.742456,-28.0183,42.8963,71.6463,-43.9869,1.93039,2.29443,-85.7622,61.2805,-13.9939
744.509,6.82001,-6.15137,0,4.55533,9.67827,-0.443079,-28.872,54.939,77.561,-40.6818,1.4418,2.79259,-100.457,48.5976,-19.939
744.519,7.9084,-5.72654,0,3.66917,9.60642,0.0670605,-31.9207,64.0854,82.3171,-37.9227,0.589175,3.14706,-110.823,33.7805,-21.0061
744.529,8.8832,-5.30734,0,2.54351,9.39566,0.280217,-32.7744,69.2073,84.6951,-36.3612,-0.205972,3.15664,-117.287,20.6707,-16.2805
744.539,9.78522,-4.86639,0,1.55676,9.30705,0.189207,-28.3232,69.3902,90.7927,-35.5852,-0.675395,3.6548,-118.78,7.31707,-10.2744
744.549,10.6336,-4.43309,0,0.646655,9.14897,-0.335303,-22.1341,68.0183,98.2927,-35.6139,-1.50886,3.76976,-115.457,-6.70732,-2.04268
744.559,11.4101,-4.07676,0,-0.0622705,8.42089,-1.4442,-15.3354,71.4939,101.799,-36.3899,-1.97829,2.85007,-108.598,-17.5305,2.46951
744.569,12.0843,-3.76362,0,-0.589175,7.78142,-2.18905,-10.7927,73.9939,100.915,-37.2617,-2.65847,2.41897,-102.256,-23.5366,4.78659
744.579,12.6856,-3.49452,0,-1.11608,8.48555,-2.73032,-6.28049,70.5488,101.311,-38.5359,-2.94587,1.94955,-97.5915,-27.439,3.87195
744.589,13.3269,-3.22577,0,-0.962798,9.45314,-3.30034,-3.29268,67.561,103.201,-40.5477,-3.76018,2.23695,-87.439,-27.1341,-2.19512
744.599,14.0162,-3.1139,0,-0.747246,10.2914,-3.48475,-3.07927,63.0183,106.006,-39.2256,-3.85598,-0.330513,-82.7744,-16.5854,-8.68902
744.609,14.7565,-3.03318,0,-0.129331,11.0075,-3.41769,-3.5061,55.9756,105.518,-39.3693,-3.1279,-0.780776,-80.4878,-12.2561,-12.4085
744.619,15.465,-2.94877,0,0.285007,11.6254,-3.1758,-2.13415,44.1159,99.5427,-39.1011,-1.76752,-0.646655,-83.1402,-9.2378,-9.81707
744.629,16.1601,-2.84257,0,1.13524,12.2769,-3.27639,0.670732,35.0305,91.7073,-39.0532,-0.158071,-0.215552,-89.5427,-9.96951,-5.15244
744.639,16.8411,-2.73185,0,1.93039,12.2745,-3.38416,3.81098,31.8293,84.2378,-38.8424,1.09692,-0.0622705,-98.1098,-9.14634,-0.304878
744.649,17.4095,-2.64312,0,1.5855,11.5679,-3.18538,6.58537,30.3354,76.4329,-38.4401,2.37107,-0.368833,-109.451,-11.8293,6.18902
744.659,17.9784,-2.58864,0,2.10043,10.6219,-3.24525,11.9512,36.7378,70.7622,-38.3826,3.08958,-0.886157,-121.951,-11.1585,9.78659
744.669,18.5042,-2.54191,0,2.09804,9.84593,-3.01533,20.0305,45.7012,65.7927,-38.2389,3.35782,-0.981958,-133.476,-12.622,11.8598
744.679,18.9656,-2.5229,0,1.84656,9.68306,-2.7878,26.6768,56.6159,62.8049,-39.1394,3.04167,-1.45138,-144.634,-12.4695,12.439
744.689,19.36,-2.51766,0,1.36995,9.67348,-2.35909,29.1159,64.2073,62.5,-39.7813,2.84049,-1.71004,-152.927,-14.2988,10.6098
744.699,19.7637,-2.53441,0,1.66214,9.68067,-2.02858,33.0793,73.5061,60.8232,-40.5381,2.47645,-2.14115,-160.854,-16.7378,8.75
744.709,20.1497,-2.57017,0,1.8274,9.80281,-2.05014,39.4207,80.8841,58.1707,-41.4003,2.62973,-2.56267,-166.799,-21.1585,9.39024
744.719,20.5019,-2.61114,0,1.93518,9.52499,-2.43813,44.3902,89.4817,53.628,-41.9176,1.86333,-2.73511,-173.72,-25.9451,10.7012
744.729,20.8165,-2.65384,0,2.03098,9.16813,-2.57944,48.2012,98.7195,48.4451,-42.1763,1.21188,-2.84049,-176.799,-33.0488,12.1341
744.739,21.0809,-2.71105,0,2.18186,8.98611,-2.4022,54.1463,106.89,41.6159,-42.0326,0.368833,-3.15664,-180.488,-39.6646,12.9573
744.749,21.2106,-2.79074,0,1.75076,9.22801,-2.52196,60.5793,111.494,34.3293,-41.3332,-0.359253,-3.56858,-184.207,-42.622,13.1098
744.759,21.2614,-2.8753,0,1.60706,9.36453,-2.50519,62.1951,116.372,28.5976,-40.7393,-0.790356,-3.66438,-186.433,-43.2012,11.7073
744.769,21.2529,-2.95486,0,1.48252,9.38369,-2.3064,63.1098,119.268,24.2073,-39.9154,-0.809517,-3.57816,-191.463,-48.0793,11.7378
744.779,21.2136,-3.06225,0,1.45138,9.18729,-2.10283,65.6098,121.189,21.0366,-39.2352,-0.914897,-4.06674,-196.159,-50.7012,10.0915
744.789,21.166,-3.19254,0,1.45617,8.8472,-2.36628,72.561,119.055,19.3598,-38.9191,-0.752036,-4.51701,-196.829,-54.1159,7.77439
744.799,21.0811,-3.31078,0,1.32445,8.71069,-2.75427,77.4695,114.726,16.8902,-38.555,-0.617915,-4.36373,-199.177,-56.372,5.39634
744.809,20.9714,-3.43515,0,1.36037,8.71069,-3.15903,80.3354,111.677,13.7195,-38.5742,-0.148491,-4.55533,-200.915,-57.2866,1.98171
744.819,20.8175,-3.5692,0,1.19032,8.87115,-3.1734,78.1098,105.061,11.4939,-38.1718,-0.158071,-4.75651,-204.207,-57.1037,-0.823171
744.829,20.6137,-3.69899,0,0.893342,8.81128,-3.17819,72.6524,95.5793,9.87805,-37.8557,-0.177231,-4.72777,-208.171,-54.939,-3.2622
744.839,20.3863,-3.83688,0,0.754431,8.54543,-2.84528,67.6219,82.3781,8.59756,-37.8174,0.0431104,-4.94811,-212.317,-55.2134,-5.12195
744.849,20.186,-3.98345,0,1.12326,8.7993,-2.65847,67.3171,70.3963,6.46341,-37.7311,0.253872,-5.17803,-218.201,-55.7622,-8.07927
744.859,20.029,-4.15505,0,1.61664,9.3765,-2.51717,63.2012,66.311,5.39634,-38.1814,0.292192,-5.772,-225.64,-56.5549,-11.7683
744.869,19.8815,-4.31872,0,1.91362,9.91059,-2.019,58.689,67.7744,3.96341,-38.2485,0.349673,-5.76242,-229.39,-56.4634,-16.9512
744.879,19.5902,-4.47329,0,2.34233,8.86636,-1.54958,54.7256,67.9573,-0.609756,-38.3538,0.349673,-5.73368,-235.64,-56.6463,-19.5122
744.889,19.5325,-4.63604,0,2.76625,8.24366,-0.752036,55.2439,69.6951,-3.32317,-38.6317,0.263452,-6.02108,-239.177,-55.7012,-23.75
744.899,19.4616,-4.7771,0,2.91474,8.61728,-0.570015,58.1402,68.3537,-5.4878,-38.5646,-0.0718506,-5.73368,-243.841,-52.2256,-28.9634
744.909,19.3488,-4.92685,0,2.76146,8.5119,-0.474214,58.0488,67.9268,-8.47561,-38.4496,-0.579595,-5.9636,-248.78,-52.0732,-33.5671
744.919,19.2133,-5.0659,0,2.85007,8.94779,-0.330513,54.5427,66.7073,-10.3963,-38.555,-0.991538,-5.89654,-251.921,-51.9207,-39.4207
744.929,19.1171,-5.20044,0,3.20693,9.2328,-0.160466,49.5122,67.7744,-9.69512,-38.4784,-1.5376,-5.90612,-253.78,-53.1402,-43.5061
744.939,19.1102,-5.33792,0,3.67635,8.88073,-0.0143701,42.9268,66.189,-7.59146,-38.5838,-2.21779,-6.06898,-254.97,-53.9329,-47.7134
