time,angle1,angle2,intgangle,accX1,accY1,accZ1,gyroX1,gyroY1,gyroZ1,accX2,accY2,accZ2,gyroX2,gyroY2,gyroZ2
306.519,69.0837,3.77711,0,7.71436,2.87881,5.98036,0.182927,0,-1.70732,-39.0819,-3.62606,2.35191,-16.0671,-3.53659,3.96341
306.529,69.0797,3.77158,0,7.72394,2.88121,5.92767,-0.152439,0.0914634,-1.61585,-39.034,-3.6069,2.46687,-15.3049,-4.29878,3.47561
306.539,69.0833,3.77581,0,7.70478,2.84768,5.9636,0,-0.182927,-1.40244,-38.8712,-3.71228,2.62015,-15.1524,-4.48171,4.02439
306.549,69.0786,3.78814,0,7.70957,2.886,5.99713,0.121951,0.0304878,-1.52439,-39.0819,-3.80808,2.78301,-14.5732,-2.83537,4.93902
306.559,69.0845,3.79637,0,7.70957,2.8357,6.02108,-0.121951,-0.0609756,-1.40244,-38.8328,-3.7506,2.70637,-15.1829,-1.85976,3.44512
306.569,69.0827,3.79572,0,7.69041,2.86923,5.95402,-0.0304878,-0.121951,-1.43293,-38.9191,-3.64522,2.56267,-16.4634,-2.59146,4.93902
306.579,69.0833,3.80776,0,7.74549,2.87163,5.91809,-0.0304878,-0.0304878,-1.4939,-38.9861,-3.77934,2.78301,-15.3049,-3.35366,4.69512
306.589,69.0831,3.80418,0,7.71196,2.85007,5.94204,0,0,-1.67683,-39.0244,-3.76976,2.52435,-14.3293,-3.2622,4.02439
306.599,69.076,3.80699,0,7.71915,2.89558,5.98036,-0.0609756,-0.0609756,-1.64634,-39.1203,-3.76976,2.63931,-15.1829,-3.14024,5.09146
306.609,69.0813,3.79251,0,7.71675,2.85007,5.9612,0,0.0304878,-1.31098,-38.9861,-3.78892,2.33275,-15.1524,-3.47561,3.5061
306.619,69.0793,3.79363,0,7.70717,2.88121,5.97078,-0.182927,0.213415,-1.37195,-39.0915,-3.66438,2.60099,-16.7378,-2.86585,5
306.629,69.0801,3.801,0,7.71436,2.85486,5.97078,-0.0914634,0.243902,-1.55488,-39.0149,-3.7506,2.70637,-16.0976,-2.31707,3.41463
306.639,69.0799,3.80338,0,7.72154,2.87402,5.98276,-0.0304878,0.0304878,-1.40244,-39.1298,-3.63564,2.62973,-16.0976,-3.32317,4.14634
306.649,69.0778,3.79289,0,7.70717,2.87642,5.94683,-0.121951,0.152439,-1.46341,-38.9478,-3.61648,2.39981,-16.25,-2.53049,4.84756
306.659,69.0788,3.77824,0,7.70478,2.84049,5.94204,-0.0609756,0.0914634,-1.67683,-39.1107,-3.48236,2.33275,-15.7927,-1.92073,4.20732
306.669,69.0897,3.78308,0,7.70717,2.82133,5.9612,-0.0609756,0.0609756,-1.25,-38.9957,-3.77934,2.64889,-15.9756,-2.92683,5
306.679,69.0883,3.7716,0,7.66646,2.85965,5.98994,-0.213415,0.121951,-1.40244,-38.9957,-3.76976,2.37107,-15.7927,-2.77439,4.42073
306.689,69.0946,3.76361,0,7.70238,2.85007,5.98036,0,0.152439,-1.15854,-38.9574,-3.62606,2.41897,-15.7927,-3.35366,4.02439
306.699,69.1011,3.75437,0,7.70957,2.83331,5.93246,-0.121951,0,-1.37195,-38.9382,-3.74102,2.39023,-16.0061,-3.56707,5.36585
306.709,69.0969,3.74815,0,7.70478,2.88121,6.01389,-0.182927,0.0304878,-1.4939,-39.149,-3.66438,2.44771,-15.061,-3.9939,4.45122
306.719,69.0988,3.75768,0,7.69999,2.85007,5.97797,0.0914634,-0.0609756,-1.43293,-38.9574,-3.92304,2.70637,-15.3963,-2.9878,4.20732
306.729,69.1019,3.76001,0,7.72154,2.85726,5.98515,0.243902,0.0304878,-1.34146,-38.9957,-3.68354,2.59141,-14.6646,-2.92683,3.84146
306.739,69.1083,3.74025,0,7.69759,2.84049,5.99473,0,0.0609756,-1.21951,-39.0819,-3.69312,2.21779,-15.9756,-2.68293,4.39024
306.749,69.1107,3.74197,0,7.72154,2.85007,6.00192,0.213415,0.243902,-1.46341,-39.149,-3.78892,2.58183,-16.1585,-2.10366,4.42073
306.759,69.1095,3.73534,0,7.70238,2.86205,5.97078,0.213415,-0.0304878,-1.4939,-39.0723,-3.7027,2.42855,-15,-3.62805,4.05488
306.769,69.1103,3.73369,0,7.68322,2.84528,6.00671,0.0914634,0.0914634,-1.46341,-39.1298,-3.66438,2.51477,-15.4268,-3.32317,5.12195
306.779,69.1073,3.72019,0,7.69999,2.87163,5.99234,-0.121951,-0.0609756,-1.4939,-38.9957,-3.66438,2.30401,-15.0915,-2.31707,4.42073
306.789,69.1116,3.71903,0,7.71675,2.86684,5.99234,-0.27439,-0.27439,-1.09756,-39.1203,-3.83682,2.51477,-15.0915,-2.59146,4.35976
306.799,69.1076,3.72436,0,7.70238,2.86684,5.9636,-0.243902,-0.0914634,-1.64634,-39.216,-3.6548,2.62973,-16.372,-3.5061,4.7561
306.809,69.1078,3.72815,0,7.72633,2.86684,6.0115,0.0609756,0,-1.43293,-39.216,-3.87514,2.61057,-16.25,-2.31707,4.20732
306.819,69.1117,3.72661,0,7.67604,2.81415,5.94204,-0.0609756,0.0914634,-1.61585,-38.9095,-3.7027,2.49561,-16.7073,-3.93293,4.11585
306.829,69.1114,3.71426,0,7.70478,2.85486,5.98276,0,-0.0609756,-1.52439,-38.9478,-3.76018,2.31359,-14.2683,-3.07927,4.42073
306.839,69.117,3.7089,0,7.70957,2.8381,5.96599,0,-0.304878,-1.34146,-39.0244,-3.56858,2.42855,-14.5122,-3.59756,4.02439
306.849,69.1171,3.7029,0,7.6928,2.84768,5.93246,-0.152439,0.243902,-1.52439,-38.9095,-3.71228,2.40939,-14.2683,-2.83537,3.96341
306.859,69.117,3.704,0,7.71436,2.85247,5.93246,-0.0914634,-0.243902,-1.58537,-39.1107,-3.73144,2.54351,-15.061,-1.95122,3.90244
306.873,69.1215,3.70189,0,7.72394,2.8357,5.95641,-0.182927,-0.0914634,-1.4939,-39.0915,-3.71228,2.48603,-14.5427,-2.40854,4.63415
306.879,69.1208,3.71463,0,7.6952,2.85486,5.97797,0.27439,-0.121951,-1.4939,-39.0723,-3.76018,2.73511,-14.6951,-3.93293,4.5122
306.889,69.1277,3.71713,0,7.72154,2.83091,5.95881,-0.0914634,-0.0914634,-1.37195,-39.3119,-3.74102,2.58183,-15.1829,-4.08537,4.29878
306.899,69.1317,3.72886,0,7.73352,2.85486,5.94683,0.0304878,0.0304878,-1.31098,-39.0436,-3.6548,2.72553,-15.061,-4.05488,5.30488
306.909,69.1363,3.73188,0,7.72394,2.84289,5.98036,-0.121951,-0.0914634,-1.37195,-39.0915,-3.74102,2.58183,-14.8171,-5.33537,5.2439
306.919,69.1357,3.7315,0,7.73831,2.87163,5.98036,0.121951,-0.0914634,-1.43293,-39.149,-3.53984,2.53393,-16.5854,-3.84146,4.93902
306.929,69.1361,3.72069,0,7.70478,2.84768,5.95162,-0.0914634,-0.243902,-1.52439,-39.1203,-3.6548,2.35191,-15.8841,-3.65854,4.96951
306.939,69.1383,3.71732,0,7.73112,2.8357,5.97318,-0.0914634,0.121951,-1.64634,-39.0149,-3.73144,2.46687,-15.2744,-3.56707,3.93293
306.949,69.1384,3.6868,0,7.6952,2.8357,5.9612,-0.152439,0,-1.64634,-38.9382,-3.64522,1.98787,-15.8841,-4.84756,5.06098
306.959,69.1449,3.68278,0,7.73591,2.82852,5.93007,0.0304878,-0.0609756,-1.46341,-38.9861,-3.8943,2.42855,-15.2744,-4.20732,4.45122
306.969,69.1481,3.67653,0,7.6928,2.81894,5.9133,-0.182927,0.0304878,-1.61585,-39.0053,-3.64522,2.39023,-15.5793,-3.68902,5.54878
306.979,69.1496,3.68046,0,7.72154,2.84049,5.93965,-0.0609756,-0.0609756,-1.58537,-39.1394,-3.83682,2.57225,-16.0671,-3.20122,4.66463
306.989,69.1479,3.6836,0,7.7431,2.85486,5.9157,-0.0304878,-0.0609756,-1.7378,-39.0628,-3.68354,2.55309,-15.6098,-4.08537,4.69512
306.999,69.1509,3.68906,0,7.74789,2.8381,5.9612,0.0914634,0.213415,-1.61585,-39.1203,-3.6069,2.60099,-14.7256,-3.53659,4.39024
307.009,69.1495,3.69926,0,7.73112,2.84768,5.98036,-0.0914634,-0.0914634,-1.7378,-39.0819,-3.64522,2.68721,-15.7317,-2.68293,3.81098
307.019,69.1491,3.69558,0,7.70957,2.85007,5.88935,-0.0304878,0.121951,-1.55488,-39.0149,-3.76018,2.44771,-14.2378,-3.32317,4.48171
307.029,69.1455,3.70131,0,7.72873,2.85247,5.9157,-0.121951,0.243902,-1.85976,-38.9095,-3.78892,2.60099,-16.5854,-3.23171,4.66463
307.039,69.1454,3.695,0,7.71436,2.84289,5.94683,0.152439,0.518293,-1.64634,-39.1107,-3.59732,2.40939,-14.6646,-3.35366,4.17683
307.049,69.1431,3.70166,0,7.72873,2.86205,5.88217,0.0914634,0.182927,-1.64634,-39.0149,-3.7985,2.62015,-14.9695,-4.26829,4.08537
307.059,69.1431,3.7017,0,7.71436,2.85965,5.90851,-0.121951,0.0914634,-1.43293,-39.2065,-3.88472,2.52435,-14.3293,-3.81098,4.26829
307.069,69.1382,3.7132,0,7.72873,2.8836,5.94444,0,0.365854,-1.55488,-38.967,-3.68354,2.70637,-14.8476,-3.84146,3.47561
307.079,69.1394,3.74308,0,7.70717,2.85247,5.97797,0.243902,0.27439,-1.40244,-39.0723,-3.86556,3.04167,-14.3293,-3.32317,3.9939
307.089,69.1347,3.74891,0,7.69999,2.88121,5.96839,-0.152439,0.396341,-1.43293,-39.0436,-3.66438,2.63931,-15.5793,-4.63415,3.9939
307.099,69.1315,3.75766,0,7.72154,2.88121,5.96839,-0.182927,0.0609756,-1.43293,-39.0532,-3.67396,2.69679,-14.9085,-3.9939,4.14634
307.109,69.1292,3.75689,0,7.72394,2.8836,5.97557,0,0.243902,-1.34146,-38.967,-3.77934,2.53393,-16.4634,-3.53659,4.02439
307.119,69.1223,3.7448,0,7.6952,2.89558,5.98276,0.0914634,0.243902,-1.40244,-39.0149,-3.6548,2.34233,-15.6402,-3.20122,3.96341
307.129,69.1272,3.75965,0,7.71675,2.8357,5.93007,0.335366,0.243902,-1.43293,-39.0628,-3.52068,2.80217,-15.2439,-3.41463,3.78049
307.139,69.1327,3.77029,0,7.70717,2.85726,5.94204,0.0609756,0.0914634,-1.06707,-38.8041,-3.71228,2.71595,-16.2195,-4.96951,4.45122
307.149,69.1302,3.78042,0,7.67843,2.85965,5.98755,-0.152439,0.0609756,-1.46341,-38.7754,-3.6548,2.71595,-15.8537,-3.90244,4.17683
307.159,69.1275,3.77381,0,7.70238,2.87163,5.96599,0.304878,0.213415,-1.43293,-38.852,-3.93262,2.43813,-14.939,-4.57317,4.81707
307.169,69.1253,3.77134,0,7.72154,2.86923,6.00431,-0.304878,0.152439,-1.52439,-39.1107,-3.7985,2.52435,-14.4207,-3.78049,5.12195
307.179,69.1216,3.77111,0,7.69999,2.86205,5.98994,0.0304878,0.335366,-1.64634,-39.0915,-3.76018,2.56267,-15.3659,-2.95732,5.30488
307.189,69.1241,3.76653,0,7.70957,2.84768,6.04503,-0.304878,0.0304878,-1.40244,-39.0915,-3.71228,2.48603,-14.6646,-3.35366,5
307.199,69.121,3.75113,0,7.69999,2.87642,6.00431,-0.0914634,-0.213415,-1.40244,-39.2352,-3.76018,2.30401,-15.1829,-3.44512,4.72561
307.209,69.1185,3.75055,0,7.70478,2.85486,5.97797,-0.0914634,-0.182927,-1.67683,-39.2448,-3.78892,2.55309,-15.0305,-2.89634,3.65854
307.219,69.1233,3.74712,0,7.71675,2.8357,5.99473,-0.27439,0.121951,-1.43293,-39.2065,-3.74102,2.49561,-15.0305,-4.39024,4.60366
307.229,69.1261,3.75598,0,7.7407,2.85247,5.9636,-0.121951,0,-1.46341,-39.0244,-3.88472,2.69679,-15.7012,-3.56707,4.63415
307.239,69.1226,3.75061,0,7.72394,2.87163,5.96599,-0.0914634,-0.121951,-1.61585,-38.9382,-3.54942,2.44771,-14.7561,-4.72561,3.90244
307.249,69.1295,3.74923,0,7.74549,2.8357,5.98036,-0.152439,-0.27439,-1.40244,-38.9286,-3.92304,2.51477,-15.5793,-3.9939,4.45122
307.259,69.1349,3.74395,0,7.71196,2.84528,5.94204,-0.0609756,0,-1.25,-38.9574,-3.74102,2.44771,-15.9146,-4.14634,5.36585
307.269,69.1367,3.75158,0,7.73591,2.85965,5.97557,-0.121951,0.0304878,-1.40244,-38.9286,-3.559,2.66805,-14.7561,-3.23171,4.87805
307.279,69.1388,3.75423,0,7.70717,2.85726,5.93965,-0.213415,0.0914634,-1.28049,-39.1394,-3.71228,2.60099,-14.3293,-3.32317,5.67073
307.289,69.1441,3.75714,0,7.74549,2.83331,5.93486,-0.365854,0.0914634,-1.52439,-38.9957,-3.59732,2.60099,-15.061,-2.40854,4.78659
307.299,69.147,3.77242,0,7.72394,2.8357,5.95641,0,-0.0609756,-1.55488,-38.9861,-3.53984,2.81175,-14.2073,-3.59756,5.7622
307.309,69.1434,3.79094,0,7.69759,2.86205,5.95641,-0.121951,0.335366,-1.58537,-39.1203,-3.58774,2.88839,-14.6341,-3.53659,4.20732
307.319,69.1399,3.80543,0,7.73831,2.87163,5.98276,-0.0304878,-0.0304878,-1.64634,-39.1011,-3.80808,2.83091,-14.7866,-3.20122,5.27439
307.329,69.1397,3.81415,0,7.72394,2.84289,5.93246,-0.0304878,-0.0304878,-1.70732,-39.0628,-3.83682,2.73511,-14.7866,-4.08537,5.03049
307.339,69.137,3.81402,0,7.69759,2.85965,5.98515,0.0304878,0.304878,-1.55488,-39.0819,-3.90388,2.59141,-15.3659,-3.53659,5.18293
307.349,69.1396,3.81551,0,7.6928,2.84528,5.95402,0.121951,-0.121951,-1.34146,-39.1011,-3.68354,2.62015,-15.7012,-3.59756,4.93902
307.359,69.1347,3.81136,0,7.6952,2.87402,5.95641,-0.0914634,0.0914634,-1.52439,-38.9861,-3.81766,2.51477,-15.8232,-4.08537,4.48171
307.369,69.1378,3.80889,0,7.71436,2.83091,5.93486,0.0914634,0.243902,-1.58537,-39.2065,-3.76018,2.55309,-14.2378,-4.66463,4.42073
307.379,69.1428,3.80205,0,7.73112,2.82133,5.95881,0.121951,-0.0914634,-1.61585,-38.8999,-3.68354,2.45729,-14.9085,-4.39024,4.02439
307.389,69.1406,3.81009,0,7.70717,2.87163,5.96599,-0.0609756,0,-1.40244,-39.0244,-3.61648,2.71595,-14.7256,-4.81707,4.54268
307.399,69.1414,3.80718,0,7.70957,2.84768,5.99234,-0.0609756,0.304878,-1.4939,-39.0244,-3.76018,2.53393,-15.3354,-4.32927,5.42683
307.409,69.1459,3.80546,0,7.70717,2.82612,5.95641,0.0609756,0.365854,-1.4939,-39.0532,-3.87514,2.55309,-15.1829,-4.7561,5.27439
307.419,69.1507,3.81699,0,7.71675,2.81654,5.98515,-0.0609756,0.213415,-1.61585,-39.1011,-3.87514,2.78301,-15.3049,-5.12195,4.87805
307.429,69.1502,3.81852,0,7.71196,2.85247,5.98755,0.0914634,-0.152439,-1.52439,-39.1011,-3.6069,2.62015,-16.0061,-4.42073,5.21341
307.439,69.1538,3.80251,0,7.71675,2.82133,5.92767,0.0914634,0.0609756,-1.64634,-38.9478,-3.72186,2.31359,-15,-3.01829,5.51829
307.449,69.1567,3.79028,0,7.71915,2.84528,5.96599,0,0.182927,-1.40244,-38.9095,-3.92304,2.36149,-15.7317,-4.14634,5.45732
307.459,69.1527,3.79796,0,7.69759,2.87402,5.91091,0.182927,0.121951,-1.43293,-39.0723,-3.6069,2.70637,-15.2134,-4.42073,4.48171
307.469,69.1481,3.78098,0,7.6952,2.87881,5.98515,0.0914634,0.0304878,-1.40244,-38.8903,-3.69312,2.27527,-16.128,-4.2378,5
307.479,69.1509,3.78311,0,7.72394,2.85247,5.96839,0.0304878,0.0914634,-1.34146,-38.8807,-3.71228,2.59141,-15.7012,-4.35976,4.60366
307.489,69.1473,3.78661,0,7.72394,2.85247,5.97078,0.0304878,0.365854,-1.82927,-39.1107,-3.77934,2.62973,-15.122,-5,5.15244
307.499,69.1461,3.79491,0,7.69999,2.85726,5.98994,0.152439,0.121951,-1.46341,-39.1107,-3.74102,2.71595,-15.7927,-4.81707,5.45732
307.509,69.1413,3.78358,0,7.6952,2.85965,5.95402,0,0.213415,-1.70732,-39.0723,-3.82724,2.38065,-16.2805,-4.48171,4.84756
307.519,69.1415,3.776,0,7.70478,2.83331,5.94683,-0.27439,0.121951,-1.70732,-39.0819,-3.58774,2.43813,-15.2744,-4.5122,4.57317
307.529,69.1476,3.7907,0,7.70957,2.80936,6.0091,-0.27439,0.182927,-1.58537,-38.9957,-3.72186,2.81175,-15.7317,-4.66463,4.72561
307.539,69.1477,3.78331,0,7.72873,2.85247,6.00671,-0.0914634,0.335366,-1.55488,-39.0819,-3.78892,2.44771,-16.189,-4.08537,4.14634
307.549,69.1442,3.78261,0,7.71436,2.87163,5.99473,0.0304878,0.213415,-1.52439,-39.0723,-3.73144,2.55309,-14.5122,-5.4878,4.11585
307.559,69.1438,3.78308,0,7.72394,2.84528,5.96599,0.243902,0.304878,-1.67683,-39.1681,-3.77934,2.58183,-16.0061,-4.66463,5.30488
307.569,69.1429,3.78223,0,7.71436,2.86684,5.95402,-0.243902,0.0609756,-1.40244,-38.9574,-3.77934,2.54351,-15.4268,-5.30488,4.7561
307.579,69.1449,3.78206,0,7.70238,2.82373,5.95402,0.0304878,-0.0609756,-1.67683,-39.0436,-3.86556,2.56267,-14.878,-4.57317,4.90854
307.589,69.1493,3.77419,0,7.71915,2.83331,5.94204,-0.0304878,0.0304878,-1.46341,-39.0628,-3.67396,2.42855,-14.4207,-5.21341,5.21341
307.599,69.1492,3.77677,0,7.70478,2.85486,5.9612,0.0609756,0,-1.43293,-39.1586,-3.76976,2.61057,-14.9085,-5.09146,4.96951
307.609,69.1491,3.77646,0,7.71436,2.84289,5.93965,0,-0.0304878,-1.64634,-39.0149,-3.73144,2.55309,-14.878,-5.06098,6.03659
307.619,69.1534,3.77227,0,7.72154,2.83331,5.95881,-0.0304878,0.0914634,-1.46341,-39.0244,-3.56858,2.48603,-15.3963,-5.15244,4.84756
307.629,69.1508,3.77896,0,7.69041,2.85007,5.98994,0,0.121951,-1.61585,-38.9286,-3.76976,2.66805,-15.4573,-4.14634,4.81707
307.639,69.1494,3.78876,0,7.70238,2.8381,5.97318,0.335366,0,-1.7378,-38.9478,-3.76018,2.72553,-14.9085,-4.72561,5
307.649,69.1561,3.80929,0,7.69759,2.81894,5.98276,0.152439,0.27439,-1.37195,-38.9574,-3.72186,2.91713,-14.4512,-5,5.57927
307.659,69.1515,3.80529,0,7.70238,2.88121,5.95641,0.0609756,0,-1.40244,-39.0532,-3.69312,2.51477,-14.2988,-4.84756,4.5122
307.669,69.1482,3.79263,0,7.70957,2.85247,5.9636,0.0914634,-0.0304878,-1.7378,-38.9095,-3.68354,2.35191,-14.939,-5.33537,5.06098
307.679,69.1447,3.79879,0,7.70717,2.86684,5.95402,-0.152439,0.0609756,-1.55488,-39.0628,-3.56858,2.67763,-15.3659,-5.42683,5.21341
307.689,69.1376,3.78592,0,7.70478,2.88121,5.93007,0.0609756,-0.0914634,-1.64634,-39.0532,-3.77934,2.35191,-15.061,-5.54878,4.45122
307.699,69.1382,3.80607,0,7.72394,2.85726,5.96599,0.0609756,0.365854,-1.46341,-39.1011,-3.7506,2.91713,-14.939,-5.67073,5.03049
307.709,69.1397,3.79892,0,7.70238,2.8357,5.93246,0.0304878,0.243902,-1.58537,-39.0628,-3.76018,2.45729,-15.122,-5.27439,4.78659
307.719,69.1401,3.79755,0,7.7407,2.84528,5.91091,-0.182927,0.0304878,-1.70732,-39.1873,-3.76976,2.56267,-14.5427,-4.60366,4.84756
307.729,69.1383,3.79775,0,7.69759,2.85486,5.93486,0.152439,0,-1.55488,-38.9574,-3.91346,2.57225,-14.5122,-5.03049,3.93293
307.739,69.1398,3.80392,0,7.69759,2.83331,5.97797,-0.0304878,0,-1.58537,-39.1298,-3.7506,2.68721,-15.061,-5.06098,4.57317
307.749,69.1362,3.81388,0,7.70957,2.87402,5.9636,-0.0609756,0.0609756,-1.4939,-38.9478,-3.76976,2.74469,-15.6402,-4.90854,4.60366
307.759,69.1325,3.79489,0,7.69999,2.86923,5.99713,-0.0609756,0.0914634,-1.52439,-39.0532,-3.81766,2.25611,-14.7866,-5.70122,3.47561
307.769,69.1291,3.80836,0,7.70957,2.86205,6.01389,0.27439,0.213415,-1.64634,-39.1298,-3.86556,2.81175,-14.6341,-5.06098,4.32927
307.779,69.1278,3.80467,0,7.71436,2.88121,5.98755,-0.0914634,-0.152439,-1.25,-39.0149,-3.64522,2.51477,-14.4207,-5.4878,4.39024
307.789,69.1291,3.80661,0,7.69041,2.85486,5.98994,-0.0609756,0.0304878,-1.31098,-39.0244,-3.69312,2.61057,-15.9756,-5.33537,5.21341
307.799,69.1329,3.81165,0,7.73831,2.84528,5.95641,-0.152439,0.0914634,-1.46341,-38.9861,-3.7027,2.65847,-15.8841,-6.67683,5.18293
307.809,69.1288,3.80726,0,7.70717,2.88121,5.93965,-0.0304878,0.0304878,-1.43293,-39.0436,-3.7985,2.50519,-14.5122,-5.91463,5.21341
307.819,69.1291,3.81484,0,7.70957,2.86205,6.00671,0,0.0609756,-1.37195,-39.0149,-3.76976,2.70637,-15.6402,-6.21951,5.12195
307.829,69.1232,3.81992,0,7.73112,2.88121,5.98036,0,-0.396341,-1.70732,-39.0149,-3.91346,2.66805,-15.0915,-6.25,4.87805
307.839,69.1241,3.81669,0,7.70717,2.84289,5.94444,0.121951,-0.0609756,-1.58537,-38.9382,-3.81766,2.52435,-14.878,-5.85366,3.93293
307.849,69.1247,3.81514,0,7.66406,2.82373,5.97318,-0.152439,-0.121951,-1.64634,-38.9286,-3.7027,2.55309,-16.128,-5.09146,4.87805
307.859,69.1258,3.81475,0,7.71915,2.84289,5.98755,0.0609756,0.182927,-1.61585,-38.7945,-3.80808,2.56267,-15.8232,-5.2439,4.93902
307.869,69.1268,3.81729,0,7.69041,2.85486,5.89893,-0.0304878,-0.0304878,-1.34146,-39.0628,-3.81766,2.62973,-15.3659,-5.57927,5.2439
307.879,69.1324,3.81805,0,7.70238,2.82373,5.93246,0.0914634,-0.0304878,-1.46341,-39.0628,-3.74102,2.60099,-14.2988,-5.45732,4.87805
307.889,69.1323,3.83018,0,7.70957,2.85726,5.9636,-0.0609756,-0.0304878,-1.46341,-38.9765,-3.66438,2.79259,-14.0549,-5.30488,4.45122
307.899,69.133,3.83381,0,7.71675,2.85247,5.97797,0.0609756,0.121951,-1.4939,-39.216,-3.80808,2.66805,-14.3598,-6.0061,3.84146
307.909,69.1329,3.83458,0,7.69041,2.85726,5.97318,-0.121951,0.243902,-1.37195,-39.034,-3.68354,2.61057,-14.9085,-5.45732,4.69512
307.919,69.1308,3.82501,0,7.70957,2.85247,5.93486,-0.27439,0.121951,-1.67683,-39.1107,-3.77934,2.43813,-14.1159,-5.2439,4.26829
307.929,69.1312,3.82591,0,7.70957,2.85726,5.92767,0,0.27439,-1.43293,-39.1011,-3.74102,2.61057,-13.7195,-5.64024,3.9939
307.939,69.1299,3.84534,0,7.72394,2.87402,5.96599,-0.213415,0.152439,-1.40244,-38.8807,-3.78892,2.91713,-15.5793,-5.21341,3.75
307.949,69.1363,3.85023,0,7.73591,2.82133,5.97557,-0.0609756,-0.213415,-1.55488,-38.9861,-3.7027,2.68721,-15.4268,-5.2439,3.78049
307.959,69.1359,3.86252,0,7.72633,2.85007,5.95881,-0.0304878,0.182927,-1.64634,-39.0244,-3.96136,2.82133,-15.3963,-5.15244,4.84756
307.969,69.1401,3.86548,0,7.71196,2.85486,5.97318,0,0.243902,-1.18902,-39.0053,-3.9901,2.66805,-15.3963,-4.87805,4.78659
307.979,69.1434,3.86865,0,7.70957,2.84049,6.01389,-0.121951,0.213415,-1.40244,-39.1969,-3.82724,2.68721,-15.6707,-4.7561,4.66463
307.989,69.1451,3.86698,0,7.71196,2.84528,6.00431,0.0304878,-0.0304878,-1.46341,-39.1681,-3.86556,2.60099,-15.7317,-5.54878,5.18293
307.999,69.1453,3.88163,0,7.6928,2.84528,5.98276,-0.121951,0.0914634,-1.4939,-39.0244,-3.81766,2.86923,-14.7561,-6.43293,4.72561
308.009,69.145,3.87425,0,7.69041,2.84528,5.93725,0,-0.0914634,-1.52439,-39.1203,-3.64522,2.50519,-16.189,-6.28049,4.26829
308.019,69.1481,3.87086,0,7.71196,2.84528,5.94444,0.0609756,-0.0609756,-1.37195,-38.9478,-3.72186,2.55309,-14.9695,-7.7439,4.87805
308.029,69.1508,3.86663,0,7.71436,2.84768,5.97797,0.27439,-0.396341,-1.37195,-38.9095,-3.91346,2.53393,-15.0915,-7.65244,4.96951
308.039,69.157,3.86639,0,7.72394,2.83091,5.94923,0.0914634,-0.182927,-1.37195,-39.1969,-3.7506,2.62015,-14.878,-7.34756,5.30488
308.049,69.1645,3.87659,0,7.70717,2.81654,5.98755,0.0609756,0,-1.37195,-38.9382,-3.8464,2.78301,-14.1159,-7.22561,4.69512
308.059,69.1695,3.87938,0,7.71675,2.82852,5.96839,-0.0304878,0.152439,-1.43293,-38.9957,-3.81766,2.66805,-15.5183,-6.64634,4.63415
308.069,69.1741,3.87783,0,7.72394,2.81175,5.9612,-0.0304878,0.152439,-1.67683,-38.8424,-3.73144,2.58183,-15.6402,-7.56098,4.66463
308.079,69.1713,3.88045,0,7.70238,2.84768,5.95402,0.152439,0.365854,-1.67683,-39.034,-3.74102,2.66805,-15.6402,-6.85976,3.96341
308.089,69.1701,3.87632,0,7.69999,2.84289,5.94923,-0.243902,0.213415,-1.61585,-38.9957,-3.76018,2.55309,-14.9695,-6.09756,4.05488
308.099,69.1677,3.88173,0,7.73352,2.84049,5.94204,0.121951,0.121951,-1.89024,-39.0915,-3.71228,2.72553,-15.0305,-5,3.68902
308.109,69.165,3.88979,0,7.72154,2.85007,5.9612,-0.0914634,0.213415,-1.7378,-39.0819,-3.66438,2.77343,-15.0305,-5.27439,3.29268
308.119,69.1657,3.88012,0,7.70717,2.8357,5.9157,-0.0609756,0.0609756,-1.61585,-39.0244,-3.8464,2.46687,-15.9756,-5.73171,3.93293
308.129,69.1668,3.89642,0,7.71196,2.82852,6.01389,-0.0304878,0.304878,-1.67683,-38.8999,-3.86556,2.89797,-15.7317,-6.34146,3.32317
308.139,69.1646,3.91409,0,7.73591,2.85726,5.9636,0.0914634,0.121951,-1.67683,-39.0628,-3.98052,2.94587,-15.3963,-6.03659,3.71951
308.149,69.1558,3.93058,0,7.68562,2.88121,6.00671,-0.121951,0.0609756,-1.64634,-39.0532,-3.7506,2.93629,-15.6707,-6.18902,3.93293
308.159,69.1535,3.94618,0,7.71196,2.86923,5.92288,0.121951,0.213415,-1.43293,-38.9957,-3.66438,2.92671,-15.6707,-6.52439,4.2378
308.169,69.1508,3.96392,0,7.71436,2.86444,5.94204,-0.0304878,0.0914634,-1.55488,-39.0436,-3.92304,2.98419,-14.4207,-4.7561,3.65854
308.179,69.1465,3.98414,0,7.69999,2.85965,5.91809,0,0.243902,-1.67683,-39.034,-3.81766,3.03209,-15.8232,-6.61585,3.35366
308.189,69.1406,4.00063,0,7.6952,2.87881,5.97797,0.0304878,0.426829,-1.52439,-38.9286,-3.8464,2.97461,-15.0915,-6.25,3.75
308.199,69.1365,4.01906,0,7.72394,2.86444,5.94204,0.121951,-0.0609756,-1.7378,-39.0149,-3.72186,3.02251,-15.1829,-7.31707,3.56707
308.209,69.1288,4.01913,0,7.71196,2.89318,5.92288,0.121951,0.182927,-1.58537,-39.1298,-3.67396,2.72553,-16.0061,-7.34756,3.10976
308.219,69.1201,4.03287,0,7.70478,2.90755,5.98755,-0.0304878,0.0609756,-1.43293,-38.9382,-3.72186,2.94587,-15.4878,-7.9878,4.20732
308.229,69.1174,4.04565,0,7.69999,2.88121,5.97797,0,0.0914634,-1.31098,-38.9861,-3.87514,2.94587,-15.8841,-6.95122,4.39024
308.239,69.1153,4.04808,0,7.6952,2.87881,5.96839,-0.121951,-0.152439,-1.28049,-39.0149,-3.88472,2.77343,-15.2134,-8.29268,4.2378
308.249,69.1188,4.06769,0,7.71915,2.86684,5.92767,0.182927,-0.182927,-1.15854,-39.3502,-3.93262,3.09916,-15.0305,-8.07927,3.38415
308.259,69.1161,4.08436,0,7.69041,2.87163,5.98276,-0.0304878,-0.0914634,-1.40244,-39.264,-3.91346,3.05125,-15.1829,-9.08537,4.5122
308.269,69.1216,4.09311,0,7.6952,2.84768,5.9612,0.0609756,-0.396341,-1.15854,-39.1203,-3.95178,2.91713,-14.6646,-8.2622,3.71951
308.279,69.1266,4.09663,0,7.6928,2.86444,5.96599,0,-0.457317,-0.945122,-39.1298,-4.01884,2.83091,-13.9634,-8.87195,3.78049
308.289,69.1292,4.09214,0,7.6928,2.85486,5.99952,-0.0304878,-0.0609756,-1.21951,-39.1298,-3.7027,2.69679,-14.6646,-8.2622,5.03049
308.299,69.1302,4.10206,0,7.70957,2.87163,5.98515,-0.27439,0.0914634,-1.18902,-39.0915,-3.80808,2.93629,-14.9085,-9.48171,4.05488
308.309,69.1355,4.10717,0,7.68562,2.84049,5.97318,-0.335366,-0.213415,-1.18902,-39.0053,-3.76976,2.85007,-14.5427,-10.5183,4.05488
308.319,69.1349,4.11411,0,7.71436,2.89318,6.01868,-0.365854,-0.27439,-1.0061,-39.149,-3.80808,2.89797,-13.5366,-9.84756,3.90244
308.329,69.1457,4.10693,0,7.74549,2.85726,5.97557,-0.365854,0,-0.884146,-39.0915,-3.82724,2.64889,-14.5427,-11.372,4.29878
308.339,69.1528,4.12325,0,7.71436,2.86684,5.97797,-0.701219,-0.27439,-0.823171,-39.3502,-3.98052,3.07042,-14.3902,-11.6159,4.42073
308.349,69.1637,4.13382,0,7.72633,2.85007,5.95881,-0.152439,-0.426829,-0.853659,-39.3023,-3.88472,2.97461,-13.689,-12.5,4.17683
308.359,69.1771,4.12843,0,7.70717,2.82133,5.99234,-0.121951,-0.640244,-0.945122,-39.264,-3.92304,2.70637,-13.872,-11.0671,3.96341
308.369,69.1925,4.138,0,7.72633,2.80457,5.89414,-0.0609756,-0.152439,-1.09756,-39.1681,-3.92304,2.95545,-13.4756,-11.0976,4.14634
308.379,69.2112,4.14056,0,7.75986,2.79499,5.93246,-0.27439,0.243902,-1.09756,-39.034,-3.82724,2.83091,-13.3537,-11.0366,3.84146
308.389,69.226,4.142,0,7.73352,2.80696,5.9157,0.121951,0.0304878,-1.06707,-38.8807,-3.86556,2.80217,-14.2378,-11.0366,4.87805
308.399,69.2386,4.15027,0,7.74789,2.81415,5.98036,-0.121951,-0.121951,-1.12805,-38.7849,-3.74102,2.91713,-13.7805,-10.0305,4.5122
308.409,69.2527,4.14446,0,7.77902,2.80696,5.9133,0.213415,0.0609756,-1.21951,-38.8903,-3.73144,2.68721,-14.7256,-10.2744,4.11585
308.419,69.2625,4.13429,0,7.77184,2.83091,5.92767,0.182927,0.152439,-1.15854,-39.1203,-3.78892,2.62973,-14.9695,-8.47561,4.45122
308.429,69.266,4.14821,0,7.71915,2.8381,5.91091,0.0304878,0.365854,-1.25,-39.149,-3.78892,3.04167,-14.6646,-8.68902,3.93293
308.439,69.2661,4.16012,0,7.72873,2.86923,5.93725,0.0609756,0.27439,-1.09756,-39.3119,-3.91346,3.02251,-15.3963,-10.6098,4.08537
308.449,69.2698,4.18222,0,7.70717,2.84528,5.95881,-0.0304878,0.548781,-1.06707,-39.4364,-3.72186,3.21412,-15.2134,-11.8598,3.32317
308.459,69.2716,4.19254,0,7.6928,2.83331,5.97078,-0.152439,0.579268,-1.28049,-39.4172,-3.71228,3.01293,-14.878,-14.5122,3.38415
308.469,69.2726,4.20287,0,7.71196,2.82373,5.97318,0.243902,0.457317,-1.55488,-39.4651,-4.07632,3.02251,-14.939,-14.9085,3.87195
308.479,69.2807,4.21435,0,7.71915,2.82852,5.95402,0.335366,0.365854,-1.03659,-39.264,-3.87514,3.03209,-14.2073,-15.5488,2.9878
308.489,69.2913,4.21241,0,7.73831,2.80457,5.98276,0.304878,0.365854,-1.21951,-39.0628,-3.91346,2.79259,-15.2744,-15.3963,3.44512
308.499,69.2973,4.21918,0,7.73352,2.82373,5.96839,0.152439,0.243902,-1.25,-38.8807,-3.82724,2.92671,-14.2988,-15.8841,4.57317
308.509,69.2974,4.22191,0,7.7431,2.85007,5.95641,0.548781,0.152439,-1.37195,-38.9382,-3.93262,2.86923,-14.1768,-14.9085,4.14634
308.519,69.3013,4.25577,0,7.72154,2.84049,5.92767,0.609756,0.548781,-1.12805,-39.0532,-3.90388,3.4153,-13.5671,-15.9756,3.41463
308.529,69.3012,4.27811,0,7.69999,2.85247,5.95881,0,0.457317,-1.12805,-39.1011,-3.77934,3.23328,-13.2317,-18.75,3.68902
308.539,69.3078,4.27991,0,7.69759,2.82373,5.98755,0.121951,0.579268,-1.03659,-39.0436,-3.97094,2.88839,-13.1707,-18.7195,1.82927
308.549,69.3135,4.2788,0,7.67364,2.82373,5.98276,0.213415,0.914634,-0.97561,-39.1298,-3.9901,2.85007,-13.7805,-17.4085,1.92073
308.559,69.3209,4.28246,0,7.67125,2.80457,5.9612,0.548781,0.914634,-1.09756,-39.0532,-3.93262,2.92671,-12.3476,-17.2256,0.945122
308.569,69.3343,4.29973,0,7.67604,2.79259,5.99473,0.213415,0.609756,-0.884146,-39.1586,-3.83682,3.16622,-13.0183,-19.3902,1.52439
308.579,69.3489,4.30423,0,7.70957,2.78062,5.9636,0.152439,0.518293,-1.06707,-39.4268,-3.98052,2.97461,-12.6829,-19.939,2.53049
308.589,69.364,4.28146,0,7.7431,2.77583,5.94444,0.27439,0.670732,-1.18902,-39.331,-3.82724,2.50519,-12.7134,-17.1341,0.640244
308.599,69.3606,4.30449,0,7.73112,2.86923,5.99713,0.304878,0.27439,-1.15854,-39.3693,-3.88472,3.29076,-13.1098,-17.1646,1.98171
308.609,69.362,4.3377,0,7.73831,2.87642,6.057,-0.0914634,-0.243902,-0.701219,-39.5609,-3.69312,3.49194,-12.1951,-19.9695,1.67683
308.619,69.3676,4.36886,0,7.71675,2.8381,6.08335,0.0609756,-0.27439,-0.853659,-39.4939,-3.83682,3.4632,-13.3841,-22.8354,0.97561
308.629,69.3751,4.39903,0,7.71436,2.84289,6.06419,0.213415,0.365854,-0.640244,-39.6184,-3.63564,3.47278,-12.6829,-24.5122,1.06707
308.639,69.3813,4.41158,0,7.64969,2.77583,6.03305,0.0914634,0.518293,-1.31098,-39.4939,-3.76976,3.1758,-13.3232,-23.9329,1.82927
308.649,69.3854,4.42325,0,7.65209,2.7902,5.98994,-0.0609756,0.670732,-1.28049,-39.0915,-3.62606,3.13748,-12.2866,-23.75,2.13415
308.659,69.3852,4.43429,0,7.65927,2.79738,5.93965,0.0304878,0.0609756,-1.52439,-39.0819,-3.73144,3.1279,-13.9329,-25.4878,2.37805
308.669,69.3826,4.47453,0,7.62095,2.82612,5.97557,0.243902,-0.457317,-1.09756,-39.0436,-4.12422,3.63564,-14.3598,-26.4024,2.86585
308.679,69.3798,4.48431,0,7.66167,2.82852,5.93965,0.335366,-0.762195,-1.31098,-39.034,-4.02842,3.1279,-14.7866,-28.2927,3.23171
308.689,69.3742,4.5238,0,7.65927,2.85965,6.00671,0.27439,-0.670732,-1.03659,-39.1873,-3.96136,3.6548,-14.5122,-30.9451,2.86585
308.699,69.3674,4.55313,0,7.65688,2.85486,5.99234,0.579268,-0.396341,-1.21951,-39.3119,-4.02842,3.5111,-12.8049,-32.5,3.38415
308.709,69.3564,4.59029,0,7.63293,2.88839,6.03066,0.365854,-1.28049,-0.823171,-39.1586,-4.0859,3.64522,-13.3537,-35,5.2439
308.719,69.347,4.62697,0,7.64969,2.886,6.0091,0.487805,-1.67683,-0.884146,-38.9286,-4.24876,3.63564,-12.1341,-36.5549,5.36585
308.729,69.3402,4.65292,0,7.66646,2.88839,5.98515,0.0609756,-2.0122,-0.731707,-38.9574,-4.1338,3.47278,-12.1951,-38.0488,5.70122
308.739,69.338,4.68317,0,7.6928,2.8836,5.95881,-0.182927,-1.67683,-0.640244,-39.0244,-4.1817,3.56858,-12.3476,-38.75,5.09146
308.749,69.34,4.7137,0,7.74549,2.87881,5.94204,-0.304878,-1.28049,-0.731707,-39.3023,-4.23918,3.61648,-11.8598,-39.7561,5.51829
308.759,69.3482,4.73921,0,7.70478,2.85486,5.9133,-0.304878,-1.09756,-0.457317,-39.5993,-4.31582,3.56858,-12.378,-42.1341,5.73171
308.769,69.3492,4.80054,0,7.76705,2.91234,5.94204,-0.457317,-1.09756,-0.304878,-40.0016,-4.49785,4.24876,-12.622,-45.4573,4.2378
308.779,69.3641,4.86416,0,7.77902,2.82133,5.95641,-0.884146,-0.853659,-0.823171,-40.1645,-4.33499,4.33499,-12.7744,-49.9085,4.08537
308.789,69.3812,4.90224,0,7.8389,2.82373,6.00671,-0.945122,-1.18902,-0.853659,-40.3657,-4.21044,3.93262,-12.3476,-52.7744,5.03049
308.799,69.3975,4.94669,0,7.8365,2.76385,5.96599,-0.884146,-1.18902,-1.4939,-40.1741,-4.19128,4.04758,-13.0183,-54.878,5.36585
308.809,69.414,4.99024,0,7.86764,2.74709,5.92288,-0.670732,-1.37195,-1.7378,-39.8962,-4.0859,4.02842,-11.6768,-56.7073,5.94512
308.819,69.4285,5.03592,0,7.80776,2.70158,5.93246,-0.97561,-0.97561,-2.10366,-39.5609,-4.30625,4.05716,-11.7073,-58.2317,7.0122
308.829,69.4313,5.09407,0,7.80297,2.73272,5.87738,-0.701219,-0.640244,-2.59146,-39.2735,-4.15296,4.26792,-11.6463,-61.0976,7.13415
308.839,69.43,5.1315,0,7.77423,2.73511,5.90612,-0.701219,0.365854,-2.77439,-39.0532,-4.1817,3.92304,-11.7988,-61.189,8.68902
308.849,69.4196,5.18156,0,7.75507,2.76385,5.88456,-0.365854,0.396341,-3.14024,-38.6508,-3.82724,4.12422,-10.7317,-61.5854,7.37805
308.859,69.4173,5.24731,0,7.77663,2.7423,5.90133,-0.518293,0.579268,-2.80488,-38.8137,-3.7985,4.44037,-11.6159,-63.75,8.17073
308.869,69.4148,5.30861,0,7.76465,2.74709,5.93007,0,0.640244,-2.71341,-38.9957,-3.92304,4.42121,-12.2256,-66.0671,8.01829
308.879,69.4146,5.34568,0,7.75507,2.75427,5.92288,0.182927,0.670732,-2.40854,-38.9095,-4.04758,4.02842,-11.8902,-67.439,8.41463
308.889,69.4099,5.40763,0,7.75986,2.76864,5.95641,0.548781,1.0061,-2.62195,-39.034,-3.90388,4.49785,-9.39024,-68.0488,7.5
308.899,69.4139,5.50472,0,7.79579,2.73511,5.91809,0.426829,0.945122,-2.46951,-39.2544,-4.00926,5.17803,-9.60366,-69.6951,8.23171
308.909,69.4164,5.59265,0,7.80058,2.72793,5.89893,0.823171,1.34146,-2.68293,-39.149,-3.8943,5.06307,-7.9878,-71.9817,7.37805
308.919,69.4296,5.67223,0,7.81255,2.70637,5.88935,1.15854,1.64634,-2.16463,-39.1681,-3.98052,4.97685,-8.41463,-72.8963,8.14024
308.929,69.4395,5.77044,0,7.79579,2.692,5.9133,1.55488,2.2561,-2.46951,-39.2352,-3.92304,5.36005,-7.5,-75.3659,8.84146
308.939,69.4382,5.87978,0,7.81495,2.73751,5.94204,1.95122,2.31707,-2.89634,-39.4268,-3.80808,5.64746,-8.14024,-76.7988,8.59756
308.949,69.438,5.9991,0,7.87003,2.72314,5.88935,1.89024,2.95732,-3.20122,-39.4076,-3.9901,5.88696,-7.59146,-80.1219,9.78659
308.959,69.435,6.11422,0,7.8389,2.72314,5.87738,2.28659,2.65244,-3.32317,-39.1681,-3.98052,5.85822,-9.39024,-80.7622,10.7622
308.969,69.4174,6.24592,0,7.75986,2.77583,5.98994,2.19512,3.01829,-3.65854,-38.9574,-3.7506,6.19352,-10.0305,-82.1341,10.9756
308.979,69.3964,6.36506,0,7.77423,2.80457,5.94923,2.22561,3.23171,-3.71951,-38.737,-3.8943,6.03066,-10.2134,-81.9512,12.1037
308.989,69.3699,6.48912,0,7.73352,2.84049,5.98036,2.0122,3.07927,-3.62805,-38.7466,-3.86556,6.19352,-9.78659,-84.0854,11.2195
308.999,69.3363,6.61356,0,7.72873,2.89318,5.98515,1.79878,2.65244,-3.65854,-38.7754,-3.83682,6.28932,-10.2744,-84.5427,10.2439
309.009,69.3011,6.74664,0,7.68801,2.886,6.0091,1.64634,2.65244,-3.78049,-38.6891,-3.99968,6.50966,-11.0671,-85.5183,10.4878
309.019,69.2628,6.88804,0,7.6449,2.89558,6.08574,1.43293,2.62195,-3.81098,-38.7849,-3.97094,6.75875,-11.128,-87.3171,9.39024
309.029,69.2247,7.02853,0,7.64251,2.88839,6.02587,1.12805,2.80488,-3.96341,-38.6221,-3.7985,6.80665,-10.2744,-89.0549,8.87195
309.039,69.1902,7.16798,0,7.56108,2.84768,6.04982,1.25,2.56098,-3.81098,-38.7658,-3.81766,6.90245,-9.26829,-91.7073,9.02439
309.049,69.1465,7.28158,0,7.56347,2.86684,6.09053,0.731707,2.19512,-4.57317,-38.737,-3.7027,6.5384,-8.78049,-92.1646,8.81098
309.059,69.0932,7.40759,0,7.54431,2.91474,6.02108,0.823171,1.55488,-4.87805,-38.2389,-3.97094,6.74917,-6.67683,-91.7073,7.62195
309.069,69.0418,7.53878,0,7.55868,2.90995,6.03784,0.853659,1.15854,-4.93902,-38.1527,-4.00926,6.91203,-4.72561,-91.2805,8.10976
309.079,68.9951,7.69918,0,7.57545,2.89558,6.06658,0.701219,1.0061,-4.84756,-38.4784,-4.1817,7.57305,-2.77439,-91.9512,9.42073
309.089,68.9477,7.86425,0,7.57066,2.886,6.03066,0.609756,0.701219,-5.12195,-38.3634,-3.90388,7.73591,-2.10366,-94.2988,8.81098
309.099,68.9045,8.03149,0,7.60898,2.86205,6.1049,0.579268,1.09756,-5.30488,-38.555,-3.97094,7.92751,-1.03659,-94.6646,8.29268
309.109,68.8655,8.184,0,7.5994,2.81175,6.12167,0.457317,1.06707,-5.60976,-38.1718,-3.83682,7.70717,0.0914634,-94.5122,7.7439
309.119,68.8271,8.34498,0,7.62814,2.81415,6.1073,0.792683,0.823171,-5.73171,-38.0664,-3.72186,7.94667,0.701219,-92.439,7.37805
309.129,68.7818,8.51651,0,7.61856,2.85247,6.03066,0.853659,0.426829,-5.94512,-38.2006,-3.76976,8.2724,0.0914634,-92.5,8.38415
309.139,68.7341,8.70175,0,7.64251,2.85726,6.04503,1.18902,-0.487805,-6.34146,-38.4113,-3.76976,8.68434,0.823171,-91.8293,8.29268
309.149,68.6853,8.88425,0,7.67125,2.886,6.04982,1.09756,-0.823171,-6.31098,-38.5933,-3.7027,8.80888,-0.0609756,-91.5244,7.46951
309.159,68.6384,9.06462,0,7.6473,2.87642,6.04982,0.762195,-1.0061,-6.21951,-38.5646,-3.59732,8.88552,-0.0304878,-93.7805,8.96341
309.169,68.59,9.21494,0,7.6473,2.87881,6.04024,1.0061,-0.853659,-6.43293,-38.4975,-3.47278,8.464,0.518293,-93.1098,9.42073
309.179,68.5361,9.34865,0,7.58503,2.89318,5.9612,1.15854,-0.853659,-6.58537,-37.9419,-3.56858,8.15744,1.58537,-92.4695,10.5488
309.189,68.478,9.49743,0,7.54431,2.89318,5.95641,1.06707,-1.76829,-6.92073,-37.8269,-3.49194,8.48316,4.02439,-94.0549,11.6768
309.199,68.4129,9.67815,0,7.55629,2.98419,5.96599,1.18902,-1.52439,-6.58537,-38.2868,-3.82724,9.23999,4.08537,-99.6037,10.6402
309.209,68.3382,9.866,0,7.55389,3.07521,5.94204,1.09756,-1.79878,-6.46341,-38.8233,-3.64522,9.61361,4.39024,-103.78,10.8537
309.219,68.2652,10.0657,0,7.61137,3.11592,5.98515,0.762195,-1.82927,-6.21951,-38.9861,-3.64522,9.98723,4.11585,-109.207,10.3049
309.229,68.2012,10.2831,0,7.6449,3.08958,6.07137,0,-1.64634,-5.97561,-39.0149,-3.47278,10.4471,3.01829,-114.329,8.84146
309.239,68.1435,10.4923,0,7.64011,3.00814,6.11928,-0.304878,-0.792683,-6.52439,-38.6987,-3.63564,10.3609,3.17073,-116.677,9.93902
309.249,68.0834,10.6697,0,7.59461,2.99138,6.14323,-0.670732,-0.670732,-6.85976,-38.3155,-3.45362,9.82437,3.62805,-119.39,10.1829
309.259,68.013,10.8065,0,7.59221,3.06323,6.09293,-0.579268,-1.03659,-7.07317,-37.7982,-3.3195,9.10586,4.5122,-116.768,11.5244
309.269,67.9354,10.9764,0,7.52036,3.10634,6.057,-0.426829,-1.55488,-6.98171,-37.4437,-3.52068,9.70941,5.42683,-113.11,11.8902
309.279,67.8493,11.175,0,7.51318,3.19975,5.98276,-0.792683,-2.68293,-6.7378,-37.8461,-3.9901,10.4375,4.2378,-115.823,12.3476
309.289,67.7753,11.3549,0,7.51797,3.14466,6.0594,-0.670732,-2.83537,-6.43293,-38.0856,-4.038,10.3034,7.04268,-117.226,11.0366
309.299,67.7171,11.5494,0,7.51078,3.02012,6.12167,-0.426829,-3.2622,-6.58537,-38.2485,-4.00926,10.7345,8.56707,-119.39,9.90854
309.309,67.6709,11.7756,0,7.48683,2.90037,6.13843,-0.731707,-4.35976,-6.98171,-38.2006,-4.05716,11.4147,11.2195,-126.037,10.7622
309.319,67.6168,12.0248,0,7.5036,2.90516,6.14323,-0.426829,-5.45732,-7.89634,-38.3059,-3.77934,12.0182,10.9756,-131.067,11.2805
309.329,67.5521,12.2495,0,7.53473,2.95785,6.10251,-0.731707,-6.46341,-8.53659,-37.9994,-3.81766,11.6446,10.6098,-134.177,13.3232
309.339,67.4838,12.4915,0,7.63053,3.01533,6.09532,-0.731707,-7.5,-8.78049,-37.9802,-3.44404,12.1044,9.90854,-138.079,13.9024
309.349,67.4202,12.7275,0,7.64011,2.9794,6.07137,-1.34146,-8.35366,-8.96341,-37.2809,-3.04167,11.9416,9.2378,-139.116,15.8537
309.359,67.3593,12.9855,0,7.65209,2.94587,6.07377,-1.46341,-8.75,-9.32927,-37.5108,-2.84049,12.5834,7.13415,-141.28,15.3049
309.369,67.2861,13.2296,0,7.55389,2.95545,6.09532,-1.95122,-8.71951,-10.061,-37.415,-2.89797,12.4876,5.27439,-139.97,14.2378
309.379,67.2051,13.4817,0,7.52276,2.95066,6.057,-1.76829,-9.05488,-10.9146,-37.2809,-2.70637,12.775,4.45122,-137.256,14.5122
309.389,67.1115,13.7504,0,7.41977,2.97222,5.98036,-1.46341,-10.8841,-11.5244,-37.0605,-2.56267,13.187,1.28049,-137.47,15.2744
309.399,66.9948,13.9792,0,7.54431,3.2213,5.78397,-2.19512,-11.7073,-11.4329,-36.8402,-3.01293,12.5643,0.670732,-141.006,16.311
309.409,66.8602,14.1735,0,7.46288,3.33866,5.7696,-3.14024,-11.9207,-11.4939,-36.7252,-3.09916,12.0565,-1.09756,-143.476,16.5244
309.419,66.7453,14.4171,0,7.57066,3.26202,5.76721,-4.29878,-11.4024,-11.372,-36.4282,-3.3195,12.9666,-0.609756,-147.957,17.2866
309.429,66.6471,14.6991,0,7.61856,3.13987,5.83427,-4.35976,-11.2805,-11.7683,-36.3899,-3.11832,13.8001,-0.823171,-155.64,18.75
309.439,66.5603,14.9831,0,7.66406,3.09197,5.81511,-3.9939,-10.7317,-11.6768,-36.754,-2.92671,14.1546,-0.640244,-163.354,20.0915
309.449,66.4694,15.2842,0,7.70478,3.15664,5.80074,-4.08537,-10.2744,-11.6463,-36.5624,-3.03209,14.5952,-1.12805,-166.768,21.9207
309.459,66.3733,15.588,0,7.80776,3.25962,5.80313,-4.20732,-11.372,-11.5854,-36.3516,-3.09916,14.7773,-1.25,-168.14,23.5671
309.469,66.2813,15.8462,0,7.95386,3.30992,5.71691,-3.90244,-11.7073,-11.4939,-36.1504,-2.78301,14.0779,-4.32927,-168.262,24.9085
309.479,66.194,16.2142,0,7.89877,3.28597,5.71452,-4.29878,-11.2805,-11.2195,-35.9876,-2.83091,16.243,-2.0122,-171.037,25.6402
309.489,66.1166,16.5266,0,7.91554,3.18059,5.74565,-4.54268,-11.9207,-11.7988,-35.0966,-3.09916,15.0934,-3.20122,-168.171,25.7317
309.499,66.0257,16.8522,0,7.72394,3.15664,5.84385,-4.54268,-12.2561,-12.6524,-35.4511,-2.93629,15.7257,-4.48171,-167.195,25.3659
309.509,65.9399,17.1611,0,7.95865,3.21412,5.54208,-4.35976,-9.45122,-12.8049,-35.2403,-2.95545,15.5724,-3.93293,-164.238,25.122
309.519,65.8493,17.4648,0,7.86045,3.23567,5.53729,-5.67073,-9.26829,-12.6829,-35.0966,-2.95545,15.6491,-3.78049,-161.311,22.5305
309.529,65.7732,17.7719,0,7.92751,3.16861,5.50615,-6.15854,-10.122,-12.5915,-34.7901,-3.02251,15.8119,-2.62195,-157.439,21.9207
309.539,65.7086,18.1106,0,8.01613,3.07521,5.50615,-6.37195,-10.7012,-13.2012,-34.7901,-3.13748,16.6262,-3.53659,-157.866,21.4634
309.549,65.6388,18.4001,0,7.86285,3.05604,5.69057,-6.79878,-11.2195,-13.3537,-34.2919,-3.01293,15.7353,-0.365854,-156.037,22.4085
309.559,65.5614,18.6906,0,7.80058,3.0273,5.64027,-6.58537,-12.1037,-14.3293,-33.8704,-3.07042,15.7928,-1.18902,-148.72,24.7866
309.569,65.4548,19.0688,0,7.80776,3.23807,5.61393,-7.71341,-12.8963,-14.7866,-34.2536,-3.00335,17.8429,-1.52439,-146.829,24.1159
309.579,65.343,19.4457,0,7.90835,3.33147,5.70494,-7.65244,-12.7439,-14.878,-34.7996,-2.94587,18.3985,-2.7439,-145.732,24.6646
309.589,65.2435,19.7918,0,7.97302,3.25483,5.66901,-6.34146,-12.5,-15.1524,-35.0679,-2.54351,18.2357,-3.71951,-143.628,23.7195
309.599,65.1283,20.1617,0,7.80297,3.29315,5.68578,-6.06707,-10.5488,-15.5793,-34.7326,-2.47645,18.8009,-4.7561,-142.5,23.4756
309.609,65.0043,20.5139,0,7.87003,3.44643,5.61393,-4.66463,-8.17073,-15.1524,-33.8895,-2.62015,18.2932,-5.03049,-140.579,23.2317
309.619,64.8727,20.8694,0,7.791,3.54942,5.58998,-4.11585,-6.4939,-14.4512,-33.171,-2.59141,18.2357,-4.45122,-139.543,25.2134
309.629,64.7426,21.2505,0,7.76465,3.64522,5.66901,-4.81707,-6.34146,-13.2317,-33.2189,-2.74469,19.0212,-4.39024,-141.006,26.311
309.639,64.6224,21.6221,0,7.67125,3.56618,5.60914,-5.45732,-6.46341,-12.9268,-32.9603,-2.84049,18.9829,-1.37195,-140.854,27.0122
309.649,64.5259,21.9922,0,7.8868,3.48954,5.51813,-4.72561,-5.54878,-12.9268,-32.5675,-2.98419,19.0117,1.46341,-139.665,27.6829
309.659,64.4096,22.3482,0,7.62095,3.57337,5.54926,-4.60366,-7.95732,-12.5915,-32.395,-2.99377,18.9254,3.53659,-139.421,28.0183
309.669,64.2938,22.7244,0,7.60658,3.57097,5.54687,-4.72561,-8.81098,-12.7134,-32.3855,-2.94587,19.5865,5.18293,-137.805,28.5976
309.679,64.1842,23.1312,0,7.5491,3.52786,5.50376,-4.63415,-9.17683,-12.5305,-32.0502,-2.30401,20.2667,5.51829,-139.695,26.7378
309.689,64.0645,23.5266,0,7.65448,3.62366,5.42472,-5.21341,-8.17073,-13.2012,-32.0023,-2.26569,20.3241,4.26829,-140.427,24.6037
309.699,63.962,23.9226,0,7.73831,3.58295,5.35047,-5.82317,-7.77439,-12.6829,-31.9065,-2.37107,20.5828,3.93293,-141.677,22.622
309.709,63.8545,24.3206,0,7.67604,3.59492,5.3361,-5.94512,-7.68293,-12.8963,-31.37,-1.79626,20.5924,1.7378,-139.665,21.5244
309.719,63.7569,24.73,0,7.7431,3.61887,5.42472,-5.57927,-7.13415,-12.1951,-31.1784,-1.73878,21.0235,0.0914634,-134.726,21.8293
309.729,63.6738,25.1122,0,7.79339,3.57576,5.49178,-4.84756,-6.28049,-11.7378,-31.8202,-1.93039,21.2534,-3.62805,-129.726,20.8537
309.739,63.6127,25.4965,0,7.77902,3.40332,5.53729,-4.08537,-6.46341,-11.7378,-31.552,-2.04535,21.445,-5.45732,-124.055,21.7073
309.749,63.5476,25.9441,0,7.73831,3.41051,5.54447,-2.86585,-8.5061,-11.9512,-31.1975,-1.70046,22.8054,-5.09146,-128.049,21.4024
309.759,63.4591,26.3231,0,7.67125,3.58055,5.57321,-3.38415,-8.01829,-11.9512,-31.6382,-1.91123,22.0485,-4.32927,-129.329,23.1098
309.769,63.3749,26.7059,0,7.79818,3.60929,5.50376,-3.17073,-9.60366,-12.0732,-31.734,-1.69088,22.5084,-2.56098,-129.939,20.8232
309.779,63.2907,27.1115,0,7.87482,3.72665,5.37921,-3.07927,-9.11585,-11.25,-31.14,-1.1544,22.8724,-3.29268,-131.372,21.7073
309.789,63.2174,27.4886,0,8.0784,3.78653,5.37442,-3.62805,-8.01829,-10.7317,-31.1688,-1.51844,22.6425,-4.45122,-128.811,22.6524
309.799,63.1645,27.8434,0,7.93709,3.53984,5.31694,-4.5122,-6.58537,-11.0061,-30.6323,-1.35558,22.1156,-4.5122,-125.244,21.6463
309.809,63.1028,28.2336,0,7.81734,3.53744,5.29778,-4.69512,-5.33537,-11.372,-30.0479,-1.57592,22.7192,-5.33537,-122.104,19.878
309.819,63.0244,28.6336,0,7.70957,3.66438,5.3385,-4.48171,-4.96951,-11.0061,-29.8946,-1.4897,23.1407,-4.81707,-119.573,19.7866
309.829,62.9526,29.0161,0,7.76705,3.70749,5.36724,-3.65854,-5.36585,-10.3049,-30.4024,-1.28852,23.5143,-5.64024,-116.159,19.6951
309.839,62.8901,29.3805,0,7.86524,3.77934,5.34808,-4.32927,-5.27439,-9.20732,-30.4215,-1.36516,23.476,-4.90854,-113.354,19.4512
309.849,62.8573,29.7281,0,8.01374,3.64043,5.32173,-4.48171,-4.84756,-8.81098,-30.182,-0.991538,23.2652,-5.60976,-107.439,17.2256
309.859,62.8132,30.0896,0,7.77423,3.57576,5.29299,-4.39024,-4.32927,-9.48171,-29.9904,-0.704136,23.7251,-8.87195,-103.14,15.7927
309.869,62.7557,30.4439,0,7.65927,3.6524,5.27144,-3.90244,-3.47561,-9.32927,-30.0575,-0.474214,23.9358,-9.72561,-101.707,15.7317
309.879,62.7083,30.8045,0,7.76465,3.65959,5.27383,-3.10976,-1.79878,-8.93293,-29.9425,-0.330513,24.2903,-10.7317,-101.037,16.6463
309.889,62.6561,31.1324,0,7.68562,3.72665,5.42232,-2.9878,-1.92073,-8.23171,-29.8755,-0.273032,23.84,-11.5549,-100.152,17.6524
309.899,62.6405,31.4554,0,7.8365,3.58055,5.44627,-2.83537,-1.12805,-7.28659,-29.7318,-0.282612,23.9071,-12.2561,-98.2012,18.3841
309.909,62.6298,31.7396,0,7.84848,3.49194,5.45106,-3.29268,0.152439,-7.9878,-28.8504,0.407153,22.6808,-13.872,-93.1402,24.0549
309.919,62.5986,32.1292,0,7.71196,3.54942,5.37921,-3.5061,0.609756,-8.59756,-30.3545,-0.761616,26.5129,-19.2073,-89.3902,27.7744
309.929,62.5593,32.5039,0,7.74549,3.64522,5.34568,-3.14024,-0.396341,-8.5061,-28.3139,-2.35191,24.731,-20.3963,-91.7378,15.4268
309.939,62.5172,32.8142,0,7.83411,3.68594,5.49417,-3.68902,-1.46341,-8.87195,-28.4864,-1.90165,23.8304,-19.878,-85.9451,5.79268
309.949,62.4952,33.1096,0,7.91075,3.63324,5.54208,-2.80488,-2.0122,-7.9878,-28.4959,-1.48012,23.8113,-13.6585,-79.2073,1.89024
309.959,62.4794,33.4106,0,7.92991,3.65719,5.3864,-1.79878,-1.34146,-7.22561,-28.4289,-1.35558,24.1657,-11.189,-69.5122,4.32927
309.969,62.4728,33.7235,0,7.81974,3.51828,5.41514,-1.64634,-0.152439,-7.40854,-28.3906,-1.40348,24.6639,-9.26829,-67.0427,7.83537
309.979,62.4568,34.036,0,7.61856,3.51349,5.45106,-0.701219,0.0304878,-7.28659,-28.3427,-1.71962,24.8843,-6.52439,-67.1037,9.66463
309.989,62.4161,34.3406,0,7.39582,3.62606,5.46783,0.762195,-2.7439,-7.07317,-28.381,-1.79626,25.0088,-3.90244,-69.0549,11.7988
309.999,62.3846,34.6257,0,7.46049,3.63803,5.3385,2.0122,-3.84146,-6.46341,-28.5438,-1.64298,24.9896,-1.79878,-68.5671,12.439
310.009,62.3446,34.8965,0,7.52515,3.81527,5.30497,1.95122,-3.93293,-5.57927,-28.3235,-1.61424,24.7406,0.457317,-66.0671,12.1341
310.019,62.3125,35.1827,0,7.66646,3.85838,5.2906,1.31098,-2.80488,-5.21341,-28.0648,-1.52802,25.1142,2.2561,-60.2134,15.4878
310.029,62.2828,35.4774,0,7.6928,3.88472,5.22354,1.61585,-1.03659,-4.87805,-27.9595,-1.06818,25.4782,2.83537,-57.4695,13.9939
310.039,62.2422,35.7491,0,7.61137,3.95418,5.30736,1.46341,-0.731707,-4.69512,-28.1894,-0.857417,25.4399,-0.0304878,-55.2439,12.5915
310.049,62.2081,36.0177,0,7.62335,3.93023,5.36484,0.518293,-1.09756,-4.48171,-28.2181,-0.656235,25.6507,-2.13415,-52.5305,11.2805
310.059,62.1862,36.2796,0,7.68562,3.91825,5.32892,2.0122,-1.37195,-3.87195,-28.448,-0.579595,25.9476,-2.31707,-53.2622,10.4268
310.069,62.1581,36.5318,0,7.65688,4.03082,5.26665,2.28659,0.0914634,-2.9878,-28.4193,-0.665815,25.9381,-2.92683,-52.9878,8.84146
310.079,62.1315,36.7593,0,7.65688,4.07632,5.41274,2.0122,0.640244,-2.28659,-28.2469,-0.761616,25.4495,-3.5061,-51.9207,9.2378
310.089,62.114,37.0008,0,7.72154,4.10027,5.3864,2.5,1.18902,-1.52439,-27.8924,-0.886157,25.6507,-2.40854,-51.9512,8.47561
310.099,62.1603,37.2316,0,7.73352,3.77695,5.3385,2.28659,1.7378,-1.03659,-27.8732,-0.991538,25.6028,-1.89024,-52.5,10.1829
310.109,62.202,37.4606,0,7.55389,3.54702,5.36724,1.55488,1.85976,-2.2561,-27.9307,-0.905317,25.8231,-1.7378,-52.378,9.93902
310.119,62.2237,37.6828,0,7.51318,3.6548,5.33371,2.37805,0.579268,-2.28659,-28.1032,-0.550855,26.0434,-3.17073,-50.7927,10.4573
310.129,62.2407,37.9183,0,7.51797,3.71947,5.26904,3.04878,-0.640244,-1.98171,-28.1032,-0.445474,26.5608,-7.10366,-49.7256,8.75
310.139,62.258,38.121,0,7.64011,3.80329,5.41514,2.43902,-0.609756,-1.64634,-28.084,-0.445474,26.0051,-11.311,-47.8049,6.58537
310.149,62.3077,38.3126,0,7.81495,3.76976,5.45106,2.80488,-0.609756,-0.97561,-28.5055,-0.234712,26.3404,-14.878,-44.6037,5.30488
310.159,62.3732,38.4897,0,7.8868,3.74821,5.36005,3.04878,1.0061,-0.762195,-28.4576,-0.119751,26.1488,-16.7683,-41.5549,3.96341
310.169,62.4059,38.6448,0,7.92991,3.88712,5.2906,1.92073,2.71341,-1.06707,-28.7354,-0.493374,26.0722,-19.3902,-38.0488,2.28659
310.179,62.4704,38.8078,0,7.91314,3.77934,5.37203,2.07317,3.47561,-0.579268,-28.7738,-0.598755,26.4362,-19.7866,-37.3171,3.65854
310.189,62.5411,38.9546,0,7.7407,3.51828,5.46064,3.2622,3.23171,-1.40244,-29.0899,-0.809517,26.4937,-19.6646,-38.1707,5.70122
310.199,62.5764,39.0895,0,7.56108,3.57097,5.39598,4.60366,2.07317,-1.95122,-28.9558,-1.25978,26.2255,-20,-39.2988,6.09756
310.209,62.6161,39.2305,0,7.55389,3.59732,5.32173,5.51829,0.609756,-1.52439,-28.6492,-1.76752,26.1967,-18.9634,-42.5,5.82317
310.219,62.6293,39.3544,0,7.51797,3.69312,5.31694,6.12805,0.670732,-1.85976,-28.3043,-1.48012,25.6123,-17.1646,-43.8415,6.98171
310.229,62.6245,39.461,0,7.53713,3.87035,5.3361,5.45732,1.0061,-1.09756,-28.4385,-1.49928,25.4686,-14.7866,-40.5183,8.44512
310.239,62.6588,39.5529,0,7.7886,3.90149,5.4798,5.7622,0.823171,0,-28.4864,-1.22146,25.277,-11.9512,-39.7561,10.122
310.249,62.7134,39.6259,0,7.89877,3.86077,5.47741,6.85976,0.335366,-0.0304878,-28.6109,-1.17356,25.0471,-8.38415,-39.6341,9.66463
310.259,62.7828,39.701,0,7.88201,3.77695,5.34808,7.19512,1.46341,0.27439,-28.9654,-1.25978,25.4686,-5.4878,-40.0915,10.0305
310.269,62.9019,39.803,0,7.86764,3.60929,5.35287,8.65854,2.2561,0.0609756,-28.9941,-0.914897,26.168,-5.12195,-42.3171,10.0915
310.279,63.0102,39.8983,0,7.73352,3.49433,5.33131,9.45122,2.86585,-0.457317,-29.0133,-0.752036,26.1105,-2.7439,-45.3963,10.1524
310.289,63.0656,39.9898,0,7.63772,3.56618,5.13013,9.66463,2.62195,-1.03659,-28.7354,-0.828677,25.8518,-2.40854,-47.0122,10.8841
310.299,63.1157,40.0588,0,7.64011,3.58055,5.099,9.57317,2.5,-1.06707,-28.5247,-0.694556,25.2387,-1.67683,-46.2805,11.6159
310.309,63.1548,40.1488,0,7.74789,3.6045,5.31455,9.57317,1.0061,-1.43293,-28.8312,-0.771196,26.053,-4.39024,-46.2195,11.9207
310.319,63.1834,40.2352,0,7.76465,3.61648,5.35287,10.8841,1.06707,-1.82927,-28.8025,-0.809517,26.0339,-6.0061,-44.8476,14.3293
310.329,63.2058,40.3243,0,7.82932,3.64522,5.46064,11.7988,0.914634,-2.10366,-29.1091,-0.799937,26.4458,-7.28659,-46.4329,14.9695
310.339,63.2106,40.4048,0,7.74549,3.73863,5.41274,11.8598,-1.28049,-2.0122,-29.157,-0.847837,26.3692,-9.42073,-46.8293,14.7256
310.349,63.2384,40.4874,0,8.07122,3.68354,5.30497,10.8232,0.0304878,-2.31707,-29.3965,-0.713716,26.6949,-9.96951,-49.7866,15.3963
310.359,63.2408,40.5556,0,7.96823,3.73384,5.33131,10.4268,-0.27439,-3.29268,-29.3677,-0.416733,26.3979,-8.9939,-52.2256,17.4695
310.369,63.2274,40.607,0,7.9826,3.85838,5.26665,9.08537,-1.0061,-3.41463,-29.3869,-0.570015,26.0818,-8.5061,-53.3232,17.5305
310.379,63.2207,40.6797,0,8.09756,3.74342,5.35047,9.45122,-0.792683,-4.72561,-29.3773,-0.675395,26.5991,-8.17073,-57.6829,18.811
310.389,63.2008,40.7607,0,7.88919,3.66438,5.34808,8.81098,-1.37195,-5.85366,-29.7509,-0.723296,27.1835,-8.93293,-61.7073,17.9268
310.399,63.171,40.8259,0,7.82213,3.68114,5.22833,9.29878,-2.56098,-6.31098,-29.9904,-0.608335,27.0877,-11.4939,-64.5732,16.4939
310.409,63.1328,40.9172,0,7.81974,3.76976,5.27383,8.71951,-4.66463,-6.12805,-30,-0.742456,27.7774,-15.4878,-67.3171,17.1341
310.419,63.1033,41.0119,0,8.01853,3.76976,5.40795,8.9939,-6.61585,-6.46341,-29.7701,-0.445474,27.7104,-17.2561,-72.9268,15.6402
310.429,63.0497,41.1003,0,7.97062,3.87035,5.41035,9.2378,-7.65244,-7.5,-28.9654,-0.455054,26.8961,-19.6951,-73.7805,16.189
310.439,62.9642,41.1959,0,7.7431,3.97813,5.11097,6.03659,-8.2622,-8.23171,-28.6396,-0.531694,26.8482,-19.7866,-73.5671,18.3841
310.449,62.8899,41.2917,0,7.92512,3.91107,5.11097,2.43902,-6.58537,-9.14634,-28.2852,-1.1544,26.6087,-17.7134,-73.689,16.6463
310.459,62.8085,41.4053,0,8.02571,3.96855,5.27862,2.80488,-5.97561,-9.93902,-28.2756,-1.2981,27.1164,-15.3049,-72.7744,16.4939
310.469,62.7218,41.5023,0,7.90835,3.98292,5.50136,4.96951,-9.84756,-9.78659,-28.4001,-1.64298,26.944,-13.1098,-72.8659,16.4939
310.479,62.6377,41.5998,0,7.85087,3.98771,5.40316,6.40244,-11.189,-9.29878,-28.563,-2.22737,27.2122,-10.1829,-71.3415,16.7988
310.489,62.5301,41.7217,0,7.86524,4.21763,5.20438,5.79268,-10.122,-9.26829,-28.5822,-2.43813,27.9116,-6.21951,-72.0122,15.8232
310.499,62.4243,41.8751,0,8.00416,4.24158,5.11816,4.11585,-11.2805,-9.87805,-28.563,-2.26569,28.7929,-3.47561,-74.2378,14.878
310.509,62.3267,42.0464,0,7.95386,4.07153,4.97685,2.77439,-13.0488,-10.9146,-28.3522,-1.95913,29.1665,-2.28659,-78.7805,14.2988
310.519,62.2156,42.2113,0,7.95865,4.1338,5.09181,1.28049,-14.0549,-11.7988,-28.1127,-1.46096,28.9175,-0.27439,-81.1585,13.5061
310.529,62.0854,42.3686,0,7.75507,4.09548,5.22833,2.2561,-15.3049,-13.1707,-27.9307,-1.4418,28.6971,1.58537,-82.5,15.4878
310.539,61.9709,42.5331,0,7.91075,3.98531,5.27862,3.93293,-15.5793,-14.0854,-27.9882,-1.6334,29.0899,0.823171,-84.1768,14.7256
310.549,61.8565,42.7047,0,7.99218,4.01405,5.19719,3.56707,-11.8902,-14.4512,-28.0169,-1.346,29.4731,-0.0914634,-83.811,14.8171
310.559,61.7111,42.8977,0,7.9826,4.34457,5.36963,7.0122,-19.5732,-13.9939,-28.084,-1.4418,30.297,1.85976,-82.6829,14.4512
310.569,61.56,43.1008,0,8.23647,4.44276,5.06307,11.25,-24.4207,-15.3049,-28.5247,-1.11608,31.2454,1.92073,-84.6341,16.6463
310.579,61.392,43.3065,0,8.23408,4.54096,4.80201,10.2439,-24.7561,-16.25,-28.7067,-0.589175,31.7148,1.89024,-89.939,16.4634
310.589,61.219,43.5118,0,8.13588,4.38049,4.86189,8.41463,-19.4512,-18.2927,-28.5726,-0.560435,31.7627,1.4939,-94.0244,14.7561
310.599,61.0393,43.6988,0,8.0329,4.25116,5.22114,4.29878,-13.811,-20.1524,-28.563,-0.407153,31.4562,0.121951,-95.5183,12.7439
310.609,60.8491,43.9047,0,7.95865,4.26074,5.11576,3.81098,-11.5549,-21.0366,-27.5858,0.129331,31.0921,0.731707,-96.5854,15.5793
310.619,60.642,44.1326,0,8.01134,4.44995,5.23072,2.80488,-12.622,-21.3415,-26.6949,-0.282612,30.9101,0.670732,-96.1281,14.2988
310.629,60.4544,44.3707,0,7.79579,4.15775,5.15169,3.71951,-16.4329,-21.7683,-26.0913,-0.771196,30.7473,1.82927,-93.3537,13.3232
310.639,60.269,44.5943,0,7.95386,4.33259,5.17085,8.44512,-20.7317,-20.8841,-25.5836,-0.857417,30.0479,4.11585,-86.8293,11.2805
310.649,60.0848,44.8572,0,8.17181,4.52898,4.67508,10.9146,-23.1098,-20.3049,-25.0663,-0.799937,30.776,4.42073,-79.9085,13.0793
310.659,59.8998,45.1304,0,8.05445,4.35654,4.60323,8.62805,-18.9939,-21.9512,-24.913,-1.08734,31.1975,3.38415,-73.7195,13.5366
310.669,59.7134,45.3781,0,7.75747,4.0404,4.78525,8.10976,-18.2927,-24.2988,-25.0759,-0.426313,31.0155,0.396341,-68.8415,12.8963
310.679,59.4817,45.6346,0,7.66406,4.32062,4.58167,7.71341,-13.4756,-25.4268,-25.0471,0.0718506,31.5328,-1.82927,-63.9634,14.6646
310.689,59.2446,45.8965,0,7.7407,4.39247,4.74932,8.20122,-12.7439,-26.128,-25.4207,0.819097,32.4525,-3.5061,-64.9085,15.3354
310.699,59.0134,46.1364,0,8.06882,4.58407,5.17564,10.3963,-16.4024,-25.9451,-25.8039,1.12566,32.5962,-5.82317,-64.3293,15.5183
310.709,58.787,46.3649,0,8.28437,4.7134,4.78285,12.7744,-17.622,-25.8537,-25.8327,1.346,32.5962,-8.07927,-61.7073,15.8232
310.719,58.542,46.5974,0,8.21731,4.8571,4.59604,11.4329,-15.2439,-26.2805,-25.8902,1.21188,33.0752,-9.17683,-58.1402,16.4939
310.729,58.2946,46.8296,0,8.03769,4.75172,4.44755,10.4268,-10.5793,-27.0122,-25.392,1.0107,32.7303,-7.19512,-53.6585,14.4207
310.739,58.039,47.0489,0,7.77663,4.74932,4.29187,10.1829,-9.7561,-26.6768,-25.1717,0.359253,32.3855,-5.51829,-45.3659,12.9573
310.749,57.7759,47.2744,0,7.8868,4.88584,4.1338,12.6524,-8.56707,-27.2256,-25.1046,0.292192,32.7687,-4.11585,-40.0305,11.8598
310.759,57.5318,47.4816,0,8.10235,4.87386,4.43797,14.4207,-6.67683,-27.3476,-24.9322,0.129331,32.3088,-5.79268,-33.3537,11.372
310.769,57.3038,47.6872,0,8.3682,4.91937,4.67508,14.6037,-7.92683,-27.378,-24.9801,0.167651,32.5962,-10.3049,-27.6829,11.8293
310.779,57.0641,47.9162,0,8.32509,4.8092,4.38289,13.1098,-4.08537,-29.939,-25.1046,0.253872,33.7362,-14.4512,-25.2439,12.561
310.789,56.804,48.1494,0,8.14786,4.82357,4.65831,14.9695,-2.10366,-31.25,-25.0663,0.598755,34.1099,-16.372,-23.5976,15.6707
310.799,56.5269,48.396,0,8.46639,5.1948,4.32541,17.8963,-2.80488,-31.6768,-24.9034,1.04902,34.6368,-19.1768,-18.628,17.1646
310.809,56.2238,48.6034,0,8.27,5.21875,4.56012,18.9024,-1.46341,-33.4146,-25.4686,1.17356,34.5218,-20.6707,-10.122,18.4451
310.819,55.8893,48.7793,0,8.13828,5.32892,4.61281,19.1159,-0.457317,-35.2744,-25.7656,1.38432,34.2344,-17.8963,-2.40854,17.5
310.829,55.5035,48.9354,0,7.76465,5.50854,4.30864,18.628,2.56098,-36.8293,-26.2638,1.26936,34.5314,-15.6098,4.57317,15.9756
310.839,55.0745,49.0647,0,7.57784,5.87738,4.21523,18.1707,6.03659,-37.0427,-26.6853,1.08734,34.4452,-16.2195,6.67683,13.4451
310.849,54.6499,49.1682,0,7.56108,5.94923,4.74932,18.1402,3.84146,-36.6463,-26.7619,0.991538,33.9087,-19.1463,8.2622,12.0122
310.859,54.2284,49.2892,0,7.4557,5.89893,4.84752,21.5854,0.457317,-36.8902,-26.5703,0.0622705,34.359,-23.6585,12.0732,12.7439
310.869,53.8014,49.4183,0,7.47486,5.97318,4.29187,22.7134,-1.15854,-37.7439,-26.465,-0.397573,34.6272,-25,12.5915,13.75
310.879,53.3678,49.5624,0,7.50599,6.01868,4.1338,21.4329,-1.76829,-39.0854,-26.4745,-0.455054,35.2786,-23.2927,11.128,14.4817
310.889,52.9121,49.668,0,7.43893,6.19831,4.00687,21.2195,-1.64634,-40.0305,-26.5703,-0.186812,34.3685,-20.1524,12.8963,16.0366
310.899,52.444,49.7494,0,7.46288,6.30848,4.24876,23.75,0.548781,-41.4024,-26.8194,0.0335303,34.1003,-16.25,18.9024,17.1037
310.909,51.973,49.8451,0,7.62095,6.47134,4.64394,24.0549,-0.609756,-42.378,-27.5284,0.0239502,35.5756,-15.5183,20.2134,16.4329
310.919,51.4752,49.9146,0,7.47246,6.46895,4.07632,23.0793,-2.0122,-44.9695,-28.0265,0.234712,35.4798,-18.1707,19.1463,15.3354
310.929,50.9547,49.9687,0,7.40301,6.61504,4.14338,22.439,0.701219,-46.4634,-27.8349,0.598755,34.838,-21.0366,19.2073,11.4329
310.939,50.4367,50.0265,0,7.61377,6.69168,4.07872,21.6463,1.70732,-48.2317,-27.7295,1.04902,34.8859,-22.2866,18.5366,11.0671
310.949,49.8719,50.032,0,7.24254,6.84018,4.19847,22.1037,4.35976,-49.878,-27.4517,1.0107,33.0465,-21.3415,23.5366,11.4024
310.959,49.3155,50.0469,0,7.26888,6.98388,4.24397,23.0793,5.57927,-49.1768,-26.7619,0.656235,32.5292,-19.6341,29.7866,9.20732
310.969,48.7998,50.0895,0,7.39822,6.77312,3.96615,26.8598,3.07927,-48.9634,-26.6757,0.253872,33.286,-17.622,33.9939,8.68902
310.979,48.2647,50.1208,0,7.17787,6.9264,3.94699,28.5061,4.96951,-48.9329,-26.6374,0.282612,32.9603,-17.0427,35.5183,9.29878
310.989,47.7072,50.1385,0,6.85694,7.01022,4.29667,29.1159,7.31707,-48.9329,-26.532,0.253872,32.4908,-14.6646,40.122,10.061
310.999,47.1567,50.1368,0,6.59588,6.66294,3.71707,32.2561,8.47561,-50.061,-26.7907,0.215552,32.2992,-14.0244,46.4329,9.81707
311.009,46.6066,50.1424,0,6.61025,6.6366,3.73863,32.5,9.2378,-51.4939,-27.0398,0.704136,32.807,-14.6646,45.6402,8.87195
311.019,46.0211,50.1289,0,6.24382,6.47613,4.23918,31.7683,9.29878,-54.3293,-27.2026,1.23104,32.4334,-14.3598,42.8659,7.68293
311.029,45.3931,50.1021,0,6.13125,6.84497,3.90867,33.811,5.12195,-55.5793,-27.1643,1.45138,31.9927,-14.3293,43.1402,7.0122
311.039,44.7502,50.0532,0,6.18634,7.3551,3.84161,33.1402,4.45122,-54.7256,-27.3272,1.51844,31.5424,-19.4512,45.8537,4.87805
311.049,44.1214,49.9817,0,6.4426,7.90835,3.61169,32.9268,4.17683,-52.7744,-28.4385,1.42264,32.1172,-25.061,46.5244,5.39634
311.059,43.5543,49.9294,0,6.84497,8.04248,3.73863,32.8659,5.51829,-50.2744,-26.5416,0.589175,30.479,-26.9817,58.3537,5.06098
311.069,43.0243,49.8828,0,7.00543,7.96104,3.15424,31.9207,7.5,-49.5732,-25.7081,-0.0526904,29.636,-25.2134,62.1037,5.09146
311.079,42.5183,49.8228,0,6.85455,7.6449,3.04646,30.8537,13.7195,-49.2988,-25.507,-0.483794,29.0612,-23.811,72.2561,5.18293
311.089,42.0603,49.8169,0,7.03657,7.34073,2.94827,31.4634,18.2012,-49.3293,-25.0567,-0.330513,29.9138,-23.6585,75.8232,8.14024
311.099,41.5773,49.7801,0,6.65336,7.18506,2.74948,29.4512,28.7195,-50.7927,-25.2866,-0.00479004,29.406,-25.8232,84.7866,10.4268
311.109,41.113,49.7381,0,6.38512,6.88089,3.47517,30.6402,31.0061,-50,-25.1908,0.445474,29.1474,-25.5488,90.3354,12.6829
311.119,40.6317,49.6652,0,6.17915,7.01262,3.64043,34.5732,30.7927,-49.6646,-25.3154,0.656235,28.4768,-27.3171,94.0244,14.3598
311.129,40.1081,49.5432,0,5.50376,6.90724,3.81527,38.5061,29.8171,-49.1768,-25.9572,0.761616,27.8924,-27.5,95.7012,12.7744
311.139,39.5625,49.4402,0,5.08942,6.89526,3.62127,42.8659,27.5915,-48.1707,-26.2063,0.838257,28.5055,-31.4634,93.811,8.71951
311.149,39.0363,49.3024,0,5.15887,7.22098,3.25723,46.4939,25.1829,-45.4878,-26.2925,0.819097,27.6146,-30.2744,89.7561,3.90244
311.159,38.5311,49.1549,0,5.28581,7.64969,3.16622,45.7622,20.8537,-42.5915,-25.756,1.1544,26.714,-26.7988,94.9085,-1.28049
311.169,38.014,49.0117,0,5.17564,7.87243,3.37937,40.6402,24.2683,-42.1341,-25.5932,0.819097,26.5608,-25.8232,105.823,-4.84756
311.179,37.5068,48.8394,0,4.97206,7.71675,3.41769,41.1585,23.689,-41.0976,-25.4878,0.598755,25.689,-27.6829,114.116,-8.62805
311.189,37.0091,48.6923,0,4.9529,7.84129,3.1734,41.0366,22.378,-40.122,-25.7081,0.464634,26.3596,-30.7317,119.543,-10.8537
311.199,36.5348,48.5366,0,5.07265,7.92751,2.9339,38.4146,24.7561,-39.4207,-25.574,0.598755,25.9189,-29.4512,125.64,-13.628
311.209,36.1311,48.3372,0,5.35047,7.75986,2.81654,36.1585,26.0061,-37.2256,-24.8938,0.522114,24.1945,-29.0244,138.14,-16.1585
311.219,35.7965,48.1765,0,5.53968,7.42696,2.57944,37.2256,24.6951,-35.3354,-24.7022,0.675395,24.7022,-30.2744,145.671,-16.4329
311.229,35.4446,48.0079,0,5.09421,7.4078,2.82612,35.2134,27.8659,-33.2927,-24.4723,0.435894,24.1753,-31.2805,147.53,-19.6951
311.239,35.0696,47.8146,0,4.65113,7.29283,3.21651,33.1402,26.9207,-32.3171,-24.3957,0.244292,23.4472,-34.1159,149.177,-23.9634
311.249,34.7239,47.5602,0,4.46432,6.86413,3.42248,34.6037,23.7805,-31.128,-23.9837,0.435894,21.7228,-33.9024,157.195,-30.0305
311.259,34.3843,47.3503,0,4.28229,6.76833,3.23567,37.0427,16.2195,-29.7561,-24.0029,0.541274,22.4413,-36.5244,164.665,-33.2622
311.269,34.0867,47.2046,0,4.5194,6.60067,3.20933,36.8902,9.08537,-30.3963,-24.0699,0.637075,23.6484,-40.9756,166.037,-36.8902
311.279,33.7872,46.991,0,4.55533,6.56954,3.42248,38.4451,6.06707,-31.8902,-24.022,0.349673,22.1444,-43.3841,173.963,-40.0305
311.289,33.4225,46.7365,0,4.30625,6.8282,3.24765,37.1341,3.5061,-34.0549,-24.3861,-0.0239502,21.5695,-44.9085,187.622,-41.2195
311.299,33.0592,46.4644,0,4.24876,6.86892,3.18777,36.0366,1.09756,-33.628,-24.913,-0.282612,21.5216,-44.4207,193.201,-40.1524
311.309,32.7085,46.1665,0,4.3278,7.04375,2.90516,36.5854,0.426829,-32.7439,-25.2962,-0.646655,21.1576,-41.9512,195.701,-40.6098
311.319,32.3447,45.8815,0,4.24876,7.22098,2.72553,35.7317,1.40244,-32.561,-25.3824,-0.838257,21.2534,-40.8232,195.915,-41.0366
311.329,31.9703,45.6111,0,4.1841,7.30002,3.14466,36.5854,0.609756,-33.0488,-25.7081,-1.07776,21.5983,-45.1829,198.384,-44.0549
311.339,31.6021,45.2971,0,4.30385,7.52036,3.2692,38.0183,-2.07317,-33.1098,-25.6602,-0.627495,20.5636,-47.8354,207.226,-43.7195
311.349,31.235,44.9696,0,4.34457,7.65927,3.08239,36.8293,-6.95122,-33.2927,-25.6411,-0.244292,20.1038,-46.8598,216.86,-43.5061
311.359,30.8867,44.5946,0,4.33738,7.61856,2.90037,36.7378,-13.1402,-32.3171,-25.8327,-0.253872,19.1841,-44.2073,221.799,-41.128
311.369,30.594,44.2224,0,4.55054,7.0677,2.65847,39.6037,-16.0671,-33.7195,-26.3308,-0.570015,19.3374,-39.6037,221.829,-40.061
311.379,30.2522,43.8309,0,4.29667,6.91682,2.63452,41.4634,-13.5061,-37.439,-26.3117,-0.780776,18.7338,-37.1341,225.122,-39.939
311.389,29.8756,43.4191,0,4.21044,6.93119,2.66805,37.3476,-8.56707,-40.5183,-26.4075,-1.12566,18.1974,-35.8841,230.305,-40.4268
311.399,29.4799,43.033,0,4.24158,6.88568,2.86205,33.4756,-7.13415,-43.9634,-26.9248,-1.09692,18.7434,-35.7622,237.195,-41.6463
311.409,29.056,42.5958,0,4.32301,7.25691,2.85965,34.2988,-6.34146,-45.9146,-27.126,-1.23104,17.7567,-36.3415,245.366,-44.8171
311.419,28.6156,42.1789,0,4.40444,8.01134,2.46927,37.439,-6.95122,-44.4207,-27.4517,-1.36516,18.0441,-36.4329,252.409,-46.9512
311.429,28.1526,41.7323,0,4.44755,8.72506,2.85007,36.6463,-2.86585,-43.9634,-28.1319,-1.59508,17.6896,-38.1098,255.03,-48.2317
311.439,27.6527,41.278,0,4.2799,8.95977,2.90755,32.7744,-1.64634,-45.6707,-28.4193,-1.4418,17.4405,-39.3598,257.927,-48.872
311.449,27.1719,40.7856,0,4.30385,8.8496,2.51717,28.2012,-6.58537,-45.5488,-28.6971,-1.31726,16.655,-38.2622,259.97,-47.8354
311.459,26.688,40.2319,0,4.06435,8.658,2.50759,27.8963,-4.72561,-45.2439,-29.6264,-0.962798,15.8215,-32.5915,262.591,-44.9695
311.469,26.1624,39.6979,0,3.70989,8.77535,2.29203,29.2378,4.05488,-45.9451,-29.8851,-1.02986,15.9365,-28.5366,267.104,-41.9512
311.479,25.64,39.1345,0,3.63803,8.78493,2.27287,30.122,8.47561,-45.8232,-30.2012,-1.00112,15.2754,-23.1402,274.726,-37.5915
311.489,25.1434,38.5943,0,3.82006,8.91666,2.03577,31.4024,5.97561,-45.6707,-30.9197,-1.2502,15.6682,-17.7744,278.872,-32.4695
311.499,24.6831,38.0359,0,3.90628,8.65321,2.00463,33.6585,7.5,-45.2439,-31.619,-1.49928,15.3425,-13.8415,280.732,-28.9329
311.509,24.2074,37.4875,0,3.62845,8.81128,2.22737,36.7378,6.95122,-43.8415,-31.619,-1.7292,15.1413,-12.4695,283.11,-28.7805
311.519,23.7413,36.9267,0,3.77695,9.12263,2.49082,36.128,1.95122,-44.0549,-32.3759,-1.64298,14.9114,-12.5,283.415,-28.8415
311.529,23.2723,36.3789,0,3.86317,9.46272,2.32077,31.189,0.579268,-44.7256,-32.625,-1.52802,14.8635,-14.1768,282.835,-29.1768
311.539,22.793,35.835,0,3.69312,9.53936,1.79147,25.2439,1.40244,-44.6037,-32.9603,-1.3939,14.7102,-16.189,284.329,-30.4573
311.549,22.3335,35.253,0,3.59732,9.27831,1.74597,23.0183,3.38415,-43.628,-33.2285,-1.0107,13.8001,-15.4573,286.159,-29.7866
311.559,21.8676,34.6704,0,3.09437,8.96456,2.02858,27.1341,6.61585,-40.8232,-33.171,0.177231,13.3882,-15.0305,290.549,-27.7439
311.569,21.3577,34.1134,0,2.46448,9.02683,2.41418,32.5305,3.65854,-38.5671,-33.1614,0.474214,13.4361,-18.2317,293.537,-23.2622
311.579,20.8112,33.6013,0,2.04535,8.98372,2.34951,34.7561,-1.18902,-38.3537,-33.9757,0.646655,14.1546,-21.4024,289.97,-23.3537
311.589,20.2646,33.0573,0,2.18186,9.04838,2.23695,37.8049,-8.81098,-40.9756,-35.0008,0.234712,13.6468,-26.5854,290,-25.6707
311.599,19.6957,32.4781,0,2.32077,9.48188,1.75794,35.3354,-14.2073,-44.7561,-35.6044,-0.205972,12.8613,-28.2927,289.055,-27.622
311.609,19.1526,31.8882,0,2.54351,9.45793,1.22625,35.7317,-21.4634,-45.9451,-35.9876,-0.723296,12.4014,-30.8841,289.39,-29.7561
311.619,18.5901,31.2562,0,2.41657,9.98963,0.819097,37.7439,-24.2378,-46.0671,-36.275,-1.26936,11.338,-31.8598,288.72,-27.9268
311.629,18.0302,30.6255,0,2.18665,9.97526,0.677791,34.5732,-23.2317,-44.4207,-36.5145,-2.00703,10.9931,-34.0854,287.866,-26.311
311.639,17.4872,30.0701,0,2.11001,9.54415,0.59636,33.4146,-19.2683,-44.0549,-36.821,-2.20821,11.9607,-39.1463,281.829,-22.4085
311.649,16.9864,29.5046,0,2.41418,9.33818,1.04902,37.1646,-16.8293,-45,-37.0989,-2.30401,11.453,-45.7317,276.128,-21.7073
311.659,16.5357,28.8931,0,2.82133,9.46033,1.19751,41.2805,-18.5671,-45.2134,-37.0222,-1.95913,10.2076,-50.5183,273.354,-18.628
311.669,16.0914,28.2981,0,2.85965,9.63995,0.522114,34.6646,-11.25,-45.3049,-36.1408,-1.95913,9.82437,-49.4817,270.671,-14.6037
311.679,15.6052,27.7308,0,2.27048,9.36932,0.58678,32.2866,-7.16463,-44.5732,-36.1887,-2.30401,9.89143,-47.8049,265.457,-10.7927
311.689,15.0989,27.1182,0,1.9735,9.14897,0.847837,32.5,-3.81098,-44.6646,-35.9013,-2.86923,8.66518,-48.4756,264.604,-9.39024
311.699,14.5998,26.5807,0,1.91123,9.05796,0.617915,33.2927,-4.26829,-44.4207,-35.796,-2.78301,9.48907,-51.0061,262.805,-12.7744
311.709,14.1163,26.0515,0,1.89207,9.32142,0.361648,32.8963,-8.90244,-42.9573,-35.6235,-3.09916,9.21125,-54.939,258.872,-17.0122
311.719,13.6477,25.5066,0,1.82021,9.32621,0.191602,36.0366,-18.1098,-41.5549,-35.3265,-3.16622,8.5119,-56.4939,253.384,-22.439
311.729,13.1585,24.9247,0,1.77471,9.70701,-0.00718506,36.9207,-23.0793,-43.2012,-35.0966,-3.6548,7.48683,-56.7073,248.659,-26.189
311.739,12.6435,24.3479,0,1.50647,9.63516,0.143701,35.9756,-21.0976,-43.8415,-35.6618,-3.9422,7.29523,-54.7561,242.927,-26.9512
311.749,12.1251,23.78,0,1.36037,9.44596,0.241897,35.7927,-19.4207,-43.811,-35.8439,-4.15296,7.08447,-52.6829,237.256,-27.7134
311.759,11.6375,23.29,0,1.31247,9.48188,-0.193997,32.5,-23.2317,-41.0976,-36.2941,-4.67029,8.0808,-51.8598,231.128,-28.0183
311.769,11.2083,22.7953,0,1.48252,9.34537,-0.112566,28.9634,-25.0305,-38.4451,-35.796,-5.02475,7.55389,-51.9817,226.159,-26.9817
311.779,10.8199,22.3136,0,1.59748,9.38848,0.0886157,29.2073,-25.7012,-36.4634,-36.6486,-5.42711,7.60179,-51.8293,219.604,-27.8354
311.789,10.4364,21.7927,0,1.57113,9.39327,-0.490979,30.4268,-27.7134,-36.4329,-36.9552,-5.5804,6.66294,-53.3537,214.238,-29.5732
311.799,10.0595,21.2364,0,1.61424,9.48667,-0.483794,31.7073,-29.2378,-36.8598,-37.5108,-6.14562,5.80074,-51.0976,211.463,-28.8415
311.809,9.70753,20.6757,0,1.70765,9.5705,-0.364043,32.8963,-31.6463,-36.0366,-37.6737,-6.80665,5.36005,-47.7744,206.006,-29.5122
311.819,9.39456,20.1026,0,1.99505,9.99921,-0.780776,31.4024,-31.0366,-35.1524,-37.3192,-7.24733,4.70861,-43.1707,199.482,-27.9268
311.829,9.1508,19.5597,0,2.12199,9.96089,-1.21906,26.8598,-29.2988,-30.2439,-37.5108,-7.16111,4.85231,-38.7805,197.866,-26.3415
311.839,8.95386,19.0636,0,2.10522,9.75252,-1.04662,22.4695,-26.9817,-26.2805,-37.6545,-6.67252,5.27383,-35.9451,190.091,-24.2683
311.849,8.73887,18.5972,0,1.76513,9.58008,-0.895737,23.628,-22.7134,-24.9695,-37.7311,-6.24142,5.43669,-35.7622,184.329,-21.7378
311.859,8.50202,18.14,0,1.57113,9.50583,-0.60115,25.7927,-20.8841,-25.4878,-37.597,-6.07856,5.24509,-37.4695,179.878,-19.3293
311.869,8.26116,17.6799,0,1.63819,9.55852,-0.459844,26.5854,-18.9939,-27.0732,-37.1851,-5.43669,4.82357,-41.372,175.793,-16.8293
311.879,8.04289,17.1979,0,1.8777,9.64474,-0.282612,27.1951,-15.3354,-27.8963,-37.4246,-5.66662,4.17212,-43.811,172.5,-13.9634
311.889,7.8289,16.6772,0,1.85854,9.63037,-0.529299,26.9817,-14.1463,-27.7134,-37.3096,-5.15887,3.18538,-44.8476,167.622,-9.84756
311.899,7.59663,16.1554,0,1.65256,9.72378,-0.498164,25.6098,-12.9878,-27.4085,-37.2521,-5.49417,2.81175,-42.4695,164.878,-5.27439
311.909,7.3664,15.615,0,1.53521,9.85072,-0.780776,25.0915,-10.3659,-26.0671,-36.5624,-5.36963,2.12199,-40.1829,164.329,0.884146
311.919,7.1241,15.1023,0,1.33163,9.89383,-0.847837,24.7866,-7.56098,-25.3354,-37.3575,-5.66662,2.26569,-40.9451,162.317,4.81707
311.929,6.83732,14.6241,0,0.946033,9.88185,-0.778381,24.3598,-3.32317,-25.8841,-37.4629,-5.772,2.49561,-40.2744,158.262,9.20732
311.939,6.5135,14.1591,0,0.65384,9.94173,-0.66821,22.3476,-1.52439,-26.7683,-38.1622,-6.21268,2.42855,-41.4024,153.354,12.4085
311.949,6.1695,13.688,0,0.474214,9.73575,-0.807122,20,0.97561,-27.5,-38.4784,-6.16478,2.01661,-42.1951,149.116,14.4817
311.959,5.83434,13.2544,0,0.526904,9.60403,-0.969983,20.2134,0.0609756,-28.0183,-38.67,-6.18394,2.33275,-42.6524,144.268,15.3049
311.969,5.53617,12.8156,0,0.735271,9.55373,-1.13524,21.311,-2.7439,-27.5,-38.7466,-6.19352,1.93997,-42.2256,139.878,15.3354
311.979,5.22931,12.402,0,0.675395,9.70222,-1.17356,20.5793,-5.60976,-28.1402,-39.2256,-6.19352,2.08367,-43.0488,135.427,14.5732
311.989,4.9648,11.9686,0,0.965193,9.63995,-1.20469,19.4207,-6.28049,-27.9878,-39.5418,-6.12646,1.46096,-43.6585,132.988,12.561
311.999,4.75242,11.5441,0,1.20709,9.60403,-1.17595,18.8415,-4.96951,-26.1585,-39.7046,-6.11688,1.30768,-41.9817,128.598,10.5793
312.009,4.58613,11.1753,0,1.40348,9.55134,-1.01309,20.5183,-4.69512,-24.3293,-39.2448,-5.772,1.93997,-37.8963,121.22,8.96341
312.019,4.44536,10.8045,0,1.40109,9.58247,-1.14961,22.3476,0.457317,-21.9817,-38.7754,-5.83906,1.61424,-36.5549,115.671,7.89634
312.029,4.26792,10.417,0,1.0586,9.82437,-1.41546,21.5549,4.72561,-21.5854,-38.1814,-5.46543,1.04902,-34.4207,111.982,9.29878
312.039,4.06564,10.0554,0,0.737666,9.92017,-1.28613,21.1585,6.34146,-20.6098,-38.2485,-5.19719,1.21188,-34.4512,106.677,11.7378
312.049,3.83066,9.6898,0,0.423918,9.74773,-1.28134,21.0976,5.21341,-20.7622,-38.1622,-4.93853,0.886157,-33.9939,102.652,14.2988
312.059,3.59028,9.30616,0,0.256267,9.54894,-1.52323,21.4939,4.11585,-19.8476,-38.3634,-4.64155,0.330513,-34.5427,99.3293,17.5305
312.069,3.32664,8.95285,0,0.00479004,9.54894,-1.54958,21.189,4.05488,-19.6341,-39.0723,-4.54575,0.589175,-36.0061,96.8902,19.0549
312.079,3.05405,8.58851,0,-0.136516,9.58247,-1.56634,20.6402,2.46951,-19.3598,-39.1681,-4.45953,0.148491,-37.561,93.9329,20.2744
312.089,2.7532,8.24081,0,-0.387993,9.68785,-1.62861,18.811,1.12805,-19.7866,-39.4939,-4.38289,0.177231,-40.7317,90.7317,20.3049
312.099,2.45388,7.83841,0,-0.440684,9.62319,-1.48731,18.0793,-1.58537,-19.5732,-39.5993,-4.47869,-1.02028,-41.0366,89.8476,18.0488
312.109,2.14897,7.41084,0,-0.574805,9.56331,-1.45857,17.561,-6.79878,-19.0854,-39.8483,-4.42121,-1.74836,-41.25,90.2134,16.25
312.119,1.8527,6.99453,0,-0.488584,9.61361,-1.55916,14.6951,-11.7683,-19.9085,-39.5322,-4.29667,-1.83458,-40.9756,89.939,14.7256
312.129,1.55709,6.56416,0,-0.502954,9.5705,-1.52084,14.5732,-15.2744,-20.2439,-39.2544,-4.59365,-2.35191,-41.1585,89.8476,13.1402
312.139,1.29195,6.16262,0,-0.203577,9.50104,-1.4442,17.0732,-17.1951,-21.372,-39.3119,-4.67987,-2.16031,-41.7073,86.9207,12.5
312.149,1.04247,5.75412,0,-0.0359253,9.49865,-1.48491,18.1402,-18.5671,-22.378,-39.1681,-4.40205,-2.55309,-41.6159,85.5793,12.0122
312.159,0.83956,5.36262,0,0.258662,9.38848,-1.47533,19.5732,-19.1463,-21.7988,-38.9765,-4.53617,-2.53393,-40,83.3537,12.7744
312.169,0.649328,4.97209,0,0.323328,9.35495,-1.80584,19.4817,-17.1646,-21.7378,-39.0244,-4.47869,-2.79259,-39.0244,82.0732,12.8963
312.179,0.460573,4.60731,0,0.275427,9.45314,-1.81303,19.2378,-12.622,-21.3415,-39.1011,-4.62239,-2.62973,-34.878,79.1768,13.3232
312.189,0.278407,4.2653,0,0.273032,9.50583,-1.63101,18.2622,-8.29268,-21.0061,-39.1681,-4.58407,-2.49561,-33.1707,77.5305,12.0732
312.199,0.109801,3.96876,0,0.311353,9.52499,-1.47773,17.8049,-6.25,-20.4573,-39.5801,-4.90979,-1.97829,-30.8537,73.0793,9.26829
312.209,-0.0412289,3.6617,0,0.387993,9.6663,-1.45378,16.5244,-5.88415,-19.878,-39.9633,-4.97685,-2.40939,-26.7683,67.6829,6.58537
312.219,-0.160052,3.39994,0,0.514929,9.83874,-1.3939,14.9695,-5.2439,-18.3232,-40.2411,-5.02475,-1.85375,-24.2073,62.8354,2.95732
312.229,-0.250768,3.15826,0,0.55804,10.0064,-1.35558,12.561,-3.35366,-16.0976,-40.2794,-5.33131,-1.70046,-18.3537,57.7134,1.85976
312.239,-0.310497,2.90268,0,0.61073,10.2028,-1.31487,9.17683,-0.823171,-13.5976,-40.5956,-5.6283,-2.15073,-13.9939,53.1402,-0.182927
312.249,-0.341543,2.68443,0,0.584385,10.3034,-1.27176,7.22561,1.92073,-10.4268,-41.0937,-5.89654,-1.70046,-8.41463,48.3232,-1.67683
312.259,-0.347244,2.47578,0,0.543669,10.3177,-1.21427,5.36585,3.14024,-7.43902,-41.6973,-5.99234,-1.7292,-5.4878,42.378,-3.44512
312.269,-0.33035,2.23117,0,0.462239,10.174,-1.23104,3.41463,3.29268,-4.39024,-41.9272,-5.84864,-2.57225,-0.792683,38.4756,-4.05488
312.279,-0.287519,1.93845,0,0.373623,10.0088,-1.23104,2.80488,3.17073,-1.85976,-41.4865,-5.66662,-3.6069,1.34146,38.811,-2.9878
312.289,-0.199644,1.65474,0,0.258662,9.89143,-1.30289,2.13415,3.2622,-0.121951,-41.3428,-5.39837,-3.63564,3.14024,40.4573,-1.89024
312.299,-0.167502,1.37251,0,0.0790356,9.85311,-1.45617,0.426829,3.23171,1.34146,-41.3332,-4.67987,-3.81766,5.39634,39.4512,-0.884146
312.309,-0.185281,1.0851,0,-0.241897,9.76689,-1.63101,-0.213415,3.41463,1.64634,-41.0458,-4.38289,-4.09548,5.06098,37.8354,0.792683
312.319,-0.247427,0.815346,0,-0.560435,9.68546,-1.73878,-0.152439,2.40854,1.89024,-40.701,-3.69312,-3.95178,4.20732,36.6159,0.304878
312.329,-0.374824,0.556459,0,-0.807122,9.61121,-1.79626,-1.18902,-0.182927,1.31098,-40.3752,-3.04167,-3.93262,1.82927,32.1341,0.27439
312.339,-0.580674,0.324391,0,-0.926873,9.54894,-1.90165,-2.16463,-1.7378,0.670732,-39.9441,-2.87881,-3.6069,-0.152439,29.1159,-1.06707
312.349,-0.882126,0.0848086,0,-0.893342,9.42201,-1.96392,-1.76829,-3.44512,-0.0914634,-39.5993,-2.94587,-3.88472,-2.86585,24.8171,-1.40244
312.359,-1.08895,-0.161713,0,-0.821492,9.35016,-1.98068,-0.701219,-4.45122,-0.548781,-39.4364,-3.01293,-4.17212,-6.46341,20.4878,-2.37805
312.369,-1.24713,-0.39053,0,-0.759221,9.36213,-1.82261,0.518293,-5.73171,-0.823171,-39.2831,-3.42488,-4.02842,-9.87805,17.1341,-2.62195
312.379,-1.3487,-0.620776,0,-0.5772,9.43638,-1.94955,0.27439,-6.31098,-0.762195,-39.2352,-3.6069,-4.21044,-11.6768,16.0976,-3.62805
312.389,-1.40572,-0.836385,0,-0.450264,9.51541,-1.95194,-0.487805,-6.82927,-1.15854,-38.9957,-3.8464,-4.09548,-13.2622,14.1463,-3.56707
312.399,-1.4369,-1.04784,0,-0.304167,9.46272,-2.02379,0.243902,-8.20122,-2.04268,-39.1298,-4.038,-4.19128,-13.5976,12.5915,-5.21341
312.409,-1.45688,-1.25291,0,-0.189207,9.53218,-1.96152,0.27439,-7.53049,-2.7439,-38.6604,-4.22002,-4.1817,-13.7805,10.7317,-4.90854
312.419,-1.49197,-1.43971,0,-0.177231,9.616,-1.89207,0.182927,-5.4878,-4.42073,-38.8903,-4.21044,-4.038,-14.7866,8.5061,-4.63415
312.429,-1.52836,-1.64108,0,-0.136516,9.64953,-1.81303,1.0061,-2.71341,-5.12195,-38.8424,-4.16254,-4.41163,-16.7073,9.14634,-3.10976
312.439,-1.56637,-1.86432,0,-0.110171,9.616,-1.80105,1.28049,-0.27439,-5.67073,-39.2448,-4.19128,-4.96727,-17.0427,13.0488,-2.2561
312.449,-1.59324,-2.10314,0,-0.0263452,9.53936,-1.69567,0.335366,0.762195,-5.64024,-39.2927,-4.10506,-5.38879,-18.3537,17.4085,-1.21951
312.459,-1.6035,-2.32699,0,0.124541,9.55134,-1.66454,-0.121951,1.89024,-5.85366,-39.4651,-4.2296,-5.31215,-17.561,18.1098,0.182927
312.469,-1.59696,-2.5285,0,0.253872,9.54176,-1.63819,0.762195,3.10976,-5.7622,-39.6951,-4.40205,-5.11097,-19.0244,15.9451,0.243902
312.479,-1.59104,-2.69763,0,0.222737,9.59684,-1.55197,1.37195,4.02439,-5.42683,-39.5322,-4.21044,-4.67029,-18.3537,12.5,0.518293
312.489,-1.58331,-2.87495,0,0.215552,9.7118,-1.52084,1.03659,4.90854,-5.12195,-39.1969,-4.12422,-4.90021,-19.1768,10,0.121951
312.499,-1.58043,-3.03029,0,0.112566,9.77886,-1.51365,0.0609756,4.39024,-4.39024,-39.149,-3.8943,-4.64155,-20.1524,7.28659,0.792683
312.509,-1.56563,-3.18957,0,0.110171,9.73096,-1.42264,-0.426829,2.80488,-3.35366,-39.0436,-3.98052,-4.81399,-22.0732,4.78659,0.396341
312.519,-1.55162,-3.36053,0,0.0383203,9.87946,-1.52563,-3.35366,1.82927,-2.65244,-38.9574,-3.85598,-5.12055,-23.811,3.78049,0.365854
312.529,-1.53689,-3.4997,0,0.0119751,9.92257,-1.6813,-7.37805,2.2561,-2.31707,-38.7945,-3.76018,-4.67029,-22.4695,2.10366,1.28049
312.539,-1.51332,-3.63043,0,0.0479004,9.8124,-1.60466,-6.7378,2.2561,-2.10366,-38.9574,-3.63564,-4.64155,-22.2256,1.31098,1.82927
312.549,-1.50981,-3.7546,0,-0.0311353,9.7118,-1.55437,-4.2378,2.59146,-2.71341,-39.0436,-3.40572,-4.63197,-22.8049,0.0914634,3.01829
312.559,-1.52695,-3.86833,0,-0.160466,9.77168,-1.64777,-1.61585,2.80488,-3.01829,-39.2352,-3.6069,-4.55533,-24.3598,0.792683,1.7378
312.569,-1.54905,-3.96719,0,-0.208367,9.84114,-1.62622,-2.04268,2.56098,-2.95732,-39.446,-3.6548,-4.40205,-25.122,-0.579268,2.65244
312.579,-1.56549,-4.06841,0,-0.186812,9.70462,-1.59748,-2.65244,1.79878,-2.71341,-39.2256,-3.5111,-4.48827,-25.2744,-0.853659,2.89634
312.589,-1.56426,-4.1807,0,-0.136516,9.55373,-1.54239,-2.71341,1.79878,-1.92073,-39.149,-3.7985,-4.74693,-25.5488,-1.92073,2.37805
312.599,-1.54915,-4.29117,0,-0.100591,9.50583,-1.46096,-2.56098,1.52439,-1.4939,-38.9574,-3.37698,-4.77567,-25,-3.75,2.83537
312.609,-1.53548,-4.40919,0,-0.148491,9.50583,-1.48012,-1.85976,2.13415,-1.06707,-38.9957,-3.57816,-4.98643,-25.7012,-3.10976,1.46341
312.619,-1.52754,-4.53106,0,-0.184417,9.47709,-1.52563,-0.945122,1.7378,-0.914634,-39.1107,-3.3195,-5.13971,-25.3354,0,0.945122
312.629,-1.54177,-4.67348,0,-0.268242,9.51302,-1.54239,-0.823171,1.4939,-1.15854,-39.3023,-3.4632,-5.59956,-27.1646,3.81098,-0.579268
312.639,-1.56163,-4.81786,0,-0.299377,9.59445,-1.57592,-0.823171,1.06707,-1.21951,-39.5322,-3.3674,-5.76242,-29.8476,5.27439,-1.7378
312.649,-1.59065,-4.96951,0,-0.325723,9.59205,-1.60945,-0.792683,-0.396341,-1.95122,-39.6567,-3.48236,-6.0115,-32.1341,5.60976,-1.76829
312.659,-1.62855,-5.10465,0,-0.318538,9.51541,-1.65256,-1.18902,-0.701219,-3.14024,-39.5609,-3.30992,-5.81032,-33.2012,5.42683,-2.46951
312.669,-1.67957,-5.24521,0,-0.296982,9.44117,-1.59269,-0.670732,-1.28049,-4.84756,-39.2256,-3.37698,-5.9636,-35.3659,1.89024,-2.95732
312.679,-1.73725,-5.35305,0,-0.332908,9.71659,-1.68849,-0.335366,-0.457317,-5.30488,-39.1298,-3.56858,-5.47501,-35.9146,0.701219,-2.34756
312.689,-1.7892,-5.45621,0,-0.268242,9.77168,-1.81063,-2.0122,1.67683,-5.64024,-38.7083,-3.71228,-5.40795,-38.3841,0.97561,-3.93293
312.699,-1.84586,-5.56618,0,-0.296982,9.69743,-1.7795,-1.34146,2.46951,-5.85366,-38.6508,-3.88472,-5.58998,-38.5061,0.762195,-4.2378
312.709,-1.90466,-5.67596,0,-0.287402,9.71659,-1.85854,-0.0914634,2.43902,-6.31098,-38.5167,-4.23918,-5.64746,-38.5671,-0.640244,-4.78659
312.719,-1.96306,-5.77239,0,-0.277822,9.68306,-1.77231,-0.213415,2.37805,-6.4939,-38.5263,-4.38289,-5.49417,-36.8598,-1.03659,-4.2378
312.729,-2.00646,-5.86407,0,-0.191602,9.54415,-1.6837,-0.243902,3.44512,-6.09756,-38.7562,-4.71819,-5.51333,-33.1098,-1.76829,-3.56707
312.739,-2.04077,-5.96112,0,-0.122146,9.43638,-1.57832,0.396341,4.02439,-6.09756,-38.8999,-4.57449,-5.69536,-30.3354,-2.95732,-3.56707
312.749,-2.05935,-6.05619,0,-0.0191602,9.4268,-1.48491,1.55488,4.63415,-5.85366,-38.8616,-4.73735,-5.7241,-28.5976,-3.47561,-3.44512
312.759,-2.06858,-6.1294,0,0.0550855,9.53218,-1.47773,2.04268,4.66463,-5.85366,-38.8328,-4.58407,-5.39837,-26.189,-1.92073,-2.68293
312.769,-2.08219,-6.2084,0,0.00239502,9.65432,-1.4921,1.89024,4.54268,-5.67073,-38.9095,-4.19128,-5.56124,-25.3049,-1.95122,-3.75
312.779,-2.1057,-6.27014,0,-0.0574805,9.72138,-1.46815,1.21951,4.02439,-5.97561,-38.7275,-4.32541,-5.28341,-24.1768,-0.213415,-3.41463
312.789,-2.12966,-6.3394,0,-0.119751,9.77168,-1.44899,1.34146,3.5061,-5.33537,-38.5263,-4.1338,-5.41753,-24.6037,2.95732,-3.14024
312.799,-2.16137,-6.38637,0,-0.217947,9.77886,-1.42504,1.4939,3.01829,-5,-38.6221,-4.0859,-5.09181,-24.3293,3.07927,-3.20122
312.809,-2.19538,-6.43951,0,-0.232317,9.77647,-1.43941,1.89024,2.68293,-5.12195,-38.6317,-3.97094,-5.22593,-25.2439,4.87805,-1.0061
312.819,-2.22678,-6.48097,0,-0.270637,9.79323,-1.48252,2.07317,1.40244,-4.48171,-38.5263,-4.20086,-5.04391,-24.3902,5.57927,-0.0914634
312.829,-2.26039,-6.53165,0,-0.330513,9.80281,-1.48731,1.7378,0.640244,-4.05488,-38.5742,-4.28709,-5.23551,-23.4146,6.37195,0.579268
312.839,-2.29906,-6.58048,0,-0.356858,9.76689,-1.52563,1.31098,-0.182927,-4.29878,-38.6412,-4.69903,-5.24509,-21.5854,7.04268,0.762195
312.849,-2.33712,-6.61884,0,-0.404758,9.74773,-1.59029,1.09756,-0.0609756,-3.71951,-38.7466,-4.79483,-5.11097,-19.4817,7.04268,2.19512
312.859,-2.37257,-6.6814,0,-0.414338,9.75252,-1.5855,0.945122,0.396341,-3.41463,-38.9957,-4.91937,-5.58998,-17.3476,8.2622,1.40244
312.869,-2.40822,-6.7234,0,-0.450264,9.71899,-1.57832,0.426829,-0.0304878,-3.01829,-39.0053,-4.89063,-5.27383,-14.8476,8.44512,2.13415
312.879,-2.43958,-6.76735,0,-0.464634,9.73575,-1.57113,-0.0609756,-0.426829,-2.43902,-38.9574,-4.85231,-5.33131,-12.7744,8.23171,2.10366
312.889,-2.46483,-6.79676,0,-0.459844,9.67588,-1.52563,-0.426829,-1.40244,-1.82927,-39.1969,-4.81399,-5.13971,-11.128,8.01829,2.62195
312.899,-2.48612,-6.8478,0,-0.450264,9.64953,-1.51605,-0.97561,-1.7378,-1.58537,-38.9765,-4.83315,-5.51333,-8.04878,6.95122,2.68293
312.909,-2.49958,-6.88465,0,-0.407153,9.59445,-1.54958,-0.792683,-2.28659,-1.55488,-39.0819,-4.72777,-5.32173,-7.56098,4.87805,2.9878
312.919,-2.50477,-6.91798,0,-0.373623,9.63516,-1.62382,-0.731707,-2.46951,-1.40244,-39.1681,-4.53617,-5.30257,-8.07927,3.32317,3.87195
312.929,-2.50759,-6.95305,0,-0.356858,9.64714,-1.61903,-0.762195,-2.68293,-1.46341,-39.2256,-4.44995,-5.36005,-7.83537,4.57317,3.96341
312.939,-2.51359,-7.01416,0,-0.349673,9.63995,-1.67412,-0.670732,-3.14024,-1.79878,-39.1107,-4.2775,-5.82948,-8.47561,3.75,5.51829
312.949,-2.52067,-7.04657,0,-0.352068,9.60163,-1.6358,-0.121951,-3.35366,-1.85976,-39.3406,-4.32541,-5.39837,-7.86585,3.87195,5.79268
312.959,-2.5321,-7.07654,0,-0.335303,9.62079,-1.70286,0.0609756,-3.23171,-2.43902,-39.3406,-4.61281,-5.37921,-8.23171,3.53659,6.18902
312.969,-2.5402,-7.10634,0,-0.289797,9.65193,-1.6813,-0.213415,-2.77439,-2.71341,-39.3598,-4.22002,-5.40795,-7.43902,1.12805,7.34756
312.979,-2.55513,-7.16001,0,-0.320933,9.63516,-1.70046,-0.365854,-2.22561,-2.95732,-39.216,-4.30625,-5.82948,-8.56707,1.31098,6.89024
312.989,-2.57384,-7.21825,0,-0.323328,9.60163,-1.72441,-0.152439,-1.76829,-3.29268,-39.1011,-4.34457,-5.93486,-8.47561,0.0304878,7.28659
312.999,-2.59096,-7.28078,0,-0.340093,9.61361,-1.77231,0.121951,-1.25,-2.9878,-39.3214,-4.62239,-6.07856,-8.93293,1.95122,8.07927
313.009,-2.61575,-7.3152,0,-0.387993,9.58008,-1.76752,0.426829,-0.945122,-3.14024,-39.2065,-4.53617,-5.60914,-7.95732,1.64634,9.17683
313.019,-2.63782,-7.35276,0,-0.380808,9.5681,-1.76034,0.823171,-0.97561,-3.01829,-39.2831,-4.68945,-5.70494,-7.86585,0.121951,9.63415
313.029,-2.66029,-7.36217,0,-0.385598,9.58247,-1.69567,1.0061,-1.0061,-3.04878,-39.1298,-4.62239,-5.21635,-7.22561,-0.579268,9.63415
313.039,-2.68107,-7.39074,0,-0.402363,9.56092,-1.77231,0.914634,-0.762195,-2.71341,-39.0628,-4.69903,-5.55166,-8.2622,-1.03659,11.1585
313.049,-2.70212,-7.39718,0,-0.380808,9.62079,-1.74118,0.823171,-0.518293,-3.07927,-39.034,-4.63197,-5.18761,-7.89634,-3.38415,11.8293
313.059,-2.72173,-7.40739,0,-0.380808,9.62079,-1.73399,0.426829,-0.731707,-2.9878,-38.8903,-4.69903,-5.24509,-7.46951,-5.30488,12.2866
313.069,-2.73777,-7.39687,0,-0.376018,9.65911,-1.66693,0.27439,-0.701219,-2.77439,-38.9382,-4.66071,-4.90021,-7.37805,-6.25,12.9878
313.079,-2.74883,-7.41613,0,-0.352068,9.6639,-1.65256,0.0914634,-0.365854,-2.65244,-38.9765,-4.75651,-5.42711,-6.82927,-8.84146,12.7744
313.089,-2.7611,-7.44724,0,-0.364043,9.70222,-1.56634,-0.152439,-0.914634,-2.65244,-39.3789,-4.90979,-5.71452,-6.06707,-11.128,11.7378
313.099,-2.76272,-7.47243,0,-0.239502,9.92975,-1.51844,-0.701219,-2.31707,-3.17073,-39.4939,-5.27383,-5.64746,-4.66463,-11.0366,10.2439
313.109,-2.75055,-7.47171,0,-0.0239502,9.92257,-1.58071,-2.92683,-6.46341,-4.2378,-39.6951,-5.34089,-5.23551,-5.39634,-11.9512,8.9939
313.119,-2.71002,-7.4413,0,0.215552,9.68067,-1.7771,-5.51829,-10.3354,-4.29878,-40.2411,-5.7241,-4.78525,-5.70122,-15.7012,5.88415
313.129,-2.67463,-7.39951,0,0.186812,9.52978,-1.87291,-6.64634,-11.8598,-4.42073,-40.586,-5.71452,-4.61281,-7.37805,-19.8476,3.84146
313.139,-2.66088,-7.36901,0,-0.0383203,9.4244,-1.96392,-5.70122,-9.20732,-3.84146,-40.883,-5.94444,-4.83315,-8.41463,-22.7744,1.92073
313.149,-2.67581,-7.35275,0,-0.282612,9.35974,-1.93518,-3.62805,-4.26829,-3.56707,-40.586,-5.70494,-5.04391,-10.2439,-25.4573,-1.18902
313.159,-2.70476,-7.30001,0,-0.371228,9.45554,-2.04535,-2.19512,0.365854,-3.87195,-40.1836,-5.69536,-4.33499,-11.7378,-27.5305,-1.06707
313.169,-2.73043,-7.26706,0,-0.364043,9.43638,-2.33754,-2.46951,2.28659,-3.68902,-40.1262,-5.8199,-4.66071,-14.2683,-31.7683,-0.640244
313.179,-2.76176,-7.26012,0,-0.392783,9.36692,-2.52914,-3.53659,3.14024,-3.90244,-40.1645,-5.9636,-5.12055,-17.5915,-35.0915,-2.10366
313.189,-2.80225,-7.22989,0,-0.416733,9.29747,-2.62973,-4.32927,4.14634,-4.54268,-40.1645,-6.32764,-4.70861,-20.2439,-38.3232,-2.7439
313.199,-2.8496,-7.18358,0,-0.414338,9.32621,-2.50998,-3.59756,5.91463,-5.36585,-39.8483,-5.82948,-4.39247,-22.0732,-46.4329,-3.23171
313.209,-2.90191,-7.11425,0,-0.404758,9.34776,-2.45729,-2.43902,8.29268,-6.09756,-40.4519,-6.1552,-4.02842,-24.0244,-51.372,-3.59756
313.219,-2.96512,-7.04329,0,-0.440684,9.44356,-2.37586,-1.40244,10.8232,-6.92073,-40.5573,-6.28932,-3.98052,-28.0488,-57.1951,-3.71951
313.229,-3.02896,-6.96047,0,-0.433499,9.53697,-2.24413,-1.85976,12.4085,-7.2561,-40.3273,-6.24142,-3.71228,-33.5671,-62.1646,-4.66463
313.239,-3.09759,-6.87024,0,-0.440684,9.62558,-2.18905,-3.96341,11.9512,-7.83537,-39.81,-6.38512,-3.49194,-38.9939,-66.8293,-5.2439
313.249,-3.16059,-6.7885,0,-0.404758,9.68306,-2.14594,-6.28049,11.2805,-7.86585,-39.4843,-6.6821,-3.559,-44.3293,-69.6037,-4.39024
313.259,-3.21064,-6.73724,0,-0.313748,9.68785,-2.06451,-8.23171,10.2134,-7.77439,-39.0628,-6.97909,-3.99968,-48.2317,-71.1281,-4.42073
313.269,-3.24971,-6.70714,0,-0.239502,9.69025,-2.04535,-9.66463,9.63415,-7.65244,-38.4688,-7.04615,-4.26792,-53.5366,-71.4634,-3.87195
313.279,-3.27631,-6.66913,0,-0.110171,9.66869,-1.97589,-10.7012,9.7561,-8.01829,-37.8461,-7.30481,-4.04758,-59.1768,-72.1646,-4.11585
313.289,-3.29373,-6.64586,0,0.0383203,9.59445,-1.96392,-11.7988,10.7317,-8.93293,-37.4437,-7.51557,-4.22002,-64.8781,-70.4878,-3.62805
313.299,-3.2956,-6.63945,0,0.179626,9.67109,-1.89207,-12.622,11.4939,-9.08537,-37.1947,-7.78381,-4.45953,-69.2073,-71.311,-3.53659
313.309,-3.27515,-6.63872,0,0.392783,9.6663,-1.9256,-13.3232,13.4451,-9.39024,-37.0222,-8.15744,-4.52659,-73.1098,-70.6707,-1.67683
313.319,-3.23323,-6.68773,0,0.56283,9.66869,-1.91841,-13.9634,15.2134,-9.20732,-36.342,-8.21492,-5.24509,-76.4939,-67.9268,-1.0061
313.329,-3.1787,-6.77537,0,0.677791,9.72138,-1.9256,-14.8171,17.622,-9.17683,-36.1121,-8.464,-5.85822,-79.2683,-63.3537,0.457317
313.339,-3.11277,-6.86832,0,0.764011,9.75491,-1.84896,-15.8841,19.8476,-8.90244,-36.045,-8.81846,-5.97318,-82.0427,-57.8963,2.71341
313.349,-3.03538,-6.98361,0,0.857417,9.74773,-1.79866,-15.6707,21.4024,-8.71951,-36.0355,-8.86636,-6.38512,-81.4634,-54.2073,3.78049
313.359,-2.93879,-7.11704,0,1.0107,9.68306,-1.75555,-15.6707,22.1341,-8.5061,-35.9013,-9.11544,-6.72042,-83.3841,-50.4268,5.79268
313.369,-2.83385,-7.24551,0,1.13524,9.75491,-1.76513,-15.9146,22.8354,-8.84146,-36.2462,-9.10586,-6.77791,-83.0183,-46.5854,5.97561
313.379,-2.7148,-7.37487,0,1.26457,9.85311,-1.75794,-16.6463,22.378,-8.56707,-36.3324,-9.02922,-6.88329,-84.2378,-43.5366,7.62195
313.389,-2.58877,-7.50487,0,1.3484,9.9058,-1.65017,-17.9878,22.5915,-8.5061,-36.457,-9.00048,-6.98867,-86.4939,-39.2073,8.53659
313.399,-2.44499,-7.62998,0,1.48491,9.99681,-1.54718,-19.7866,22.9878,-7.86585,-36.7156,-8.53106,-7.02699,-86.5244,-34.4512,11.8902
313.409,-2.27678,-7.74431,0,1.64298,10.0711,-1.4418,-21.4024,23.3232,-6.76829,-36.9264,-8.21492,-6.95035,-89.8171,-28.811,14.939
313.419,-2.07851,-7.87138,0,1.79387,10.095,-1.27655,-23.75,23.872,-5.15244,-37.3575,-7.80297,-7.30481,-91.7378,-22.3476,18.3232
313.429,-1.82826,-7.96197,0,1.9735,10.1261,-1.09452,-25.6707,25.1524,-2.89634,-37.9611,-7.49641,-6.86413,-91.311,-18.2927,21.128
313.439,-1.3122,-8.02312,0,2.11959,10.1477,-0.955613,-28.3841,27.3476,0.213415,-38.4017,-7.35271,-6.48092,-92.1646,-14.7561,22.561
313.449,-0.984085,-8.07118,0,2.31598,10.2651,-0.66342,-31.8293,29.4207,4.57317,-38.5263,-7.16111,-6.30848,-91.7683,-12.6829,22.1951
313.459,-0.582387,-8.09038,0,2.60339,10.2435,-0.476609,-36.0976,32.0427,9.87805,-38.6891,-7.10363,-5.85822,-91.3415,-10.9451,19.5122
313.469,-0.0806088,-8.09645,0,2.96743,10.174,-0.107776,-41.6463,34.7561,16.8293,-38.6604,-6.76833,-5.6283,-89.8781,-7.95732,14.5122
313.479,0.518036,-8.08953,0,3.32189,10.016,0.337698,-47.6829,36.9817,23.4756,-38.5933,-6.51924,-5.39837,-88.6585,-8.29268,12.6829
313.489,1.20017,-8.05655,0,3.50152,9.97526,0.706531,-53.8415,38.872,31.189,-38.6604,-5.6762,-4.96727,-84.0549,-13.0793,11.0976
313.499,2.00891,-8.01902,0,3.85598,9.76689,1.07536,-61.3415,41.9207,41.0061,-38.6029,-4.77567,-4.89063,-74.6341,-22.5305,14.5732
313.509,2.96482,-7.93977,0,4.17691,9.35974,1.3963,-66.2805,45.7927,52.561,-39.1777,-3.90388,-4.25834,-57.4085,-37.5305,22.1951
313.519,4.03683,-7.8439,0,4.42121,9.2352,1.59029,-68.9329,48.7805,63.2317,-39.4747,-2.98419,-3.99968,-36.0671,-53.872,33.9329
313.529,5.2081,-7.74151,0,4.47629,9.15376,1.4418,-69.9085,47.439,74.5732,-39.9058,-2.94587,-3.90388,-10.061,-66.4939,46.1585
313.539,6.46495,-7.65436,0,4.59844,9.35495,1.25499,-68.3232,44.2988,85.4573,-40.2124,-3.3195,-4.16254,17.1646,-74.5732,55.2744
313.549,7.72036,-7.62309,0,4.711,10.2555,1.0586,-61.7378,40.8841,90.9451,-39.2735,-4.85231,-4.98643,43.689,-75,61.4329
313.559,8.89636,-7.67506,0,4.69903,11.7883,0.716111,-52.1341,35.5793,91.4024,-39.7717,-5.02475,-6.4905,68.8719,-67.3171,63.4451
313.569,9.96905,-7.74355,0,4.67508,13.1319,0.378413,-44.6037,32.5,87.6219,-40.8255,-4.40205,-6.96951,91.2805,-57.2256,62.378
313.579,10.8357,-7.87114,0,3.29315,13.8576,0.507744,-43.3841,31.4329,81.4939,-41.0458,-4.59365,-8.10954,108.476,-42.561,64.8171
313.589,11.5399,-8.0105,0,1.62622,13.4528,1.71004,-37.5305,37.0122,79.9085,-41.4578,-4.73735,-8.464,117.165,-30.0305,67.7134
313.599,12.0877,-8.15228,0,-0.371228,13.4265,3.25723,-24.0244,38.5976,82.6829,-41.1321,-4.60323,-8.5119,123.72,-20.3963,74.1159
313.609,12.5489,-8.30664,0,-2.69679,14.7533,4.16494,-17.439,25.7317,92.8659,-40.9692,-3.40572,-8.82804,118.415,-22.1951,83.3841
313.619,12.9276,-8.45374,0,-4.5673,13.9127,2.62255,-16.7073,35.1829,101.341,-41.0554,-2.71595,-8.8472,114.024,-28.2012,90.1524
313.629,13.2771,-8.55658,0,-5.32413,13.4696,-0.603545,-25.4268,58.4146,106.067,-41.5153,-2.09325,-8.24366,110.091,-36.4329,95.8232
313.639,13.5855,-8.67046,0,-5.09421,11.9703,-2.74709,-50,60.2134,105.61,-42.1188,-1.35558,-8.67476,106.494,-41.5244,99.939
313.649,13.9003,-8.75439,0,-4.22002,10.4423,-1.36756,-63.2012,27.9268,104.756,-41.7164,0.0814307,-8.11912,104.421,-45.2134,104.756
313.659,14.2864,-8.85162,0,-2.7423,9.41243,0.399968,-56.8293,-4.20732,100.915,-40.8351,0.799937,-8.28198,104.482,-51.5549,113.75
313.669,14.8148,-8.94551,0,-1.08015,9.47949,1.28134,-49.3293,-23.5061,96.3415,-40.2315,0.895737,-8.18618,103.537,-56.3415,117.622
313.679,15.465,-9.03457,0,0.395178,9.18729,1.85854,-40.5488,-37.4695,91.5549,-39.0532,0.771196,-7.94667,105.061,-62.0732,120.305
313.689,16.1872,-9.08503,0,1.23344,8.56938,1.27894,-32.378,-52.4695,88.5366,-38.2868,0.598755,-7.19943,107.744,-68.811,119.482
313.699,16.9271,-9.12915,0,1.51844,7.80537,0.273032,-25.4878,-60.3963,86.0671,-37.53,0.282612,-7.00783,111.098,-76.311,114.939
313.709,17.7337,-9.13111,0,2.40939,7.53473,-0.914897,-21.311,-63.811,80.6707,-37.0605,0.00479004,-6.26058,115.518,-82.7744,109.909
313.719,18.5596,-9.12603,0,3.25004,7.48923,-1.52563,-21.8598,-58.4756,72.5915,-36.5145,-0.570015,-6.07856,119.268,-90.6098,101.677
313.729,19.3584,-9.13317,0,3.45122,7.07489,-1.16398,-20.3963,-47.7439,66.311,-35.4798,-0.560435,-6.1073,121.311,-93.0488,94.6646
313.739,20.1935,-9.15839,0,4.20326,6.56954,-0.665815,-17.3476,-32.1951,58.1707,-35.2116,-0.790356,-6.35638,121.982,-93.5061,85.2439
313.749,20.9828,-9.20782,0,4.49785,6.4929,-0.134121,-13.1098,-15.8537,50.9146,-35.0487,-1.18314,-6.72042,121.006,-90.4878,74.939
313.759,21.7464,-9.23521,0,4.96967,6.4905,-0.134121,-11.4329,9.5122,44.3293,-34.5793,-0.474214,-6.2989,117.073,-85.7012,65.7927
313.769,22.4625,-9.31462,0,4.96009,6.08335,0.0263452,-6.95122,30.2744,37.4695,-34.2248,-0.00479004,-7.04615,114.085,-79.3598,58.5366
313.779,23.1524,-9.40817,0,5.27862,5.90851,-0.165256,-0.335366,48.5671,30.9756,-34.2823,0.924478,-7.30481,108.872,-71.0366,55.3354
313.789,23.7742,-9.52055,0,5.10139,5.83666,-0.304167,5.36585,64.1768,26.7073,-33.9183,1.52802,-7.56347,104.177,-65.6098,51.6463
313.799,24.2719,-9.68694,0,4.8068,6.14323,-0.498164,8.04878,73.9939,21.6768,-34.2919,2.17947,-8.5598,102.165,-59.2683,49.7256
313.809,24.6799,-9.88883,0,4.39247,5.88217,-0.387993,10.8232,81.6159,16.1585,-34.5122,2.37107,-9.26873,98.5061,-50.0305,44.2073
313.819,24.9524,-10.1612,0,3.56618,5.58998,-0.0742456,17.8354,87.6829,11.7683,-34.3973,2.74469,-10.4854,93.4146,-37.378,36.1585
313.829,25.0992,-10.4675,0,2.89079,5.29778,0.335303,27.0427,92.1951,6.76829,-34.6368,2.55309,-11.2614,88.2012,-23.3232,26.7378
313.839,24.7539,-10.79,0,2.33993,5.18043,0.946033,36.6159,89.5732,1.67683,-34.6464,2.25611,-11.7021,81.2195,-10.4573,14.0244
313.849,24.477,-11.0784,0,2.09325,5.73847,1.57592,41.6159,82.7439,-3.75,-35.1828,2.22737,-11.4913,75.1524,-2.77439,1.31098
313.859,24.3243,-11.3821,0,2.19384,5.90612,2.24653,45.3963,69.2378,-6.79878,-35.8918,2.01661,-12.1715,68.3232,2.71341,-11.0976
313.869,24.1733,-11.6278,0,2.41657,6.09293,3.00096,48.689,54.4207,-9.90854,-36.8689,1.49928,-11.6637,62.9878,6.40244,-24.4207
313.879,24.063,-11.7972,0,2.80217,6.09053,3.79371,53.75,39.7866,-12.3476,-38.0377,1.97829,-10.8207,54.939,5.12195,-30.3659
313.889,23.9799,-11.9183,0,3.30034,6.47613,4.24158,55.7622,24.4817,-14.4817,-38.8328,2.08367,-10.2938,46.6463,2.10366,-34.4817
313.899,23.9108,-11.9676,0,3.9446,7.20182,4.41881,53.3232,11.25,-16.7073,-39.992,2.45729,-9.36453,36.9207,-3.17073,-34.5427
313.909,23.8371,-11.9724,0,4.43318,7.78621,4.51701,52.5,-2.7439,-19.2378,-41.1129,2.90755,-8.83762,28.5061,-8.71951,-31.7378
313.919,23.7864,-11.9214,0,5.2906,8.47837,4.35175,50.9756,-13.6585,-21.7683,-41.8027,3.35782,-7.93709,16.7378,-13.4146,-28.5671
313.929,23.7247,-11.8463,0,5.81511,9.137,4.18889,46.9207,-19.5732,-24.0244,-42.5116,4.01884,-7.58263,5.88415,-17.7744,-26.5854
313.939,23.6465,-11.7656,0,6.20789,9.64953,4.29667,40.1829,-20.8537,-26.4024,-42.7511,4.91937,-7.47725,-6.21951,-22.9268,-22.3171
313.949,23.552,-11.6547,0,6.64378,10.3106,4.34217,33.4451,-15.2744,-28.3232,-43.0672,5.39837,-6.89287,-16.4024,-26.0061,-19.2683
313.959,23.4391,-11.551,0,7.10363,11.5153,4.53377,25.5488,-5.94512,-28.0793,-43.5558,5.79116,-7.04615,-26.9817,-30.8232,-15.5183
313.969,23.3487,-11.4409,0,7.58742,12.5739,4.76609,16.7683,6.43293,-24.878,-43.6708,6.00192,-6.87371,-36.8293,-35.0305,-10.3963
313.979,23.3445,-11.3896,0,8.33946,13.1558,5.19959,9.02439,19.8171,-18.8415,-43.8049,5.59956,-7.98499,-42.1037,-37.439,-5.51829
313.989,23.4578,-11.3855,0,8.86876,13.1127,5.12774,4.08537,33.0488,-10.3354,-43.4409,4.80441,-8.80888,-43.1098,-35.9756,-4.60366
313.999,23.6825,-11.4524,0,8.81128,12.7918,4.79483,1.67683,43.0488,0.213415,-42.6936,4.10506,-10.0351,-39.9085,-30.4573,-0.365854
314.009,24.0071,-11.5896,0,8.13588,11.7428,4.27271,1.85976,42.1646,10.6098,-42.7415,3.42488,-11.4626,-32.439,-19.2683,2.37805
314.019,24.4053,-11.7974,0,7.25212,10.3752,3.82485,6.46341,33.9329,18.2927,-42.7607,3.19496,-12.9475,-26.372,-1.79878,8.75
314.029,24.8239,-11.9841,0,6.31088,9.11544,3.26441,12.9878,22.1646,21.7073,-43.5462,3.15664,-12.8517,-22.5305,13.628,14.5122
314.039,25.1571,-11.9203,0,5.07984,8.23408,2.20342,20.8841,4.78659,20.0305,-46.3245,4.1817,-8.43526,-19.2988,10.8841,20.0305
314.049,25.24,-11.8485,0,3.82006,8.68434,0.60115,29.5732,-12.5305,11.3415,-49.0356,3.5111,-8.76098,-9.54268,-4.5122,22.5305
314.059,24.4174,-11.9752,0,2.01661,9.40524,-0.268242,41.3415,-27.8354,0.121951,-48.9686,3.76976,-13.1391,0.213415,5.57927,23.2622
314.069,23.8309,-12.1585,0,0.0215552,9.57289,0.455054,49.4817,-45,-10.2744,-48.777,3.50152,-14.3941,0.884146,32.8659,23.0488
314.079,23.072,-12.2151,0,-0.775986,9.97765,1.3963,44.6341,-56.5549,-19.7256,-50.0799,3.13748,-11.8458,-2.53049,56.4024,18.1098
314.089,22.2975,-12.1509,0,-0.313748,10.3896,2.33754,28.1707,-52.8659,-28.4146,-50.8367,2.29443,-9.22083,-0.579268,63.2927,8.87195
314.099,21.6695,-12.0244,0,1.16398,10.5692,3.05844,24.3902,-43.4451,-31.4024,-50.032,2.24653,-7.61137,9.54268,62.3476,-2.77439
314.109,21.2423,-11.6674,0,2.96743,11.5991,2.21539,26.5549,-43.4756,-28.6585,-48.4225,1.90165,-2.28485,15.2439,61.9817,-16.4024
314.119,20.923,-11.158,0,3.83922,12.4589,1.46096,18.689,-46.3415,-24.1768,-45.7592,0.397573,1.25978,3.96341,76.9817,-32.5915
314.129,20.5787,-10.6673,0,3.25004,12.0925,1.08973,17.8963,-44.9695,-23.1402,-44.1306,-0.924478,1.30768,-0.396341,93.8415,-43.8415
314.139,20.0326,-10.0529,0,1.14482,11.9967,-0.244292,19.4817,-48.628,-24.8476,-43.2109,-3.95178,3.9901,11.0671,86.25,-48.9329
314.149,19.336,-9.61578,0,-0.546064,11.6015,-1.64298,21.6768,-53.5976,-24.6951,-45.3665,-10.6578,1.12566,25.9756,88.0793,-51.311
314.159,18.5481,-8.86515,0,-1.60706,10.6219,-2.8357,28.6585,-58.2317,-23.3841,-46.1903,-7.29523,7.86045,20.2134,64.2988,-52.439
314.169,17.7022,-8.14041,0,-2.07169,9.79323,-3.48475,33.4756,-62.5,-24.0854,-43.5079,-8.01374,7.49641,34.9085,68.6585,-53.2622
314.179,16.8251,-7.36264,0,-2.13875,9.30226,-3.6069,32.6524,-68.2622,-26.9512,-41.8027,-7.08447,8.73224,30.3049,60.3354,-50.0305
314.189,15.8789,-6.62419,0,-2.33993,8.57656,-3.19975,32.5305,-75.7317,-31.0671,-39.2831,-5.37921,8.0329,24.939,54.939,-46.5854
314.199,14.9828,-5.95788,0,-1.65975,8.14067,-3.64522,33.628,-84.6951,-35.5183,-36.6773,-3.48236,6.76833,21.0061,51.25,-40.4878
314.21,14.224,-5.23375,0,-0.416733,8.03769,-4.02842,34.1768,-90.5183,-40.7927,-36.4761,-1.5376,8.10954,17.1037,41.6463,-32.4695
314.219,13.5933,-4.55962,0,0.65384,8.03529,-4.18649,35.7927,-91.5854,-44.8171,-36.936,0.435894,7.86045,5.54878,45.3049,-25.5183
314.229,12.9917,-3.98156,0,1.14961,8.20055,-4.08351,37.2561,-89.0244,-49.939,-36.4953,1.92081,6.5863,-8.87195,38.872,-19.5122
314.239,12.3779,-3.51603,0,1.40588,8.39454,-3.90867,37.9573,-81.4024,-55.5183,-37.9227,2.26569,5.29299,-23.0488,34.6037,-21.9512
314.249,11.7726,-3.10547,0,1.84656,8.62926,-3.8488,39.3598,-68.8719,-61.1585,-39.0819,2.31359,4.80441,-34.3902,31.6463,-27.3476
314.259,11.0698,-2.74836,0,1.42025,8.97653,-3.56139,41.4634,-57.1341,-66.0366,-39.4939,2.27527,4.17212,-43.8415,23.811,-34.7256
314.269,10.3033,-2.42994,0,1.04423,9.02922,-3.20933,41.3415,-48.2927,-69.0854,-39.6759,1.43222,3.74102,-55.6402,18.9939,-41.7988
314.279,9.57525,-2.16257,0,1.36516,9.19927,-2.95785,39.9085,-40.9451,-70.4878,-39.8388,0.0622705,3.06083,-65.8841,14.4817,-48.4756
314.289,8.81037,-1.9717,0,1.0107,9.48907,-2.53393,40.3049,-33.689,-70.9146,-38.9765,-1.47054,1.84417,-72.1037,10.3963,-54.3598
314.299,7.97601,-1.83996,0,0.0886157,9.66151,-2.17707,40,-37.0122,-68.2317,-37.8653,-2.87881,0.924478,-76.189,8.81098,-56.5244
314.309,7.21515,-1.70704,0,0.328118,9.50344,-2.07648,37.9878,-41.311,-65.3963,-37.0414,-4.45953,1.00112,-79.1463,6.37195,-59.6341
314.319,6.58802,-1.59334,0,1.03465,9.12502,-1.8777,38.5976,-39.7866,-62.4695,-35.9109,-5.54208,0.732876,-78.3232,1.0061,-61.0366
314.329,5.83762,-1.50595,0,-0.385598,9.03641,-1.57353,39.2073,-45.1524,-58.1402,-35.1828,-6.80665,0.368833,-74.8781,-2.59146,-61.0671
314.339,5.08841,-1.40798,0,-0.419128,8.69153,-1.9711,39.3598,-60.122,-58.9024,-34.3877,-7.03657,0.550855,-70.5793,-10.1829,-60.6098
314.349,4.54801,-1.31541,0,1.16398,8.58375,-2.37346,39.6646,-61.311,-60.5183,-33.5446,-6.6821,0.493374,-66.5244,-17.561,-56.5244
314.359,4.12671,-1.23149,0,2.03816,8.50232,-2.85007,40.6098,-55.2439,-61.2195,-32.9986,-6.06898,0.397573,-61.0366,-22.9268,-51.4939
314.369,3.67869,-1.18874,0,1.72441,8.59093,-3.13748,41.128,-47.7744,-60.4573,-32.395,-5.65704,-0.158071,-60.1829,-25.8232,-42.6829
314.379,3.26819,-1.1699,0,1.90404,8.64602,-3.53026,41.4939,-31.4024,-59.7256,-32.8549,-5.35047,-0.493374,-58.5366,-29.7561,-36.2805
314.389,2.65825,-1.19717,0,0.0263452,8.92384,-3.06562,40.7927,-28.2622,-55.9146,-33.2764,-5.64746,-1.17356,-54.939,-32.5915,-32.8963
314.399,2.1489,-1.24127,0,0.651445,8.80649,-2.82133,39.1768,-26.9207,-55.1829,-33.7841,-5.8199,-1.47054,-50.061,-36.6768,-31.0671
314.409,1.62224,-1.28515,0,0.490979,9.0388,-2.43573,38.2317,-31.4939,-55.7012,-34.0428,-5.87738,-1.51844,-43.5671,-41.3415,-31.0366
314.419,1.1588,-1.36759,0,0.934058,9.07233,-2.32077,35.6402,-37.9268,-55.9756,-34.2248,-6.2031,-2.15073,-36.6768,-46.2195,-29.878
314.429,0.710432,-1.41791,0,0.929268,9.18011,-2.08846,33.3232,-45.4573,-55.1829,-35.1924,-6.38512,-1.7771,-32.6524,-51.0366,-29.7866
314.439,0.282988,-1.49706,0,1.01549,9.30465,-1.99026,32.622,-49.1768,-54.878,-34.4164,-6.51924,-2.21779,-29.0549,-54.6341,-28.7805
314.449,-0.115902,-1.63176,0,1.08255,9.31184,-2.03816,31.0671,-53.0488,-53.6585,-33.1902,-6.60546,-2.99377,-28.9024,-51.6159,-24.939
314.459,-0.422838,-1.83186,0,1.55676,9.19927,-2.019,29.3293,-57.3476,-51.1585,-32.6345,-6.2989,-3.96136,-29.2683,-47.7439,-21.0671
314.469,-0.64785,-2.13476,0,1.85854,8.9933,-1.99984,28.689,-58.7195,-47.6524,-31.8394,-6.47134,-5.42711,-28.2927,-38.872,-16.128
314.479,-0.855381,-2.47499,0,1.70525,8.7035,-2.15073,26.7988,-61.7378,-45.122,-31.4466,-6.2031,-6.04024,-26.6159,-29.6037,-10.7927
314.489,-1.0706,-2.85682,0,1.4418,8.82086,-2.32317,25.4878,-62.7744,-42.6524,-30.9868,-5.9157,-6.71084,-26.7683,-20.7317,-5.54878
314.499,-1.28746,-3.22211,0,1.33882,8.93342,-2.49322,21.6159,-58.1098,-41.7073,-30.6419,-5.71452,-6.59588,-27.2256,-13.4756,-0.304878
314.509,-1.56128,-3.6005,0,1.06578,9.137,-2.61297,19.1463,-52.2256,-44.1463,-30.9197,-5.28341,-7.02699,-27.9573,-5.36585,5.33537
314.519,-1.9013,-4.04029,0,0.677791,9.25196,-2.50519,16.2805,-47.3476,-46.4329,-30.776,-4.86189,-8.07122,-27.2256,2.22561,12.2561
314.529,-2.27773,-4.50935,0,0.440684,9.55134,-2.52675,11.7683,-42.3171,-47.6829,-30.8239,-4.64155,-8.74182,-26.6159,10.4573,20.5183
314.539,-2.65583,-4.95922,0,0.479004,9.50823,-2.65847,11.189,-36.0976,-49.1159,-30.9484,-4.53617,-8.7514,-24.6341,16.189,27.9573
314.549,-3.00679,-5.4427,0,0.682581,9.84114,-2.40699,14.6951,-32.0427,-49.3293,-31.6861,-4.96727,-9.72857,-21.0061,20.2744,36.7988
314.559,-3.29338,-5.85356,0,0.991538,10.2315,-2.41657,16.2805,-35.6707,-46.6768,-32.8836,-5.41753,-9.23999,-18.5061,24.878,41.6768
314.569,-3.44743,-6.19747,0,1.71483,10.1333,-2.33275,11.2805,-47.6829,-42.0427,-34.5985,-6.88329,-8.87594,-16.4024,30.2439,44.1463
314.579,-3.41821,-6.45636,0,2.87402,9.63277,-2.13396,9.35976,-52.9573,-37.9573,-36.821,-7.63053,-8.21492,-14.6646,31.9512,43.5976
314.589,-3.29254,-6.6501,0,3.40332,9.0412,-2.26569,9.72561,-54.7561,-36.25,-39.1203,-8.52148,-7.72633,-13.4146,35.6402,40.3354
314.599,-3.16241,-6.83201,0,3.38656,9.18969,-2.86444,7.62195,-50.5488,-34.7256,-40.0687,-8.20534,-7.82213,-12.7134,39.939,41.128
314.609,-3.09924,-7.02183,0,2.75667,9.70222,-3.54942,0.518293,-37.2866,-32.378,-41.3237,-7.44851,-8.33946,-5.73171,43.5976,49.5427
314.619,-3.1162,-7.16656,0,1.8777,10.0447,-3.29315,-4.48171,-21.5244,-29.6646,-43.5846,-7.15153,-8.0329,-2.04268,47.2866,58.0183
314.629,-3.19026,-7.28329,0,1.18793,10.7393,-2.89558,-4.96951,-10.3049,-26.7988,-45.9508,-8.26282,-7.97542,0.0609756,54.1159,59.7866
314.639,-3.27321,-7.45616,0,0.857417,11.5248,-2.76864,-4.84756,-6.7378,-23.6585,-46.8418,-9.38369,-9.38369,-4.84756,64.7866,50.6402
314.649,-3.31955,-7.73965,0,0.886157,12.3463,-2.85007,-10.7317,-10.3659,-19.7866,-45.9413,-9.67109,-11.6446,-7.89634,79.2073,33.9939
314.659,-3.28335,-8.11873,0,1.19511,12.5212,-2.65129,-20.2744,-18.5061,-14.2073,-43.9199,-9.50823,-13.2924,-6.28049,95.7622,20.4878
314.669,-3.12249,-8.44184,0,1.78668,12.2266,-2.69679,-28.75,-27.2866,-7.2561,-43.46,-9.42201,-12.2386,0.762195,111.25,13.4451
314.679,-2.85601,-8.58097,0,2.22976,12.011,-2.63931,-34.9085,-35.061,-1.4939,-44.236,-8.52148,-8.92384,3.68902,111.098,12.5915
314.689,-2.49304,-8.47038,0,2.80217,11.9583,-2.87402,-39.0549,-43.0488,4.2378,-47.407,-8.78972,-4.43079,2.37805,90.6707,17.1646
314.699,-2.04689,-8.38034,0,3.13029,12.387,-3.43446,-45.8841,-48.3841,11.4939,-51.8618,-10.1597,-5.26425,-0.884146,80.9146,14.6951
314.709,-1.50499,-8.34434,0,3.5566,12.4685,-3.76258,-53.1402,-49.3902,18.628,-55.3489,-8.97174,-6.79707,-4.57317,95,10.3963
314.719,-0.893621,-8.21167,0,3.65719,13.1487,-3.90628,-60.3659,-42.1646,27.5915,-57.8972,-6.47134,-4.49785,-10.5488,111.524,4.42073
314.729,-0.161488,-8.02163,0,4.16973,13.1511,-3.36979,-67.4695,-27.9878,36.9817,-59.1714,-3.76018,-2.92671,-19.5122,117.378,-3.35366
314.739,0.694826,-7.6188,0,4.61999,13.278,-2.29922,-75.1219,-10.7927,47.8963,-61.3364,1.85375,2.87881,-22.0427,108.384,-4.66463
314.749,1.62114,-7.49041,0,4.09309,13.1439,-1.20469,-88.2622,1.64634,60.6402,-48.9973,-1.37474,-3.2237,-7.46951,123.72,-2.59146
314.759,2.66728,-7.1417,0,3.8943,12.1691,-0.299377,-94.2073,15.7927,73.8415,-48.5087,2.57225,1.55676,-16.2805,105.61,-1.12805
314.769,3.80079,-6.67126,0,3.73623,11.4841,-0.265847,-98.0183,33.5671,84.3293,-44.9162,2.80217,4.0859,-20.2744,92.8354,-1.85976
314.779,4.94668,-6.1488,0,2.886,10.4375,0.589175,-106.555,39.6646,93.1402,-42.3008,1.26936,5.13013,-24.8171,79.3598,-3.59756
314.789,6.06358,-5.56538,0,1.45617,9.45075,0.759221,-104.848,27.6524,106.189,-41.5536,-0.675395,6.50008,-21.9817,61.9207,-10.1829
314.799,7.14791,-4.93763,0,-0.143701,9.35495,0.0574805,-93.2927,1.55488,124.817,-41.9368,-2.70637,7.77423,-16.189,43.5061,-19.0549
314.809,8.19047,-4.52431,0,-1.03944,8.60291,-0.431104,-82.5915,-25.0915,135.03,-40.0591,-5.51333,3.97094,-13.5976,32.622,-27.5915
314.819,9.07944,-4.09664,0,-2.65129,8.7993,-0.689766,-71.6159,-39.4207,141.646,-42.6266,-4.61281,4.80441,-3.07927,31.3415,-33.7195
314.829,9.86923,-3.75166,0,-4.09788,9.35255,-2.25371,-51.128,-21.25,147.409,-41.6111,-4.67987,3.48236,-5.91463,34.1159,-34.1463
314.839,10.6956,-3.45144,0,-4.11464,11.8434,-5.14211,-44.939,13.1707,143.567,-42.1763,-5.5325,2.91713,-11.4939,25.6402,-30.9451
314.849,11.486,-3.20166,0,-3.4608,12.696,-5.98994,-50.9451,35.9146,133.598,-41.7452,-5.70494,2.15073,-9.05488,18.8415,-29.3293
314.859,12.3075,-2.98688,0,-1.67891,13.4337,-5.61393,-55.4573,44.5427,121.799,-40.6147,-5.16845,1.60466,-1.09756,8.14024,-18.7805
314.869,13.2224,-2.81936,0,0.835862,13.6851,-3.85598,-60.5183,39.6951,111.341,-38.555,-4.42121,0.828677,6.89024,-2.43902,-9.08537
314.879,14.2466,-2.66694,0,2.89558,13.3522,-1.99266,-58.4451,35.7622,106.524,-35.9876,-3.08958,0.627495,12.1951,-6.18902,6.34146
314.889,15.292,-2.53127,0,3.28118,12.6313,-1.09213,-52.2256,39.878,106.037,-35.0583,-2.60099,0.426313,17.0732,-12.622,24.9085
314.899,16.2937,-2.39647,0,2.46208,11.7332,-0.955613,-45.2134,51.6768,109.238,-34.1578,-1.89207,0.474214,23.1098,-15.6402,41.2805
314.909,17.2771,-2.2475,0,2.0669,11.1201,-1.27415,-39.4207,66.6768,112.104,-33.6883,-1.02986,0.761616,27.5,-14.1768,52.5
314.919,18.2219,-2.13795,0,1.6358,10.1333,-1.33882,-33.628,81.9512,112.957,-34.0428,0.110171,0.263452,26.4634,-15.2439,61.0976
314.929,19.0819,-2.09219,0,1.09931,9.62798,-1.41785,-25.4878,94.6341,111.646,-34.5601,0.225132,-0.637075,24.9085,-14.9085,65.1524
314.939,19.8662,-2.12341,0,0.65384,9.65193,-1.45617,-18.5671,102.53,111.067,-34.7422,0.0814307,-1.78668,24.5732,-12.7744,63.5366
314.949,20.6061,-2.19646,0,0.565225,9.79563,-1.69807,-16.5549,109.878,109.299,-34.4548,-0.177231,-2.41897,27.4695,-9.69512,59.1768
314.959,21.2832,-2.29971,0,0.366438,9.51302,-1.50886,-14.3598,112.896,106.646,-34.6943,-0.100591,-2.94587,27.5,-10,49.4512
314.969,21.9254,-2.41147,0,0.493374,9.26633,-1.52563,-12.6829,114.482,102.744,-34.5218,-0.464634,-3.1279,30.3354,-11.1585,39.1463
314.979,22.4105,-2.55196,0,-0.340093,8.94779,-1.41546,-13.689,111.799,98.689,-34.0715,0.0143701,-3.59732,31.128,-13.7195,32.3171
314.989,22.82,-2.63501,0,-0.371228,8.35862,-1.19511,-12.0732,112.165,92.7134,-33.6788,0.378413,-2.79259,34.7561,-18.3841,24.8476
314.999,23.1747,-2.71904,0,-0.359253,8.54303,-1.14003,-9.72561,111.646,87.6829,-33.3243,0.541274,-2.84049,36.6768,-23.2317,20.1524
315.009,23.4191,-2.80892,0,-0.61552,8.5119,-1.33163,-7.77439,110.457,80.6707,-32.9411,0.962798,-2.95545,33.2622,-27.8659,19.8171
315.019,23.5992,-2.90648,0,-0.570015,8.00895,-1.43222,-2.83537,107.165,74.4817,-32.4142,1.16398,-3.08,28.5366,-31.4024,22.5305
315.029,23.7489,-3.03627,0,-0.280217,7.60179,-1.67651,0.396341,109.909,67.7439,-32.0981,1.42264,-3.56858,20.8537,-32.3171,27.2256
315.039,23.8022,-3.1854,0,-0.435894,7.42217,-1.74118,2.31707,113.872,60.7622,-31.9544,1.87291,-3.90388,13.5671,-32.9878,30.5183
315.049,23.6833,-3.39473,0,-0.787961,6.8785,-1.70286,4.29878,116.22,49.7866,-32.2513,2.08367,-4.89063,6.58537,-30.5183,35.3049
315.059,23.3936,-3.65803,0,-1.17835,6.46416,-1.62861,6.58537,115.976,39.8476,-32.51,2.21779,-5.82948,0.945122,-24.6951,36.128
315.069,22.9622,-4.00322,0,-1.3963,6.03066,-1.36277,10,112.652,30.3354,-32.3663,1.92081,-7.15153,-4.29878,-17.1037,35.5183
315.079,22.3667,-4.39541,0,-1.83219,5.73847,-1.21667,14.0549,103.659,22.2256,-32.6441,1.45138,-8.10954,-6.92073,-8.90244,31.7073
315.089,21.6068,-4.82643,0,-2.4525,5.6283,-0.941243,18.2622,89.6037,16.1585,-33.3339,0.464634,-9.10586,-9.63415,0.152439,23.4146
315.099,20.7527,-5.24943,0,-2.73032,5.51333,-0.608335,22.4695,72.3781,10.8537,-33.9853,-0.0622705,-9.41243,-10.8232,5.67073,12.6524
315.109,19.8127,-5.63198,0,-3.04646,5.54926,-0.237107,26.8598,52.4695,7.80488,-34.9338,-0.934058,-9.26873,-10.2744,10.1524,2.19512
315.119,18.7899,-6.01717,0,-2.83331,5.70015,0.241897,31.7378,32.6829,5.91463,-35.9397,-1.48012,-9.83395,-11.7988,11.311,-6.52439
315.129,18.7883,-6.38501,0,-2.46448,5.51573,0.819097,38.811,9.90854,-0.152439,-36.4187,-1.41306,-9.93933,-10.3963,8.23171,-10.9146
315.139,17.8658,-6.70637,0,-2.2609,5.59956,1.26697,47.439,-11.9512,-7.53049,-36.9072,-1.4418,-9.53697,-12.0122,2.37805,-13.4756
315.149,16.9449,-7.00258,0,-2.05732,5.83427,1.69088,51.8598,-27.4695,-17.8659,-36.9552,-1.48012,-9.34537,-14.1768,-1.09756,-16.0671
315.159,16.2774,-7.29724,0,-0.301772,6.54319,2.01661,54.7866,-26.6159,-28.1402,-36.5911,-0.838257,-9.44117,-20.061,-4.90854,-17.0122
315.169,15.7629,-7.57352,0,1.30289,7.53713,2.20581,54.7256,-15.2134,-39.2988,-36.3995,-0.0239502,-9.27831,-26.9207,-5.27439,-17.1037
315.179,15.3319,-7.80982,0,3.13508,9.1849,2.51238,54.9695,-1.31098,-50.2744,-36.9839,1.40348,-8.92384,-33.5976,-5.03049,-15.0915
315.189,14.9883,-7.99335,0,4.51701,9.70701,3.34105,52.561,15.1829,-54.6951,-38.1527,2.92671,-8.44484,-38.9939,-7.37805,-10.1524
315.199,14.6808,-8.1057,0,5.30736,10.7632,4.00687,53.2317,18.811,-54.3598,-40.8063,3.9901,-7.85087,-41.4024,-12.0732,-2.71341
315.209,14.4803,-8.21339,0,6.43781,11.6254,4.06435,54.4207,10.9756,-49.6341,-43.096,4.58407,-8.30114,-38.7805,-15.7012,5.97561
315.219,14.4507,-8.35497,0,8.06403,12.9618,4.24158,50.3963,-6.25,-38.5366,-44.5138,3.7506,-9.34537,-36.8902,-13.7195,11.4329
315.229,14.6672,-8.47263,0,9.62079,13.3594,4.38528,51.4329,-31.9817,-21.4024,-46.861,1.2502,-9.42201,-37.8659,-8.53659,12.3171
315.239,15.1518,-8.60961,0,11.0219,13.1846,3.69791,61.8293,-59.3598,-2.04268,-47.0621,-1.51844,-9.95849,-36.8598,-3.23171,6.43293
315.249,15.8537,-8.83967,0,12.2146,13.29,2.85965,61.7073,-73.7195,15.6402,-45.4718,-3.98052,-11.6542,-30.1829,8.90244,-0.884146
315.259,16.7076,-9.20886,0,13.1606,13.46,2.44771,45.2744,-74.0244,28.9634,-42.914,-5.16845,-13.9725,-24.2683,25.7927,-4.90854
315.269,17.68,-9.71105,0,13.1319,12.5116,2.34233,26.5549,-63.0793,38.6585,-40.6722,-4.94811,-16.1472,-19.8476,47.8659,-2.95732
315.279,18.6949,-10.2383,0,11.532,10.6363,1.50647,18.1098,-56.189,43.0793,-39.2927,-4.60323,-16.4155,-19.878,71.25,1.03659
315.289,19.6072,-10.5654,0,8.90947,8.94779,0.160466,22.6829,-50.9451,39.6646,-40.6722,-2.62015,-13.3019,-25.061,77.9573,7.62195
315.299,20.1056,-10.7245,0,5.59716,9.13939,-0.821492,32.4085,-44.9085,26.6159,-44.6959,-1.62382,-11.3572,-27.8354,66.189,13.1098
315.309,19.885,-10.8667,0,2.16749,10.277,-2.28964,45.0305,-43.5671,0.701219,-47.6753,-1.12566,-11.9128,-31.311,57.4695,13.5366
315.319,19.2029,-11.0132,0,-0.387993,11.2039,-2.03816,48.3537,-30.9146,-24.9695,-49.3326,-0.0718506,-12.5355,-32.622,62.561,12.3476
315.329,18.3093,-10.985,0,-0.680186,12.4421,0.0598755,34.3902,-8.2622,-45.6098,-51.0666,0.895737,-8.97174,-32.378,68.1098,15.061
315.339,17.4999,-10.8758,0,1.64298,13.6396,1.27176,12.1951,18.0488,-59.2378,-52.312,1.04902,-7.20901,-31.4634,76.8598,20.9451
315.349,16.9292,-10.6105,0,3.64522,14.1905,0.0694556,-5.54878,41.189,-51.9207,-54.2951,-1.13524,-3.559,-26.9512,85.9756,24.9695
315.359,16.7205,-10.2871,0,4.90021,13.5654,-1.60945,-12.5,44.1768,-27.2866,-52.6377,-3.19496,-1.84417,-24.4512,88.5366,24.4512
315.369,16.5674,-9.76519,0,3.00096,12.4948,-1.7292,-29.7561,53.872,-9.05488,-49.3614,-3.80808,2.81175,-18.1402,74.2683,23.689
315.379,16.0441,-9.08831,0,-1.04662,9.09628,0.335303,-12.5,56.7988,-5.27439,-46.1616,-3.80808,6.12646,-15.9146,46.8902,24.2073
315.389,14.9896,-8.25523,0,-4.20805,7.61856,-1.42743,8.53659,51.7378,-15.8537,-42.9619,-3.44404,9.1825,-20.4268,23.3841,27.2561
315.399,13.6137,-7.58038,0,-5.87498,6.81862,-2.88121,21.4634,35.0305,-26.6463,-41.5057,-1.64298,6.40428,-45.0305,-3.01829,32.1951
315.41,12.1596,-6.89386,0,-6.58151,7.38624,-2.56507,31.4024,7.68293,-35.4878,-41.3332,-2.00703,7.11321,-37.9878,1.7378,27.8354
315.419,10.7139,-6.35068,0,-7.65688,8.53824,-2.53393,32.439,-43.4451,-37.2256,-41.7069,-2.42855,4.99601,-43.811,1.61585,21.9207
315.429,9.36237,-5.8595,0,-7.24014,9.01964,-4.23679,29.3293,-97.5915,-36.9512,-42.8086,-1.75794,4.53617,-54.8476,-0.853659,13.5671
315.439,8.18624,-5.47936,0,-5.25467,9.02204,-5.44148,27.4085,-131.982,-39.2378,-43.2301,-1.36516,2.81175,-62.6524,-3.75,5.60976
315.449,7.18496,-5.19966,0,-3.05604,9.01725,-5.49178,29.5732,-146.402,-47.2561,-42.8086,-0.311353,1.16398,-69.4817,-5.30488,3.41463
315.459,6.48943,-4.9598,0,-0.00479004,9.38369,-5.52771,31.7073,-145.396,-56.25,-41.7835,0.512534,0.608335,-77.9573,-4.69512,2.19512
315.469,6.10919,-4.74542,0,3.09197,9.65432,-5.07026,35.9451,-125,-61.7988,-40.2986,0.752036,0.301772,-80.6098,-5,2.7439
315.479,5.77483,-4.59634,0,3.87514,9.81,-4.35894,36.8293,-105.732,-65.6402,-38.9861,0.694556,-0.694556,-88.4451,-8.07927,3.53659
315.489,5.41726,-4.49254,0,3.58534,9.47949,-3.58055,38.5976,-89.5122,-66.9817,-37.712,0.426313,-1.33642,-93.9634,-11.0061,1.37195
315.499,5.03276,-4.40637,0,3.3195,9.2328,-3.34105,38.5976,-72.2866,-68.5366,-37.3958,-0.570015,-1.56634,-100.396,-16.5549,-2.80488
315.509,4.56802,-4.37117,0,2.50519,8.86397,-2.90037,38.628,-56.0061,-69.3598,-36.9839,-2.04535,-2.34233,-101.067,-21.4634,-11.7378
315.519,4.02778,-4.3945,0,1.65735,8.80409,-2.38304,38.5061,-48.4146,-67.561,-36.0738,-3.76018,-3.20454,-96.1281,-23.4756,-20.0305
315.529,3.5432,-4.45633,0,1.8777,8.45921,-2.05253,38.3537,-39.2988,-66.7683,-36.4474,-4.68945,-3.87514,-91.4024,-22.8354,-28.7805
315.539,3.10557,-4.50865,0,2.08606,8.37299,-2.07169,38.7805,-29.0549,-65.9756,-36.2941,-5.48459,-3.7506,-85.5183,-24.7561,-35.7622
315.549,2.56719,-4.57577,0,1.34361,8.54782,-2.1172,37.2256,-25.7622,-66.8293,-35.796,-6.4426,-3.98052,-81.9512,-28.628,-41.8293
315.559,2.06888,-4.65644,0,1.55676,8.26521,-2.50519,40.6098,-20.6402,-67.3781,-35.6618,-6.52882,-4.2296,-77.3476,-30.4878,-45.1524
315.569,1.49452,-4.71479,0,0.943638,8.3203,-2.77343,42.3476,-16.7988,-67.5915,-34.7996,-6.90245,-3.8464,-73.5366,-35.8232,-46.7073
315.579,0.84754,-4.76175,0,0.385598,8.5598,-2.7878,43.6585,-19.7561,-68.2317,-33.6596,-6.95993,-3.59732,-68.2927,-40.3354,-47.2561
315.589,0.190592,-4.79268,0,0.215552,8.52387,-2.92192,42.6524,-22.2866,-68.2622,-32.51,-6.76833,-3.29076,-64.0854,-47.9268,-48.1402
315.599,-0.460913,-4.83333,0,0.0790356,8.37059,-2.61536,42.8049,-25.8232,-67.1951,-31.6957,-6.54798,-3.37698,-60.4878,-52.9878,-45.1524
315.609,-1.09471,-4.8805,0,-0.00479004,8.59093,-2.47645,41.9207,-34.3293,-65.5488,-31.2167,-5.97318,-3.45362,-55.7317,-58.3232,-41.7073
315.619,-1.66419,-4.97569,0,0.313748,8.73464,-2.49801,41.6768,-39.6037,-64.5427,-31.3891,-5.55166,-4.1817,-50.061,-61.4634,-36.311
315.629,-2.17869,-5.12941,0,0.488584,9.06036,-2.51956,40.6402,-43.9939,-62.1951,-31.3221,-5.58998,-5.05349,-43.7805,-62.1341,-34.9085
315.639,-2.63516,-5.30853,0,0.696951,9.25196,-2.46208,37.2866,-49.1159,-59.8171,-31.5328,-5.88696,-5.54208,-38.2012,-63.7805,-34.6037
315.649,-3.0242,-5.51818,0,1.15919,8.94061,-2.38544,34.2073,-52.2561,-60.1524,-31.5999,-5.76242,-6.09772,-30.9146,-64.4817,-35.5183
315.659,-3.38263,-5.76835,0,1.47054,8.97414,-2.36867,30,-55.8537,-61.7378,-31.2646,-5.34089,-6.73,-27.1037,-63.1402,-34.5732
315.669,-3.6983,-6.06798,0,1.81303,8.8496,-2.39262,26.9512,-57.7439,-62.7439,-30.5078,-5.26425,-7.39103,-25.2744,-57.3171,-32.1646
315.679,-3.98474,-6.41504,0,1.9232,8.60052,-2.45969,25.7927,-58.9024,-62.5,-30.3162,-5.22593,-8.16702,-24.0549,-49.5122,-27.6524
315.689,-4.2491,-6.8034,0,1.90644,8.6556,-2.51477,24.878,-57.439,-60.4573,-30.2491,-5.05349,-8.91426,-26.7073,-39.9695,-21.7378
315.699,-4.50671,-7.21973,0,1.79387,8.7059,-2.53154,22.2256,-54.6341,-58.7195,-30.4886,-4.91937,-9.59445,-27.8963,-30.6402,-15.7317
315.709,-4.75265,-7.69831,0,1.76513,8.59093,-2.50759,19.939,-50.4268,-57.9878,-30.3353,-4.53617,-10.6866,-30.1829,-20.4573,-10.5488
315.719,-5.0307,-8.16465,0,1.57832,8.76577,-2.33035,16.4939,-46.8902,-58.9024,-30.7281,-4.53617,-10.8878,-34.0549,-7.28659,-4.60366
315.729,-5.33331,-8.65183,0,1.46815,8.57417,-2.03337,15.3354,-41.8902,-60.9756,-31.0921,-4.46911,-11.5967,-38.5671,2.59146,0.823171
315.739,-5.64909,-9.17107,0,1.56874,8.91426,-2.48124,17.1037,-34.5122,-63.4756,-31.3125,-4.62239,-12.4589,-41.8293,13.5366,5.60976
315.749,-6.01211,-9.63953,0,1.34361,9.55373,-2.65368,14.2988,-30.122,-64.9085,-31.6669,-4.77567,-12.0948,-42.1951,19.6037,11.372
315.759,-6.35912,-10.0158,0,1.33642,9.68067,-2.54591,12.1646,-28.689,-63.7195,-33.104,-5.61872,-11.4242,-41.5244,20.6402,15.2134
315.769,-6.6462,-10.2727,0,1.5376,9.59445,-2.40939,11.5244,-29.1159,-60.8537,-34.7422,-6.85455,-10.2363,-40.1524,17.3476,16.6768
315.779,-6.84931,-10.4309,0,1.86572,9.41482,-2.41897,12.1951,-31.311,-57.1646,-35.7576,-7.84129,-9.05796,-38.872,10.5488,15.5793
315.789,-6.95886,-10.5465,0,2.28964,9.331,-2.7423,12.1951,-31.4634,-53.2927,-37.1851,-8.5119,-8.80888,-36.6463,4.72561,13.9329
315.799,-7.04435,-10.6335,0,2.21779,9.55134,-2.99856,9.08537,-31.189,-49.6037,-38.4305,-8.72266,-8.68434,-31.0061,2.0122,13.9329
315.809,-7.10844,-10.7075,0,2.13396,9.73096,-3.19496,4.57317,-28.0793,-46.1585,-40.0591,-7.90835,-8.86636,-25.1524,4.17683,17.0122
315.819,-7.16923,-10.7544,0,1.84177,9.9537,-3.33626,1.4939,-22.622,-42.1037,-41.8218,-7.59221,-8.78014,-20,7.40854,21.8598
315.829,-7.22237,-10.7142,0,1.65735,10.277,-3.24046,-1.25,-17.2256,-38.75,-44.8396,-8.00416,-7.64969,-19.5732,11.372,21.311
315.839,-7.25862,-10.7604,0,1.58311,10.9189,-3.38416,-3.78049,-12.1646,-35.2744,-45.8838,-8.49274,-9.57529,-27.8659,19.2073,12.8354
315.849,-7.28311,-10.9211,0,1.4442,11.5488,-3.61408,-8.75,-10.1829,-31.8598,-45.3856,-8.24366,-11.8553,-36.0061,36.128,1.40244
