time,angle1,angle2,intgangle,accX1,accY1,accZ1,gyroX1,gyroY1,gyroZ1,accX2,accY2,accZ2,gyroX2,gyroY2,gyroZ2
540.541,87.9889,4.24436,0,9.81719,0.239502,-0.172441,-0.27439,-0.335366,-1.67683,-38.9957,-2.51477,2.84049,-13.9329,-3.29268,4.29878
540.551,87.9903,4.25361,0,9.84832,0.261057,-0.184417,-0.243902,-0.365854,-1.37195,-39.0532,-2.39981,3.05125,-13.5366,-2.10366,3.53659
540.561,87.9886,4.25371,0,9.83635,0.275427,-0.148491,-0.213415,0.0914634,-1.40244,-39.0723,-2.34233,2.89797,-14.939,-2.86585,4.26829
540.571,87.9858,4.27572,0,9.83395,0.268242,-0.134121,-0.396341,-0.0914634,-1.58537,-39.1011,-2.24653,3.28118,-14.2988,-2.59146,2.68293
540.581,87.9867,4.27659,0,9.86269,0.258662,-0.0838257,-0.365854,0,-1.43293,-39.1681,-2.30401,2.93629,-15.6707,-2.13415,2.56098
540.591,87.9903,4.28748,0,9.8124,0.251477,-0.141306,-0.121951,0.487805,-1.34146,-39.2352,-2.26569,3.11832,-13.872,-1.46341,4.32927
540.601,87.9984,4.30239,0,9.83395,0.225132,-0.107776,-0.243902,0.182927,-1.34146,-39.1107,-2.42855,3.18538,-14.6646,-1.61585,3.93293
540.611,88.0005,4.31593,0,9.83635,0.246687,-0.225132,0.213415,0.152439,-1.46341,-38.9382,-2.48603,3.15664,-14.9695,-1.92073,3.93293
540.621,88.0029,4.30631,0,9.82197,0.237107,-0.136516,0.0914634,-0.0609756,-1.55488,-39.1777,-2.38065,2.78301,-14.9085,-1.98171,4.48171
540.631,88.0022,4.28941,0,9.85072,0.246687,-0.136516,-0.0914634,-0.243902,-1.64634,-38.9861,-2.45729,2.63931,-16.372,-1.31098,4.08537
540.641,88.0002,4.30074,0,9.84114,0.261057,-0.172441,0.121951,-0.152439,-1.58537,-39.2735,-2.36149,3.13748,-15.3354,-1.61585,3.90244
540.651,87.999,4.30831,0,9.82437,0.263452,-0.131726,-0.0304878,-0.121951,-1.4939,-39.0532,-2.43813,3.06083,-16.6463,-2.10366,4.72561
540.661,87.9955,4.32162,0,9.82437,0.270637,-0.134121,0.121951,-0.152439,-1.58537,-39.2735,-2.42855,3.18538,-15.7622,-1.55488,4.05488
540.671,87.9912,4.32675,0,9.81479,0.270637,-0.158071,0,0.0609756,-1.64634,-39.2256,-2.44771,3.05125,-16.3415,-0.609756,4.54268
540.681,87.99,4.33064,0,9.83874,0.273032,-0.196392,-0.0914634,0.0304878,-1.40244,-39.1107,-2.31359,3.02251,-15.4878,-1.21951,5.33537
540.691,87.9922,4.32606,0,9.8076,0.261057,-0.203577,0.213415,0.27439,-1.31098,-39.0244,-2.43813,2.86923,-16.6768,-2.0122,5.4878
540.701,87.9908,4.32464,0,9.81719,0.261057,-0.138911,0.0914634,-0.121951,-1.55488,-39.0053,-2.39023,2.91713,-16.7378,-2.62195,5.54878
540.711,87.9848,4.29402,0,9.83874,0.289797,-0.131726,0.121951,0.304878,-1.55488,-39.1011,-2.50519,2.41897,-16.7378,-2.31707,5.36585
540.721,87.9846,4.27197,0,9.84353,0.270637,-0.158071,0.213415,0.121951,-1.37195,-39.0436,-2.48603,2.54351,-15.6098,-2.0122,5.27439
540.731,87.9841,4.28824,0,9.81,0.249082,-0.153281,0.213415,0.396341,-1.64634,-39.1969,-2.48603,3.20454,-15.5183,-1.79878,4.05488
540.741,87.9845,4.2824,0,9.83395,0.251477,-0.134121,0.396341,0.0304878,-1.55488,-39.2065,-2.24653,2.83091,-15.122,-2.19512,5.06098
540.751,87.9897,4.27598,0,9.79563,0.234712,-0.117356,-0.182927,-0.0914634,-1.43293,-39.1011,-2.44771,2.81175,-15.3659,-1.46341,4.54268
540.761,87.9876,4.28002,0,9.82437,0.263452,-0.107776,-0.0609756,-0.121951,-1.58537,-39.216,-2.45729,2.99377,-15.3963,-2.5,4.57317
540.771,87.9938,4.2665,0,9.83395,0.241897,-0.148491,-0.0914634,0.0609756,-1.28049,-39.2448,-2.45729,2.69679,-14.6341,-1.55488,4.08537
540.781,87.9972,4.26898,0,9.82197,0.261057,-0.0958008,-0.0914634,0.152439,-1.21951,-39.264,-2.46687,2.96503,-14.9085,-2.13415,4.78659
540.791,88.0047,4.2656,0,9.82437,0.215552,-0.122146,-0.426829,0.213415,-1.46341,-39.0628,-2.43813,2.85007,-16.7073,-2.16463,4.78659
540.801,88.008,4.25727,0,9.84353,0.241897,-0.110171,-0.152439,0.335366,-1.43293,-39.0149,-2.37107,2.75427,-15.6098,-3.47561,5.12195
540.811,88.0091,4.23992,0,9.83635,0.232317,-0.146096,-0.243902,0.27439,-1.67683,-39.0819,-2.51477,2.60099,-16.5244,-2.31707,5.15244
540.821,88.0127,4.23073,0,9.81479,0.225132,-0.110171,-0.0304878,-0.121951,-1.58537,-39.149,-2.24653,2.73511,-15.7317,-2.31707,5.45732
540.831,88.011,4.22445,0,9.82197,0.249082,-0.0981958,-0.243902,0.0304878,-1.67683,-39.1873,-2.44771,2.78301,-15.1524,-2.0122,4.84756
540.841,88.0121,4.22097,0,9.81958,0.232317,-0.100591,-0.0914634,0.243902,-1.67683,-39.1969,-2.43813,2.83091,-14.9695,-1.15854,5.7622
540.851,88.0148,4.21902,0,9.8124,0.229922,-0.165256,-0.121951,0.548781,-1.58537,-39.331,-2.46687,2.85965,-14.7256,-2.65244,5.12195
540.861,88.012,4.20568,0,9.85072,0.256267,-0.124541,-0.152439,0.335366,-1.67683,-39.3214,-2.41897,2.65847,-15.3963,-2.86585,5.7622
540.871,88.0127,4.20207,0,9.83395,0.239502,-0.0838257,0.27439,0.243902,-1.61585,-39.2065,-2.40939,2.81175,-15.9146,-2.53049,5.39634
540.881,88.0107,4.21307,0,9.82437,0.253872,-0.167651,0.152439,0.152439,-1.64634,-39.2065,-2.36149,3.06083,-14.7561,-3.23171,5.7622
540.891,88.0109,4.22254,0,9.83874,0.261057,-0.186812,0.121951,0.27439,-1.40244,-39.0436,-2.47645,3.03209,-15.3354,-2.31707,5.15244
540.901,88.0078,4.21136,0,9.83156,0.261057,-0.138911,-0.0304878,-0.152439,-1.64634,-39.0244,-2.53393,2.67763,-13.811,-3.04878,6.18902
540.911,88.0032,4.21027,0,9.81719,0.268242,-0.203577,0,0,-1.67683,-39.2831,-2.51477,2.85965,-14.6037,-4.11585,4.96951
540.921,87.9959,4.20764,0,9.8076,0.292192,-0.167651,-0.121951,0.182927,-1.58537,-39.2256,-2.40939,2.83091,-15.4573,-3.23171,5.7622
540.931,87.9933,4.20053,0,9.83874,0.265847,-0.150886,-0.152439,0.0914634,-1.58537,-39.1011,-2.24653,2.74469,-14.6037,-2.59146,4.45122
540.941,87.9907,4.19392,0,9.80281,0.282612,-0.143701,-0.121951,0.152439,-1.37195,-39.0244,-2.39981,2.74469,-14.3902,-2.10366,5.54878
540.951,87.9925,4.20077,0,9.82677,0.241897,-0.162861,-0.304878,-0.0914634,-1.55488,-39.1873,-2.38065,2.98419,-14.1159,-2.43902,5.06098
540.961,87.9946,4.20257,0,9.81958,0.258662,-0.167651,-0.27439,-0.182927,-1.34146,-39.1298,-2.40939,2.89797,-15.3963,-2.16463,4.2378
540.971,87.9989,4.21397,0,9.83156,0.253872,-0.150886,-0.0304878,-0.304878,-1.25,-39.0819,-2.38065,3.06083,-15.0305,-2.46951,4.39024
540.981,88.0056,4.21702,0,9.81719,0.256267,-0.153281,-0.304878,0.0304878,-1.06707,-38.9957,-2.52435,2.91713,-14.5122,-2.59146,4.84756
540.991,88.0089,4.22075,0,9.83156,0.246687,-0.107776,-0.0304878,-0.396341,-1.37195,-39.1107,-2.28485,2.93629,-14.7561,-3.56707,5.60976
541.001,88.007,4.23162,0,9.79563,0.256267,-0.162861,0.182927,-0.335366,-1.61585,-39.1011,-2.24653,3.06083,-14.9695,-3.90244,4.90854
541.011,87.9998,4.23677,0,9.84593,0.289797,-0.160466,0.121951,-0.152439,-1.61585,-39.1586,-2.39981,2.97461,-14.6646,-3.53659,5.09146
541.021,87.9995,4.22646,0,9.81479,0.261057,-0.110171,-0.0914634,-0.365854,-1.46341,-39.1011,-2.41897,2.70637,-15.2744,-3.44512,5.09146
541.031,88.0011,4.21091,0,9.83874,0.241897,-0.196392,-0.152439,-0.396341,-1.55488,-39.1394,-2.38065,2.61057,-15.0915,-3.59756,5.15244
541.041,88.0011,4.22827,0,9.82197,0.256267,-0.186812,-0.182927,-0.548781,-1.4939,-39.1203,-2.17947,3.16622,-14.5122,-4.5122,5.15244
541.051,88.0034,4.22168,0,9.82197,0.258662,-0.134121,0,-0.487805,-1.31098,-39.216,-2.27527,2.77343,-15.1829,-3.32317,4.57317
541.061,88.0082,4.21035,0,9.80521,0.227527,-0.148491,0.0914634,-0.152439,-1.4939,-39.1586,-2.32317,2.67763,-14.1463,-4.78659,4.14634
541.071,88.0113,4.20688,0,9.84114,0.237107,-0.196392,0.243902,-0.396341,-1.4939,-39.034,-2.32317,2.80217,-15.4573,-3.35366,4.57317
541.081,88.0111,4.19922,0,9.84353,0.263452,-0.112566,-0.0914634,-0.304878,-1.40244,-39.1873,-2.43813,2.73511,-16.0671,-4.26829,4.90854
541.091,88.0095,4.19099,0,9.8579,0.253872,-0.134121,-0.152439,0,-1.61585,-39.1586,-2.62015,2.71595,-16.9817,-4.78659,3.81098
541.101,88.0115,4.18829,0,9.85072,0.258662,-0.131726,-0.0304878,-0.213415,-1.31098,-39.0915,-2.52435,2.80217,-15.8232,-4.60366,3.62805
541.111,88.0156,4.18434,0,9.84114,0.213157,-0.146096,0.0304878,0,-1.67683,-39.0244,-2.34233,2.77343,-16.4634,-4.72561,4.90854
541.121,88.0159,4.18074,0,9.8579,0.246687,-0.136516,0,-0.121951,-1.55488,-39.1203,-2.44771,2.78301,-15.8537,-4.90854,4.84756
541.131,88.0206,4.17928,0,9.82197,0.220342,-0.170046,0.0304878,-0.0609756,-1.55488,-38.9957,-2.56267,2.81175,-15.7622,-3.9939,4.48171
541.141,88.0191,4.17228,0,9.85072,0.249082,-0.134121,0,0.121951,-1.64634,-39.1681,-2.60099,2.72553,-15.8232,-4.45122,4.57317
541.151,88.0161,4.16182,0,9.82197,0.258662,-0.117356,0.0609756,-0.121951,-1.64634,-39.1394,-2.42855,2.65847,-15.7927,-4.48171,4.87805
541.161,88.0154,4.15494,0,9.83874,0.261057,-0.143701,0.0914634,-0.121951,-1.46341,-39.0628,-2.55309,2.70637,-16.311,-5.06098,5.18293
541.171,88.0157,4.15756,0,9.81479,0.246687,-0.165256,0.213415,0,-1.55488,-39.0915,-2.28485,2.86923,-15.4878,-4.66463,4.84756
541.181,88.0133,4.15153,0,9.84593,0.270637,-0.177231,0.0914634,0.182927,-1.46341,-38.9957,-2.37107,2.71595,-15.2134,-4.26829,4.48171
541.191,88.0143,4.15309,0,9.84593,0.234712,-0.150886,0.213415,0.121951,-1.64634,-39.1203,-2.46687,2.85007,-14.7561,-4.87805,5.27439
541.201,88.0184,4.16309,0,9.84353,0.251477,-0.215552,0.121951,-0.0914634,-1.25,-39.1681,-2.31359,3.00335,-15.2744,-4.20732,5.42683
541.211,88.0179,4.17373,0,9.82197,0.251477,-0.174836,-0.152439,-0.121951,-1.55488,-39.0436,-2.44771,3.01293,-15.3049,-3.84146,4.66463
541.221,88.0164,4.1773,0,9.80521,0.241897,-0.117356,-0.152439,0.121951,-1.7378,-39.0053,-2.43813,2.89797,-15.7012,-2.9878,5.97561
541.231,88.0089,4.18579,0,9.85311,0.275427,-0.179626,-0.0609756,0.121951,-1.79878,-39.1203,-2.48603,2.99377,-15.3659,-3.17073,5.45732
541.241,88.0076,4.18314,0,9.86748,0.268242,-0.193997,-0.0609756,0.213415,-1.43293,-39.0723,-2.33275,2.80217,-16.311,-3.35366,5.45732
541.251,88.0011,4.17023,0,9.83395,0.285007,-0.167651,-0.304878,0.365854,-1.61585,-39.1873,-2.37107,2.62973,-15.8232,-3.65854,5.06098
541.261,87.999,4.16723,0,9.82197,0.256267,-0.124541,-0.243902,-0.0609756,-1.64634,-39.0819,-2.45729,2.78301,-15.6402,-4.32927,5.67073
541.271,88.0022,4.16096,0,9.85311,0.234712,-0.155676,-0.0609756,0.182927,-1.52439,-39.2352,-2.46687,2.73511,-14.878,-4.26829,4.66463
541.281,88.0006,4.16878,0,9.81479,0.268242,-0.143701,0.0304878,0.182927,-1.46341,-39.3502,-2.49561,2.98419,-14.4207,-4.35976,4.5122
541.291,87.9966,4.1676,0,9.82437,0.268242,-0.119751,-0.0914634,0.182927,-1.64634,-39.149,-2.42855,2.82133,-15.2439,-3.41463,5.30488
541.301,87.9939,4.16212,0,9.83395,0.263452,-0.107776,0.152439,0.0914634,-1.61585,-39.2735,-2.41897,2.75427,-16.0061,-3.56707,6.25
541.311,87.9964,4.16926,0,9.84114,0.239502,-0.119751,0.213415,0.152439,-1.52439,-39.3406,-2.37107,2.97461,-16.128,-3.75,5.97561
541.321,87.9922,4.18044,0,9.82916,0.275427,-0.167651,0.0914634,0.152439,-1.58537,-39.2352,-2.33275,3.04167,-16.3415,-3.75,6.37195
541.331,87.9875,4.19177,0,9.84353,0.256267,-0.112566,-0.121951,0.152439,-1.85976,-38.9957,-2.38065,3.03209,-15.7622,-4.14634,6.06707
541.341,87.9839,4.19395,0,9.85072,0.268242,-0.174836,-0.243902,0.304878,-1.64634,-38.9861,-2.30401,2.87881,-15.8841,-4.78659,5.67073
541.351,87.9844,4.18534,0,9.81,0.256267,-0.174836,-0.182927,-0.0304878,-1.4939,-38.967,-2.25611,2.69679,-15.9451,-3.5061,5.79268
541.361,87.985,4.17262,0,9.81958,0.261057,-0.162861,0.121951,0.213415,-1.43293,-39.149,-2.49561,2.62973,-14.878,-4.32927,5.06098
541.371,87.9916,4.16494,0,9.87706,0.225132,-0.126936,0.152439,0.27439,-1.43293,-39.0915,-2.37107,2.70637,-15.8537,-3.65854,4.93902
541.381,87.9932,4.1795,0,9.82437,0.256267,-0.155676,-0.182927,0.0609756,-1.40244,-39.2352,-2.40939,3.09916,-14.9085,-3.29268,5.85366
541.391,87.9887,4.17239,0,9.84593,0.270637,-0.122146,-0.0914634,-0.0914634,-1.67683,-39.2927,-2.37107,2.73511,-15.1524,-3.68902,5.15244
541.401,87.9865,4.16735,0,9.8555,0.256267,-0.153281,-0.152439,0,-1.67683,-39.2831,-2.47645,2.76385,-15.6402,-4.11585,5.18293
541.411,87.991,4.17447,0,9.81719,0.249082,-0.143701,0.0304878,-0.0914634,-1.31098,-39.2544,-2.44771,2.96503,-14.9085,-5.60976,6.31098
541.421,87.9905,4.1676,0,9.81479,0.265847,-0.158071,-0.182927,-0.0304878,-1.43293,-39.1777,-2.46687,2.72553,-15.4878,-4.32927,6.58537
541.431,87.996,4.16676,0,9.79323,0.234712,-0.105381,-0.335366,-0.27439,-1.40244,-39.1681,-2.40939,2.82133,-15.5183,-5.30488,4.7561
541.441,87.9964,4.16013,0,9.81479,0.244292,-0.153281,-0.182927,0.0304878,-1.61585,-39.0723,-2.36149,2.71595,-16.4634,-4.69512,5.2439
541.451,88.0009,4.15057,0,9.84353,0.215552,-0.150886,-0.243902,0.304878,-1.64634,-39.0532,-2.27527,2.65847,-15.4878,-4.90854,5.51829
541.461,88.0032,4.15447,0,9.8124,0.232317,-0.170046,-0.213415,0.121951,-1.61585,-38.9957,-2.28485,2.87881,-15.3354,-5.45732,5.57927
541.471,88.0069,4.16156,0,9.83874,0.239502,-0.184417,-0.182927,0.213415,-1.43293,-39.0436,-2.38065,2.94587,-16.1585,-3.78049,6.06707
541.482,88.0145,4.155,0,9.81,0.225132,-0.177231,-0.182927,-0.0609756,-1.34146,-39.0436,-2.43813,2.71595,-16.7683,-3.35366,5.21341
541.491,88.0134,4.14753,0,9.81479,0.265847,-0.136516,-0.0914634,0.0609756,-1.43293,-39.149,-2.36149,2.70637,-15.2439,-2.37805,5.27439
541.501,88.0117,4.14773,0,9.82916,0.251477,-0.167651,-0.457317,0.121951,-1.64634,-39.0819,-2.27527,2.83091,-15.5183,-1.92073,5
541.511,88.0115,4.15262,0,9.83635,0.237107,-0.172441,-0.182927,0.304878,-1.70732,-39.0053,-2.24653,2.90755,-14.6037,-1.64634,5.30488
541.521,88.0073,4.16487,0,9.8579,0.275427,-0.141306,-0.152439,0.0914634,-1.55488,-39.0628,-2.22737,3.04167,-14.4207,-1.95122,4.63415
541.531,88.0004,4.18188,0,9.83395,0.285007,-0.131726,0.0609756,0.182927,-1.64634,-39.149,-2.29443,3.13748,-15.2134,-2.46951,5.64024
541.541,87.9972,4.17868,0,9.80521,0.263452,-0.232317,-0.0609756,0.27439,-1.64634,-39.1777,-2.27527,2.80217,-15.8537,-2.04268,5.2439
541.551,87.9925,4.17398,0,9.8124,0.273032,-0.153281,-0.121951,0.335366,-1.64634,-39.2065,-2.41897,2.77343,-15.3963,-2.7439,5.15244
541.561,87.9905,4.17841,0,9.85072,0.251477,-0.153281,-0.0304878,0.487805,-1.70732,-39.1873,-2.47645,2.92671,-16.4634,-2.95732,4.63415
541.571,87.9896,4.20317,0,9.8124,0.261057,-0.136516,0.0304878,0.243902,-1.52439,-39.2352,-2.42855,3.29076,-15.6402,-1.92073,5.30488
541.581,87.9921,4.21164,0,9.8555,0.249082,-0.184417,0.0304878,0.121951,-1.43293,-39.264,-2.36149,3.02251,-16.0061,-3.04878,4.81707
541.591,87.9931,4.20771,0,9.82197,0.249082,-0.196392,0.121951,0.152439,-1.52439,-39.1586,-2.58183,2.81175,-15.7622,-1.09756,4.63415
541.601,87.991,4.19546,0,9.83635,0.277822,-0.229922,0.0304878,0.0609756,-1.40244,-39.1107,-2.30401,2.65847,-15.4573,-1.95122,5.21341
541.611,87.9789,4.19915,0,9.81958,0.316143,-0.143701,0.121951,0.121951,-1.70732,-39.0819,-2.53393,2.92671,-15.6707,-1.18902,5.03049
541.621,87.978,4.21048,0,9.82677,0.268242,-0.160466,0.0914634,0,-1.46341,-39.1107,-2.26569,3.06083,-14.9695,-2.10366,4.45122
541.631,87.9802,4.20743,0,9.84593,0.244292,-0.124541,0.0914634,0.243902,-1.52439,-39.1394,-2.58183,2.82133,-14.9085,-2.13415,5.09146
541.641,87.9834,4.20084,0,9.80281,0.246687,-0.126936,0.0304878,0.365854,-1.43293,-39.2735,-2.32317,2.76385,-16.0976,-3.10976,4.48171
541.651,87.9869,4.19518,0,9.81,0.244292,-0.105381,0.213415,0.0609756,-1.43293,-39.2352,-2.40939,2.77343,-14.5427,-2.95732,4.7561
541.661,87.9884,4.1867,0,9.81479,0.244292,-0.155676,-0.0304878,0.0914634,-1.55488,-39.0819,-2.46687,2.70637,-15.7622,-3.9939,4.57317
541.671,87.9929,4.1804,0,9.82197,0.232317,-0.134121,0.0304878,-0.0914634,-1.4939,-39.216,-2.33275,2.75427,-13.7195,-2.04268,3.93293
541.681,87.9995,4.17677,0,9.82916,0.229922,-0.143701,0.213415,-0.396341,-1.37195,-39.1777,-2.18905,2.79259,-15.7622,-2.34756,3.81098
541.691,88.0039,4.1704,0,9.83156,0.244292,-0.0910107,-0.152439,-0.0304878,-1.34146,-39.2256,-2.43813,2.74469,-15.122,-2.65244,4.93902
541.701,88.0119,4.16396,0,9.83156,0.234712,-0.153281,-0.213415,-0.182927,-1.21951,-39.1681,-2.46687,2.73511,-13.9634,-2.71341,5
541.711,88.0193,4.14703,0,9.83874,0.239502,-0.170046,0.304878,0,-1.18902,-39.1969,-2.32317,2.55309,-15.6402,-1.95122,4.81707
541.721,88.0203,4.13835,0,9.80281,0.239502,-0.170046,0.0304878,0.0609756,-1.58537,-39.149,-2.33275,2.67763,-15.4573,-3.04878,4.17683
541.731,88.0264,4.11992,0,9.8124,0.222737,-0.143701,-0.152439,0.0609756,-1.43293,-39.1777,-2.32317,2.50519,-14.939,-2.89634,4.87805
541.741,88.0271,4.12013,0,9.84353,0.237107,-0.189207,0.0304878,0.0609756,-1.61585,-39.0244,-2.48603,2.80217,-13.811,-3.65854,3.59756
541.751,88.0309,4.1193,0,9.81,0.232317,-0.143701,0.0609756,0.0304878,-1.46341,-39.2831,-2.46687,2.80217,-14.9695,-3.84146,5.21341
541.761,88.0347,4.10749,0,9.84832,0.239502,-0.158071,-0.0609756,-0.0304878,-1.37195,-39.0819,-2.47645,2.60099,-15.6707,-2.71341,5.12195
541.771,88.039,4.10821,0,9.84832,0.227527,-0.134121,0.152439,0.0609756,-1.46341,-39.1298,-2.46687,2.81175,-14.8476,-3.17073,5.33537
541.781,88.0437,4.10561,0,9.84353,0.227527,-0.119751,0,-0.0609756,-1.43293,-39.149,-2.59141,2.75427,-14.8171,-3.65854,4.81707
541.791,88.0433,4.09705,0,9.8076,0.249082,-0.189207,-0.0609756,-0.0304878,-1.52439,-39.2065,-2.45729,2.65847,-14.9085,-2.10366,5.36585
541.801,88.0484,4.08347,0,9.81958,0.227527,-0.150886,-0.152439,-0.182927,-1.40244,-39.264,-2.26569,2.56267,-15.9451,-4.02439,5.06098
541.811,88.0513,4.07038,0,9.81719,0.222737,-0.124541,-0.365854,-0.213415,-1.58537,-39.2544,-2.31359,2.56267,-15.3354,-3.56707,3.81098
541.821,88.0505,4.07796,0,9.82197,0.239502,-0.165256,-0.0914634,0,-1.64634,-39.0628,-2.39023,2.89797,-15.061,-3.84146,4.20732
541.831,88.0463,4.07785,0,9.82437,0.256267,-0.150886,0.152439,0.0914634,-1.70732,-39.2065,-2.39023,2.78301,-13.5061,-2.9878,4.29878
541.841,88.0479,4.09156,0,9.85072,0.244292,-0.160466,-0.152439,0.182927,-1.43293,-39.1298,-2.34233,3.01293,-14.8476,-4.26829,3.41463
541.851,88.0466,4.0905,0,9.82916,0.258662,-0.148491,-0.0914634,0.213415,-1.46341,-39.2065,-2.39023,2.77343,-15.5793,-3.71951,4.02439
541.861,88.0436,4.07817,0,9.82197,0.253872,-0.146096,0.0304878,0.579268,-1.64634,-39.0149,-2.31359,2.56267,-15.2134,-4.29878,4.42073
541.871,88.0455,4.08438,0,9.83635,0.229922,-0.150886,0.121951,0.27439,-1.58537,-39.1777,-2.45729,2.88839,-15.061,-3.71951,5.79268
541.881,88.0443,4.08226,0,9.79803,0.265847,-0.146096,0.0609756,0.0914634,-1.37195,-39.149,-2.30401,2.74469,-16.0061,-4.14634,4.7561
541.891,88.0462,4.08493,0,9.83874,0.237107,-0.174836,-0.0304878,0.335366,-1.4939,-39.1681,-2.36149,2.83091,-15.3049,-3.17073,5.2439
541.901,88.0468,4.09583,0,9.84114,0.237107,-0.146096,-0.0914634,0.0914634,-1.58537,-38.9191,-2.46687,2.95545,-15.3049,-3.56707,3.9939
541.911,88.0524,4.10389,0,9.82437,0.229922,-0.122146,0.213415,0.0914634,-1.34146,-39.0915,-2.36149,2.92671,-16.4939,-3.56707,5.45732
541.921,88.0526,4.10498,0,9.8076,0.246687,-0.158071,0.152439,0.243902,-1.4939,-39.1203,-2.44771,2.81175,-14.6037,-4.08537,5.30488
541.931,88.0514,4.10157,0,9.81479,0.246687,-0.160466,0.0304878,0.243902,-1.58537,-39.1107,-2.50519,2.73511,-13.9939,-3.78049,4.87805
541.941,88.0499,4.10798,0,9.82437,0.246687,-0.107776,0.335366,0.0304878,-1.61585,-39.0436,-2.52435,2.89797,-14.1159,-3.71951,4.11585
541.951,88.0508,4.11711,0,9.85072,0.237107,-0.134121,0.0609756,0.0609756,-1.55488,-39.1394,-2.34233,2.95545,-14.0549,-4.08537,4.7561
541.961,88.0517,4.12008,0,9.79803,0.232317,-0.122146,0.0914634,0.0914634,-1.61585,-38.9957,-2.30401,2.85007,-15.2134,-2.43902,4.96951
541.971,88.0502,4.11618,0,9.8076,0.249082,-0.189207,0.0304878,0,-1.58537,-39.0436,-2.34233,2.73511,-14.939,-2.89634,4.39024
541.981,88.0497,4.13262,0,9.81,0.258662,-0.134121,-0.121951,0.0609756,-1.40244,-38.9478,-2.39023,3.08,-14.2988,-1.98171,5
541.991,88.0467,4.12547,0,9.82197,0.273032,-0.143701,0.0609756,0.0304878,-1.40244,-39.0436,-2.49561,2.68721,-14.2378,-2.9878,4.63415
542.001,88.0479,4.13881,0,9.81479,0.249082,-0.114961,-0.0914634,-0.0609756,-1.40244,-39.1298,-2.40939,3.04167,-14.8476,-3.56707,4.35976
542.011,88.0521,4.14237,0,9.84832,0.234712,-0.170046,-0.0914634,-0.152439,-1.37195,-39.1298,-2.32317,2.87881,-14.939,-4.2378,4.69512
542.021,88.0498,4.14255,0,9.83156,0.265847,-0.141306,0.121951,-0.243902,-1.43293,-39.1969,-2.34233,2.83091,-15.5793,-3.23171,4.7561
542.031,88.0477,4.15355,0,9.79084,0.265847,-0.215552,-0.0304878,-0.0609756,-1.43293,-39.1873,-2.54351,3.01293,-15.3354,-4.81707,4.45122
542.041,88.0424,4.14637,0,9.83874,0.268242,-0.177231,0.121951,-0.121951,-1.64634,-39.0244,-2.39023,2.69679,-15.3659,-3.84146,5.36585
542.051,88.0443,4.13377,0,9.82197,0.256267,-0.131726,-0.0304878,-0.0304878,-1.28049,-39.1107,-2.40939,2.60099,-14.9695,-4.72561,5.36585
542.061,88.0483,4.12498,0,9.83874,0.244292,-0.134121,-0.0914634,-0.0304878,-1.28049,-39.1873,-2.52435,2.66805,-15.6098,-3.41463,4.60366
542.071,88.0505,4.11991,0,9.81479,0.268242,-0.143701,-0.121951,-0.0304878,-1.09756,-39.0915,-2.36149,2.71595,-15.3354,-4.57317,4.84756
542.081,88.0531,4.12321,0,9.85072,0.256267,-0.179626,0.121951,-0.152439,-1.21951,-39.0053,-2.54351,2.85007,-15.6098,-4.87805,4.81707
542.091,88.052,4.12604,0,9.82916,0.256267,-0.141306,-0.27439,0,-1.46341,-39.216,-2.44771,2.85965,-15.4268,-4.81707,6.37195
542.101,88.0502,4.11554,0,9.83635,0.258662,-0.153281,-0.182927,-0.182927,-1.4939,-39.0819,-2.41897,2.62015,-14.9695,-5.15244,5.57927
542.111,88.0587,4.11465,0,9.83156,0.217947,-0.167651,0,-0.182927,-1.28049,-39.0915,-2.35191,2.78301,-14.8476,-4.2378,4.78659
542.121,88.0581,4.10242,0,9.81958,0.234712,-0.186812,0.121951,-0.243902,-1.67683,-39.1777,-2.51477,2.59141,-15.061,-4.32927,4.87805
542.131,88.058,4.10339,0,9.84114,0.239502,-0.117356,0.0914634,-0.152439,-1.58537,-39.1586,-2.52435,2.81175,-15.9756,-4.02439,5.57927
542.141,88.0603,4.09433,0,9.85072,0.232317,-0.217947,0.0609756,-0.27439,-1.4939,-39.1586,-2.41897,2.63931,-14.1463,-3.75,5.79268
542.151,88.061,4.10244,0,9.82916,0.237107,-0.158071,0.0914634,-0.121951,-1.55488,-39.1394,-2.46687,2.92671,-15.122,-4.57317,4.84756
542.161,88.0506,4.09013,0,9.84832,0.275427,-0.198787,0.0609756,-0.0304878,-1.95122,-39.446,-2.47645,2.60099,-15.0305,-3.90244,5.4878
542.171,88.0495,4.08572,0,9.81479,0.246687,-0.155676,0.0304878,0.121951,-1.58537,-39.2735,-2.38065,2.71595,-13.9939,-4.60366,5.42683
542.181,88.0536,4.07999,0,9.82437,0.217947,-0.196392,-0.213415,-0.0609756,-1.55488,-39.2735,-2.35191,2.68721,-14.1463,-5.36585,4.5122
542.191,88.0562,4.09268,0,9.8579,0.234712,-0.0814307,0.152439,0.182927,-1.46341,-39.1873,-2.33275,2.99377,-14.4817,-6.43293,5.21341
542.201,88.0605,4.07306,0,9.81719,0.229922,-0.158071,0.0304878,0.213415,-1.40244,-39.0915,-2.33275,2.43813,-15.061,-5.70122,4.87805
542.211,88.0587,4.07431,0,9.83635,0.249082,-0.143701,0,0.152439,-1.58537,-39.0628,-2.31359,2.78301,-13.9939,-5.97561,4.63415
542.221,88.0566,4.09018,0,9.82197,0.246687,-0.143701,-0.0914634,-0.0304878,-1.64634,-38.9861,-2.38065,3.03209,-15.9756,-5.64024,5.54878
542.231,88.0532,4.09207,0,9.85311,0.244292,-0.102986,0.182927,-0.121951,-1.76829,-38.9574,-2.36149,2.80217,-14.5732,-4.78659,4.90854
542.241,88.0532,4.09796,0,9.82437,0.237107,-0.119751,-0.0304878,0.152439,-1.61585,-39.0149,-2.61057,2.87881,-15.3963,-4.20732,6.37195
542.251,88.0466,4.09014,0,9.82197,0.265847,-0.167651,0.121951,0.304878,-1.76829,-38.9286,-2.46687,2.63931,-15.4268,-4.39024,5.36585
542.261,88.0474,4.08722,0,9.80521,0.251477,-0.158071,-0.152439,0.0914634,-1.40244,-39.0915,-2.56267,2.73511,-15.6707,-2.86585,5.73171
542.271,88.0447,4.09108,0,9.81,0.244292,-0.172441,-0.365854,-0.121951,-1.7378,-39.1011,-2.21779,2.85007,-14.3598,-3.17073,5.51829
542.281,88.0415,4.09612,0,9.86748,0.256267,-0.107776,0.0304878,0.152439,-1.64634,-39.2831,-2.33275,2.88839,-15.8537,-2.68293,5.97561
542.291,88.0387,4.09402,0,9.8555,0.261057,-0.0981958,-0.0609756,0.0609756,-1.55488,-39.1011,-2.33275,2.75427,-15.2439,-2.77439,5.15244
542.301,88.0406,4.09426,0,9.83156,0.246687,-0.138911,-0.0304878,0.0609756,-1.40244,-38.9861,-2.39981,2.78301,-15.0915,-3.44512,5.33537
542.311,88.0374,4.09992,0,9.87227,0.256267,-0.141306,-0.152439,-0.304878,-1.64634,-38.8903,-2.44771,2.86923,-14.939,-3.56707,5
542.321,88.0341,4.09954,0,9.86988,0.270637,-0.148491,-0.0304878,-0.27439,-1.4939,-38.9957,-2.56267,2.77343,-15.7927,-4.48171,7.0122
542.331,88.0268,4.11992,0,9.82437,0.275427,-0.172441,0.121951,-0.609756,-1.7378,-39.1203,-2.56267,3.14706,-14.939,-2.9878,7.13415
542.341,88.0271,4.12897,0,9.84832,0.275427,-0.0981958,-0.152439,-0.792683,-1.18902,-39.1873,-2.43813,2.96503,-16.2195,-4.39024,6.92073
542.351,88.0222,4.14371,0,9.81,0.306563,-0.160466,-0.518293,-0.304878,-1.12805,-39.149,-2.38065,3.07042,-16.5244,-3.38415,6.61585
542.361,88.027,4.15023,0,9.82916,0.282612,-0.122146,-1.06707,-0.426829,-0.792683,-39.0915,-2.48603,2.93629,-14.6037,-2.56098,6.06707
542.371,88.0237,4.15571,0,9.87467,0.318538,-0.0958008,-1.34146,-0.0304878,-0.823171,-39.0819,-2.38065,2.92671,-15.4878,-1.18902,5.57927
542.381,88.0261,4.15788,0,9.8603,0.285007,-0.0598755,-1.46341,0.304878,-0.914634,-38.7562,-2.49561,2.85007,-15.9756,-0.945122,5.36585
542.391,88.0344,4.14834,0,9.84832,0.258662,-0.136516,-1.64634,0.396341,-0.884146,-38.8616,-2.40939,2.65847,-14.8171,-0.701219,4.2378
542.401,88.0492,4.14311,0,9.84593,0.265847,-0.0766406,-1.70732,0.365854,-0.426829,-39.1011,-2.57225,2.74469,-15.2439,-0.182927,5.12195
542.411,88.0599,4.16684,0,9.9082,0.318538,-0.114961,-1.34146,-0.457317,0.670732,-39.0436,-2.51477,3.23328,-16.8902,-1.70732,4.63415
542.421,88.0799,4.17475,0,10.0184,0.330513,-0.122146,-0.823171,-1.82927,1.92073,-39.1298,-2.55309,2.98419,-17.561,-1.12805,3.2622
542.431,88.1064,4.1726,0,10.0711,0.344883,-0.177231,-0.243902,-2.7439,2.80488,-39.0628,-2.51477,2.81175,-17.5,-0.640244,3.53659
542.441,88.1499,4.17261,0,10.2219,0.237107,-0.256267,-0.27439,-3.5061,3.23171,-39.1107,-2.37107,2.85007,-16.8598,-1.0061,3.90244
542.451,88.2072,4.16163,0,10.2914,0.107776,-0.318538,0.121951,-2.86585,3.17073,-39.1107,-2.39023,2.65847,-17.622,-1.40244,3.04878
542.461,88.2658,4.1507,0,10.0711,0.0431104,-0.330513,1.21951,-2.56098,2.37805,-38.9478,-2.55309,2.63931,-15.3659,-1.76829,3.20122
542.471,88.3104,4.14895,0,9.84114,0.167651,-0.299377,1.89024,-3.32317,2.83537,-38.7466,-2.68721,2.78301,-15.061,0.335366,3.20122
542.481,88.3373,4.13696,0,9.93215,0.352068,-0.407153,2.53049,-1.52439,3.47561,-38.9382,-2.85965,2.62015,-14.2988,0.731707,1.52439
542.491,88.3647,4.1186,0,9.89622,0.395178,-0.426313,2.95732,-0.0304878,4.11585,-38.9478,-2.79259,2.50519,-13.3232,1.40244,0.792683
542.501,88.3964,4.10783,0,9.89143,0.347278,-0.261057,1.40244,-0.27439,4.02439,-39.2065,-2.86923,2.63931,-13.0183,0.945122,1.21951
542.511,88.4453,4.08941,0,9.8124,0.177231,-0.182021,1.25,0.152439,3.78049,-39.4076,-2.46687,2.51477,-11.311,1.70732,0.792683
542.521,88.504,4.09186,0,9.70701,0.0455054,-0.205972,1.7378,0.731707,3.10976,-39.6759,-2.37107,2.87881,-10.9146,-0.243902,-0.365854
542.531,88.5668,4.10537,0,9.62558,-0.00958008,-0.134121,1.52439,-0.396341,2.77439,-39.8004,-2.28485,3.08,-12.439,-1.61585,1.82927
542.541,88.6204,4.13302,0,9.63037,0.0311353,-0.0934058,1.03659,-1.15854,1.34146,-39.7621,-2.04535,3.32908,-12.1646,-3.56707,1.76829
542.551,88.6884,4.14461,0,9.59684,0.0143701,-0.0239502,0.762195,-1.70732,0.548781,-39.7717,-2.16031,3.06083,-12.1037,-5.03049,4.87805
542.561,88.7391,4.13727,0,9.57529,0.0383203,0.0335303,0.304878,-1.70732,-0.487805,-39.4747,-2.12199,2.71595,-11.4024,-4.69512,5.54878
542.571,88.7425,4.12974,0,9.58726,0.0814307,0.0191602,-0.152439,-0.182927,-1.85976,-39.8388,-2.32317,2.72553,-10.9451,-6.7378,8.20122
542.581,88.6587,4.10664,0,9.32142,0.55804,0.141306,-1.64634,0.731707,-1.79878,-39.8196,-2.41897,2.43813,-10.4268,-8.62805,8.5061
542.591,88.5815,4.08616,0,9.26873,0.490979,0.275427,-4.29878,0.792683,-1.31098,-39.6376,-2.33275,2.44771,-11.4329,-11.2805,9.39024
542.601,88.559,4.06833,0,9.21603,0.251477,0.316143,-4.32927,0.27439,-1.85976,-39.4651,-2.29443,2.45729,-13.3841,-14.7561,9.66463
542.611,88.5278,4.03108,0,8.96456,0.234712,0.385598,-4.26829,-1.76829,-3.04878,-39.513,-2.02619,2.10283,-14.0549,-16.4329,8.44512
542.621,88.4822,4.01194,0,8.73224,0.308958,0.277822,-4.29878,-5.91463,-3.29268,-39.2448,-2.21779,2.37107,-15.2439,-18.2317,7.68293
542.631,88.4807,3.97499,0,8.77056,-0.0311353,0.277822,-5.85366,-10.9756,-4.02439,-39.1969,-2.09325,2.03577,-15.3049,-21.372,8.04878
542.641,88.5241,3.94608,0,9.14897,-0.419128,0.174836,-5.2439,-15.7622,-4.42073,-39.2927,-2.20821,2.15073,-14.6341,-22.622,6.55488
542.651,88.5679,3.92994,0,9.78366,-0.205972,-0.191602,-1.03659,-17.9573,-2.22561,-39.7717,-2.04535,2.37107,-14.4512,-25.6098,6.89024
542.661,88.5872,3.91504,0,10.5525,0.229922,-0.58199,3.04878,-18.3232,1.52439,-40.0495,-2.19863,2.39023,-14.6341,-27.9268,5.97561
542.671,88.5992,3.90785,0,11.0003,0.517324,-0.888552,3.96341,-16.6159,3.87195,-40.289,-2.46687,2.52435,-15.0915,-29.9085,5.82317
542.682,88.6049,3.9233,0,10.8973,0.548459,-0.910107,0.731707,-12.1341,3.65854,-40.1549,-2.81175,2.90755,-15.2134,-31.6463,4.96951
542.691,88.6232,3.92447,0,10.5668,0.296982,-0.756826,-4.42073,-7.62195,2.34756,-39.8579,-2.79259,2.63931,-12.561,-33.2012,5.4878
542.701,88.6851,3.90015,0,10.21,-0.00239502,-0.493374,-7.43902,-4.96951,-0.0609756,-39.8771,-2.91713,2.17947,-13.4146,-36.7683,6.82927
542.711,88.7234,3.89407,0,9.88425,-0.165256,-0.488584,-7.68293,-3.17073,-1.95122,-39.7046,-2.82133,2.46687,-13.4451,-38.6585,6.4939
542.721,88.7387,3.90886,0,9.72378,-0.134121,-0.5772,-6.31098,-1.67683,-3.07927,-39.6472,-2.69679,2.81175,-11.6159,-42.6524,7.9878
542.731,88.7474,3.93282,0,9.65672,-0.105381,-0.665815,-4.45122,-1.03659,-3.29268,-39.6472,-2.66805,2.97461,-11.8902,-45.0915,7.7439
542.741,88.7471,3.96897,0,9.63037,-0.0335303,-0.58199,-3.07927,-1.15854,-3.2622,-39.5897,-2.49561,3.19496,-11.0671,-46.8293,7.40854
542.751,88.7496,4.01399,0,9.65432,0.00239502,-0.469424,-2.2561,-1.95122,-2.68293,-39.3119,-2.50519,3.34824,-10.7927,-48.0183,8.53659
542.761,88.7531,4.05353,0,9.72378,0.0263452,-0.414338,-1.61585,-1.98171,-2.34756,-39.1203,-2.27527,3.26202,-11.7683,-49.6951,5.82317
542.771,88.7512,4.10434,0,9.8124,0.110171,-0.426313,-1.43293,-1.95122,-1.82927,-39.2256,-2.29443,3.49194,-12.1037,-50.3659,5
542.781,88.751,4.16346,0,9.92257,0.100591,-0.455054,-1.95122,-1.09756,-1.79878,-39.3789,-2.13157,3.68354,-14.4207,-51.189,3.44512
542.791,88.7566,4.21802,0,10.0687,0.0383203,-0.407153,-2.07317,-0.396341,-1.98171,-39.4268,-2.08367,3.64522,-14.6341,-52.3476,3.14024
542.801,88.7603,4.25986,0,10.1477,0,-0.440684,-2.0122,-0.426829,-2.46951,-39.4268,-2.09325,3.45362,-16.25,-54.2378,1.79878
542.811,88.7583,4.3047,0,10.1597,0.0263452,-0.531694,-1.18902,0.396341,-2.65244,-39.81,-2.33275,3.559,-16.189,-57.2561,4.66463
542.821,88.7487,4.35328,0,10.0687,0.0718506,-0.677791,-1.31098,1.4939,-2.83537,-40.1453,-2.25611,3.67396,-16.9207,-61.1585,5.18293
542.831,88.7337,4.39702,0,9.96328,0.0790356,-0.627495,-2.07317,3.17073,-3.2622,-39.9058,-2.24653,3.59732,-17.7744,-61.9817,6.09756
542.841,88.7199,4.45102,0,9.92017,0.0862207,-0.64905,-2.59146,4.02439,-3.10976,-39.9441,-2.31359,3.7985,-16.4939,-66.3415,6.82927
542.851,88.709,4.49898,0,9.89143,0.0790356,-0.62989,-2.56098,3.9939,-2.95732,-40.0399,-2.08367,3.72186,-16.4939,-71.0061,5.4878
542.861,88.7115,4.54184,0,9.83635,-0.0119751,-0.574805,-1.7378,4.20732,-2.83537,-39.9633,-2.06451,3.64522,-16.6463,-74.6951,6.43293
542.871,88.7023,4.60962,0,9.77886,0.0455054,-0.507744,-0.731707,4.20732,-3.20122,-39.9537,-1.90165,4.10506,-17.1341,-78.2317,5.70122
542.881,88.6846,4.66544,0,9.81719,0.0910107,-0.433499,-0.243902,4.60366,-3.47561,-39.8675,-2.05493,3.92304,-17.7134,-80.6707,6.12805
542.891,88.6632,4.72427,0,9.94173,0.158071,-0.282612,-0.609756,5,-3.07927,-40.0016,-2.12199,4.02842,-17.6524,-80.8537,6.34146
542.901,88.6482,4.80246,0,10.0735,0.153281,-0.220342,-0.97561,6.34146,-2.59146,-39.9633,-2.20821,4.39247,-18.9634,-86.189,7.71341
542.911,88.6393,4.90379,0,10.1309,0.126936,-0.409548,0.640244,7.2561,-2.37805,-40.1741,-2.23695,4.86189,-19.0549,-93.1098,9.14634
542.921,88.6296,4.98389,0,10.0639,0.124541,-0.565225,2.5,8.32317,-2.5,-40.1357,-2.38065,4.52659,-18.4451,-99.3598,9.60366
542.931,88.6046,5.05302,0,9.93694,0.203577,-0.622705,3.44512,9.17683,-2.9878,-40.0591,-2.58183,4.36373,-18.3232,-103.567,10.122
542.941,88.5741,5.15689,0,9.78605,0.234712,-0.60115,3.44512,9.17683,-3.17073,-40.3369,-2.59141,5.05349,-16.372,-108.14,11.128
542.951,88.5356,5.33051,0,9.69025,0.289797,-0.419128,1.95122,8.59756,-3.29268,-42.684,-2.70637,6.72042,-14.9695,-119.939,12.3476
542.961,88.4929,5.42673,0,9.65432,0.304167,-0.186812,0.518293,7.89634,-3.62805,-40.7584,-2.60099,5.13013,-13.0183,-118.506,10.8841
542.971,88.4586,5.49878,0,9.64235,0.246687,-0.0287402,0.121951,7.22561,-3.59756,-40.2124,-2.64889,4.67987,-13.9329,-122.835,11.2195
542.981,88.4309,5.6032,0,9.7118,0.213157,0.0934058,-0.152439,6.03659,-3.44512,-40.4231,-2.85007,5.32173,-12.2256,-128.415,11.4634
542.991,88.4073,5.71666,0,9.69504,0.198787,0.119751,0.792683,5.21341,-3.29268,-40.4327,-2.77343,5.54208,-12.439,-134.055,10.6707
543.001,88.3786,5.81297,0,9.68546,0.246687,0.0215552,0.548781,3.81098,-3.23171,-39.7621,-2.89797,5.20677,-11.25,-139.116,11.7683
543.011,88.3533,5.93368,0,9.72857,0.215552,-0.0431104,0.518293,3.32317,-3.35366,-39.7238,-2.96503,5.68578,-8.68902,-144.573,12.6524
543.021,88.3343,6.03013,0,9.74294,0.162861,-0.0479004,0.823171,2.34756,-3.44512,-40.1836,-3.28118,5.37921,-7.07317,-150.457,15.5488
543.031,88.3187,6.17893,0,9.70941,0.134121,-0.0598755,1.18902,1.40244,-3.5061,-40.5764,-2.83091,6.4426,-2.59146,-154.695,16.5854
543.041,88.3033,6.29584,0,9.67109,0.0862207,-0.215552,1.46341,1.58537,-4.05488,-39.0053,-2.92671,5.74326,0.731707,-152.53,19.6951
543.051,88.2845,6.42324,0,9.69983,0.0934058,-0.210762,1.82927,1.58537,-4.32927,-38.8807,-2.95545,5.98276,3.17073,-154.634,22.7439
543.061,88.2538,6.54194,0,9.69264,0.160466,-0.241897,1.79878,2.04268,-4.72561,-39.149,-2.87881,5.95402,6.40244,-156.189,23.5366
543.071,88.2255,6.71645,0,9.71659,0.110171,-0.301772,2.04268,1.70732,-5.15244,-39.1107,-2.73511,7.01741,7.43902,-156.951,25.3354
543.081,88.1979,6.94472,0,9.79563,0.102986,-0.193997,2.16463,1.55488,-5.2439,-39.0628,-2.68721,8.07122,8.71951,-162.957,24.7561
543.091,88.1579,7.15613,0,9.90101,0.234712,-0.201182,2.28659,1.67683,-5,-39.2352,-2.46687,7.94667,10.3049,-168.415,24.0549
543.101,88.1046,7.39885,0,9.93215,0.361648,-0.141306,0.945122,1.79878,-4.93902,-39.1298,-2.26569,8.61728,10.2439,-174.939,20.3963
543.111,88.0542,7.63008,0,9.94891,0.366438,-0.114961,-0.121951,2.07317,-4.69512,-38.9478,-1.99745,8.53106,9.02439,-178.415,19.5732
543.121,88.0097,7.86546,0,9.94891,0.330513,-0.0958008,-0.640244,2.53049,-4.63415,-38.9191,-1.97829,8.76098,8.84146,-179.36,18.7195
543.131,87.9782,8.10024,0,9.77647,0.186812,-0.0742456,-0.579268,0.884146,-5.06098,-38.7083,-1.92081,8.86636,9.14634,-180.427,17.5
543.141,87.9468,8.35123,0,9.95131,0.177231,-0.237107,-0.579268,2.19512,-5.27439,-38.5263,-2.09325,9.27831,10.0915,-181.341,18.2317
543.151,87.9106,8.59645,0,9.83635,0.210762,-0.229922,-0.548781,1.61585,-5.39634,-38.3347,-1.96871,9.29747,8.68902,-184.024,16.7988
543.161,87.866,8.84916,0,9.75012,0.241897,-0.170046,-0.335366,0.0914634,-5.91463,-38.2006,-2.28485,9.55613,11.4634,-188.537,17.1341
543.171,87.8158,9.09149,0,9.76689,0.237107,-0.203577,-0.548781,0.0609756,-6.64634,-38.2676,-2.10283,9.55613,13.7195,-191.433,17.7134
543.181,87.7703,9.38925,0,9.84593,0.256267,-0.170046,0.0914634,-0.213415,-6.06707,-38.2293,-2.05493,10.7057,13.3841,-195.274,18.5061
543.191,87.7193,9.70361,0,9.91778,0.289797,-0.225132,0.487805,0,-6.34146,-38.2485,-1.96871,11.2135,12.6524,-199.573,18.8415
543.201,87.6837,10.0357,0,10.0591,0.189207,-0.217947,0.304878,0.579268,-6.09756,-38.1431,-1.86333,11.7212,12.378,-203.537,20.1829
543.211,87.6506,10.3908,0,10.1118,0.201182,-0.258662,-0.0304878,0.548781,-5.79268,-38.1335,-1.7292,12.3727,10.1829,-207.744,19.6951
543.221,87.621,10.7395,0,10.1501,0.134121,-0.287402,0.152439,0.243902,-6.28049,-38.0569,-1.19272,12.4685,7.43902,-213.354,20.5488
543.231,87.5864,11.0919,0,10.0471,0.136516,-0.256267,-0.0609756,0.518293,-6.79878,-37.597,-1.12566,12.6313,5.36585,-215.671,20.9451
543.241,87.5427,11.4986,0,9.98484,0.126936,-0.258662,-0.609756,1.06707,-7.89634,-37.3575,-0.847837,13.7905,5.39634,-222.012,24.6341
543.251,87.4908,11.8313,0,9.94652,0.179626,-0.239502,-0.97561,1.58537,-8.20122,-36.0546,-1.02986,12.2865,3.32317,-219.085,26.9817
543.261,87.4252,12.2226,0,9.9561,0.253872,-0.184417,-0.823171,2.77439,-8.84146,-36.5049,-0.665815,13.733,3.75,-221.25,28.5976
543.271,87.355,12.6069,0,9.99202,0.318538,-0.273032,-0.0609756,2.9878,-8.68902,-35.9492,-0.694556,13.6851,0.579268,-219.848,29.9085
543.281,87.2796,12.9612,0,9.80042,0.364043,-0.275427,0.121951,3.56707,-8.75,-35.8534,-0.761616,13.3882,0.762195,-217.713,29.4817
543.291,87.2049,13.351,0,9.7597,0.392783,-0.201182,0.121951,3.07927,-8.47561,-35.2882,-0.914897,14.0683,0.457317,-215.61,27.2866
543.301,87.1296,13.7535,0,9.7621,0.407153,-0.210762,1.0061,2.68293,-8.5061,-34.9912,-1.03944,14.4515,-0.0304878,-217.043,25.4878
543.311,87.0496,14.1705,0,9.80281,0.452659,-0.239502,0.762195,2.71341,-8.62805,-34.9529,-1.2502,14.988,0.487805,-217.256,24.7866
543.321,86.9769,14.6264,0,9.91538,0.426313,-0.222737,0,3.71951,-8.41463,-34.7422,-1.69088,15.9269,2.40854,-212.835,22.5915
543.331,86.9166,15.0912,0,9.82437,0.318538,-0.0622705,-0.609756,3.87195,-8.53659,-34.5601,-2.13157,16.358,4.84756,-209.299,21.0976
543.341,86.865,15.5609,0,9.88185,0.261057,0.0215552,0.335366,3.01829,-8.47561,-34.2248,-2.24653,16.6358,4.66463,-208.049,22.1341
543.351,86.811,16.0059,0,9.96328,0.294587,0.0622705,0.670732,2.56098,-8.44512,-32.7399,-2.20821,15.8215,4.29878,-202.927,23.4146
543.361,86.7464,16.4687,0,10.0639,0.359253,-0.119751,1.0061,4.32927,-8.93293,-33.2956,-1.81542,16.7316,5.33537,-204.665,25.7927
543.371,86.6732,16.9349,0,9.92975,0.455054,-0.00718506,1.28049,4.69512,-8.75,-33.5638,-1.57592,17.2681,7.53049,-205.457,28.6585
543.381,86.588,17.4217,0,9.91059,0.517324,-0.0550855,0.27439,5.67073,-9.39024,-33.171,-1.0107,17.8046,10.3049,-202.774,32.2866
543.391,86.4906,17.9005,0,9.87946,0.62031,-0.0670605,-0.609756,5.12195,-9.57317,-33.1519,-1.02986,18.0153,9.78659,-200.488,33.1402
543.401,86.3922,18.4008,0,9.93694,0.677791,-0.217947,-2.31707,6.4939,-9.2378,-33.104,-0.617915,18.7913,7.95732,-192.287,32.3476
543.411,86.2894,18.9268,0,9.87946,0.754431,-0.220342,-4.20732,6.98171,-8.93293,-32.7016,-0.627495,19.4523,6.76829,-189.268,28.5366
543.421,86.1855,19.4352,0,9.83395,0.804727,-0.124541,-6.21951,5.94512,-8.62805,-32.8549,-0.292192,19.6152,2.95732,-187.287,24.0854
543.431,86.0956,19.9618,0,9.86988,0.728086,-0.0670605,-7.56098,6.31098,-8.35366,-32.7782,-0.167651,20.3337,-1.85976,-185.854,18.1098
543.441,86.014,20.4792,0,9.72617,0.694556,0.170046,-7.31707,5.67073,-7.95732,-32.6154,0.00479004,20.4678,-5.7622,-185.427,14.0549
543.451,85.9296,20.9956,0,9.63516,0.732876,0.208367,-7.10366,5.27439,-7.86585,-32.2897,0.0622705,20.6499,-8.93293,-185.945,10.061
543.461,85.8484,21.5218,0,9.58008,0.706531,0.376018,-7.28659,4.57317,-7.9878,-31.916,-0.0431104,21.0235,-12.8963,-184.055,8.17073
543.471,85.7702,22.0436,0,9.6639,0.713716,0.186812,-7.62195,5,-7.83537,-31.8011,0.0143701,21.2917,-13.872,-180.701,7.83537
543.481,85.6884,22.5715,0,9.64235,0.732876,0.232317,-8.41463,4.48171,-8.10976,-31.2167,0.0910107,21.4546,-16.128,-176.707,9.02439
543.491,85.5984,23.0523,0,9.68546,0.821492,0.292192,-8.65854,3.78049,-8.07927,-30.8718,-0.119751,20.7073,-16.6768,-173.689,10.9146
543.501,85.5043,23.5651,0,9.73815,0.905317,0.217947,-8.65854,3.07927,-7.7439,-30.7952,-0.205972,21.6845,-14.1768,-171.89,13.0488
543.511,85.4105,24.0917,0,9.6639,0.955613,0.208367,-8.23171,0.97561,-7.22561,-30.3832,-0.483794,22.0869,-12.5305,-171.25,16.2195
543.521,85.3196,24.6045,0,9.65193,1.0107,0.213157,-7.71341,0.152439,-6.43293,-30.4311,-0.723296,22.2689,-12.0122,-170.854,17.7744
543.531,85.2375,25.0936,0,9.67109,1.0083,0.205972,-8.29268,0.548781,-5.7622,-30.115,-0.780776,21.9815,-9.11585,-167.683,19.5122
543.541,85.1711,25.5877,0,9.70941,0.958008,0.208367,-8.68902,0.365854,-4.96951,-29.7605,-0.617915,22.2306,-7.10366,-164.024,18.2927
543.551,85.1158,26.1108,0,9.65432,0.898132,0.287402,-9.32927,-0.0609756,-4.63415,-29.224,-0.570015,22.8245,-6.25,-162.713,19.6646
543.561,85.0672,26.6445,0,9.63995,0.855022,0.249082,-9.60366,0.792683,-4.57317,-29.0516,-0.387993,23.3514,-4.29878,-161.311,20.1829
543.571,85.0151,27.1623,0,9.5705,0.890947,0.201182,-8.90244,-0.426829,-4.5122,-28.8983,-0.474214,23.3419,-2.95732,-159.817,19.0854
543.582,84.9731,27.6627,0,9.64714,0.874182,0.0718506,-8.10976,-1.67683,-3.87195,-29.1091,-0.253872,23.5909,-1.09756,-156.524,20.8841
543.592,84.9402,28.1722,0,9.73575,0.855022,-0.0574805,-7.34756,-2.37805,-3.38415,-29.4156,-0.110171,24.4819,-2.0122,-153.384,21.4634
543.601,84.911,28.6763,0,9.82197,0.866997,-0.114961,-7.16463,-3.01829,-3.01829,-29.6072,-0.253872,24.9801,-2.65244,-151.25,21.9207
543.611,84.8857,29.1514,0,9.86748,0.866997,-0.0934058,-6.64634,-3.32317,-2.7439,-29.818,0.0431104,24.9609,-2.68293,-149.787,22.1037
543.621,84.8672,29.6341,0,9.80521,0.787961,0.0287402,-7.77439,-4.39024,-3.04878,-29.636,0.129331,25.4112,-4.05488,-146.982,21.311
543.631,84.846,30.0849,0,9.73096,0.804727,0.0766406,-8.56707,-5.36585,-3.07927,-29.4252,0.0335303,24.9609,-5.57927,-143.963,21.0061
543.641,84.8393,30.5203,0,9.76928,0.728086,0.0167651,-8.56707,-5.2439,-2.7439,-28.9845,0.541274,24.6543,-6.40244,-140.03,20.6402
543.651,84.8285,30.9595,0,9.67348,0.752036,-0.122146,-8.04878,-3.87195,-2.77439,-28.927,0.426313,25.0854,-7.07317,-137.5,22.0732
543.661,84.8125,31.4357,0,9.69264,0.833467,-0.160466,-7.10366,-3.29268,-2.28659,-28.1798,0.378413,25.6507,-7.22561,-136.494,22.5
543.671,84.8114,31.8921,0,9.8076,0.807122,-0.174836,-6.46341,-2.83537,-1.52439,-28.0648,0.359253,25.5357,-6.61585,-133.506,21.5549
543.681,84.8124,32.3358,0,9.86988,0.833467,-0.150886,-5.82317,-4.17683,-1.09756,-28.0648,0.512534,25.6794,-8.71951,-129.024,19.2988
543.691,84.8281,32.7792,0,9.92736,0.792751,-0.186812,-5.88415,-4.87805,-0.731707,-27.6433,0.0910107,25.6986,-7.28659,-125.274,18.0183
543.701,84.8434,33.216,0,9.91778,0.773591,-0.0718506,-5.97561,-5.60976,-0.914634,-27.3176,-0.100591,25.6698,-8.01829,-119.573,16.6768
543.711,84.8637,33.6285,0,9.97286,0.725691,-0.0766406,-5.67073,-4.90854,-1.09756,-27.4805,-0.0526904,25.6794,-5.70122,-115.854,17.7439
543.721,84.8861,34.0436,0,9.7621,0.694556,0.00958008,-5.70122,-4.08537,-1.21951,-27.4517,-0.474214,26.1009,-6.40244,-112.165,17.561
543.731,84.8974,34.4442,0,9.5681,0.694556,0.146096,-6.09756,-5.4878,-1.70732,-27.0973,-0.570015,25.8231,-5.85366,-108.933,16.9817
543.741,84.9115,34.8351,0,9.65911,0.661025,0.0550855,-5.73171,-2.9878,-1.85976,-26.8482,-0.541274,25.7465,-5.30488,-104.024,17.0427
543.751,84.9389,35.237,0,9.67588,0.64905,-0.129331,-4.42073,-2.34756,-1.31098,-26.9152,-0.761616,26.4362,-5.94512,-100.64,14.8171
543.761,84.9571,35.6289,0,9.79084,0.720901,-0.225132,-3.68902,-1.34146,-1.06707,-26.7715,-0.225132,26.4458,-5,-97.8659,14.3902
543.771,84.9743,36.0061,0,9.85311,0.749641,-0.342488,-4.14634,-0.853659,-0.823171,-27.0302,-0.0814307,26.7428,-5.82317,-92.8659,14.3293
543.781,85.011,36.3765,0,9.86269,0.687371,-0.275427,-4.20732,-1.25,-0.579268,-27.126,0.349673,27.0494,-6.31098,-89.3293,13.3841
543.791,85.0354,36.7136,0,9.93694,0.730481,-0.203577,-4.72561,-0.182927,-0.609756,-27.3655,0.292192,26.8577,-5.7622,-85.8232,10.8232
543.801,85.0587,37.0572,0,9.83156,0.696951,-0.0790356,-5.09146,0.640244,-0.914634,-27.0973,0.340093,27.0781,-7.2561,-83.0793,8.10976
543.811,85.0888,37.3555,0,9.82437,0.656235,-0.0742456,-5.15244,0.792683,-0.945122,-27.0973,0.320933,26.35,-7.28659,-78.7805,6.7378
543.821,85.1078,37.6714,0,9.8124,0.701741,-0.0455054,-4.90854,1.34146,-0.97561,-27.011,0.119751,26.9631,-7.28659,-77.6219,4.14634
543.831,85.1223,37.99,0,9.97526,0.675395,-0.220342,-4.54268,3.01829,-1.43293,-27.1643,0.00479004,27.49,-7.68293,-75.7622,5.27439
543.841,85.1402,38.2917,0,9.94173,0.64426,-0.263452,-4.45122,3.10976,-1.4939,-27.3272,0.0143701,27.5571,-9.39024,-74.4512,2.65244
543.851,85.1546,38.5911,0,9.96807,0.6251,-0.203577,-4.7561,2.5,-1.82927,-27.308,0.129331,27.787,-10.3049,-71.7073,2.28659
543.861,85.1573,38.8807,0,9.83395,0.694556,-0.158071,-4.48171,1.82927,-1.85976,-26.9344,0.129331,27.4805,-11.0671,-66.4329,1.98171
543.871,85.1651,39.1712,0,9.86988,0.62031,-0.0814307,-4.57317,2.28659,-2.2561,-26.4937,0.234712,27.3463,-9.08537,-62.5915,3.65854
543.882,85.1707,39.4262,0,9.8579,0.646655,-0.0790356,-4.5122,2.53049,-2.13415,-26.6566,-0.00479004,26.9536,-6.67683,-59.3902,3.56707
543.891,85.1599,39.6882,0,9.79803,0.713716,0.0814307,-5.09146,2.28659,-2.65244,-26.5224,-0.0622705,27.2314,-4.84756,-57.7439,2.68293
543.901,85.1526,39.9643,0,9.87706,0.706531,0.0958008,-5.79268,3.01829,-2.5,-26.4554,0.0622705,27.7679,-2.59146,-55.6402,3.35366
543.911,85.1496,40.2271,0,9.85311,0.675395,-0.0287402,-4.7561,4.39024,-2.5,-26.3404,0.0910107,27.5954,-1.92073,-54.0549,1.34146
543.921,85.1618,40.4935,0,10.0279,0.60594,-0.258662,-3.29268,6.03659,-2.13415,-26.4075,0.138911,28.0169,-0.548781,-52.6829,0.426829
543.931,85.1652,40.762,0,10.0303,0.665815,-0.304167,-2.22561,6.55488,-2.16463,-26.0434,0.483794,27.9499,1.37195,-50.7317,1.52439
543.941,85.1663,41.0274,0,10.0711,0.699346,-0.359253,-1.82927,6.55488,-2.0122,-25.9764,0.416733,28.0744,1.40244,-48.5061,1.28049
543.951,85.1612,41.2687,0,9.89622,0.687371,-0.198787,-1.82927,5.45732,-2.53049,-26.0818,0.138911,27.8637,3.2622,-46.2805,1.43293
543.961,85.1566,41.4973,0,9.78126,0.684976,-0.0622705,-2.19512,4.78659,-2.46951,-26.1105,0.359253,27.8253,1.85976,-44.4207,2.56098
543.971,85.1394,41.7231,0,9.68067,0.728086,0.00239502,-2.16463,4.87805,-2.9878,-26.3021,0.292192,28.199,-0.335366,-41.9207,2.65244
543.981,85.1314,41.92,0,9.65432,0.684976,0.0335303,-1.98171,4.32927,-2.71341,-26.5129,0.608335,27.9403,0.335366,-39.2378,2.19512
543.991,85.1185,42.1145,0,9.58726,0.732876,0.112566,-2.53049,3.10976,-2.53049,-26.6949,0.550855,28.2756,-1.76829,-37.1646,2.83537
544.001,85.0937,42.3027,0,9.616,0.799937,0.165256,-3.04878,1.70732,-2.83537,-26.7236,0.589175,28.3427,-2.28659,-36.7073,2.71341
544.011,85.0822,42.4704,0,9.67588,0.735271,0.174836,-2.83537,1.03659,-2.53049,-26.8577,0.665815,28.1606,-2.68293,-36.5549,1.52439
544.021,85.0626,42.6383,0,9.73575,0.809517,0.193997,-2.86585,0.792683,-2.40854,-26.6087,0.416733,28.0648,-3.41463,-37.3476,2.34756
544.031,85.0411,42.814,0,9.84593,0.831072,0.203577,-2.62195,1.28049,-2.46951,-26.5416,0.483794,28.3427,-3.90244,-39.7561,-0.213415
544.041,85.0077,42.9858,0,9.72138,0.905317,0.299377,-3.10976,0.945122,-2.56098,-26.235,0.435894,28.0936,-4.26829,-38.9634,-1.12805
544.051,84.9824,43.1589,0,9.90341,0.855022,0.198787,-3.35366,1.76829,-2.71341,-25.8902,0.474214,27.9307,-4.7561,-37.5305,-2.95732
544.061,84.9604,43.3451,0,9.96328,0.826282,0.126936,-3.41463,2.65244,-2.86585,-25.5836,0.512534,28.1032,-5.82317,-35.3049,-3.2622
544.071,84.9343,43.5401,0,9.87227,0.878972,0.105381,-4.11585,3.2622,-2.56098,-25.2579,0.579595,28.1511,-5.21341,-33.9939,-3.5061
544.081,84.9167,43.7478,0,9.94412,0.826282,0.0239502,-4.57317,4.7561,-2.53049,-24.9801,0.464634,28.3522,-6.64634,-33.4756,-3.75
544.091,84.9011,43.9406,0,9.85072,0.792751,0.0718506,-5.15244,4.32927,-2.71341,-25.3154,0.598755,28.5726,-7.77439,-32.0122,-4.26829
544.101,84.8792,44.1173,0,9.64714,0.840652,0.141306,-5.39634,3.90244,-2.53049,-25.4399,0.771196,28.5055,-9.26829,-30.0915,-6.12805
544.111,84.861,44.283,0,9.7597,0.831072,0.0215552,-5.70122,3.81098,-2.46951,-25.7465,0.713716,28.745,-10,-31.128,-5.85366
544.121,84.8474,44.4201,0,9.7118,0.809517,0.114961,-5.70122,2.28659,-2.31707,-25.9093,0.742456,28.3618,-10.2439,-31.5854,-6.21951
544.131,84.8347,44.5632,0,9.79084,0.838257,0.0694556,-5.57927,2.7439,-1.98171,-26.053,0.713716,28.8025,-11.311,-33.1098,-5.09146
544.141,84.8253,44.6992,0,9.77886,0.835862,0.0838257,-5.7622,2.2561,-1.7378,-26.2063,0.761616,28.927,-10.7012,-35.122,-5.82317
544.151,84.8249,44.8316,0,9.84114,0.778381,0.0886157,-5.30488,1.98171,-1.79878,-26.5512,0.771196,29.3486,-11.4024,-36.0061,-4.96951
544.161,84.818,44.959,0,9.82916,0.852627,0.138911,-4.87805,1.79878,-1.37195,-26.3692,0.426313,29.1474,-12.439,-36.8902,-5.73171
544.171,84.8293,45.0885,0,10.0232,0.737666,0.0359253,-4.81707,1.55488,-1.52439,-26.1584,0.704136,29.0995,-13.9329,-37.1341,-4.72561
544.181,84.8398,45.2193,0,10.0279,0.728086,-0.0167651,-4.14634,2.43902,-1.64634,-25.9189,0.263452,28.9941,-14.2073,-37.6524,-4.08537
544.191,84.8416,45.3512,0,9.75491,0.728086,0.0694556,-3.96341,1.85976,-2.10366,-25.7656,0.435894,28.9749,-13.4756,-39.1159,-2.92683
544.201,84.8502,45.4797,0,9.79084,0.701741,0.0287402,-3.93293,2.19512,-1.92073,-25.4878,0.0335303,28.7163,-13.811,-38.1402,-3.84146
544.211,84.8625,45.6018,0,9.77647,0.699346,0.00479004,-3.65854,1.28049,-1.70732,-25.1621,0.301772,28.3235,-13.5366,-36.25,-3.81098
544.221,84.8723,45.734,0,9.77407,0.696951,0.0862207,-2.92683,0.0914634,-1.85976,-25.3249,0.598755,28.8983,-12.7439,-34.3902,-2.40854
544.231,84.8885,45.8644,0,9.80281,0.692161,0.110171,-2.86585,-1.4939,-1.52439,-25.5836,0.752036,29.2815,-11.6768,-34.3598,-0.914634
544.241,84.9021,45.9859,0,9.72617,0.720901,0.117356,-2.40854,-2.68293,-1.37195,-25.6028,0.598755,29.2144,-12.8659,-33.2317,0.0914634
544.251,84.9108,46.118,0,9.7597,0.689766,0.146096,-2.62195,-3.23171,-1.92073,-25.6028,0.876577,29.6168,-12.4085,-32.7439,-0.121951
544.261,84.9236,46.2369,0,9.76928,0.699346,0.167651,-1.4939,-3.84146,-1.58537,-25.6315,0.828677,29.4444,-15.3659,-32.8049,0.518293
544.271,84.9306,46.355,0,9.8124,0.732876,0.241897,-1.06707,-5.03049,-1.58537,-25.0854,0.646655,28.927,-15.5183,-30.1829,1.21951
544.281,84.9335,46.4724,0,9.84114,0.778381,0.203577,-0.121951,-4.7561,-1.37195,-24.8747,0.550855,28.7929,-16.4024,-29.1159,2.65244
544.291,84.9329,46.5819,0,9.83395,0.804727,0.0574805,0.457317,-4.02439,-1.28049,-24.8268,0.205972,28.6684,-15.8841,-26.5244,3.17073
544.301,84.9378,46.7139,0,9.8579,0.764011,-0.0167651,0.426829,-2.80488,-1.40244,-24.8938,0.158071,29.4348,-15.6707,-27.622,3.20122
544.311,84.9362,46.8439,0,9.80042,0.787961,0.0359253,-0.0914634,-2.65244,-1.52439,-24.6352,0.426313,29.2144,-15.4878,-27.2866,3.20122
544.321,84.9334,46.9691,0,9.8579,0.775986,0.0311353,-0.457317,-2.40854,-1.79878,-24.7789,0.579595,29.406,-17.5305,-25.3049,4.81707
544.331,84.9377,47.1055,0,9.87467,0.720901,0.0622705,-0.701219,-1.67683,-1.89024,-24.6064,0.608335,29.6264,-18.0183,-25.2744,4.29878
544.341,84.9226,47.2133,0,9.60403,0.838257,0.208367,-0.97561,0.0304878,-1.76829,-25.2962,0.608335,29.8372,-18.75,-24.1463,3.84146
544.351,84.9193,47.3362,0,9.62558,0.773591,-0.00718506,-0.426829,-0.243902,-1.7378,-24.2903,1.03944,29.157,-20.7317,-22.8963,3.14024
544.361,84.9288,47.4628,0,9.80521,0.689766,-0.0311353,0.304878,-0.426829,-1.85976,-24.2041,0.732876,29.2911,-21.5854,-20.5793,2.28659
544.371,84.932,47.586,0,9.94412,0.747246,-0.0407153,0.0914634,-2.10366,-1.7378,-24.3957,0.445474,29.5689,-21.2195,-19.6646,2.9878
544.381,84.928,47.684,0,9.87467,0.787961,0.0550855,-0.945122,-1.92073,-1.76829,-24.5681,-0.311353,29.2528,-20.7012,-17.4085,0.548781
544.391,84.9264,47.7899,0,9.84832,0.768801,0.0263452,-0.853659,-2.19512,-1.79878,-24.3382,-0.138911,29.3007,-18.6585,-14.6037,0.243902
544.401,84.9148,47.8913,0,9.79563,0.838257,0.0670605,-0.27439,-1.95122,-1.70732,-24.7022,-0.234712,29.7414,-18.3232,-12.9573,0.304878
544.411,84.908,48.0101,0,9.83156,0.814307,0.0455054,0.304878,-1.67683,-1.67683,-24.434,0.0910107,29.9809,-16.3415,-14.0244,-0.0304878
544.421,84.9092,48.1203,0,9.81,0.792751,0.0910107,0,-1.85976,-1.34146,-24.4915,0.0622705,29.9521,-16.6768,-13.5061,0.609756
544.431,84.9138,48.2048,0,9.83395,0.756826,-0.0215552,0.304878,-0.792683,-1.52439,-24.7501,0.234712,29.6935,-16.5244,-13.0488,1.4939
544.441,84.9164,48.2972,0,9.91778,0.778381,-0.0431104,0.579268,-0.0914634,-1.46341,-24.3765,0.129331,29.5593,-15.4878,-10.2439,2.83537
544.451,84.9071,48.3867,0,9.9537,0.847837,-0.0766406,1.25,-0.335366,-1.55488,-24.3478,0.0910107,29.5498,-17.4695,-8.81098,4.02439
544.461,84.9005,48.4752,0,9.92017,0.845442,0.0574805,1.70732,-1.12805,-1.34146,-24.1945,-0.0814307,29.4348,-18.811,-8.17073,3.47561
544.471,84.8995,48.567,0,9.82677,0.790356,0.0646655,2.04268,-1.79878,-1.55488,-24.1274,-0.0143701,29.5498,-17.3171,-4.84756,3.84146
544.481,84.896,48.6564,0,9.81719,0.821492,-0.0191602,1.95122,-1.7378,-1.34146,-24.0125,-0.0143701,29.454,-18.4756,-3.01829,3.38415
544.491,84.9029,48.7444,0,9.80042,0.759221,-0.0622705,1.95122,-0.182927,-1.37195,-23.9933,0.177231,29.5019,-18.0488,-0.0304878,4.57317
544.501,84.9197,48.8188,0,9.77168,0.749641,-0.0502954,2.07317,1.25,-0.914634,-24.1849,-0.0335303,29.4731,-20.3049,1.09756,4.60366
544.511,84.9349,48.8867,0,9.78126,0.752036,-0.0574805,2.0122,1.12805,-0.945122,-24.2041,0.148491,29.3965,-19.7561,0.0914634,4.39024
544.521,84.9516,48.9308,0,9.84832,0.720901,-0.0766406,1.95122,0.945122,-1.15854,-24.5106,0.0910107,29.224,-18.9329,2.56098,3.93293
544.531,84.9643,48.9711,0,9.81958,0.744851,-0.0119751,1.7378,0.97561,-1.09756,-24.3669,0.158071,29.0133,-17.0732,5.39634,3.93293
544.541,84.9621,49.0113,0,9.8076,0.804727,0.0311353,1.7378,1.37195,-1.31098,-24.4531,0.205972,29.1761,-16.6768,9.42073,4.32927
544.551,84.9551,49.0314,0,9.85072,0.833467,0.0479004,1.25,1.52439,-1.34146,-24.8938,-0.119751,29.2144,-15.8537,9.48171,4.57317
544.561,84.9467,49.0576,0,9.87467,0.859812,0.0814307,1.61585,2.46951,-1.09756,-24.8651,0.0431104,29.3677,-14.4512,10.6707,4.93902
544.571,84.9439,49.0777,0,9.9058,0.828677,0.0526904,1.18902,3.20122,-1.15854,-24.9513,-0.00479004,29.3486,-14.1159,12.9268,5.03049
544.581,84.9545,49.0969,0,9.89622,0.790356,0.0598755,1.4939,3.41463,-0.762195,-24.9609,-0.244292,29.3581,-14.1463,13.4146,4.69512
544.591,84.9713,49.1117,0,9.83635,0.723296,0.0574805,1.95122,2.37805,-1.09756,-24.9513,-0.0239502,29.2623,-13.3537,15.1829,6.43293
544.601,84.9893,49.1255,0,9.82197,0.713716,-0.0191602,2.59146,1.46341,-1.09756,-24.9609,-0.0526904,29.2719,-11.8598,17.1037,5.70122
544.611,85.0118,49.1395,0,9.75731,0.694556,0.0383203,2.13415,0.97561,-1.03659,-25.2196,-0.158071,29.5977,-11.128,17.5,6.64634
544.621,85.0299,49.1494,0,9.74294,0.728086,0.0407153,1.58537,0.97561,-0.884146,-25.2387,-0.0239502,29.521,-10.2744,16.7683,7.68293
544.631,85.0538,49.1784,0,9.78605,0.673001,0.102986,1.82927,0.396341,-1.09756,-25.0567,0.0622705,29.8372,-10.9146,19.2378,7.37805
544.641,85.0771,49.1914,0,9.8555,0.641865,0.0455054,2.53049,0.243902,-1.34146,-24.9417,0.0526904,29.3294,-12.5305,23.1402,8.71951
544.651,85.0909,49.2128,0,9.9561,0.684976,-0.0790356,3.01829,0.213415,-1.43293,-24.8268,0.0910107,29.4348,-13.0488,24.7256,9.45122
544.661,85.0967,49.2157,0,9.94652,0.692161,-0.124541,2.80488,0.792683,-1.82927,-25.1908,0.225132,29.406,-14.4207,26.2195,9.14634
544.671,85.1004,49.2305,0,9.92257,0.740061,-0.0958008,2.86585,1.52439,-1.46341,-25.1142,0.215552,29.636,-15.3049,26.5244,10.2744
544.681,85.0996,49.2368,0,9.88185,0.756826,-0.0287402,2.22561,1.61585,-1.55488,-25.0088,0.186812,29.3007,-15.5793,26.311,9.39024
544.691,85.098,49.2495,0,9.79563,0.725691,-0.0215552,1.4939,1.79878,-1.92073,-25.1142,0.234712,29.6072,-16.9207,27.2256,9.39024
544.701,85.102,49.2733,0,9.81479,0.728086,0.0526904,1.25,1.85976,-1.52439,-24.8459,0.273032,29.5977,-19.3598,28.0183,10.2134
544.711,85.1081,49.2718,0,9.92017,0.720901,0.0383203,1.52439,2.34756,-1.4939,-24.5106,0.292192,28.5917,-19.5732,31.8598,10.3049
544.721,85.0955,49.2709,0,10.0088,0.828677,0.0574805,1.55488,3.62805,-1.70732,-24.7885,0.694556,28.9366,-21.25,33.9024,10.9451
544.731,85.0619,49.2546,0,9.97286,0.974773,0.0311353,1.31098,4.17683,-1.61585,-25.1525,0.838257,28.9654,-24.6951,34.3293,10.4573
544.741,85.0147,49.2344,0,9.89383,1.0586,0.0383203,0.853659,4.57317,-1.21951,-25.6507,0.799937,29.4156,-28.1402,33.75,9.02439
544.751,84.9434,49.2112,0,9.72617,1.11129,0.0886157,0.548781,4.96951,-0.579268,-25.5932,0.828677,29.2336,-31.9512,30.5183,9.14634
544.761,84.8511,49.1726,0,9.61121,1.09692,0.186812,1.0061,5.73171,-0.0609756,-25.8327,0.857417,29.0803,-34.2378,29.878,8.78049
544.771,84.8126,49.1392,0,9.53218,1.05381,0.208367,0.731707,5.82317,0.884146,-25.4495,0.589175,28.7259,-36.8293,26.7683,9.45122
544.781,84.7831,49.0879,0,9.4747,1.00112,0.287402,0.518293,4.87805,0.792683,-25.6507,0.656235,28.448,-37.2561,23.0793,10
544.791,84.7788,49.0496,0,9.46991,0.917292,0.433499,0.396341,3.32317,0.914634,-25.6315,0.340093,28.6875,-38.628,20.1524,10.6098
544.801,84.7941,48.9829,0,9.53457,0.838257,0.548459,0.27439,2.28659,0.640244,-26.0339,0.282612,28.3522,-37.8354,15.4268,11.25
544.811,84.8209,48.8968,0,9.58966,0.802332,0.505349,0.487805,1.92073,-0.0609756,-26.2829,0.215552,28.0648,-36.6463,14.1159,11.7378
544.821,84.8271,48.7816,0,9.54415,0.823887,0.486189,0.548781,1.61585,-0.579268,-26.3404,-0.0910107,27.308,-35.061,8.81098,11.5854
544.831,84.8417,48.6702,0,9.49625,0.704136,0.488584,-0.243902,1.85976,-1.52439,-26.4362,-0.311353,27.3751,-31.8902,6.7378,12.1646
544.841,84.8944,48.5353,0,9.31663,0.464634,0.684976,0.823171,0.213415,-1.79878,-26.714,-0.483794,26.9631,-29.0244,0.365854,15.3049
544.851,84.9551,48.3678,0,9.44835,0.541274,0.775986,3.68902,-3.65854,-1.06707,-27.241,-0.502954,26.5703,-27.3171,-4.2378,15.8841
544.861,84.9741,48.1686,0,9.79084,0.754431,0.696951,4.90854,-5.88415,-0.670732,-28.2373,-0.359253,26.6087,-28.8415,-7.40854,16.2195
544.871,84.9782,47.9399,0,9.76928,0.742456,0.759221,4.26829,-8.96341,-1.55488,-29.0899,-0.253872,26.5033,-32.1646,-11.7683,16.6768
544.881,84.9867,47.6513,0,9.47949,0.684976,0.862207,3.04878,-14.7866,-1.76829,-29.6072,-0.0814307,25.3441,-35.4878,-17.7439,17.6829
544.891,84.9878,47.3376,0,9.12263,0.696951,1.14242,2.37805,-23.3537,-1.92073,-29.9138,0.320933,24.7597,-38.7195,-23.3537,18.872
544.901,85.011,47.0612,0,8.92624,0.65384,1.22386,3.59756,-28.0793,-1.31098,-30.6323,0.589175,25.8806,-40.122,-33.2317,21.5549
544.911,84.9844,46.7725,0,8.93103,0.826282,1.22386,2.34756,-31.128,-0.396341,-31.6286,0.723296,26.1201,-41.25,-44.4207,20.7317
544.921,84.9726,46.4868,0,9.21364,0.857417,0.965193,-2.46951,-32.3476,0.579268,-31.9448,0.819097,26.1488,-40.7317,-51.4634,17.378
544.931,84.9895,46.174,0,9.70701,0.828677,0.383203,-5.33537,-29.2378,1.25,-32.1172,0.397573,25.3824,-39.2683,-53.9939,13.3537
544.941,85.0039,45.9063,0,10.2219,0.890947,-0.421523,-7.37805,-22.4085,1.40244,-31.3987,0.0814307,25.5261,-38.9329,-61.3415,10
544.951,85.0173,45.626,0,10.4878,0.876577,-0.910107,-10.7927,-17.9878,0.731707,-31.2837,-1.36516,24.8843,-38.7195,-66.4634,9.08537
544.961,85.0354,45.3602,0,10.5165,0.797541,-1.08494,-14.6037,-16.0061,-0.335366,-30.9389,-1.346,24.6543,-41.0976,-73.5061,11.4634
544.971,85.0521,45.1507,0,10.2866,0.680186,-1.0083,-18.1707,-15.8232,-1.40244,-30.958,-1.62382,25.6507,-43.7195,-85.7622,13.5366
544.981,85.0696,44.9826,0,9.93694,0.522114,-0.713716,-20.0915,-14.7256,-2.65244,-30.9293,-1.66214,26.3213,-39.9085,-102.988,16.8598
544.991,85.0799,44.8509,0,9.73336,0.512534,-0.531694,-19.7866,-10,-3.20122,-30.4407,-1.48012,26.5416,-33.2317,-115.152,18.75
545.001,85.0691,44.7477,0,9.63277,0.670605,-0.56283,-18.5366,-4.96951,-3.20122,-29.7605,-1.2502,26.4745,-22.4695,-118.841,19.939
545.011,85.034,44.7045,0,9.52499,0.866997,-0.66821,-17.439,-1.79878,-2.95732,-29.2432,-1.2981,27.3368,-11.6463,-118.567,18.1402
545.021,85.0302,44.7014,0,9.84353,0.740061,-0.996328,-14.6951,1.21951,-2.07317,-28.9749,-1.28852,28.0169,-2.2561,-118.994,16.372
545.031,85.0965,44.7098,0,10.277,0.289797,-1.46336,-10.6098,2.19512,-1.61585,-29.4731,-1.07776,28.7642,1.12805,-123.537,13.75
545.041,85.2005,44.687,0,11.1823,-0.289797,-1.86572,-7.37805,3.20122,-2.77439,-30.2204,-0.570015,28.6684,-0.426829,-130.061,12.9268
545.051,85.3179,44.6318,0,11.8122,-0.831072,-1.95434,-3.29268,6.15854,-6.03659,-30.4886,0.359253,28.0553,-3.47561,-136.098,13.0488
545.061,85.3945,44.5966,0,12.3823,-0.969983,-2.0669,-2.28659,10.8841,-10.8841,-31.6382,1.00112,29.5498,-9.5122,-140.732,15.9451
545.071,85.3724,44.621,0,12.1236,-0.517324,-2.32317,-9.69512,12.5,-16.6463,-32.1364,1.825,31.5424,-17.8049,-151.037,20.2439
545.081,85.2832,44.6607,0,12.332,-0.376018,-2.31838,-22.0122,20.1524,-22.1037,-32.4525,1.38432,32.2418,-22.3171,-163.841,23.5366
545.091,85.1756,44.7471,0,11.7715,-0.617915,-1.57113,-26.9512,25.8232,-26.7378,-32.1364,1.40348,33.2572,-21.0671,-173.598,25.8841
545.102,84.9963,44.8358,0,11.1823,-0.253872,-0.110171,-31.7073,25.3963,-30.7927,-31.8681,0.876577,33.1135,-16.4024,-179.817,30.0305
545.111,84.7743,44.921,0,10.483,-0.117356,0.203577,-37.378,21.311,-34.1768,-31.255,-0.253872,32.4717,-7.43902,-180.335,33.1098
545.121,84.536,45.0664,0,10.2219,-0.107776,-0.337698,-41.5244,28.9024,-36.2195,-30.3162,-0.646655,33.3051,1.7378,-182.409,38.628
545.131,84.3309,45.2859,0,11.0434,-0.708926,0.119751,-42.5305,43.5671,-39.5732,-29.1378,-2.04535,34.3398,6.21951,-186.982,41.0366
545.141,84.1527,45.5181,0,10.368,-1.11847,1.16637,-40.6098,46.7073,-42.3171,-28.1319,-2.54351,33.7554,6.43293,-193.476,40.5488
545.151,83.9838,45.749,0,9.48667,-0.888552,1.10889,-27.3476,38.6585,-40.0915,-26.7715,-2.13157,32.3567,4.93902,-192.439,40.061
545.161,83.8079,46.0505,0,9.616,-0.486189,0.58199,-19.3902,20.4268,-36.128,-24.7789,-0.934058,32.2513,1.58537,-181.341,35.7927
545.171,83.5733,46.4847,0,9.8579,0.222737,-0.301772,-14.9695,12.3476,-33.9329,-22.1731,0.531694,33.0656,-3.2622,-173.841,33.0793
545.181,83.3067,47.0331,0,9.06754,0.488584,-0.866997,-9.45122,6.25,-34.0244,-19.7398,1.94955,33.5255,-6.79878,-166.341,32.1951
545.191,82.9633,47.6364,0,8.658,1.22386,-0.134121,-8.71951,1.46341,-32.2866,-18.868,2.43813,34.7038,-8.62805,-161.494,31.9512
545.201,82.5813,48.2214,0,7.6449,1.46336,0.677791,-7.7439,-4.57317,-31.2195,-20.6499,2.44771,38.1527,-8.01829,-168.628,27.622
545.211,82.1942,48.8945,0,7.68083,1.62861,0.764011,-5.03049,-6.06707,-30.2134,-16.4059,1.70046,34.4068,-11.7378,-143.75,27.0427
545.221,81.8134,49.5124,0,9.137,2.07169,1.07776,-6.70732,-9.87805,-28.7195,-17.2777,0.752036,35.1445,-13.9024,-137.012,28.0183
545.231,81.4876,50.1208,0,10.2076,2.02858,1.69567,-7.53049,-17.0427,-27.0122,-17.019,-0.771196,35.2882,-14.7866,-125.671,26.4634
545.241,81.2158,50.7168,0,11.2255,1.53281,1.16877,-5.64024,-16.9207,-29.2378,-16.1951,-1.55676,34.1386,-10.4878,-111.524,26.8598
545.251,80.8799,51.2557,0,11.041,1.78668,0.701741,-5.70122,-7.59146,-33.4451,-16.7891,-2.74469,34.1769,-4.63415,-98.0793,24.1768
545.261,80.4868,51.7604,0,10.6962,2.23216,0.445474,-5.70122,-4.48171,-34.6646,-16.6358,-2.68721,33.4967,4.69512,-83.2927,21.8902
545.271,80.0729,52.1922,0,10.562,2.34233,0.0838257,-7.31707,-0.792683,-36.128,-17.9579,-3.01293,34.2057,11.25,-73.6585,16.7378
545.281,79.6806,52.6153,0,10.3537,2.00463,-0.371228,-6.7378,8.71951,-37.9268,-18.4177,-1.75794,35.4511,14.4817,-66.3415,12.8049
545.291,79.288,52.9978,0,9.65911,1.80584,-0.270637,-7.07317,8.53659,-39.5122,-18.9254,-0.550855,35.5852,17.6829,-56.5854,14.1463
545.301,78.9294,53.4072,0,9.48907,1.4897,0.00718506,-2.65244,1.40244,-40.2439,-18.5614,0.589175,36.6007,20.4878,-45.9451,16.8902
545.311,78.5484,53.8552,0,9.62319,1.78429,-0.337698,2.77439,-2.22561,-40.0305,-18.1495,1.55676,38.0952,22.378,-39.5427,20.4268
545.321,78.1542,54.2957,0,10.3034,2.10522,-0.946033,5.09146,-0.579268,-40.0305,-18.0632,2.13157,38.4113,22.0122,-33.2927,21.9817
545.331,77.7418,54.7241,0,10.4447,2.25132,-0.589175,5.33537,-4.20732,-41.4329,-18.4464,2.35191,39.5226,19.7256,-26.8598,21.0366
545.341,77.3228,55.1416,0,10.3848,2.20342,-0.522114,8.07927,-3.9939,-43.3232,-18.5039,2.03577,39.9729,16.189,-21.8293,18.0793
545.351,76.8661,55.541,0,10.3513,2.37586,-0.840652,10.6707,-3.96341,-46.0976,-19.0691,1.88249,41.1512,15.8537,-18.1098,14.8476
545.361,76.3814,55.9082,0,10.119,2.43094,-0.5772,10.7622,-0.792683,-48.689,-19.4332,1.18314,41.1895,14.0549,-14.5732,8.32317
545.371,75.8687,56.24,0,10.1645,2.63452,-0.354463,13.4451,-5.09146,-50.4573,-19.5865,1.13524,40.5764,13.8415,-10.4878,3.96341
545.381,75.3214,56.5245,0,10.3824,2.96503,-0.407153,15.0915,-9.26829,-52.1646,-19.9793,0.560435,39.9058,12.8963,-4.35976,2.89634
545.391,74.7303,56.7758,0,10.1597,3.12311,-0.570015,14.8171,-4.96951,-55.3963,-20.4104,0.455054,39.81,12.1037,-2.65244,0.548781
545.401,74.1131,57.0269,0,9.92257,3.10155,-0.397573,18.1707,-8.71951,-58.7195,-20.19,0.608335,39.7909,13.0183,-4.17683,-1.92073
545.411,73.4342,57.2887,0,9.85072,3.45122,0.0215552,19.0244,-9.26829,-62.2866,-20.2475,0.981958,40.7968,15.1829,-6.70732,-0.914634
545.421,72.7254,57.5478,0,9.63516,3.5566,-0.146096,21.0061,-11.5854,-64.7866,-20.2379,1.50886,41.1033,15.4878,-9.20732,-1.82927
545.431,71.9857,57.7776,0,9.81958,4.00447,-0.162861,21.4024,-17.5305,-65.4573,-20.372,1.52802,40.5285,13.872,-7.65244,-3.17073
545.441,71.2291,57.9881,0,10.0351,4.30146,-0.225132,19.2378,-15.2744,-66.6159,-20.2188,1.6334,39.8292,8.90244,-1.46341,-5.94512
545.451,70.4461,58.1537,0,9.72138,4.3302,-0.0646655,16.7378,-12.2256,-69.2073,-20.4966,1.97829,38.8616,4.66463,4.45122,-9.08537
545.461,69.6683,58.3166,0,9.75252,4.34696,0.306563,14.3293,-12.4085,-70.2439,-20.4391,1.93039,38.9382,6.61585,7.62195,-10.4878
545.471,68.8487,58.4701,0,9.57289,4.58886,-0.122146,12.7744,-7.62195,-72.8659,-20.372,2.36149,38.7275,8.32317,12.0122,-11.7378
545.481,68.0452,58.6073,0,9.18011,4.23918,0.261057,11.7683,-6.52439,-74.5732,-20.4104,2.08367,38.4305,8.07927,19.1159,-12.1646
545.491,67.2385,58.7163,0,9.22562,4.3757,-0.220342,11.311,-7.9878,-75.3354,-20.487,1.64298,37.7311,4.7561,28.0488,-15.2744
545.501,66.4559,58.8182,0,9.24957,4.2296,0.344883,7.07317,-9.32927,-76.1585,-20.3912,1.32684,37.5012,1.7378,35.2134,-18.5671
545.511,65.6896,58.8988,0,9.47949,4.26553,0.531694,7.56098,-12.5915,-76.7988,-20.6499,1.45138,37.3192,0.640244,38.5061,-20.2744
545.521,64.9281,59.0017,0,9.7118,4.31582,-0.280217,9.7561,-8.62805,-78.4146,-19.9601,1.50886,37.0797,0.426829,42.3171,-20.5488
545.531,64.1031,59.0956,0,8.97893,4.58167,-0.0215552,6.89024,-7.83537,-80.1829,-19.6919,1.69088,36.4187,0.914634,45.7012,-19.5427
545.541,63.2764,59.2088,0,8.72266,4.58886,-0.390388,8.59756,-6.7378,-80.5793,-18.9446,2.00703,35.9205,2.07317,48.2012,-15.6707
545.551,62.4355,59.291,0,8.62446,4.905,-0.574805,8.14024,-6.64634,-79.8781,-19.5673,1.92081,36.1025,0.579268,51.8598,-12.1646
545.561,61.6108,59.3424,0,8.8017,5.01517,-0.268242,7.13415,-11.4939,-79.8476,-19.8068,1.30768,35.5469,0.518293,57.439,-11.7378
545.571,60.7818,59.4029,0,8.54303,5.03912,-0.0359253,4.05488,-9.7561,-80.2134,-19.4619,1.89207,35.4223,-0.0304878,69.8781,-13.4146
545.581,59.9576,59.4623,0,8.3682,5.01757,-0.58199,4.2378,-10.6707,-80.5793,-19.2895,2.11241,35.202,-3.2622,75.6707,-13.0488
545.591,59.0936,59.4972,0,8.05685,5.21635,-0.246687,0.365854,-9.5122,-82.2866,-19.4523,2.23695,34.7326,-7.92683,81.9817,-13.2622
545.601,58.2545,59.508,0,8.22929,5.22354,-0.452659,1.79878,-9.48171,-82.561,-19.7398,2.86923,34.4739,-12.1951,87.7439,-11.4329
545.611,57.4316,59.5099,0,8.47118,5.46783,-0.823887,1.46341,-6.61585,-81.7378,-19.9505,3.18538,34.5889,-11.4329,94.5732,-10.8537
545.621,56.6235,59.4657,0,8.24126,5.46783,-0.399968,2.40854,-7.9878,-80.4268,-20.372,3.04167,33.7841,-12.439,104.177,-9.81707
545.631,55.8251,59.3834,0,8.24605,5.74086,-0.227527,5,-12.5,-78.4756,-20.4199,2.72553,32.625,-10.6402,115.305,-10.5183
545.641,55.0359,59.2849,0,8.23887,5.88217,-0.239502,5.60976,-10.1524,-77.7744,-20.851,2.17947,32.7399,-6.09756,123.476,-11.2195
545.651,54.2512,59.1799,0,7.98499,5.85822,-0.244292,6.25,-9.45122,-77.4085,-21.0522,1.5376,32.7495,-3.65854,128.232,-13.1707
545.661,53.4662,59.0345,0,8.01613,6.2055,-0.862207,7.95732,-4.11585,-76.0366,-21.0522,1.09692,31.4179,-5.39634,134.573,-16.0671
545.671,52.6855,58.8892,0,7.94428,6.6342,-0.337698,5.7622,-4.42073,-72.8659,-20.9947,0.723296,31.2071,-8.41463,142.348,-19.0244
545.681,51.9321,58.74,0,7.80058,6.55517,-0.771196,1.95122,-1.7378,-71.311,-21.0522,0.847837,31.0347,-12.0427,146.799,-20.4268
545.691,51.199,58.5788,0,7.56587,6.36596,-0.778381,0.182927,1.25,-70.7012,-20.6307,1.16398,29.9521,-11.4024,156.098,-19.6037
545.701,50.4823,58.3756,0,7.27846,6.28932,-0.352068,0,-2.83537,-68.9939,-21.1768,1.7292,29.4348,-10.0305,165.701,-19.3293
545.711,49.8032,58.1687,0,7.33115,6.25819,-0.455054,-0.670732,-0.396341,-67.3171,-21.0043,1.66214,28.927,-9.7561,174.878,-17.8659
545.721,49.155,57.9306,0,7.16111,6.07137,-0.148491,-1.4939,1.06707,-65.9451,-21.1768,1.94955,28.1798,-8.10976,185.61,-19.1768
545.731,48.5656,57.6876,0,7.42217,5.88696,-0.299377,-0.396341,1.09756,-65.0915,-21.2342,1.64298,27.9307,-5.06098,194.482,-22.8659
545.741,47.99,57.4295,0,7.15392,5.58758,-0.395178,-1.31098,-0.27439,-65.7622,-21.5695,1.56634,27.7583,-4.17683,198.262,-25.8841
545.751,47.3664,57.1765,0,6.56475,5.26425,-0.179626,-6.34146,0.701219,-70.3354,-21.742,1.22146,27.8732,-5.15244,202.683,-29.0854
545.761,46.6554,56.9548,0,5.80313,5.21156,-0.100591,-6.67683,-5.54878,-73.9939,-21.2821,1.2023,27.8445,-1.92073,208.415,-32.0732
545.771,45.9126,56.7295,0,5.92767,5.92288,-0.500559,-6.25,-11.372,-72.4695,-20.9468,1.26936,27.1452,0.213415,217.866,-34.3293
545.781,45.1921,56.48,0,6.42344,6.79707,-0.716111,-6.98171,-13.2317,-68.3537,-21.2821,1.4418,26.8194,1.06707,229.543,-34.5122
545.791,44.4755,56.2305,0,6.2055,7.42217,-0.256267,-6.55488,-19.7256,-62.3171,-21.4067,1.35558,26.7811,-0.457317,239.329,-35
545.801,43.8186,55.9693,0,6.41147,7.82213,-0.217947,-5.12195,-21.6463,-56.5549,-21.7324,1.31726,26.6949,-4.72561,245.701,-35
545.811,43.2407,55.6694,0,6.76593,8.09996,-0.189207,-5.54878,-18.4451,-50.9146,-22.3455,1.22146,26.2925,-4.69512,251.463,-34.3293
545.821,42.7382,55.2974,0,6.84497,7.99937,-0.304167,-5.06098,-12.8963,-45.7927,-22.6329,1.43222,24.7501,0.457317,259.177,-35.2134
545.831,42.293,54.8787,0,6.79467,7.92272,-0.467029,-4.84756,-9.05488,-41.0976,-22.7671,1.42264,23.6388,5.97561,273.11,-33.2622
545.841,41.9245,54.4476,0,6.9264,7.57066,-0.471819,-4.7561,-6.25,-37.9268,-23.2844,1.16398,23.6101,5.4878,284.177,-31.2805
545.851,41.5911,53.9756,0,6.78988,7.15632,-0.421523,-3.35366,-5.27439,-37.2256,-23.7921,1.59508,22.9395,0.609756,288.018,-30.7317
545.861,41.268,53.4959,0,6.54559,6.80904,-0.361648,-2.19512,-5.39634,-37.622,-24.1274,2.00703,22.7287,-8.56707,288.811,-29.878
545.871,40.9547,52.9431,0,6.42105,6.56475,-0.445474,-1.37195,-4.63415,-38.2927,-24.6448,2.94587,21.3875,-16.5549,285.915,-28.9024
545.881,40.6736,52.3753,0,6.46895,6.22945,-0.56283,-0.762195,-3.41463,-39.1463,-24.5106,3.97094,20.5732,-18.872,283.537,-29.1768
545.891,40.3766,51.8032,0,6.24382,6.03784,-0.58199,-2.5,-4.2378,-41.0976,-24.434,4.73735,20.008,-18.9634,279.787,-28.1707
545.901,40.0806,51.239,0,5.94444,5.65464,-0.447869,-1.28049,-6.18902,-42.561,-24.2711,5.27383,19.6152,-17.9573,280.457,-27.6524
545.911,39.7457,50.7108,0,5.71931,5.84624,-0.713716,3.68902,-9.2378,-42.9268,-24.1083,5.36005,19.7206,-18.9634,279.421,-27.9268
545.921,39.3582,50.2082,0,5.51573,6.14802,-0.701741,4.93902,-12.7439,-43.9329,-24.0412,4.68945,19.7398,-21.4329,276.89,-30.7012
545.931,38.9502,49.7094,0,5.55884,6.12646,-0.907712,5.7622,-12.5,-47.4695,-24.6735,3.69312,19.9505,-24.1159,271.982,-32.6829
545.941,38.4443,49.2113,0,5.25228,6.49529,0.100591,3.2622,-17.1341,-51.6463,-25.1429,2.85965,19.9697,-26.9817,268.171,-36.128
545.951,37.9615,48.6926,0,5.61872,6.34201,-0.186812,-0.823171,-20.5793,-55.5793,-26.0243,1.86333,19.9314,-33.2317,269.756,-37.0122
545.961,37.4504,48.1924,0,5.79116,6.29172,-0.423918,-3.32317,-21.9817,-61.6768,-26.6566,1.7771,20.372,-43.0183,267.805,-36.8293
545.971,36.9203,47.6404,0,5.97318,6.47134,-0.387993,-0.97561,-19.5732,-64.8171,-27.7679,1.59508,19.8547,-49.9695,265.488,-33.5366
545.981,36.3499,47.0227,0,6.08335,7.39822,-0.155676,1.25,-18.5366,-63.3232,-28.563,1.6334,18.8009,-55.4268,265.122,-29.3598
545.991,35.7818,46.396,0,6.27256,8.33706,-0.395178,-0.853659,-17.3476,-59.2073,-29.3773,1.50886,18.7338,-57.0122,268.476,-23.5366
546.001,35.2887,45.7739,0,6.8761,8.45921,-0.821492,-1.15854,-10.8537,-57.1037,-30.1629,1.47054,18.8584,-58.689,268.11,-19.0549
546.011,34.8011,45.1265,0,6.924,8.30114,-0.984353,-0.823171,-6.58537,-59.0244,-30.0862,1.09692,17.9004,-56.25,268.079,-14.2988
546.021,34.3143,44.4889,0,6.65336,7.77663,-0.747246,1.40244,-3.14024,-61.4024,-30.0383,0.742456,17.6034,-51.3415,271.555,-12.7439
546.031,33.7827,43.8558,0,6.15281,7.79579,-0.807122,3.93293,0.335366,-62.3476,-29.9425,0.474214,17.1915,-47.4695,275.274,-12.561
546.041,33.2397,43.2317,0,5.92049,7.94188,-0.775986,3.75,6.79878,-61.372,-30.4694,-0.589175,17.2106,-46.6463,275.244,-14.8476
546.051,32.7063,42.6218,0,5.76002,7.85806,-0.637075,4.20732,10.8232,-60.5488,-30.182,-0.445474,16.8466,-44.7256,270.823,-18.7195
546.061,32.1652,42.0659,0,5.69775,8.09996,-0.543669,7.04268,12.9268,-60.1524,-30.297,-0.129331,17.4214,-40.5488,265.854,-23.2317
546.071,31.607,41.4939,0,5.46304,8.26521,-0.716111,8.2622,15.3659,-59.6037,-29.933,0.522114,16.5496,-39.3293,266.006,-26.8902
546.081,31.0324,40.9159,0,4.90261,8.16702,-0.797541,6.09756,15.4268,-57.3476,-30.3545,0.857417,16.3005,-35.4878,270.305,-26.9207
546.091,30.4259,40.3486,0,4.2775,8.04966,-0.66821,6.12805,14.2073,-55.6707,-31.6286,1.27894,16.7699,-31.9817,271.128,-29.4207
546.101,29.843,39.7517,0,4.25595,8.00655,-0.603545,4.17683,9.20732,-54.5122,-31.6765,1.62382,15.8694,-32.1037,269.543,-31.5549
546.111,29.2143,39.1665,0,3.77695,8.18857,-0.524509,5.4878,4.32927,-53.7805,-32.395,1.76752,16.0131,-33.8415,268.75,-33.1098
546.121,28.6131,38.5742,0,3.92544,8.25563,-0.308958,3.23171,-1.4939,-53.628,-32.692,1.85375,15.6107,-36.189,266.006,-37.7439
546.131,28.0902,37.9744,0,4.29187,8.04248,-0.0311353,3.23171,-5.88415,-52.2866,-33.6213,1.93039,15.4862,-37.9878,262.988,-41.0061
546.141,27.578,37.3647,0,4.43797,8.01134,0.0526904,4.02439,-7.53049,-54.0854,-33.468,2.11241,14.806,-37.7439,260,-44.6951
546.151,27.0495,36.7606,0,4.2775,8.56219,-0.225132,3.9939,-13.4146,-51.8293,-33.1998,2.39981,14.3557,-37.8354,257.744,-44.1768
546.161,26.491,36.1524,0,4.02842,9.01006,-0.105381,4.42073,-21.5244,-50.9451,-33.2956,2.15073,13.9055,-37.5,255.488,-43.5671
546.171,26.0079,35.5282,0,4.45953,8.53585,-0.299377,4.45122,-24.3902,-51.5244,-33.4009,2.15073,13.254,-36.7988,253.201,-40.3963
546.181,25.5119,34.9357,0,4.33259,8.54543,-0.395178,7.31707,-23.3841,-52.4085,-33.6692,2.16989,13.4648,-35.122,248.872,-35.1524
546.191,25.0545,34.3442,0,4.50982,8.76338,-0.778381,8.32317,-19.4817,-50.1829,-33.7458,1.59508,13.1008,-34.4207,246.128,-31.0976
546.201,24.6375,33.8001,0,4.6655,8.91187,-0.869392,4.72561,-14.3293,-47.8049,-33.583,1.64298,13.4552,-35.9756,248.659,-27.1646
546.211,24.2861,33.2599,0,4.85231,8.56459,-0.277822,4.63415,-13.3537,-45.8537,-33.7075,1.3939,13.2061,-39.0549,249.512,-23.75
546.221,23.934,32.7165,0,4.49545,8.41849,0.0167651,10.7012,-12.5305,-43.7195,-33.6404,1.21188,12.7655,-42.9878,251.22,-21.9817
546.231,23.6081,32.1727,0,4.54814,8.55262,-0.155676,11.7378,-10.7622,-41.5549,-34.0715,1.24062,12.5451,-42.9268,248.415,-19.878
546.241,23.2825,31.6158,0,4.45713,8.58136,-0.306563,10.7012,-11.8902,-41.0671,-34.2727,1.12566,12.0086,-42.8049,242.287,-17.2866
546.251,22.9283,31.0795,0,4.23918,8.72266,-0.536484,9.17683,-9.90854,-41.5244,-34.7038,1.54718,12.114,-42.8963,236.098,-14.4207
546.261,22.5383,30.5041,0,3.87993,8.74422,-0.550855,9.84756,-2.83537,-41.8293,-34.6847,1.2981,11.0698,-43.1098,232.957,-12.6524
546.271,22.0763,29.8863,0,3.27639,8.89031,-0.383203,10.9451,5.42683,-42.439,-34.7326,1.09692,10.0064,-43.9329,236.098,-14.2683
546.281,21.5625,29.2961,0,2.78541,9.10107,-0.486189,12.1037,6.0061,-42.1037,-34.5985,0.828677,10.0256,-44.8171,237.622,-12.4085
546.292,21.0221,28.732,0,2.44292,9.27352,-0.637075,11.25,1.21951,-41.25,-35.3074,-0.0622705,10.2746,-41.5549,237.5,-14.4207
546.301,20.4632,28.1652,0,2.09085,9.46991,-0.546064,11.8902,-3.81098,-39.5427,-35.3744,-0.589175,9.86269,-40.5793,234.207,-18.9329
546.311,19.8932,27.5934,0,1.82979,9.78366,-0.459844,7.9878,-8.04878,-38.0183,-35.8726,-1.23104,9.52739,-39.1463,232.104,-24.7256
546.321,19.3089,27.0076,0,1.61903,9.78366,-0.383203,2.9878,-17.561,-38.2012,-35.4128,-2.05493,8.7993,-41.7073,233.018,-31.7073
546.331,18.7591,26.4446,0,1.88249,9.49625,-0.285007,2.89634,-30.0305,-39.5732,-36.5528,-2.65847,9.06754,-41.0366,230.701,-38.1707
546.341,18.2582,25.8572,0,2.16749,9.44596,-0.998723,0.97561,-36.4939,-39.2073,-37.118,-2.76385,8.38736,-40.7317,226.402,-43.2317
546.351,17.7591,25.26,0,1.90404,9.55134,-1.69328,0.243902,-35.8537,-36.6768,-37.53,-3.48236,7.88919,-38.2622,221.128,-44.3293
546.361,17.2985,24.697,0,2.04295,9.61121,-1.91362,-4.45122,-35.3354,-35.2439,-38.8233,-4.12422,8.3203,-33.689,213.201,-46.0671
546.371,16.8676,24.1769,0,2.12199,9.43398,-1.57353,-6.67683,-41.4939,-34.5427,-39.5035,-4.77567,8.7993,-26.4024,200.64,-48.0183
546.381,16.4965,23.6524,0,2.44771,9.23999,-2.00463,-6.58537,-40.0305,-33.7195,-39.3502,-4.97685,8.2724,-20.1829,189.97,-48.2012
546.391,16.1279,23.1828,0,2.37107,9.07952,-2.13396,-5.27439,-37.0427,-33.811,-39.5226,-5.82948,8.8951,-15.4268,179.695,-48.5671
546.401,15.791,22.7325,0,2.44771,8.94061,-2.32556,-4.2378,-38.9634,-32.7134,-39.5514,-6.1552,8.87594,-7.77439,169.055,-47.1951
546.411,15.4966,22.288,0,2.55788,8.88792,-2.44292,-3.35366,-41.372,-30.5793,-39.5609,-6.19352,8.62686,-2.83537,160.762,-45.5183
546.421,15.2579,21.8528,0,2.76146,8.78972,-2.3543,-3.29268,-40.4573,-28.3232,-39.2544,-6.30848,8.37778,1.61585,151.372,-41.8293
546.431,15.0575,21.4431,0,2.87881,8.86397,-2.12438,-1.03659,-38.4451,-26.0366,-38.9957,-6.35638,8.44484,3.32317,144.024,-38.3232
546.441,14.8809,21.0123,0,2.91953,9.09868,-1.78668,0.548781,-37.1341,-23.5976,-38.8616,-6.46176,7.72633,3.38415,137.317,-37.9268
546.451,14.7248,20.591,0,2.95306,9.26154,-1.68609,1.89024,-35.0305,-21.6463,-38.488,-6.96951,7.51557,3.32317,136.463,-36.0976
546.461,14.5621,20.1141,0,2.79738,9.45793,-1.85135,1.92073,-31.7073,-20.1829,-38.0952,-6.98867,6.19352,1.31098,138.841,-37.0732
546.471,14.3691,19.6663,0,2.46927,9.55613,-1.80345,0.0304878,-29.2378,-19.5427,-37.4629,-6.86413,6.27016,3.14024,140.335,-35.3659
546.481,14.1495,19.2051,0,2.16031,9.43638,-1.83698,-0.670732,-28.872,-19.3902,-37.233,-6.36596,5.71452,2.92683,142.805,-35.2744
546.491,13.8854,18.756,0,1.80105,9.54894,-2.07888,-1.12805,-28.7195,-19.878,-37.3958,-6.0594,5.63788,2.9878,143.262,-33.9939
546.501,13.6056,18.326,0,1.64298,9.59924,-2.12438,-2.2561,-31.8598,-20.0305,-37.7503,-6.04024,5.69536,1.89024,137.805,-30.8841
546.511,13.3222,17.903,0,1.65496,9.68306,-2.18186,-3.59756,-33.7195,-20.9451,-37.3384,-6.1073,5.46543,-0.548781,138.018,-27.2561
546.521,13.0589,17.4517,0,1.86093,9.61121,-2.34472,-5.2439,-30.4268,-22.0427,-37.3096,-6.32764,4.70861,-2.0122,138.841,-24.5427
546.531,12.8033,17.0305,0,2.02379,9.58966,-2.27527,-6.03659,-26.9817,-23.75,-37.1372,-6.14562,4.89063,-1.79878,138.75,-20.3963
546.541,12.5762,16.6221,0,2.24653,9.44356,-2.14833,-6.52439,-24.7561,-24.3598,-36.9168,-6.19352,4.79483,-1.76829,137.561,-15.6402
546.551,12.3779,16.1758,0,2.49322,9.30465,-2.15312,-6.15854,-21.4634,-25.1829,-37.0989,-6.12646,3.92304,-0.304878,138.567,-11.0671
546.561,12.2164,15.7258,0,2.75188,9.06754,-1.98787,-4.90854,-17.1341,-25.6707,-36.8306,-6.0594,3.54942,-1.64634,140.091,-8.47561
546.571,12.0919,15.3088,0,3.00335,9.01006,-1.86812,-4.11585,-12.0122,-25.3963,-37.0414,-5.88696,3.80808,-1.43293,136.067,-6.06707
546.581,11.9875,14.8907,0,3.13029,9.01246,-1.75315,-3.2622,-8.38415,-25.061,-36.5528,-6.11688,3.47278,-0.396341,136.799,-2.77439
546.591,11.9035,14.5169,0,3.13748,9.02443,-1.59508,-2.62195,-1.70732,-23.2317,-37.0222,-5.89654,3.96136,-1.52439,132.622,0.823171
546.601,11.8162,14.1368,0,2.99617,9.0388,-1.6334,-0.823171,9.17683,-22.0427,-37.1372,-6.40428,3.61648,-1.79878,129.634,2.43902
546.611,11.682,13.7737,0,2.53393,9.26394,-2.09564,-0.792683,19.3598,-20.7927,-37.2521,-6.3947,3.6548,-5.88415,128.537,5.06098
546.621,11.5018,13.4558,0,2.09804,9.22562,-2.03577,-1.25,23.811,-20.7012,-38.2293,-6.2031,4.26792,-11.3415,126.006,5.97561
546.631,11.2513,13.1543,0,1.50647,9.29028,-1.95434,-0.426829,25.7317,-20.8841,-38.2964,-6.13604,4.33499,-19.5427,124.573,3.75
546.641,10.9558,12.8224,0,1.15679,9.65672,-2.15552,-2.16463,24.8171,-21.128,-38.5454,-5.23551,3.62606,-28.9024,121.28,4.7561
546.651,10.6333,12.4763,0,0.962798,9.79563,-2.34712,-4.14634,19.4207,-22.0122,-39.7717,-4.71819,3.25244,-40,120.152,5.4878
546.661,10.3013,12.0907,0,0.924478,9.75012,-2.44771,-4.66463,15.5488,-23.2317,-40.8447,-3.85598,2.37107,-50.6098,117.683,5.67073
546.671,9.95528,11.7016,0,0.843047,9.78605,-2.37107,-4.05488,12.9268,-24.3293,-41.8889,-3.33866,2.07409,-57.7744,115.183,5.27439
546.681,9.60753,11.2599,0,0.938848,9.84832,-2.26569,-4.35976,11.4024,-26.2805,-42.4733,-3.18538,0.819097,-63.2927,112.622,6.40244
546.691,9.27326,10.8147,0,1.03465,9.82677,-2.10522,-4.60366,8.90244,-26.7683,-42.9331,-3.25244,0.416733,-67.7439,108.75,6.7378
546.701,8.9688,10.4069,0,1.22386,9.69264,-1.99026,-5.15244,7.46951,-26.8293,-42.0709,-3.43446,0.761616,-68.7805,105,7.40854
546.711,8.69342,9.97425,0,1.37953,9.4723,-1.85135,-4.87805,6.92073,-26.7073,-40.8063,-4.038,-0.00479004,-65.1524,103.537,8.32317
546.721,8.43888,9.49799,0,1.43701,9.34776,-1.70286,-5,6.61585,-26.0671,-40.0016,-4.68945,-1.06818,-62.7439,105.64,8.04878
546.731,8.18414,9.04732,0,1.27655,9.35255,-1.76752,-5.36585,4.72561,-24.6341,-39.6663,-5.57082,-0.934058,-59.878,107.805,6.15854
546.741,7.94229,8.63452,0,1.21188,9.44596,-1.56634,-5.67073,3.04878,-22.8963,-39.7238,-6.04982,-0.589175,-58.2012,106.494,0.884146
546.751,7.71009,8.25727,0,1.11608,9.58726,-1.4921,-5.73171,1.85976,-21.0366,-39.1011,-6.13604,-0.263452,-55.7012,102.226,-5.12195
546.761,7.47231,7.89989,0,0.953218,9.65911,-1.43462,-6.31098,-1.06707,-20.0305,-37.5587,-6.02108,-0.186812,-51.9817,97.5,-9.5122
546.771,7.23094,7.58701,0,0.859812,9.72138,-1.38672,-7.80488,-5.39634,-19.6951,-37.7695,-5.58998,0.301772,-48.1098,92.7439,-10.8232
546.781,7.00302,7.27371,0,0.912502,9.60642,-1.17116,-9.2378,-9.32927,-19.5732,-37.4054,-5.31215,0.0718506,-44.6341,87.7744,-8.59756
546.791,6.79795,7.01377,0,0.981958,9.53936,-1.02507,-11.128,-11.4329,-18.628,-37.9515,-4.52659,0.732876,-41.7073,80.1524,-5.42683
546.801,6.60942,6.75475,0,0.996328,9.54176,-0.744851,-11.2195,-10.6098,-17.5305,-38.4017,-4.25834,0.570015,-41.3415,76.2805,0.426829
546.811,6.43546,6.51239,0,0.948428,9.63756,-0.64426,-9.93902,-8.75,-15.7317,-39.1777,-3.40572,0.675395,-38.8415,71.3719,5.09146
546.821,6.29154,6.25832,0,1.08494,9.58966,-0.55804,-8.20122,-6.7378,-14.7256,-40.2315,-2.80217,0.301772,-34.9695,67.3476,6.98171
546.831,6.18911,5.99697,0,1.2981,9.54655,-0.407153,-6.98171,-5.39634,-13.4146,-41.4961,-1.70046,-0.0143701,-31.5244,64.9695,7.83537
546.841,6.09524,5.72184,0,1.26936,9.56331,-0.368833,-5.54878,-4.72561,-12.378,-41.6973,-1.31726,-0.474214,-29.5427,60.4268,8.90244
546.851,6.01711,5.46647,0,1.24541,9.62558,-0.404758,-4.7561,-4.48171,-10.5793,-42.0805,-1.36516,-0.320933,-27.7439,58.5976,7.19512
546.861,5.9527,5.21732,0,1.14003,9.7118,-0.534089,-5.15244,-4.20732,-7.95732,-42.32,-1.28852,-0.407153,-27.1341,55.3354,7.5
546.871,5.90566,4.9528,0,1.09213,9.79563,-0.783171,-5.36585,-4.02439,-5.64024,-42.2721,-1.62382,-0.886157,-25.3963,52.8354,6.61585
546.881,5.86046,4.68355,0,0.962798,9.85072,-0.938848,-5.82317,-3.81098,-3.93293,-41.9655,-1.94955,-1.16398,-24.7866,52.0732,4.2378
546.891,5.82058,4.40685,0,0.912502,9.83874,-0.869392,-6.34146,-4.32927,-2.80488,-41.1704,-2.30401,-1.48012,-21.5549,49.4817,3.81098
546.901,5.79475,4.14511,0,0.929268,9.77168,-0.785566,-6.7378,-5.82317,-1.52439,-40.3273,-2.26569,-1.38432,-19.5732,47.8354,4.14634
546.911,5.77121,3.89446,0,0.922083,9.78366,-0.787961,-7.16463,-6.40244,-0.97561,-39.6088,-2.16031,-1.346,-17.4695,48.1098,4.2378
546.921,5.7521,3.62296,0,0.926873,9.70462,-0.711321,-6.52439,-6.12805,-0.548781,-39.1681,-1.99745,-1.86333,-13.4756,48.0488,5.45732
546.931,5.75868,3.36831,0,1.0083,9.76689,-0.603545,-5.91463,-6.25,-0.121951,-39.0436,-1.825,-1.75794,-10.122,46.4024,6.58537
546.941,5.76495,3.10097,0,1.00591,9.75731,-0.531694,-6.37195,-7.95732,-0.0914634,-38.9286,-1.71962,-2.15073,-5.70122,44.5427,9.5122
546.951,5.78958,2.84814,0,1.06339,9.76449,-0.452659,-5.7622,-10.3963,0.396341,-39.0244,-1.76752,-2.09325,-0.945122,43.0793,11.4939
546.961,5.83234,2.58373,0,1.13284,9.70941,-0.409548,-6.43293,-12.2866,0.579268,-39.0628,-1.52802,-2.47645,3.93293,40.7012,13.7805
546.971,5.87552,2.31559,0,1.152,9.6639,-0.368833,-6.61585,-13.7195,1.31098,-39.1107,-1.6334,-2.72553,10.5793,40.6402,15.5183
546.981,5.91259,2.05227,0,1.1041,9.63756,-0.428708,-6.52439,-13.811,2.07317,-39.2256,-1.64298,-2.83091,13.872,41.5854,16.0366
546.991,5.95295,1.77192,0,1.08734,9.58966,-0.438289,-6.25,-14.1159,2.83537,-39.3885,-1.55676,-3.3195,14.4207,42.4695,16.0671
547.001,5.99458,1.50312,0,1.08015,9.57529,-0.421523,-5.09146,-14.1463,3.17073,-39.2544,-1.3939,-3.30034,16.7988,42.4085,15.1524
547.011,6.02685,1.22192,0,1.01788,9.7118,-0.565225,-4.90854,-14.0244,3.32317,-39.2544,-1.23104,-3.69312,17.7439,45.122,13.5671
547.021,6.06771,0.918145,0,1.07536,9.70701,-0.56762,-5.09146,-15.3354,3.53659,-39.2065,-1.43222,-4.25834,16.372,50.5793,13.5976
547.031,6.10811,0.636653,0,1.09452,9.76449,-0.692161,-4.90854,-16.9512,3.41463,-38.7275,-1.41306,-4.01884,17.9573,53.689,13.4451
547.041,6.15367,0.360606,0,1.14242,9.83156,-0.809517,-5.12195,-16.0061,3.53659,-38.8137,-1.49928,-4.12422,16.6463,54.3293,14.9695
547.051,6.20061,0.0977561,0,1.21667,9.81479,-0.828677,-5,-13.5366,2.71341,-38.7083,-1.35558,-4.07632,17.3171,53.628,14.1768
547.061,6.25606,-0.172351,0,1.30768,9.74054,-0.855022,-4.72561,-11.4939,1.70732,-38.5167,-1.35558,-4.36373,15.8232,52.4085,16.6159
547.071,6.34549,-0.426679,0,1.42264,9.63756,-0.876577,-4.57317,-9.69512,0.823171,-38.7849,-1.21188,-4.30625,16.2805,52.378,15.7012
547.081,6.49976,-0.657965,0,1.4921,9.58726,-0.797541,-3.59756,-8.71951,-0.0304878,-39.3981,-1.03944,-4.15296,12.9573,50.4878,15.8841
547.091,6.59923,-0.900526,0,1.51844,9.57289,-0.864602,-2.77439,-7.28659,-0.670732,-39.7238,-1.28852,-4.55533,12.8354,48.7805,16.8598
547.101,6.65651,-1.1173,0,1.48491,9.58008,-0.866997,-2.46951,-4.90854,-1.31098,-40.1836,-1.13524,-4.32541,14.2683,46.6463,16.25
547.111,6.69474,-1.32471,0,1.48731,9.5681,-0.768801,-1.82927,-2.62195,-1.95122,-40.1453,-1.4418,-4.31582,14.2683,44.2073,17.1951
547.121,6.72083,-1.53562,0,1.47773,9.56571,-0.565225,-0.762195,-0.731707,-2.43902,-39.8579,-1.3939,-4.48827,11.3415,45.6707,16.0366
547.131,6.74151,-1.72689,0,1.43941,9.60163,-0.622705,0.0304878,0.670732,-2.34756,-39.5418,-1.5855,-4.25834,10.4878,44.2683,16.5549
547.141,6.75635,-1.92193,0,1.39869,9.64235,-0.706531,1.18902,3.9939,-2.2561,-39.4268,-1.52802,-4.44995,8.9939,42.9573,16.7683
547.151,6.7638,-2.08836,0,1.34121,9.69025,-0.704136,1.92073,6.09756,-2.10366,-39.264,-1.73878,-4.06674,6.98171,42.7134,16.7378
547.161,6.77226,-2.27725,0,1.32445,9.69743,-0.701741,2.2561,6.95122,-1.85976,-39.3214,-1.64298,-4.59365,5.82317,39.4207,16.9207
547.171,6.78417,-2.44508,0,1.32684,9.72378,-0.764011,2.2561,7.07317,-1.61585,-39.1203,-1.65256,-4.33499,5.85366,38.7805,17.0427
547.181,6.79766,-2.59704,0,1.32924,9.72617,-0.833467,2.16463,6.79878,-1.52439,-39.3023,-1.5855,-4.20086,6.12805,36.7073,17.378
547.191,6.80805,-2.77301,0,1.26936,9.72617,-0.811912,2.71341,5.91463,-1.09756,-39.5705,-1.71004,-4.76609,7.59146,34.9085,17.3171
547.201,6.80436,-2.92825,0,1.21188,9.78605,-0.857417,2.92683,5.03049,-1.18902,-39.7334,-1.55676,-4.54575,7.40854,33.628,17.0122
547.211,6.77997,-3.08593,0,1.08973,9.81,-0.828677,2.2561,3.93293,-0.640244,-39.8675,-1.50886,-4.71819,7.13415,32.4695,15.7012
547.221,6.72247,-3.22695,0,0.979563,9.80042,-0.941243,2.37805,2.92683,-0.121951,-39.7046,-1.5376,-4.51701,3.53659,31.6463,14.6951
547.231,6.65562,-3.3667,0,0.900527,9.87467,-1.02267,2.2561,2.10366,0.27439,-39.6567,-1.52802,-4.59365,2.13415,30.0305,13.3232
547.241,6.602,-3.5054,0,0.914897,9.84353,-1.05141,1.67683,1.06707,0.426829,-39.7621,-1.92081,-4.68945,0.426829,28.872,11.4024
547.251,6.57916,-3.64737,0,1.00591,9.72617,-1.08494,1.28049,0.243902,0.609756,-39.6088,-1.86333,-4.83315,-1.70732,27.0122,9.84756
547.261,6.59306,-3.79275,0,1.14721,9.65432,-1.06099,1.40244,0.609756,0.548781,-39.6472,-1.87291,-5.00559,-3.04878,24.8171,7.68293
547.271,6.62529,-3.93036,0,1.22146,9.64953,-0.989143,1.4939,1.15854,0.609756,-39.6855,-1.7771,-4.97685,-4.78659,24.2073,6.46341
547.281,6.70218,-4.05737,0,1.35798,9.55613,-0.977168,2.5,1.46341,0.396341,-39.5418,-1.91123,-4.88105,-4.66463,20.3354,4.81707
547.291,6.75879,-4.17468,0,1.32924,9.60882,-0.905317,3.65854,2.46951,0.609756,-39.513,-2.08367,-4.80441,-3.56707,17.5915,3.9939
547.301,6.81062,-4.28741,0,1.33163,9.65911,-0.883762,4.05488,3.47561,0.609756,-39.9441,-2.00703,-4.88105,-3.23171,11.0061,3.87195
547.311,6.84256,-4.3972,0,1.25978,9.64714,-0.912502,3.96341,3.93293,0.853659,-40.1549,-2.33275,-4.94811,-1.21951,7.07317,4.08537
547.321,6.88676,-4.51655,0,1.32684,9.62319,-0.981958,3.71951,3.9939,1.34146,-40.2028,-2.33275,-5.21635,-0.121951,3.68902,1.82927
547.331,6.93098,-4.65006,0,1.33163,9.62798,-1.04662,3.5061,3.90244,1.85976,-40.3848,-2.55309,-5.58998,-0.640244,1.4939,1.85976
547.341,6.97312,-4.7845,0,1.30529,9.60642,-0.986748,3.38415,3.68902,2.31707,-40.2411,-2.74469,-5.68578,1.43293,0.548781,1.46341
547.351,7.01507,-4.92229,0,1.30768,9.63277,-0.941243,3.62805,3.32317,2.46951,-40.0304,-2.68721,-5.8199,0.0609756,-1.61585,1.37195
547.361,7.04429,-5.04039,0,1.23583,9.70462,-0.893342,4.5122,3.5061,2.40854,-39.8388,-2.81175,-5.54208,-0.823171,-3.04878,0.97561
547.371,7.06213,-5.14775,0,1.14482,9.76449,-0.986748,4.20732,4.54268,2.65244,-39.7525,-2.85965,-5.42711,-1.61585,-4.57317,1.61585
547.381,7.08472,-5.25828,0,1.14721,9.74294,-1.0586,3.59756,4.90854,3.07927,-39.6184,-2.86923,-5.55166,-2.07317,-7.68293,2.16463
547.391,7.11643,-5.36452,0,1.17356,9.69264,-1.05381,3.35366,4.69512,3.62805,-39.3406,-2.99377,-5.52291,-3.14024,-10.122,1.31098
547.401,7.15991,-5.47142,0,1.23344,9.63037,-1.06339,3.10976,4.05488,4.05488,-39.2352,-3.2237,-5.59956,-2.46951,-11.7988,1.03659
547.411,7.22569,-5.57022,0,1.36516,9.57289,-1.1041,3.68902,3.81098,4.72561,-39.5514,-3.14706,-5.5804,-1.92073,-13.0183,0.27439
547.421,7.29941,-5.67459,0,1.3939,9.5705,-1.1065,3.9939,3.47561,5.33537,-39.4939,-3.26202,-5.74326,1.03659,-13.811,0.823171
547.431,7.37388,-5.76695,0,1.40109,9.64235,-1.19751,4.2378,3.38415,5.60976,-39.2927,-3.33866,-5.5804,1.79878,-15.3963,-0.762195
547.441,7.44459,-5.86869,0,1.38193,9.67827,-1.24062,3.10976,3.04878,5.67073,-39.2735,-3.1758,-5.81032,2.92683,-16.0366,-0.609756
547.451,7.51457,-5.96494,0,1.38672,9.63516,-1.26936,2.68293,2.83537,5.60976,-39.216,-3.3674,-5.772,4.17683,-14.878,-1.34146
547.461,7.57647,-6.06627,0,1.36516,9.63516,-1.2526,2.71341,3.20122,5.18293,-39.1681,-2.99377,-5.92528,5.4878,-15.8841,-1.55488
547.471,7.62753,-6.15795,0,1.31487,9.63995,-1.31247,2.62195,3.41463,4.81707,-39.1681,-2.85007,-5.82948,5,-16.9817,-1.85976
547.481,7.66728,-6.23144,0,1.28134,9.63995,-1.36037,3.10976,4.05488,4.17683,-39.2065,-2.34233,-5.5804,3.65854,-17.561,-0.27439
547.492,7.6965,-6.30273,0,1.2502,9.60882,-1.22146,3.59756,3.41463,3.53659,-39.1969,-2.39023,-5.59956,0.853659,-19.8476,1.76829
547.501,7.7174,-6.36627,0,1.21667,9.67348,-1.28134,3.44512,1.76829,3.29268,-39.3214,-2.24653,-5.5325,-1.25,-20.5488,3.01829
547.511,7.73215,-6.44197,0,1.23823,9.70701,-1.21906,2.89634,-0.0609756,2.56098,-39.3598,-2.21779,-5.80074,-5.06098,-21.4024,4.29878
547.521,7.74982,-6.51699,0,1.29571,9.72378,-1.21427,1.79878,-1.55488,2.16463,-39.3693,-2.01661,-5.84864,-9.96951,-22.9573,5.21341
547.531,7.76972,-6.58935,0,1.33882,9.73575,-1.13524,1.31098,-2.62195,1.82927,-39.1298,-2.00703,-5.8199,-12.4085,-23.2927,8.04878
547.541,7.79033,-6.6614,0,1.32924,9.76928,-1.2526,1.12805,-2.92683,2.16463,-39.2544,-2.17947,-5.88696,-15.7622,-24.2988,7.80488
547.551,7.80165,-6.72898,0,1.32445,9.74054,-1.29331,0.213415,-2.43902,1.31098,-39.1873,-2.18905,-5.84864,-19.939,-24.4207,8.04878
547.561,7.82177,-6.78737,0,1.37474,9.6639,-1.28373,0.152439,-2.16463,1.06707,-39.0436,-2.27527,-5.71452,-20.6402,-24.9085,8.68902
547.571,7.86087,-6.84652,0,1.46336,9.60642,-1.26457,-0.243902,-2.43902,0.945122,-39.0915,-2.52435,-5.772,-23.4451,-23.872,7.86585
547.581,7.92401,-6.89714,0,1.51605,9.56092,-1.2502,-0.457317,-1.4939,0.243902,-38.9478,-2.74469,-5.63788,-22.9878,-22.561,7.62195
547.591,8.01531,-6.95262,0,1.57832,9.46991,-1.17595,0.426829,-0.518293,0.182927,-38.7658,-2.96503,-5.7241,-24.878,-20.5183,7.5
547.601,8.11512,-7.00766,0,1.63819,9.51541,-1.07776,1.0061,0.0304878,-0.152439,-38.8041,-3.15664,-5.75284,-24.2988,-18.2622,6.40244
547.611,8.21711,-7.0626,0,1.65496,9.51541,-1.0586,1.67683,0.213415,-0.121951,-38.7945,-3.24286,-5.78158,-23.7805,-16.4024,6.06707
547.621,8.31659,-7.09988,0,1.67651,9.58966,-1.22864,1.95122,1.89024,-0.0304878,-38.852,-3.4632,-5.51333,-22.8049,-14.7256,5.51829
547.631,8.369,-7.14928,0,1.62382,9.61361,-1.29571,1.89024,2.43902,-0.457317,-38.737,-3.5111,-5.73368,-20.8841,-14.5732,4.72561
547.641,8.4234,-7.1974,0,1.6358,9.59684,-1.28852,2.19512,2.77439,-0.457317,-38.6891,-3.43446,-5.73368,-19.7866,-13.2012,5.2439
547.651,8.46116,-7.24856,0,1.61424,9.60163,-1.24781,1.70732,3.56707,-0.701219,-38.6508,-3.54942,-5.81032,-19.6341,-12.0732,5.67073
547.661,8.49049,-7.28746,0,1.58071,9.63037,-1.33163,1.64634,4.32927,-0.609756,-38.7754,-3.4632,-5.64746,-18.3537,-11.25,5.27439
547.671,8.52384,-7.32565,0,1.62143,9.59445,-1.28613,1.34146,4.35976,-0.823171,-38.7945,-3.40572,-5.65704,-19.3598,-9.02439,7.10366
547.681,8.55239,-7.37705,0,1.55916,9.58008,-1.31247,1.28049,3.68902,-0.457317,-39.0628,-3.26202,-5.95402,-17.0122,-8.62805,7.22561
547.691,8.58574,-7.40663,0,1.56874,9.59924,-1.21667,0.884146,2.62195,-0.304878,-39.216,-3.35782,-5.6283,-18.0793,-8.78049,7.40854
547.701,8.63081,-7.45755,0,1.61424,9.54894,-1.18314,1.34146,1.25,-0.396341,-39.2544,-3.03209,-6.03066,-18.1707,-8.38415,6.18902
547.711,8.6946,-7.49337,0,1.65256,9.5681,-1.27415,1.31098,0.853659,0.213415,-39.3023,-3.13748,-5.80074,-16.8902,-6.82927,6.43293
547.721,8.74232,-7.52939,0,1.62143,9.60163,-1.28134,0.548781,1.15854,0.243902,-39.4172,-2.98419,-5.84864,-17.4085,-7.43902,6.70732
547.731,8.79161,-7.57314,0,1.61424,9.55373,-1.27176,1.40244,0.914634,0.121951,-39.1873,-2.86923,-5.97318,-17.8049,-6.55488,6.15854
547.741,8.83233,-7.60175,0,1.60945,9.59684,-1.34361,1.40244,0.884146,0.152439,-39.1969,-2.99377,-5.74326,-18.5366,-8.14024,5.88415
547.751,8.85583,-7.62711,0,1.59748,9.53936,-1.45378,0.945122,1.15854,-0.579268,-39.1107,-2.97461,-5.69536,-18.1402,-8.71951,6.95122
547.761,8.84546,-7.65798,0,1.49689,9.58966,-1.33882,0.701219,2.07317,-1.12805,-39.2448,-2.89797,-5.82948,-19.6037,-8.56707,6.52439
547.771,8.82743,-7.66234,0,1.46096,9.57529,-1.25978,0.579268,3.38415,-1.31098,-39.3885,-2.79259,-5.40795,-20.122,-10,7.19512
547.781,8.80185,-7.66195,0,1.46336,9.58487,-1.30529,0.457317,3.75,-2.2561,-39.3693,-3.19496,-5.32173,-21.5244,-9.26829,7.56098
547.791,8.7685,-7.67342,0,1.43941,9.55852,-1.33163,0.731707,4.57317,-2.86585,-39.5993,-3.24286,-5.57082,-23.7805,-11.3415,7.7439
547.801,8.73086,-7.66573,0,1.4442,9.58247,-1.42025,1.37195,5.33537,-3.41463,-39.6567,-3.26202,-5.25467,-26.1585,-13.9024,7.31707
547.811,8.69125,-7.65737,0,1.48012,9.63277,-1.35558,0.914634,5.51829,-4.05488,-39.5993,-3.01293,-5.23551,-27.5,-15.5488,7.56098
547.821,8.64296,-7.64322,0,1.4442,9.60642,-1.37235,1.28049,5.09146,-4.63415,-39.7813,-3.05125,-5.15887,-28.5671,-17.9573,7.65244
547.831,8.59695,-7.59506,0,1.47054,9.62558,-1.33642,0.762195,4.7561,-4.78659,-40.1166,-3.15664,-4.60323,-27.9878,-23.9634,8.93293
547.841,8.5449,-7.55679,0,1.44659,9.65672,-1.35558,0.426829,3.87195,-5.15244,-40.1549,-3.47278,-4.76609,-28.2317,-28.3537,9.93902
547.851,8.5015,-7.54615,0,1.49449,9.6639,-1.32924,-0.426829,3.07927,-4.93902,-39.925,-3.8943,-5.21635,-29.2378,-31.4329,8.47561
547.861,8.46555,-7.52193,0,1.53281,9.6184,-1.35558,-0.884146,3.56707,-4.81707,-39.7717,-4.19128,-4.94811,-27.7439,-31.7988,7.07317
547.871,8.43046,-7.49502,0,1.51126,9.57289,-1.29331,-1.58537,4.45122,-4.63415,-39.4747,-4.43079,-4.85231,-25.2744,-33.4451,7.2561
547.881,8.39673,-7.48074,0,1.48012,9.5202,-1.37714,-1.58537,5.79268,-4.29878,-39.1777,-4.44037,-5.02475,-22.9878,-35.1524,7.83537
547.891,8.35984,-7.44628,0,1.40827,9.43638,-1.45378,-0.823171,7.07317,-3.96341,-39.3885,-4.50743,-4.68945,-21.2195,-36.1585,7.22561
547.901,8.3133,-7.39514,0,1.31726,9.43398,-1.50407,0.396341,7.40854,-3.87195,-39.446,-4.29667,-4.37331,-22.5,-34.6951,6.03659
547.911,8.27015,-7.33254,0,1.29092,9.4747,-1.58071,0.518293,6.76829,-3.17073,-39.3502,-4.14338,-4.12422,-23.811,-34.0854,5.33537
547.921,8.23439,-7.24653,0,1.33642,9.58726,-1.49449,-0.579268,5.21341,-2.89634,-39.9346,-3.93262,-3.73144,-26.6768,-35.9146,4.66463
547.931,8.20211,-7.13927,0,1.38193,9.6184,-1.54239,-2.04268,4.14634,-3.17073,-40.2794,-3.50152,-3.32908,-31.4329,-37.7134,1.46341
547.941,8.16933,-7.02375,0,1.36995,9.69983,-1.62861,-2.83537,4.14634,-2.9878,-40.3848,-3.23328,-3.1279,-37.8049,-41.7988,0.457317
547.951,8.11797,-6.90081,0,1.27655,9.70462,-1.69567,-3.84146,3.96341,-3.81098,-40.3561,-2.62015,-2.92671,-44.4817,-46.189,-0.396341
547.961,8.05854,-6.78096,0,1.24541,9.64474,-1.65735,-3.29268,4.11585,-4.48171,-40.0878,-2.18905,-2.88839,-52.8963,-49.878,0.182927
547.971,7.99275,-6.64703,0,1.24302,9.64235,-1.61903,-3.96341,4.29878,-5.2439,-39.8675,-2.01661,-2.55309,-63.2317,-53.628,-0.579268
547.981,7.92349,-6.53966,0,1.25978,9.60163,-1.61424,-5.36585,4.5122,-6.0061,-39.513,-2.01661,-2.90755,-74.6646,-55.122,0.945122
547.991,7.85499,-6.47513,0,1.33642,9.53457,-1.54,-6.25,5.33537,-7.10366,-38.9574,-2.31359,-3.53984,-84.4512,-56.8902,1.40244
548.001,7.78725,-6.45378,0,1.45857,9.5202,-1.51605,-7.31707,6.55488,-8.65854,-38.2772,-2.87881,-4.17212,-92.7439,-57.5305,1.06707
548.011,7.716,-6.47774,0,1.52084,9.53218,-1.45138,-7.5,8.5061,-9.87805,-37.7024,-3.45362,-4.85231,-99.9695,-55.4878,1.15854
548.021,7.63216,-6.54715,0,1.54479,9.53697,-1.49928,-8.10976,11.3415,-11.5854,-37.118,-4.24876,-5.55166,-102.561,-55.7927,0.762195
548.031,7.52406,-6.59498,0,1.4897,9.49146,-1.61664,-8.17073,14.6951,-13.6585,-36.7827,-5.07265,-5.18761,-105.762,-55.122,3.07927
548.041,7.40247,-6.63127,0,1.46815,9.44117,-1.58071,-7.16463,18.0183,-15.0915,-36.9839,-6.00192,-5.05349,-108.476,-54.4207,4.5122
548.051,7.25773,-6.65197,0,1.35798,9.45554,-1.75076,-6.92073,20.9451,-16.3415,-37.2521,-6.87371,-4.85231,-110.732,-53.9634,5.64024
548.061,7.10169,-6.72635,0,1.33642,9.43638,-1.90404,-6.92073,23.1707,-17.561,-37.4342,-7.50599,-5.78158,-113.598,-50.4268,6.40244
548.071,6.94139,-6.81953,0,1.36277,9.40524,-2.05014,-7.40854,24.878,-18.689,-37.7503,-7.76465,-6.18394,-117.378,-45.2134,7.68293
548.081,6.78641,-6.95012,0,1.43941,9.36453,-2.13157,-7.40854,25.4878,-19.4817,-37.6545,-7.70717,-6.84497,-117.774,-37.5305,10.4268
548.091,6.6471,-7.07576,0,1.55437,9.40764,-2.18905,-7.43902,25.5793,-19.5122,-37.7311,-7.27607,-6.83539,-117.927,-29.3902,13.5366
548.101,6.5317,-7.19388,0,1.72681,9.49865,-2.16989,-7.71341,25.2134,-19.2378,-38.4113,-6.95993,-6.89287,-119.146,-23.1707,15.9756
548.111,6.44029,-7.28475,0,1.88728,9.616,-2.2106,-7.71341,25,-18.6585,-38.7945,-6.65336,-6.54798,-121.433,-18.5671,18.1098
548.121,6.37719,-7.36373,0,2.05732,9.67109,-2.10283,-8.32317,24.6646,-17.8049,-39.3981,-6.36596,-6.4905,-121.463,-15.3049,20.6098
548.131,6.33511,-7.40318,0,2.17228,9.63995,-2.1172,-8.44512,24.6646,-17.1951,-39.9441,-6.2031,-5.92528,-123.323,-15.7317,21.8293
548.141,6.31604,-7.43513,0,2.26808,9.60642,-2.07409,-7.95732,24.878,-16.128,-40.3082,-6.03066,-5.87738,-127.5,-17.3171,19.2378
548.151,6.31788,-7.45653,0,2.33275,9.52739,-2.08606,-8.62805,24.3902,-15,-40.3848,-5.55166,-5.7241,-129.177,-18.5671,16.372
548.161,6.35163,-7.46847,0,2.42855,9.51062,-2.1172,-9.2378,22.8049,-12.8963,-40.4519,-5.39837,-5.5804,-134.268,-19.4817,12.0122
548.171,6.43575,-7.47143,0,2.61057,9.41243,-2.01421,-10.4878,21.0671,-10.0915,-40.0591,-5.15887,-5.36963,-135.579,-18.4451,9.96951
548.181,6.57193,-7.48174,0,2.79259,9.39327,-1.89446,-12.3476,20.3659,-6.79878,-40.1357,-5.08223,-5.51333,-137.988,-18.1707,8.04878
548.191,6.7722,-7.46857,0,2.96024,9.36453,-1.75315,-13.5061,21.0061,-3.32317,-39.9633,-4.90021,-5.07265,-140.915,-17.1341,6.67683
548.201,7.27294,-7.45391,0,3.05125,9.38848,-1.61185,-15.5488,23.2927,0.304878,-40.3082,-5.19719,-5.08223,-143.75,-17.7134,5.51829
548.211,7.53705,-7.44527,0,3.04167,9.34776,-1.46575,-17.6829,24.6951,4.63415,-39.9441,-4.95769,-5.13013,-146.28,-16.7378,3.29268
548.221,7.84509,-7.44883,0,3.13508,9.34537,-1.3939,-18.75,25.4268,8.96341,-39.5897,-5.13013,-5.29299,-146.433,-16.1585,3.2622
548.231,8.18853,-7.49768,0,3.08,9.29986,-1.40827,-19.4817,25.3049,13.6585,-39.1203,-4.90979,-6.02108,-143.994,-13.628,2.19512
548.241,8.58453,-7.53252,0,3.13987,9.25436,-1.30768,-19.0549,24.939,18.872,-38.8233,-4.91937,-5.75284,-138.689,-10.3659,1.92073
548.251,9.03009,-7.55706,0,3.20933,9.21843,-1.18314,-18.3841,26.7683,23.811,-38.6029,-5.05349,-5.56124,-130.701,-9.20732,1.4939
548.261,9.52983,-7.55639,0,3.28357,9.22083,-0.946033,-18.1098,29.0854,29.4207,-38.555,-5.09181,-5.13971,-122.226,-10.7317,0.213415
548.271,10.0963,-7.55994,0,3.46799,9.20406,-0.797541,-18.872,30.8841,35.122,-38.1622,-5.14929,-5.16845,-112.774,-13.5061,1.98171
548.281,10.7729,-7.47657,0,3.8967,9.01964,-0.699346,-21.25,31.4329,41.9512,-39.6472,-5.29299,-3.8464,-102.53,-17.4695,-0.152439
548.291,11.5861,-7.39268,0,4.35415,8.60291,-0.495769,-22.9268,31.7988,50.1829,-39.9633,-4.99601,-3.83682,-89.6037,-25.4878,-0.335366
548.301,12.5545,-7.29013,0,4.86189,7.93709,-0.56283,-21.311,29.939,58.2012,-40.3465,-4.01884,-3.52068,-74.3902,-37.1646,0.731707
548.311,13.6907,-7.15201,0,5.38161,7.09405,-0.895737,-13.2622,25.7012,65.6707,-41.2087,-3.29076,-2.91713,-54.1159,-49.878,6.34146
548.321,14.9805,-7.04339,0,5.9612,6.43302,-1.29331,-1.61585,21.9817,72.1646,-41.8889,-3.06083,-3.45362,-30.5793,-61.4634,11.8598
548.331,16.3655,-6.91306,0,6.53601,6.21029,-1.85614,12.2561,22.8659,77.0732,-41.5248,-2.62973,-2.96503,-7.22561,-67.0732,19.5427
548.341,17.7901,-6.81228,0,7.09405,6.27974,-2.35191,28.0488,30.1829,79.8171,-39.7813,-2.18905,-3.28118,17.7134,-70.0915,25.1829
548.351,19.1582,-6.76362,0,7.65688,6.93837,-2.79978,41.0976,46.372,78.3232,-37.4246,-1.43222,-3.87514,38.5976,-66.2805,31.0061
548.361,20.3721,-6.76627,0,8.11912,8.48316,-3.32429,49.6646,74.5122,73.689,-36.0834,-0.579595,-4.51701,58.4451,-61.6159,38.4146
548.371,21.4258,-6.79577,0,8.29635,10.5908,-3.49673,52.4085,110.152,71.4024,-36.2845,-0.234712,-4.96727,77.9573,-57.3476,45.9451
548.381,22.267,-6.86287,0,7.23296,13.0624,-2.77104,42.8354,136.524,70.4268,-37.6545,-0.311353,-5.79116,91.1281,-51.189,50.3659
548.391,22.9637,-6.9766,0,5.70973,14.327,-1.35558,34.2073,147.378,72.1951,-38.6604,0.0622705,-6.77791,99.9085,-42.2256,52.4085
548.401,23.5493,-7.10346,0,3.98531,14.4539,0.129331,36.9817,145.671,75.1524,-39.8867,0.637075,-7.27607,104.543,-31.9207,55.7317
548.411,23.9764,-7.23151,0,1.44899,13.7426,2.56028,42.0427,120.183,79.3598,-40.471,0.684976,-7.46767,105.732,-23.7805,59.2683
548.421,24.1982,-7.31321,0,-1.71723,12.8181,5.38161,42.9573,71.6463,87.1341,-41.4386,0.914897,-6.86413,102.53,-22.378,63.0793
548.431,24.3757,-7.39283,0,-2.83091,12.6098,5.15408,42.8049,32.2256,93.3232,-41.8506,0.991538,-6.96951,97.1341,-26.4329,64.6646
548.441,24.5445,-7.51381,0,-2.88121,12.7032,1.65975,36.8293,34.0549,93.0488,-41.4003,1.07776,-7.75507,93.689,-32.7134,69.1159
548.451,24.668,-7.61093,0,-2.87642,11.3668,-0.972378,27.0427,46.372,91.6768,-41.065,1.67172,-7.36229,92.1037,-39.9695,74.7561
548.461,24.8159,-7.71053,0,-2.30401,10.3273,-1.19511,25.4268,34.3293,91.0976,-40.6339,1.50886,-7.41977,90.6402,-44.878,80.6707
548.471,25.0897,-7.81416,0,-1.0562,9.55134,-1.22864,22.2866,2.77439,91.4634,-39.8483,1.43222,-7.43893,94.6646,-49.9085,85.0915
548.481,25.5646,-7.89632,0,0.804727,8.92624,-1.56395,19.6951,-33.2012,89.1463,-39.2065,0.857417,-7.01741,101.402,-52.2866,85.3354
548.491,26.2213,-7.96494,0,2.42376,9.10107,-2.29682,15.122,-61.189,88.75,-38.3443,0.0622705,-6.69168,109.848,-54.5427,81.2805
548.501,26.9927,-8.02466,0,3.71228,8.58615,-2.58902,10.122,-67.8049,84.5122,-37.118,-0.435894,-6.37554,120.64,-55.2439,74.9695
548.511,27.7443,-8.08865,0,4.20326,8.36101,-1.91841,8.20122,-58.4756,77.3171,-36.16,-0.953218,-6.30848,128.232,-51.6463,66.9207
548.521,28.4729,-8.16551,0,4.60562,8.01374,-1.14242,7.07317,-42.8049,69.9695,-35.2595,-1.57592,-6.38512,134.878,-47.4695,59.7561
548.531,29.1861,-8.24419,0,4.92656,7.79818,-0.488584,9.63415,-28.4756,65,-35.0104,-2.01661,-6.40428,142.713,-43.2012,52.9573
548.541,29.9053,-8.3112,0,5.35047,7.41738,-0.371228,14.9085,-16.8293,59.878,-35.6523,-2.05493,-6.37554,148.75,-40.8841,47.2561
548.553,30.6787,-8.35583,0,5.79834,6.70605,-0.63947,21.4024,-7.46951,56.5854,-35.7193,-2.17947,-6.06898,154.085,-41.372,42.5915
548.561,31.467,-8.40745,0,6.18873,6.55517,-0.761616,26.0366,-1.06707,54.5732,-35.8247,-1.80584,-6.23184,156.28,-42.1646,39.8171
548.571,32.2382,-8.43974,0,6.35638,6.51924,-1.0107,31.3415,2.86585,52.561,-35.9876,-1.1544,-5.98276,159.421,-43.5976,35.6098
548.581,32.9599,-8.45763,0,6.12885,6.4905,-1.03225,32.8354,2.9878,50.9451,-36.2462,-0.301772,-5.81032,157.805,-43.5976,31.0061
548.591,33.6181,-8.49098,0,5.75763,6.55517,-1.13763,33.4146,0.182927,50.1524,-36.0355,1.02028,-6.04024,155.396,-43.5671,27.2866
548.601,34.2096,-8.5196,0,5.54208,6.60307,-1.20469,34.878,-4.02439,47.3171,-36.2079,2.01661,-6.00192,145.64,-40.0305,22.0122
548.611,34.7031,-8.51719,0,5.20198,6.67252,-1.44899,33.5671,-3.10976,42.7439,-36.342,3.07042,-5.52291,136.22,-36.8293,17.4085
548.621,35.1043,-8.52634,0,5.02954,6.58391,-1.31966,33.3537,-1.28049,35.4878,-36.0642,3.69312,-5.65704,125.915,-33.689,11.6463
548.631,35.3983,-8.55752,0,4.77567,6.48332,-1.21667,33.0793,0.823171,27.4085,-35.8822,4.74693,-5.97318,112.012,-27.7744,6.12805
548.641,35.5553,-8.59415,0,4.51701,6.70845,-0.989143,31.9512,-1.0061,18.9634,-35.8343,5.12055,-6.04982,97.1341,-20.2439,-0.121951
548.651,35.6358,-8.66722,0,4.5194,6.62702,-0.682581,30.5488,-3.47561,10.7927,-35.8055,5.26425,-6.6342,78.7195,-11.6463,-7.28659
548.661,35.6248,-8.75522,0,4.46432,6.75395,-0.455054,29.2378,-5.51829,4.11585,-35.9876,5.43669,-6.94077,60.3354,-5.39634,-13.8415
548.671,35.6258,-8.85352,0,4.70142,6.57193,-0.153281,26.189,-7.7439,0.762195,-36.1217,5.43669,-7.18027,42.9268,-1.03659,-21.189
548.681,35.6281,-8.96741,0,5.13732,6.70605,-0.0958008,25.3963,-10.9756,-4.02439,-36.8019,5.24509,-7.63053,25.3049,3.17073,-26.5549
548.692,35.6661,-9.10245,0,5.70015,6.49769,-0.0383203,24.4512,-16.7683,-7.65244,-37.2905,5.16845,-8.15744,9.14634,7.71341,-28.4756
548.701,35.7385,-9.22286,0,6.18394,6.27974,-0.0958008,26.0671,-20.5488,-10.7622,-38.2197,4.84273,-8.18618,-5.06098,10.8537,-29.1768
548.711,35.8149,-9.35253,0,6.75156,6.29651,-0.304167,27.8049,-21.25,-15.1829,-39.0053,4.46911,-8.6077,-15.7622,10.6402,-28.689
548.721,35.8892,-9.45391,0,7.09644,6.44021,-0.55804,27.8354,-22.1037,-16.8293,-39.9633,3.88472,-8.39694,-25.3963,9.42073,-28.5061
548.731,35.959,-9.53472,0,7.31439,6.55517,-0.775986,27.5,-22.6524,-17.8659,-41.1321,3.40572,-8.34904,-32.0427,4.11585,-28.2012
548.741,36.0412,-9.59763,0,7.65688,6.73958,-0.843047,26.4024,-19.7561,-17.5,-41.6398,2.66805,-8.19576,-37.622,-2.34756,-29.5427
548.751,36.1383,-9.65577,0,7.98979,6.87131,-0.898132,26.311,-15.5793,-17.1646,-41.5536,2.34233,-8.15744,-41.4939,-8.20122,-28.9634
548.761,36.2583,-9.70746,0,8.25803,6.98867,-1.04183,25.3963,-11.4329,-15.5488,-40.8447,2.12199,-7.95625,-42.8659,-12.5,-26.9512
548.771,36.4034,-9.79735,0,8.43526,7.00783,-1.15919,24.1463,-8.81098,-13.811,-40.0208,2.44771,-8.54064,-42.1341,-13.9634,-22.6829
548.781,36.5766,-9.88608,0,8.62926,6.98148,-1.05141,24.1463,-5.82317,-12.1646,-39.4747,2.30401,-8.464,-43.0793,-12.8963,-19.0244
548.791,36.7533,-10.0015,0,8.80888,7.18745,-0.955613,24.2683,-0.27439,-10.9756,-39.4843,2.26569,-9.01006,-45.122,-10.7012,-15.7927
548.801,36.8917,-10.119,0,8.61728,7.50839,-1.13763,21.7988,2.9878,-10.7317,-39.8483,2.30401,-9.20166,-49.1463,-7.16463,-12.0427
548.811,36.9779,-10.2284,0,8.33946,7.74549,-1.43701,15.6402,4.17683,-12.0732,-40.6626,2.50519,-9.31663,-55.1524,-4.5122,-9.60366
548.821,37.0306,-10.3463,0,8.24366,7.79818,-1.65735,11.1585,5,-14.2378,-41.6877,3.1279,-9.79563,-62.7439,-3.62805,-5.60976
548.831,37.0731,-10.5247,0,8.1742,7.60658,-1.81782,9.63415,9.32927,-16.128,-41.6302,3.83682,-11.041,-70.7012,-0.487805,-1.03659
548.841,37.1113,-10.7116,0,8.15265,7.49881,-1.76752,9.84756,15.8232,-17.1646,-42.2913,4.56491,-11.5105,-78.0793,4.05488,5.7622
548.851,37.1398,-10.944,0,7.67604,7.18985,-1.31966,13.6585,19.7866,-17.0122,-42.6649,4.88105,-12.6697,-85.8537,8.23171,8.35366
548.861,37.116,-11.196,0,6.86413,7.10363,-1.34121,17.8049,17.8049,-16.4634,-42.4829,5.19719,-13.1774,-91.2805,14.9695,9.39024
548.871,37.0041,-11.3914,0,6.057,7.17548,-1.32445,17.378,12.8659,-17.6524,-42.7511,5.57082,-12.2865,-95.4268,19.2988,9.69512
548.881,36.7744,-11.4459,0,5.42472,7.52276,-1.07057,13.9939,5.51829,-20.9756,-43.8624,5.49417,-9.88185,-92.8049,14.4817,9.32927
548.891,36.3907,-11.4471,0,5.10618,8.39694,-1.07776,11.9207,-2.7439,-27.9878,-45.1557,5.04391,-9.15376,-84.1463,3.65854,8.87195
548.901,35.8013,-11.4546,0,4.8547,10.095,-1.32205,6.76829,-9.57317,-38.2927,-46.0179,4.02842,-9.47949,-70.4573,-0.823171,5.57927
548.911,35.0187,-11.4829,0,4.15057,11.2326,-1.77231,3.84146,-12.3476,-48.1707,-47.2346,2.16031,-10.1693,-58.0793,3.59756,2.07317
548.921,34.0948,-11.5213,0,2.90516,11.441,-1.49449,-0.213415,-18.5976,-51.8902,-47.225,-0.617915,-10.3513,-45.4268,18.1098,-1.25
548.931,33.218,-11.4884,0,2.71116,11.532,-0.632285,-11.0061,-35.7012,-46.8902,-47.0238,-4.0859,-8.7514,-28.9634,30.3049,-7.16463
548.941,32.5209,-11.3577,0,3.69791,11.8793,0.0886157,-21.4939,-66.9207,-38.628,-48.1447,-6.74917,-6.78749,-4.2378,32.6829,-12.3476
548.951,32.0542,-11.1426,0,5.78158,12.0086,-0.838257,-19.3293,-92.3171,-33.7195,-49.1123,-8.83762,-4.95769,26.2195,32.8354,-19.7561
548.961,31.7658,-10.8222,0,7.5491,11.3931,-3.42009,-11.2805,-79.7256,-32.439,-50.0607,-9.40285,-2.54351,58.2927,28.9939,-26.311
548.971,31.5775,-10.4348,0,8.23647,10.8854,-5.35047,-7.95732,-36.189,-30.122,-49.8499,-8.77056,-0.780776,84.2378,28.2622,-30.7927
548.981,31.3005,-10.3436,0,6.2989,10.5477,-4.78046,-3.59756,-1.46341,-26.7683,-43.4792,-11.8266,-6.0594,91.7073,40.0305,-27.0427
548.991,30.7641,-9.7289,0,3.03209,10.7896,-3.08239,-7.46951,16.4329,-22.8963,-47.1675,-5.28341,4.46911,98.9024,47.3476,-18.0488
549.001,29.9202,-9.1093,0,0,10.2698,-1.04902,-7.10366,14.0549,-23.3232,-45.0695,-4.74693,4.87147,105.396,50.8232,-6.12805
549.011,28.7511,-8.42915,0,-2.56507,9.76449,-0.991538,-4.20732,-0.396341,-28.2012,-42.4924,-2.72553,6.17436,103.78,40.6402,5.45732
549.021,27.3613,-7.70324,0,-4.03321,9.38369,-2.019,-5.03049,-30.0305,-35.6707,-41.9655,-1.00112,7.44851,91.9512,32.9268,8.78049
549.031,25.9346,-6.90112,0,-3.82964,9.2831,-3.24046,-11.0366,-58.5671,-43.9939,-42.0326,0.493374,9.45075,76.4634,24.1463,2.22561
549.041,24.6482,-6.1044,0,-2.01182,9.35495,-3.9446,-18.1098,-77.1037,-53.5671,-42.1763,2.42855,9.96807,56.9512,16.0366,-7.83537
549.051,23.5574,-5.33064,0,0.193997,9.80042,-4.27511,-21.311,-82.4695,-63.3232,-41.8793,4.30625,10.0256,37.3171,5.57927,-17.378
549.061,22.5981,-4.588,0,1.82979,10.2363,-4.24876,-23.1707,-73.2012,-70.4878,-41.2087,5.71452,9.82437,14.9085,-2.71341,-22.0732
549.071,21.6578,-3.94281,0,2.20102,10.313,-3.74342,-23.5061,-61.7073,-74.4207,-40.1932,6.19352,8.31072,-7.86585,-4.5122,-22.8354
549.081,20.7363,-3.38394,0,2.28964,9.87706,-3.41051,-22.9878,-52.378,-76.4634,-39.4268,6.16478,7.04615,-27.1341,-7.56098,-21.189
549.091,19.8486,-2.87167,0,2.3567,9.21843,-3.33387,-21.372,-42.8049,-77.5305,-38.2868,5.25467,6.40428,-49.2683,-11.3415,-18.628
549.101,18.8821,-2.42709,0,1.58071,8.89271,-3.03688,-19.2378,-37.1037,-78.689,-37.0605,3.7985,5.38879,-67.0122,-16.5854,-16.128
549.111,17.7947,-2.07307,0,0.438289,8.80888,-2.85247,-17.1037,-39.7866,-78.2317,-36.4282,1.86333,4.09548,-79.8476,-19.8476,-16.0671
549.121,16.693,-1.81276,0,-0.0598755,8.79691,-3.22849,-17.8963,-49.0854,-75.3049,-36.0259,-0.541274,2.76385,-86.2805,-22.8963,-19.7866
549.131,15.7083,-1.61871,0,0.443079,8.63405,-3.36979,-20,-56.6463,-72.4085,-35.6427,-2.93629,1.85375,-87.1951,-22.2561,-28.0488
549.141,14.8408,-1.49181,0,0.984353,8.54543,-3.30034,-20.6098,-62.3171,-69.8781,-35.384,-4.74693,0.914897,-82.8049,-21.189,-36.0366
549.151,14.092,-1.41064,0,1.57592,8.5574,-3.33866,-19.8171,-68.3232,-67.4085,-35.1349,-6.23184,0.282612,-74.0244,-19.6037,-43.2927
549.161,13.4816,-1.40842,0,2.46448,8.44484,-3.39853,-19.0244,-67.6524,-66.7378,-35.02,-7.20901,-0.876577,-61.7988,-16.0366,-49.0854
549.171,12.888,-1.39021,0,2.48603,8.30353,-3.15664,-16.6768,-66.0671,-67.0732,-35.6044,-8.45442,-0.637075,-47.8659,-15.4573,-55.0915
549.181,12.3494,-1.37981,0,2.82852,8.30353,-3.03928,-14.8476,-63.9329,-67.0427,-35.8343,-8.92384,-0.761616,-33.2317,-18.1402,-59.6037
549.191,11.8591,-1.359,0,3.00814,8.28677,-3.10395,-12.8049,-60.2134,-65.5488,-35.6523,-8.43526,-0.598755,-18.1098,-21.8293,-61.9512
549.201,11.3337,-1.33553,0,2.38065,8.36341,-3.09916,-9.96951,-57.4695,-61.8293,-35.4032,-7.49641,-0.550855,-4.05488,-25.2744,-60.3049
549.211,10.8873,-1.3353,0,2.62973,8.37059,-3.11113,-8.53659,-53.3841,-58.0183,-35.6331,-7.09405,-0.914897,7.80488,-28.5061,-57.3171
549.221,10.463,-1.31224,0,2.55549,8.35383,-2.79259,-6.67683,-49.7866,-55.7927,-35.5469,-6.54798,-0.560435,18.1402,-30.3354,-55.3659
549.231,10.0504,-1.2712,0,2.52914,8.56938,-2.61536,-5.12195,-47.3476,-54.2988,-35.7193,-6.04982,-0.273032,26.7073,-32.7439,-54.4817
549.241,9.62673,-1.26583,0,2.22976,8.93821,-2.58902,-6.76829,-44.939,-51.311,-35.1828,-5.6283,-0.799937,32.1037,-33.7195,-53.2927
549.251,9.25373,-1.23013,0,2.20102,8.7035,-2.50519,-10.0915,-41.5244,-47.378,-35.1062,-4.84273,-0.330513,35.4573,-35.3963,-51.7683
549.261,8.9173,-1.1881,0,2.2106,8.73703,-2.62255,-13.689,-39.6341,-44.4207,-35.1158,-4.25834,-0.215552,37.561,-36.9207,-49.6951
549.271,8.61001,-1.18944,0,2.27766,8.90468,-2.51717,-15.4268,-36.4024,-42.439,-35.0008,-3.69312,-0.857417,39.3902,-36.6463,-45.7927
549.281,8.30506,-1.22299,0,2.20821,8.94061,-2.41178,-15.061,-34.6037,-41.8598,-34.5889,-3.56858,-1.33642,38.9024,-35.5793,-40.6707
549.291,7.98721,-1.29172,0,2.10043,8.86636,-2.32317,-14.3902,-35.0915,-42.6829,-33.9566,-3.28118,-1.85375,33.5976,-33.5671,-36.2805
549.301,7.64263,-1.37915,0,1.88728,8.98132,-2.36628,-14.5122,-37.8049,-43.0793,-33.4201,-3.28118,-2.13157,30.2744,-30.3049,-31.3415
549.311,7.31098,-1.50834,0,1.94715,8.99569,-2.39502,-13.4756,-38.2622,-43.1707,-32.8645,-3.23328,-2.74469,25.2134,-26.7683,-27.1951
549.321,6.98133,-1.66047,0,1.94715,9.01246,-2.57225,-12.8963,-37.8049,-43.5976,-32.6633,-3.32908,-3.11832,19.3902,-20.8841,-23.0488
549.331,6.66611,-1.85707,0,1.98787,8.76577,-2.72074,-12.9573,-35.0305,-43.9939,-32.4717,-3.43446,-3.81766,15.8232,-16.2195,-18.9634
549.341,6.33431,-2.07216,0,1.85375,8.69392,-2.70398,-12.439,-31.4939,-44.8171,-32.3088,-3.48236,-4.16254,11.5549,-10.6402,-15.8232
549.351,6.00079,-2.35085,0,1.97829,8.97893,-2.76864,-12.1951,-25.5793,-46.4634,-32.2034,-3.6548,-5.17803,9.63415,-4.96951,-10.9756
549.361,5.6515,-2.63999,0,1.94955,9.01725,-2.79738,-13.0793,-17.5915,-48.2927,-31.9352,-3.4153,-5.42711,6.09756,1.4939,-5.12195
549.371,5.24159,-3.00553,0,1.64059,9.09628,-2.67284,-13.7805,-7.80488,-51.1585,-31.6765,-3.02251,-6.6342,3.38415,8.47561,1.46341
549.381,4.78188,-3.44418,0,1.30768,9.25675,-2.48603,-14.7256,-1.79878,-52.622,-31.4274,-2.80217,-7.83171,0.365854,18.1098,9.60366
549.391,4.28491,-3.94237,0,1.11608,9.12502,-2.28006,-14.0244,0.853659,-55.1829,-30.3545,-2.37107,-8.63644,-0.0609756,28.811,19.8171
549.401,3.76125,-4.44824,0,0.929268,9.07952,-2.12199,-12.5915,-0.853659,-56.6159,-30.1341,-2.47645,-8.93342,-0.914634,41.25,30.4573
549.411,3.2312,-4.95532,0,0.797541,9.03401,-1.95673,-12.3171,-6.21951,-56.7073,-30.2204,-2.76385,-9.23999,-2.28659,50.9451,40.7622
549.421,2.76543,-5.3401,0,1.14242,8.95977,-2.05972,-12.3171,-12.8659,-55.7622,-30.7856,-3.33866,-7.89877,-4.11585,56.8902,47.1037
549.431,2.41309,-5.55805,0,1.78908,8.86397,-2.29682,-13.689,-19.4512,-53.5976,-32.4717,-4.23918,-6.0594,-8.90244,55.3354,50.122
549.441,2.19075,-5.66418,0,2.65847,8.95019,-2.62255,-16.25,-23.9939,-51.5244,-35.4894,-5.31215,-4.98643,-16.7378,48.5061,45.8841
549.451,2.07681,-5.7475,0,3.39374,8.97653,-2.82373,-18.628,-25.9146,-49.4207,-38.009,-5.48459,-5.03433,-24.0549,45.0915,38.811
549.461,2.00184,-5.84105,0,3.50631,8.82086,-2.68003,-19.4207,-25.5183,-47.6524,-40.5573,-5.42711,-5.61872,-28.1707,44.9695,31.4024
549.471,1.94935,-5.95024,0,3.49912,8.66279,-2.59381,-16.7378,-17.9268,-46.1585,-42.9235,-4.75651,-6.31806,-26.2805,45.4268,25.9451
549.481,1.86974,-6.0074,0,3.08,8.5574,-2.50519,-12.439,-9.42073,-44.5427,-44.1881,-4.49785,-5.55166,-23.4756,47.0122,27.5
549.491,1.73941,-6.01323,0,2.50519,8.80649,-2.65368,-9.17683,-0.762195,-41.8902,-45.9796,-4.93853,-4.77567,-21.2805,45.4268,28.872
549.501,1.59358,-6.05284,0,2.08846,8.93821,-2.9315,-6.92073,5.39634,-38.1707,-46.5544,-5.06307,-5.55166,-26.0061,43.0488,25.8841
549.511,1.43986,-6.16265,0,1.70765,9.1825,-3.26681,-7.0122,9.29878,-33.9329,-45.5102,-5.37921,-6.89287,-30,43.1402,20.2134
549.521,1.25576,-6.37351,0,1.08973,9.45314,-3.2692,-8.53659,8.93293,-29.2683,-44.236,-5.76242,-8.7993,-28.4756,47.8963,11.4939
549.531,1.06654,-6.66403,0,0.63468,9.93215,-3.30752,-9.69512,4.17683,-24.2073,-43.0481,-6.26058,-10.2842,-24.5427,55.3049,1.64634
549.541,0.897979,-6.98325,0,0.390388,10.5956,-3.3195,-13.1707,-5.42683,-19.3293,-42.1571,-7.17069,-10.8303,-17.6524,64.0854,-8.01829
549.551,0.777095,-7.21017,0,0.294587,11.2374,-3.35063,-18.3537,-14.939,-13.5671,-43.5654,-8.5598,-9.56571,-9.63415,66.6159,-18.1098
549.561,0.75009,-7.26671,0,0.677791,11.6637,-3.63085,-22.6829,-23.628,-7.95732,-44.8683,-8.38736,-6.5863,-3.78049,57.9573,-24.878
549.571,0.793404,-7.28732,0,0.979563,11.9272,-3.7506,-25.0305,-29.0549,-3.65854,-47.8956,-10.2555,-6.32764,-3.84146,52.8049,-30.1829
549.581,0.934107,-7.38995,0,1.54479,12.1811,-3.82245,-27.3476,-31.0366,0.0914634,-49.62,-10.38,-8.38736,-4.42073,57.5305,-32.3476
549.591,1.17801,-7.53151,0,2.24892,12.3703,-3.78174,-28.5061,-28.9329,5.7622,-51.0091,-10.1884,-9.52739,-4.48171,77.7744,-33.5366
549.601,1.56278,-7.58334,0,3.07042,12.2673,-3.753,-30.5183,-31.1585,12.9878,-52.1492,-9.56571,-7.68801,-4.02439,91.7378,-34.6646
549.611,2.12911,-7.59403,0,4.01645,11.7715,-3.66917,-32.9573,-33.872,22.5305,-52.791,-9.51781,-6.82581,1.4939,98.1707,-39.0854
549.621,2.9129,-7.67833,0,5.15648,10.9955,-3.59732,-35.9756,-33.1402,33.0488,-50.9995,-8.55022,-8.24366,10.5488,109.268,-44.0549
549.631,3.89215,-7.74628,0,6.02108,10.1621,-3.25244,-38.4756,-29.6646,43.3232,-48.5662,-5.9636,-7.50599,21.189,122.988,-42.1646
549.641,5.03636,-7.75005,0,6.67731,9.86509,-2.47645,-39.0854,-24.0244,55.122,-46.1424,-3.54942,-5.82948,30.5488,129.512,-32.9878
549.651,6.33344,-7.62168,0,7.09165,9.73096,-1.59508,-40.6098,-20.7622,68.9939,-43.8528,-1.4897,-2.99377,29.939,121.829,-21.25
549.661,7.81291,-7.3131,0,7.72633,9.41482,-0.895737,-44.0244,-13.689,83.5366,-41.9464,0.225132,0.493374,17.8659,101.646,-6.76829
549.671,9.42962,-6.84233,0,7.86524,8.87115,-0.249082,-48.4146,4.39024,96.0976,-41.0363,0.637075,3.53984,2.5,71.7683,2.53049
549.681,11.1064,-6.28318,0,6.99585,8.30832,0.376018,-47.5305,25.6098,108.506,-40.7584,1.21188,5.36963,-5.70122,45.9451,9.42073
549.691,12.7886,-5.70201,0,5.384,7.15632,0.136516,-38.689,44.0549,118.902,-39.925,2.39981,6.00192,-4.72561,31.5854,14.1768
549.701,14.3114,-4.98095,0,3.24525,6.31806,-1.07776,-25.0305,59.5732,126.006,-40.5668,2.82133,9.06754,-2.43902,18.8415,19.6951
549.711,15.638,-4.5477,0,1.66693,6.03305,-1.93039,-8.38415,78.1402,133.049,-38.3347,-0.186812,4.0859,4.54268,25.0915,22.439
549.721,16.7714,-3.92985,0,0.392783,6.86652,-1.71244,5.97561,86.311,140.884,-44.5713,-1.346,8.73224,2.43902,6.09756,16.9512
549.731,17.8141,-3.43413,0,-0.541274,8.27958,-0.922083,12.0122,71.4024,148.262,-43.4696,-1.89207,6.62462,7.56098,15.4878,9.54268
549.741,18.7566,-3.01895,0,-1.88249,10.186,-0.275427,11.311,42.0427,153.902,-43.4025,-3.32908,5.42711,7.37805,15.5793,0.853659
549.751,19.6929,-2.70841,0,-2.43094,12.0781,-0.694556,10.1524,22.7744,157.043,-43.4696,-4.86189,3.71228,12.2561,11.7683,-9.69512
549.761,20.7297,-2.46333,0,-1.84896,13.9917,-2.42376,10.0305,24.7561,161.341,-42.023,-5.24509,2.57225,17.7744,4.48171,-18.4451
549.771,21.8767,-2.28581,0,-0.265847,15.412,-4.18889,8.32317,27.5305,161.372,-40.2028,-4.97685,1.41306,25,-1.31098,-18.8415
549.781,23.1481,-2.15234,0,2.14354,16.1065,-5.13971,5.15244,22.2866,158.902,-38.2101,-4.30625,0.704136,34.7561,-5.82317,-11.7378
