time,angle1,angle2,intgangle,accX1,accY1,accZ1,gyroX1,gyroY1,gyroZ1,accX2,accY2,accZ2,gyroX2,gyroY2,gyroZ2
573.909,87.9779,0.544676,0,9.8603,0.256267,0.172441,0,0.182927,-1.55488,-39.3406,-2.45729,0.416733,-15.2439,-4.11585,5.12195
573.919,87.9733,0.539685,0,9.84114,0.273032,0.208367,-0.27439,0.213415,-1.67683,-39.2352,-2.50519,0.273032,-14.6037,-4.02439,5.36585
573.929,87.97,0.544943,0,9.83395,0.261057,0.196392,-0.152439,0.396341,-1.7378,-39.3214,-2.62015,0.445474,-14.4817,-4.72561,4.54268
573.939,87.9665,0.543483,0,9.82677,0.273032,0.172441,-0.0609756,0.0914634,-1.61585,-39.216,-2.59141,0.330513,-15.7012,-5.09146,5.30488
573.949,87.9678,0.537543,0,9.85072,0.251477,0.244292,-0.0914634,0.182927,-1.52439,-39.513,-2.60099,0.253872,-14.6037,-5.12195,5
573.959,87.9697,0.544822,0,9.85072,0.253872,0.189207,0.0304878,0.121951,-1.46341,-39.4556,-2.49561,0.483794,-15.7927,-3.81098,6.18902
573.969,87.9697,0.549135,0,9.84832,0.258662,0.182021,0.0609756,0.27439,-1.52439,-39.2352,-2.46687,0.435894,-14.939,-3.47561,4.42073
573.979,87.9691,0.551471,0,9.82437,0.265847,0.172441,-0.0914634,0.182927,-1.4939,-39.4651,-2.47645,0.407153,-14.3293,-3.44512,5.09146
573.989,87.9684,0.559086,0,9.80521,0.263452,0.138911,-0.0609756,0.121951,-1.52439,-39.5705,-2.49561,0.502954,-15.7317,-3.14024,4.69512
573.999,87.9674,0.552939,0,9.83395,0.270637,0.225132,-0.0914634,0.426829,-1.46341,-39.3598,-2.62015,0.263452,-14.3598,-4.11585,5.54878
574.009,87.9731,0.55037,0,9.82677,0.239502,0.165256,-0.182927,0.243902,-1.37195,-39.3789,-2.50519,0.320933,-16.189,-4.26829,5.2439
574.019,87.9714,0.562773,0,9.83874,0.258662,0.191602,-0.0914634,0.27439,-1.64634,-39.3598,-2.57225,0.579595,-15.6707,-4.02439,5.30488
574.029,87.9703,0.568733,0,9.83874,0.275427,0.263452,-0.0609756,0.304878,-1.40244,-39.4076,-2.42855,0.474214,-15.3659,-4.81707,4.78659
574.039,87.9672,0.561797,0,9.83156,0.287402,0.201182,-0.0914634,0,-1.40244,-39.3406,-2.47645,0.253872,-15.9451,-4.81707,5.85366
574.049,87.9622,0.560079,0,9.83635,0.289797,0.191602,-0.121951,0.0304878,-1.52439,-39.1586,-2.56267,0.340093,-15.2744,-4.20732,5.30488
574.059,87.9634,0.556258,0,9.8603,0.258662,0.165256,-0.0304878,0,-1.46341,-39.3598,-2.53393,0.301772,-14.5427,-4.90854,5.12195
574.069,87.9658,0.545813,0,9.82437,0.251477,0.229922,-0.152439,-0.121951,-1.46341,-39.4651,-2.64889,0.186812,-14.5732,-4.29878,4.60366
574.079,87.9644,0.54599,0,9.8579,0.270637,0.196392,-0.243902,-0.365854,-1.4939,-39.2448,-2.63931,0.359253,-15.2439,-5.21341,4.54268
574.089,87.9669,0.54664,0,9.81958,0.258662,0.184417,0.213415,-0.243902,-1.37195,-39.2927,-2.67763,0.368833,-13.9024,-4.96951,4.96951
574.099,87.9685,0.550672,0,9.82916,0.265847,0.234712,-0.0609756,-0.152439,-1.34146,-39.2831,-2.57225,0.426313,-15.1829,-5.39634,3.96341
574.109,87.9686,0.563389,0,9.85072,0.256267,0.170046,0.304878,-0.27439,-1.55488,-39.2927,-2.54351,0.579595,-15.061,-5.39634,4.26829
574.119,87.9623,0.562735,0,9.83635,0.273032,0.153281,0.0609756,-0.182927,-1.82927,-39.1394,-2.64889,0.359253,-14.878,-4.2378,4.69512
574.129,87.9622,0.560797,0,9.85311,0.256267,0.193997,0.0609756,-0.121951,-1.58537,-39.1777,-2.52435,0.340093,-15.0305,-3.32317,5.51829
574.139,87.9717,0.546243,0,9.84832,0.217947,0.184417,0,-0.213415,-1.37195,-39.3406,-2.60099,0.119751,-15,-3.81098,4.63415
574.149,87.9809,0.53794,0,9.82916,0.225132,0.225132,0.243902,0.121951,-1.31098,-39.2448,-2.66805,0.215552,-14.8476,-4.42073,5.09146
574.159,87.9835,0.532263,0,9.82197,0.244292,0.162861,-0.243902,0.121951,-1.4939,-39.4268,-2.52435,0.253872,-15.2134,-5.18293,4.90854
574.169,87.9853,0.531042,0,9.82916,0.232317,0.220342,-0.121951,0,-1.67683,-39.3023,-2.48603,0.330513,-14.1768,-3.96341,4.39024
574.179,87.9915,0.515412,0,9.84353,0.227527,0.201182,0,-0.0914634,-1.43293,-39.4651,-2.65847,0.0814307,-15.1524,-3.65854,4.69512
574.189,87.993,0.511321,0,9.84353,0.227527,0.186812,-0.0609756,-0.0914634,-1.7378,-39.446,-2.50519,0.273032,-14.7256,-3.14024,4.11585
574.199,87.9932,0.516952,0,9.82437,0.256267,0.217947,0.0609756,-0.27439,-1.4939,-39.3693,-2.66805,0.435894,-14.5427,-3.87195,4.66463
574.209,87.9918,0.534651,0,9.84832,0.256267,0.160466,-0.0914634,-0.182927,-1.61585,-39.3023,-2.83091,0.646655,-14.5427,-4.29878,4.29878
574.219,87.9896,0.543221,0,9.84114,0.268242,0.170046,-0.0609756,0,-1.52439,-39.331,-2.54351,0.502954,-14.5427,-3.71951,3.23171
574.229,87.9939,0.545314,0,9.8555,0.246687,0.148491,-0.0304878,0,-1.34146,-39.2065,-2.62015,0.397573,-15.061,-3.04878,4.17683
574.239,87.9983,0.547948,0,9.82197,0.222737,0.186812,-0.182927,0.152439,-1.58537,-39.3693,-2.75427,0.407153,-14.1159,-3.90244,5.06098
574.249,87.9917,0.54612,0,9.85072,0.285007,0.105381,0.0914634,0.0914634,-1.64634,-39.2256,-2.54351,0.330513,-14.8171,-3.84146,4.63415
574.259,87.9873,0.553698,0,9.85072,0.282612,0.229922,-0.182927,0.0914634,-1.52439,-39.2352,-2.62973,0.493374,-14.8476,-3.44512,3.90244
574.269,87.9859,0.557368,0,9.84353,0.253872,0.162861,0.0914634,0.182927,-1.64634,-39.264,-2.59141,0.426313,-15.3354,-4.90854,4.42073
574.279,87.98,0.544154,0,9.83874,0.277822,0.196392,0.0304878,-0.152439,-1.70732,-39.3502,-2.48603,0.138911,-16.0976,-4.32927,3.59756
574.289,87.9843,0.543884,0,9.84353,0.253872,0.174836,-0.0609756,0.152439,-1.28049,-39.5609,-2.63931,0.359253,-15.6402,-3.44512,4.39024
574.299,87.9792,0.556072,0,9.84114,0.285007,0.179626,0.304878,-0.0304878,-1.55488,-39.3214,-2.46687,0.570015,-14.6341,-4.26829,4.29878
574.309,87.9841,0.571965,0,9.8124,0.239502,0.198787,0.0304878,0,-1.40244,-39.1394,-2.66805,0.637075,-14.6037,-5.03049,4.02439
574.319,87.9831,0.56779,0,9.81,0.270637,0.182021,-0.304878,-0.304878,-1.43293,-39.3119,-2.66805,0.301772,-14.7866,-5.39634,4.20732
574.329,87.9819,0.565416,0,9.81479,0.256267,0.146096,0.0304878,-0.213415,-1.61585,-39.4076,-2.60099,0.330513,-16.8293,-5.51829,4.05488
574.339,87.983,0.560424,0,9.82437,0.258662,0.182021,0.152439,-0.213415,-1.43293,-39.2544,-2.64889,0.282612,-14.2988,-5.42683,3.59756
574.349,87.979,0.552282,0,9.85311,0.263452,0.179626,-0.213415,-0.213415,-1.7378,-39.3119,-2.56267,0.225132,-15.3659,-5.39634,3.2622
574.359,87.9868,0.561426,0,9.86269,0.225132,0.205972,-0.0914634,0.121951,-1.37195,-39.4172,-2.67763,0.522114,-15.9146,-4.90854,3.71951
574.369,87.9839,0.570071,0,9.86509,0.258662,0.191602,-0.0304878,0.0914634,-1.70732,-39.2065,-2.52435,0.512534,-14.7256,-6.21951,4.48171
574.379,87.9871,0.580594,0,9.85311,0.220342,0.177231,0.0304878,0.182927,-1.70732,-39.2927,-2.62015,0.550855,-15.2744,-6.58537,3.62805
574.389,87.9889,0.591024,0,9.8603,0.258662,0.174836,0.0914634,0.213415,-1.37195,-39.3023,-2.59141,0.560435,-15.2134,-5.45732,3.75
574.399,87.9955,0.603523,0,9.88904,0.232317,0.215552,0.0914634,0.335366,-1.34146,-39.3406,-2.70637,0.598755,-15.3354,-7.0122,4.5122
574.409,87.9928,0.599298,0,9.8603,0.261057,0.153281,0.152439,0.243902,-1.64634,-39.1394,-2.60099,0.311353,-17.2256,-8.29268,4.54268
574.419,87.9949,0.586592,0,9.83874,0.234712,0.141306,0.182927,0.304878,-1.61585,-39.3119,-2.88839,0.167651,-15.8841,-6.89024,4.54268
574.429,87.9954,0.586356,0,9.84832,0.249082,0.167651,0.243902,0.27439,-1.55488,-39.2735,-2.75427,0.368833,-16.1585,-8.59756,5.27439
574.439,87.9968,0.572246,0,9.81719,0.246687,0.162861,0.0914634,0.365854,-1.52439,-39.3023,-2.72553,0.129331,-14.4207,-8.38415,4.90854
574.449,88.0003,0.577154,0,9.83395,0.227527,0.153281,0.0914634,0.213415,-1.58537,-39.2831,-2.76385,0.445474,-14.5732,-9.39024,5.57927
574.459,88.0022,0.580498,0,9.83635,0.261057,0.198787,0.243902,0.457317,-1.31098,-39.1873,-2.62015,0.426313,-14.9085,-7.7439,5.85366
574.469,88.0039,0.584708,0,9.87706,0.232317,0.182021,0,0.487805,-1.64634,-39.3119,-2.69679,0.445474,-14.2683,-7.59146,6.03659
574.479,87.999,0.587413,0,9.84832,0.265847,0.153281,0.152439,0.304878,-1.7378,-39.3885,-2.62015,0.426313,-13.2927,-6.64634,5.2439
574.489,87.9966,0.598836,0,9.83156,0.261057,0.162861,0.304878,0.121951,-1.61585,-39.4268,-2.68721,0.579595,-13.4451,-6.79878,6.4939
574.499,87.9951,0.597686,0,9.83635,0.265847,0.184417,-0.0914634,-0.182927,-1.4939,-39.2927,-2.74469,0.368833,-11.6463,-6.46341,6.03659
574.509,87.9859,0.595664,0,9.80042,0.294587,0.191602,-0.213415,-0.27439,-1.7378,-39.3214,-2.80217,0.349673,-12.561,-7.5,5.85366
574.519,87.9847,0.602783,0,9.8076,0.261057,0.167651,-0.182927,-0.304878,-1.55488,-39.3981,-2.62015,0.502954,-12.561,-8.90244,4.84756
574.529,87.9823,0.617875,0,9.82437,0.265847,0.198787,-0.365854,-0.121951,-1.58537,-39.3119,-2.57225,0.646655,-13.3537,-8.38415,4.96951
574.539,87.9797,0.623051,0,9.82197,0.275427,0.184417,-0.487805,-0.121951,-1.4939,-39.2927,-2.56267,0.483794,-13.2012,-8.71951,5.67073
574.549,87.9776,0.640403,0,9.8555,0.280217,0.217947,-0.487805,-0.27439,-1.40244,-39.3119,-2.56267,0.694556,-13.7805,-9.90854,5.4878
574.559,87.9826,0.644228,0,9.83635,0.244292,0.210762,-0.609756,-0.457317,-1.34146,-39.3119,-2.64889,0.474214,-13.0488,-9.26829,5.97561
574.569,87.9919,0.654673,0,9.83874,0.213157,0.215552,-0.365854,-0.426829,-1.40244,-39.3119,-2.35191,0.589175,-13.5976,-9.96951,5.06098
574.579,87.9941,0.667055,0,9.86269,0.239502,0.131726,-0.518293,-0.609756,-1.55488,-39.264,-2.49561,0.627495,-13.811,-10.4573,5.30488
574.589,87.9991,0.680177,0,9.82916,0.244292,0.232317,-0.487805,-0.548781,-1.31098,-39.3502,-2.66805,0.656235,-14.0549,-8.68902,6.15854
574.599,88,0.681326,0,9.86748,0.232317,0.191602,-0.365854,-0.823171,-1.70732,-39.331,-2.51477,0.455054,-12.8659,-9.35976,5.2439
574.609,88.0038,0.681276,0,9.86509,0.241897,0.165256,-0.396341,-0.335366,-1.40244,-39.0819,-2.48603,0.435894,-14.4512,-8.29268,5.57927
574.619,88.005,0.696001,0,9.83874,0.229922,0.155676,-0.457317,-0.335366,-1.70732,-39.1011,-2.41897,0.694556,-13.9634,-7.16463,6.18902
574.629,88.0098,0.693426,0,9.8603,0.232317,0.179626,-0.0914634,-0.243902,-1.43293,-39.0723,-2.54351,0.407153,-14.6341,-6.85976,5.33537
574.639,88.0104,0.694367,0,9.86509,0.234712,0.146096,-0.0914634,-0.0914634,-1.67683,-38.9957,-2.62973,0.464634,-15.5488,-6.98171,5.09146
574.649,88.0115,0.693255,0,9.88425,0.220342,0.172441,-0.0609756,0,-1.79878,-39.1681,-2.72553,0.435894,-15.4573,-5.79268,6.0061
574.659,88.0106,0.717005,0,9.87227,0.244292,0.131726,0.0914634,-0.0609756,-1.67683,-39.2831,-2.61057,0.866997,-16.2195,-5.79268,6.03659
574.669,88.0114,0.733944,0,9.83874,0.237107,0.114961,0.304878,0.0304878,-1.64634,-39.0723,-2.46687,0.761616,-16.0061,-5.67073,5.54878
574.679,88.0105,0.749761,0,9.84353,0.246687,0.0766406,0.335366,0.0914634,-1.64634,-39.331,-2.54351,0.761616,-15.8537,-4.84756,5.70122
574.689,88.0032,0.770357,0,9.84593,0.289797,0.122146,0,0.243902,-1.61585,-39.216,-2.57225,0.857417,-16.0366,-3.5061,5.30488
574.699,88.0023,0.793844,0,9.87227,0.256267,0.138911,0.0304878,0.304878,-1.55488,-39.149,-2.49561,0.924478,-17.1037,-2.16463,4.05488
574.709,87.9967,0.811711,0,9.84353,0.273032,0.170046,0,0.762195,-1.70732,-39.1107,-2.54351,0.838257,-17.5305,-3.47561,4.90854
574.719,87.9894,0.816964,0,9.85072,0.285007,0.162861,0.0914634,0.640244,-1.70732,-39.3023,-2.75427,0.637075,-16.4634,-3.17073,3.9939
574.729,87.9854,0.828939,0,9.8603,0.277822,0.146096,0.304878,0.701219,-1.55488,-39.1969,-2.62973,0.752036,-16.6463,-4.08537,3.87195
574.739,87.9831,0.851155,0,9.8555,0.268242,0.174836,0.152439,0.762195,-1.55488,-39.4172,-2.53393,0.943638,-17.1341,-3.75,4.02439
574.749,87.9773,0.87006,0,9.83874,0.280217,0.153281,0.396341,0.914634,-1.67683,-39.2831,-2.51477,0.895737,-17.2256,-4.5122,4.20732
574.759,87.9699,0.864303,0,9.82197,0.304167,0.217947,0.365854,0.792683,-1.4939,-39.3885,-2.68721,0.483794,-16.7073,-4.2378,4.35976
574.769,87.9765,0.879387,0,9.84353,0.237107,0.191602,0.243902,0.426829,-1.34146,-39.2352,-2.57225,0.838257,-15.8537,-4.29878,4.14634
574.779,87.974,0.888314,0,9.81719,0.280217,0.198787,0.487805,0.670732,-1.43293,-39.2448,-2.63931,0.742456,-16.8598,-4.2378,4.42073
574.789,87.9857,0.880147,0,9.82916,0.222737,0.186812,0.27439,0.884146,-1.18902,-39.2927,-2.58183,0.455054,-16.5549,-3.75,4.69512
574.799,87.9825,0.884375,0,9.84593,0.270637,0.256267,0.243902,0.701219,-1.58537,-39.3789,-2.74469,0.665815,-16.6159,-3.68902,5.73171
574.809,87.9803,0.881396,0,9.83874,0.289797,0.239502,0.27439,0.335366,-1.28049,-39.1203,-2.51477,0.541274,-15.7317,-3.32317,4.54268
574.819,87.9802,0.878912,0,9.83635,0.273032,0.191602,-0.121951,0.457317,-1.34146,-39.2448,-2.51477,0.550855,-17.2256,-2.92683,5.42683
574.829,87.9816,0.889415,0,9.85072,0.251477,0.203577,-0.152439,0.27439,-1.4939,-39.0628,-2.58183,0.771196,-16.2195,-2.65244,5
574.839,87.9851,0.883748,0,9.83874,0.244292,0.193997,0.0609756,0.365854,-1.43293,-39.3023,-2.61057,0.502954,-14.6646,-2.65244,5.06098
574.849,87.988,0.881066,0,9.86269,0.227527,0.222737,0.0914634,0.304878,-1.64634,-39.2256,-2.66805,0.550855,-15.7622,-2.31707,4.54268
574.859,87.9888,0.869544,0,9.84593,0.253872,0.177231,-0.0609756,0.243902,-1.4939,-39.2544,-2.66805,0.397573,-14.8476,-1.98171,4.7561
574.869,87.9885,0.866889,0,9.82916,0.265847,0.172441,-0.243902,-0.152439,-1.43293,-39.2544,-2.65847,0.541274,-14.6646,-2.53049,4.69512
574.879,87.9931,0.870656,0,9.85072,0.227527,0.162861,0.0609756,-0.304878,-1.52439,-39.3119,-2.75427,0.646655,-14.3293,-3.96341,4.93902
574.889,87.9924,0.869888,0,9.83635,0.249082,0.155676,0.152439,-0.0304878,-1.64634,-39.2544,-2.66805,0.570015,-16.4634,-3.90244,5.7622
574.899,87.9902,0.868013,0,9.80042,0.265847,0.174836,-0.182927,0,-1.55488,-39.2831,-2.60099,0.550855,-15.4573,-3.87195,6.25
574.909,87.9877,0.855093,0,9.84353,0.268242,0.217947,0.0304878,0.0304878,-1.55488,-39.331,-2.62973,0.359253,-15.4573,-3.71951,5.57927
574.919,87.9883,0.867129,0,9.83395,0.265847,0.167651,-0.0609756,-0.182927,-1.37195,-39.2352,-2.82133,0.780776,-14.5122,-3.84146,5.94512
574.929,87.9944,0.868187,0,9.82197,0.225132,0.256267,-0.0304878,-0.121951,-1.46341,-39.2927,-2.66805,0.598755,-15.7317,-4.20732,6.21951
574.939,87.9914,0.850577,0,9.84114,0.277822,0.234712,-0.0304878,0.0609756,-1.46341,-39.2927,-2.38065,0.273032,-14.5427,-5.12195,6.98171
574.949,87.9949,0.849885,0,9.84593,0.237107,0.186812,-0.243902,-0.0609756,-1.4939,-39.4556,-2.44771,0.560435,-15,-3.90244,6.4939
574.959,88.0043,0.848267,0,9.83395,0.201182,0.234712,-0.182927,0.0304878,-1.4939,-39.4268,-2.32317,0.541274,-16.189,-4.54268,6.37195
574.969,88.0167,0.827497,0,9.8555,0.184417,0.165256,0,-0.0609756,-1.46341,-39.446,-2.38065,0.205972,-15.7622,-4.96951,5.91463
574.979,88.0284,0.826919,0,9.8579,0.217947,0.215552,-0.182927,-0.152439,-1.15854,-39.1586,-2.49561,0.541274,-14.6037,-4.2378,4.93902
574.989,88.0364,0.825031,0,9.85072,0.215552,0.205972,-0.0914634,0.121951,-1.37195,-39.1681,-2.66805,0.522114,-15.7012,-3.14024,5.64024
574.999,88.0403,0.811408,0,9.82437,0.201182,0.158071,-0.152439,0.0304878,-1.76829,-39.2735,-2.55309,0.320933,-14.2683,-2.59146,5.09146
575.009,88.0413,0.812935,0,9.85311,0.227527,0.129331,0.0304878,0.213415,-1.67683,-39.1586,-2.48603,0.570015,-14.1463,-3.23171,6.21951
575.019,88.0313,0.820819,0,9.82916,0.270637,0.217947,-0.121951,0,-2.0122,-39.1203,-2.58183,0.675395,-13.5366,-4.63415,7.31707
575.029,88.0272,0.824809,0,9.81958,0.282612,0.205972,-0.121951,-0.121951,-1.40244,-39.034,-2.60099,0.617915,-15.2744,-2.95732,7.34756
575.039,88.0228,0.840404,0,9.84832,0.256267,0.165256,-0.213415,0.121951,-1.76829,-39.1107,-2.47645,0.819097,-15.6707,-3.81098,6.61585
575.049,88.0162,0.831377,0,9.83395,0.277822,0.258662,0.0914634,0.0609756,-1.67683,-39.3502,-2.44771,0.407153,-15.7317,-3.96341,7.13415
575.059,88.0099,0.849022,0,9.84832,0.275427,0.184417,-0.121951,0.396341,-1.70732,-39.1681,-2.62973,0.857417,-16.2195,-4.63415,5.70122
575.069,88.006,0.870123,0,9.85311,0.258662,0.162861,0.0914634,0.27439,-1.7378,-39.2352,-2.36149,0.934058,-15.8537,-3.65854,6.12805
575.079,88.0027,0.893226,0,9.8555,0.273032,0.167651,0.0304878,0.304878,-1.52439,-39.2448,-2.55309,0.981958,-15.4573,-4.08537,6.03659
575.089,88.0011,0.904156,0,9.82677,0.282612,0.205972,0.121951,0.152439,-1.28049,-39.216,-2.62015,0.790356,-15.8537,-2.95732,5.4878
575.099,88.0007,0.918916,0,9.83156,0.258662,0.158071,-0.152439,0,-1.4939,-39.2448,-2.58183,0.866997,-13.75,-2.28659,5.03049
575.109,87.9944,0.91911,0,9.8579,0.296982,0.196392,0.0914634,-0.0914634,-1.46341,-39.2735,-2.59141,0.627495,-14.9695,-1.70732,4.72561
575.119,87.9935,0.919859,0,9.85072,0.277822,0.160466,-0.0914634,-0.213415,-1.31098,-39.3598,-2.62973,0.637075,-15.3354,-2.16463,5.2439
575.129,87.9924,0.914236,0,9.84832,0.256267,0.179626,-0.0609756,0.0609756,-1.58537,-39.3023,-2.55309,0.522114,-15.8537,-3.38415,5.57927
575.139,87.9945,0.913773,0,9.84353,0.256267,0.179626,-0.121951,-0.335366,-1.37195,-39.3119,-2.57225,0.608335,-14.9085,-3.23171,5.18293
575.149,87.9927,0.914069,0,9.85072,0.282612,0.189207,0.152439,-0.121951,-1.31098,-39.1586,-2.53393,0.617915,-14.7256,-3.47561,5.27439
575.159,87.9991,0.924769,0,9.83874,0.256267,0.165256,0.0609756,-0.396341,-1.09756,-39.216,-2.44771,0.799937,-15.2439,-3.17073,4.32927
575.169,88.002,0.912783,0,9.84114,0.270637,0.162861,0.152439,-0.304878,-1.12805,-39.1681,-2.43813,0.416733,-15.0915,-2.53049,5.70122
575.179,88.011,0.903959,0,9.83395,0.249082,0.179626,0.0609756,-0.396341,-1.0061,-39.2256,-2.59141,0.464634,-14.878,-2.28659,5.36585
575.189,88.014,0.902139,0,9.82916,0.263452,0.136516,0.152439,0.0914634,-1.18902,-39.149,-2.78301,0.579595,-15.1524,-1.98171,5.2439
575.199,88.015,0.889695,0,9.81719,0.270637,0.146096,-0.0914634,0.426829,-1.21951,-39.3119,-2.55309,0.397573,-14.8476,-1.70732,5.15244
575.209,88.0199,0.887507,0,9.81,0.239502,0.158071,-0.182927,0.27439,-1.34146,-39.4364,-2.60099,0.570015,-16.4634,-1.28049,4.72561
575.219,88.0246,0.890808,0,9.83635,0.227527,0.205972,-0.213415,0.670732,-1.46341,-39.4364,-2.34233,0.665815,-14.939,-0.731707,4.84756
575.229,88.024,0.89019,0,9.82197,0.253872,0.174836,-0.182927,0.457317,-1.52439,-39.2831,-2.33275,0.598755,-15.4268,-0.396341,5.21341
575.239,88.0316,0.893299,0,9.83395,0.227527,0.229922,-0.457317,-0.0304878,-1.28049,-39.3406,-2.42855,0.665815,-16.7683,0.182927,5.33537
575.249,88.0378,0.894968,0,9.84593,0.239502,0.244292,-0.121951,-0.0304878,-1.21951,-39.3981,-2.58183,0.637075,-16.25,-1.82927,5.88415
575.259,88.0398,0.895716,0,9.85311,0.251477,0.196392,-0.27439,-0.335366,-1.34146,-39.3023,-2.65847,0.617915,-17.0732,-2.65244,4.32927
575.269,88.0441,0.87029,0,9.85072,0.234712,0.215552,-0.121951,-0.182927,-1.37195,-39.3598,-2.64889,0.158071,-17.1037,-4.7561,4.7561
575.279,88.0488,0.865018,0,9.85311,0.232317,0.210762,-0.579268,-0.487805,-1.37195,-39.4939,-2.58183,0.493374,-17.1037,-4.32927,4.26829
575.289,88.0465,0.848754,0,9.84353,0.251477,0.208367,-0.548781,-0.243902,-1.61585,-39.2448,-2.58183,0.301772,-16.9512,-2.77439,5.15244
575.299,88.0551,0.832706,0,9.83874,0.215552,0.222737,-0.457317,-0.640244,-1.31098,-39.5226,-2.62015,0.292192,-16.2195,-4.02439,5.39634
575.309,88.0691,0.807537,0,9.8579,0.198787,0.191602,-0.0914634,-0.762195,-1.15854,-39.3885,-2.62973,0.119751,-14.9085,-4.63415,5.51829
575.319,88.0762,0.781573,0,9.83395,0.222737,0.220342,0.213415,-0.97561,-1.28049,-39.2927,-2.53393,0.0910107,-14.6646,-3.87195,4.54268
575.329,88.0778,0.775003,0,9.86509,0.244292,0.177231,-0.0914634,-0.670732,-1.37195,-39.4651,-2.54351,0.407153,-14.2683,-4.96951,5.12195
575.339,88.0818,0.767267,0,9.84114,0.253872,0.158071,-0.152439,-0.396341,-1.09756,-39.3502,-2.68721,0.378413,-14.6646,-5.79268,5.57927
575.349,88.0803,0.75518,0,9.81958,0.261057,0.165256,-0.243902,-0.121951,-1.37195,-38.9957,-2.52435,0.292192,-15.3659,-6.61585,4.90854
575.359,88.0784,0.761828,0,9.79084,0.273032,0.129331,-0.548781,-0.304878,-1.25,-39.1394,-2.65847,0.608335,-15.2134,-6.58537,5.79268
575.369,88.0853,0.761724,0,9.82677,0.225132,0.193997,-0.701219,-0.518293,-1.25,-39.331,-2.61057,0.502954,-14.5427,-5.36585,5.7622
575.379,88.0888,0.770486,0,9.86269,0.237107,0.222737,-0.670732,-0.609756,-1.31098,-39.216,-2.60099,0.656235,-16.5244,-4.90854,5.06098
575.389,88.1049,0.77223,0,9.85311,0.201182,0.170046,-0.27439,-0.884146,-0.97561,-39.2352,-2.46687,0.541274,-15.4268,-4.87805,4.7561
575.399,88.1199,0.773878,0,9.86269,0.174836,0.122146,-0.0304878,-1.0061,-1.25,-39.3214,-2.68721,0.541274,-16.0061,-5.09146,5.15244
575.409,88.1307,0.780556,0,9.86509,0.198787,0.0550855,0.548781,-0.670732,-1.21951,-39.2352,-2.66805,0.627495,-15.1829,-5.30488,5.70122
575.419,88.1371,0.760968,0,9.93454,0.261057,0.0958008,0.640244,-0.457317,-0.731707,-39.2448,-2.41897,0.177231,-15.5793,-5.4878,5.12195
575.429,88.1413,0.752127,0,9.94891,0.289797,0.131726,0.365854,-0.182927,-0.426829,-39.3693,-2.75427,0.349673,-15.1524,-5.82317,5.85366
575.439,88.1413,0.751646,0,9.86988,0.296982,0.191602,-0.182927,-0.518293,-0.579268,-39.446,-2.52435,0.493374,-16.25,-4.72561,5.45732
575.449,88.1539,0.748412,0,9.84114,0.246687,0.203577,-0.518293,-0.121951,-0.548781,-39.4268,-2.64889,0.445474,-14.7561,-4.57317,5.06098
575.459,88.1576,0.758022,0,9.79323,0.261057,0.170046,-0.518293,0.396341,-0.853659,-39.3789,-2.44771,0.656235,-16.0366,-7.34756,5.97561
575.469,88.1723,0.751195,0,9.75731,0.234712,0.146096,-0.548781,1.03659,-0.579268,-39.5609,-2.45729,0.378413,-15,-7.59146,5
575.479,88.1827,0.742646,0,9.82916,0.261057,0.146096,-0.152439,1.06707,-0.396341,-39.628,-2.57225,0.340093,-14.4817,-8.81098,4.69512
575.489,88.1946,0.728361,0,9.82916,0.280217,0.0886157,-0.0609756,1.0061,0.304878,-39.4172,-2.61057,0.234712,-13.0793,-8.23171,5.21341
575.499,88.2135,0.729141,0,9.94891,0.256267,0.153281,-0.182927,1.03659,0.670732,-39.3885,-2.80217,0.483794,-13.872,-8.96341,5.15244
575.509,88.2344,0.734319,0,9.96568,0.246687,0.177231,-0.518293,0.396341,0.853659,-39.6951,-2.58183,0.560435,-14.6341,-10.3049,6.0061
575.519,88.2626,0.747785,0,9.96807,0.205972,0.237107,-0.213415,-0.0914634,0.762195,-39.5705,-2.80217,0.704136,-12.8049,-11.0976,5.64024
575.529,88.2999,0.779946,0,9.96089,0.162861,0.239502,-0.640244,-0.243902,0.518293,-39.6855,-2.65847,1.03944,-13.1402,-12.0427,7.0122
575.539,88.2958,0.78225,0,9.85072,0.316143,0.313748,-1.40244,-0.182927,0.27439,-39.5035,-2.74469,0.531694,-13.4451,-13.5366,6.12805
575.549,88.2992,0.803129,0,9.87227,0.287402,0.340093,-2.13415,0.457317,0.152439,-39.5897,-2.67763,0.857417,-12.8659,-13.9024,6.89024
575.559,88.3029,0.812286,0,9.86509,0.299377,0.253872,-2.95732,0.914634,0.548781,-39.5801,-2.64889,0.665815,-13.1402,-14.2683,6.34146
575.569,88.3192,0.815422,0,9.86988,0.249082,0.182021,-2.53049,0.823171,0.670732,-39.6472,-2.52435,0.560435,-12.1341,-16.4939,6.67683
575.579,88.3442,0.850606,0,9.84593,0.210762,0.0622705,-1.76829,0.914634,0.945122,-39.6663,-2.41897,1.11608,-13.0793,-18.628,4.81707
575.589,88.3617,0.888776,0,9.75491,0.239502,0.0958008,-0.97561,0.0914634,0.823171,-40.0208,-2.10283,1.19272,-13.5366,-21.7073,4.35976
575.599,88.3768,0.917066,0,9.72857,0.239502,0.119751,-1.4939,-0.213415,0.457317,-40.107,-2.16989,1.03944,-14.5427,-23.9634,4.90854
575.609,88.3972,0.953924,0,9.66869,0.220342,0.239502,-2.19512,-0.792683,0.731707,-40.0878,-2.14115,1.2023,-14.8171,-26.25,4.57317
575.619,88.4023,0.989784,0,9.68546,0.261057,0.308958,-2.22561,-1.0061,0.182927,-40.1357,-2.24653,1.2023,-14.8476,-29.0244,3.96341
575.629,88.4311,1.01763,0,9.75252,0.186812,0.289797,-2.40854,-1.06707,0.243902,-39.8867,-2.61057,1.06818,-15.1829,-32.1037,3.07927
575.639,88.504,1.03935,0,9.75491,0.0622705,0.268242,-1.58537,-1.85976,-0.0304878,-39.6184,-2.41897,0.972378,-16.0671,-32.378,3.53659
575.649,88.5529,1.04817,0,9.82916,0.0790356,0.227527,-1.15854,-2.80488,-0.27439,-39.513,-2.58183,0.752036,-15.7622,-34.6646,4.42073
575.659,88.5681,1.04679,0,9.84832,0.165256,0.205972,-1.06707,-3.96341,-0.548781,-39.5897,-2.38065,0.579595,-14.7256,-35.2744,4.60366
575.669,88.5694,1.07986,0,9.82677,0.244292,0.158071,-1.43293,-4.35976,0.0914634,-39.628,-2.48603,1.17356,-15.122,-37.5305,3.81098
575.679,88.5698,1.10992,0,9.80521,0.258662,0.201182,-1.12805,-4.39024,0.426829,-39.7813,-2.60099,1.14482,-15.3963,-38.4756,3.2622
575.689,88.5742,1.13946,0,9.75252,0.270637,0.0622705,-1.09756,-3.65854,1.03659,-39.8196,-2.36149,1.1544,-15.9146,-39.4512,2.65244
575.699,88.5885,1.16679,0,9.76928,0.229922,0.0550855,-0.792683,-2.71341,1.21951,-39.992,-2.54351,1.13524,-14.5122,-41.1585,2.5
575.709,88.6171,1.21037,0,9.80042,0.150886,0.122146,-0.640244,-2.40854,1.18902,-40.1932,-2.47645,1.4418,-13.9329,-42.9878,2.16463
575.719,88.666,1.23987,0,9.79323,0.0598755,0.0981958,-1.0061,-2.5,0.640244,-40.3178,-2.52435,1.22146,-12.5305,-44.4512,0.853659
575.729,88.7118,1.25821,0,9.83874,0.0742456,0.138911,-0.97561,-2.53049,0.365854,-39.992,-2.57225,1.02986,-12.5,-46.0366,0.457317
575.739,88.7422,1.28465,0,9.95849,0.126936,0.217947,-2.2561,-1.67683,0,-39.9058,-2.64889,1.17356,-11.1585,-48.811,-0.0914634
575.749,88.7561,1.3325,0,10.0878,0.177231,0.189207,-2.80488,0.0609756,0.396341,-39.6088,-2.77343,1.54718,-10.3659,-51.7073,0.670732
575.759,88.7732,1.36813,0,10.0519,0.162861,0.155676,-2.77439,0.670732,0.487805,-39.5609,-2.77343,1.35558,-9.45122,-54.4817,0.670732
575.769,88.7954,1.40657,0,10.0327,0.148491,0.00479004,-1.85976,1.03659,1.09756,-39.5801,-2.78301,1.42264,-10.2134,-56.6463,1.03659
575.779,88.8187,1.45656,0,10.0112,0.134121,-0.0455054,-1.31098,1.31098,0.914634,-39.3981,-2.58183,1.6334,-9.78659,-59.6037,1.0061
575.789,88.8575,1.49165,0,9.88904,0.0598755,-0.0886157,-1.18902,1.58537,0.701219,-39.3885,-2.72553,1.40348,-8.38415,-61.0061,3.29268
575.799,88.9188,1.52922,0,9.84832,-0.0191602,-0.0622705,-0.396341,2.71341,0.396341,-39.5514,-2.83091,1.47054,-7.19512,-62.8659,2.65244
575.809,88.9962,1.58342,0,9.77886,-0.0934058,0.0383203,-0.182927,2.65244,-0.335366,-39.6663,-2.84049,1.78668,-7.0122,-64.4207,1.85976
575.819,89.0361,1.65754,0,9.71659,-0.105381,0.0383203,0.213415,2.16463,-1.28049,-39.9154,-3.06083,2.17947,-7.04268,-66.6159,2.34756
575.829,89.0501,1.72814,0,9.73096,-0.119751,0.0814307,0.670732,1.70732,-2.56098,-40.0208,-2.91713,2.16989,-7.5,-68.0793,1.40244
575.839,89.0552,1.79697,0,9.8076,-0.0981958,0.196392,1.31098,1.4939,-2.92683,-40.107,-2.84049,2.18905,-9.93902,-69.1159,1.82927
575.849,89.0466,1.86226,0,9.81958,-0.0239502,0.174836,1.31098,0.640244,-3.2622,-40.1453,-2.97461,2.16989,-9.69512,-71.0976,2.68293
575.859,89.0273,1.91504,0,9.83874,0.0287402,0.232317,0.701219,-0.457317,-3.65854,-40.0591,-2.81175,1.98787,-9.2378,-71.5549,3.44512
575.869,89.0023,1.96659,0,9.81719,0.0838257,0.201182,0.426829,-1.15854,-3.59756,-39.925,-2.53393,1.98787,-10.3354,-74.0244,3.75
575.879,88.9717,2.02296,0,9.78605,0.107776,0.179626,0.182927,-1.12805,-3.90244,-39.8579,-2.77343,2.09325,-10.3049,-77.5305,3.84146
575.889,88.9369,2.10043,0,9.78605,0.119751,0.134121,0.213415,-0.792683,-4.2378,-40.0591,-2.64889,2.50519,-11.9512,-81.0061,5.51829
575.899,88.9031,2.18009,0,9.82916,0.136516,0.124541,0.27439,-0.0609756,-4.02439,-39.9346,-2.76385,2.58183,-11.9207,-83.4146,4.87805
575.909,88.8767,2.25952,0,9.82197,0.0718506,0.138911,0.304878,0.0609756,-4.11585,-39.7813,-2.60099,2.62015,-11.25,-84.3902,4.7561
575.919,88.8433,2.36573,0,9.79084,0.117356,0.119751,0.640244,0.0914634,-4.32927,-39.8483,-2.60099,3.14706,-11.0671,-86.0671,3.87195
575.929,88.8103,2.46761,0,9.75491,0.134121,0.0886157,0.609756,0.152439,-4.14634,-40.1166,-2.46687,3.15664,-11.0061,-88.75,4.20732
575.939,88.779,2.59112,0,9.77647,0.134121,0.0981958,0.853659,-0.0609756,-4.05488,-39.992,-2.38065,3.59732,-11.311,-90.2439,4.66463
575.949,88.755,2.69878,0,9.81719,0.0814307,0.100591,0.457317,-0.243902,-4.02439,-39.7334,-2.26569,3.3674,-11.9817,-94.0549,3.29268
575.959,88.7313,2.80838,0,9.79803,0.0862207,0.150886,0.365854,-0.0609756,-3.9939,-39.4747,-2.28485,3.45362,-12.9573,-94.2073,2.86585
575.969,88.6996,2.91567,0,9.82197,0.146096,0.155676,0.609756,0.182927,-4.11585,-39.3598,-2.18905,3.47278,-12.1646,-96.0976,3.81098
575.979,88.6582,3.00878,0,9.75491,0.227527,0.186812,0.457317,-0.152439,-4.14634,-39.4556,-2.35191,3.30034,-13.0488,-98.0488,3.84146
575.989,88.6191,3.11491,0,9.75731,0.196392,0.184417,-0.121951,-0.0609756,-4.39024,-39.4939,-2.63931,3.58774,-13.75,-100.64,4.93902
575.999,88.587,3.25642,0,9.75252,0.126936,0.217947,0.152439,0.121951,-4.60366,-39.7046,-2.67763,4.28709,-12.9268,-106.25,4.93902
576.009,88.5533,3.38516,0,9.78366,0.117356,0.244292,0.762195,0.426829,-4.93902,-39.8962,-3.20454,4.16254,-12.0122,-111.341,6.37195
576.019,88.5174,3.52857,0,9.79084,0.131726,0.210762,1.28049,0,-5.06098,-40.0495,-3.21412,4.51701,-10.3963,-115.488,6.40244
576.029,88.4812,3.66817,0,9.80042,0.119751,0.182021,1.31098,-0.701219,-5.30488,-39.9346,-3.26202,4.52659,-10.122,-118.598,7.62195
576.039,88.4435,3.84206,0,9.80281,0.136516,0.143701,1.21951,-1.06707,-5.33537,-39.8867,-3.15664,5.21635,-7.62195,-122.927,8.90244
576.049,88.4066,4.00709,0,9.79563,0.146096,0.134121,1.46341,-1.18902,-5.21341,-39.7717,-3.09916,5.15887,-7.04268,-125.03,9.81707
576.059,88.3595,4.24353,0,9.83395,0.191602,0.134121,0.823171,-1.28049,-5.79268,-41.2949,-3.23328,6.79707,-4.45122,-127.47,10.3354
576.069,88.3074,4.43923,0,9.83395,0.208367,0.186812,0.487805,-1.34146,-6.18902,-40.0878,-2.85965,6.0115,-3.56707,-132.744,10.5183
576.079,88.25,4.61116,0,9.83395,0.234712,0.165256,0.335366,-1.0061,-6.52439,-39.6184,-2.80217,5.66662,-2.46951,-129.543,12.2866
576.089,88.1915,4.76415,0,9.77647,0.234712,0.0958008,0.0304878,-1.09756,-6.7378,-39.1298,-2.80217,5.37921,-2.92683,-130.701,13.5976
576.099,88.1319,4.92577,0,9.85311,0.232317,0.150886,-0.0609756,-0.914634,-7.0122,-39.1873,-2.86923,5.6283,-0.731707,-135.854,13.4451
576.109,88.0697,5.08134,0,9.80042,0.249082,0.129331,0.304878,-0.853659,-7.19512,-39.216,-2.85007,5.6283,-1.12805,-138.78,13.4146
576.119,88.0137,5.27027,0,9.87706,0.220342,0.143701,0,-1.31098,-7.04268,-39.0915,-2.99377,6.28932,-0.0609756,-143.933,13.0183
576.129,87.9509,5.49706,0,9.98484,0.294587,0.0934058,0.213415,-1.28049,-7.0122,-39.1203,-3.01293,7.07489,0.731707,-150.793,13.1707
576.139,87.8893,5.73501,0,9.92496,0.306563,0.148491,-0.152439,-1.67683,-6.85976,-39.3406,-2.92671,7.45809,0.945122,-155.793,12.1341
576.149,87.8298,5.97822,0,9.86748,0.289797,0.146096,-0.762195,-2.19512,-6.95122,-39.5035,-2.96503,7.74549,0.27439,-158.262,12.378
576.159,87.7748,6.22339,0,9.80521,0.210762,0.217947,-1.40244,-2.40854,-7.53049,-39.1873,-2.87881,7.88919,0.945122,-158.994,11.4024
576.169,87.7188,6.43455,0,9.81479,0.203577,0.210762,-1.7378,-2.62195,-7.83537,-39.0532,-2.63931,7.43893,1.28049,-155.762,11.3415
576.179,87.6582,6.6603,0,9.81479,0.205972,0.138911,-1.79878,-2.65244,-8.38415,-38.7466,-2.57225,7.80297,2.34756,-151.341,12.5
576.189,87.5876,6.89709,0,9.72138,0.261057,0.0718506,-1.76829,-3.01829,-8.84146,-38.5263,-2.62015,8.11912,0.731707,-149.421,12.439
576.199,87.509,7.1507,0,9.67588,0.301772,0.0550855,-1.89024,-2.89634,-9.29878,-38.5838,-2.42855,8.58854,0.121951,-151.982,13.2012
576.209,87.4256,7.41747,0,9.5202,0.265847,0.0838257,-1.92073,-2.89634,-10.3354,-38.4688,-2.11241,8.96216,-1.79878,-156.159,12.561
576.219,87.3445,7.68699,0,9.21843,0.167651,0.191602,-1.46341,-5.42683,-11.4024,-38.4401,-2.04535,9.1825,-3.04878,-159.329,11.5549
576.229,87.2471,7.9899,0,9.6184,0.287402,0.182021,-1.28049,-4.72561,-11.8598,-38.2868,-1.95913,9.91059,-2.46951,-166.402,11.0061
576.239,87.1469,8.28972,0,9.56092,0.330513,0.227527,-0.792683,-5.88415,-11.7988,-38.1143,-2.07409,10.0064,-2.86585,-171.89,11.0366
576.249,87.0476,8.59201,0,9.87706,0.385598,0.182021,-0.731707,-5.91463,-11.4024,-37.8269,-2.15073,10.1788,-1.4939,-174.238,9.57317
576.259,86.9613,8.89693,0,10.1022,0.383203,0.0958008,0.182927,-6.95122,-10.3963,-37.53,-2.26569,10.3609,0.243902,-173.506,9.20732
576.269,86.8845,9.20105,0,10.3776,0.467029,-0.0910107,1.21951,-6.55488,-8.78049,-37.233,-2.26569,10.4854,0.548781,-171.463,9.57317
576.279,86.8133,9.48758,0,10.4758,0.543669,-0.0838257,1.55488,-6.15854,-7.56098,-36.7444,-2.30401,10.2651,0.182927,-167.348,9.54268
576.289,86.7386,9.76372,0,10.6123,0.66821,-0.158071,0.213415,-4.93902,-6.76829,-36.1696,-2.20821,10.1309,0.640244,-164.39,10.4268
576.299,86.6579,10.0602,0,10.3273,0.716111,-0.122146,-1.25,-3.84146,-6.79878,-36.2271,-2.09325,10.6962,-1.0061,-161.646,10.4573
576.309,86.5828,10.371,0,9.97526,0.627495,-0.0143701,-3.29268,-1.70732,-7.13415,-36.2175,-2.21779,11.1464,1.0061,-162.073,10.1524
576.319,86.5067,10.7206,0,9.62319,0.538879,0.153281,-4.87805,-1.15854,-8.20122,-36.3516,-2.31359,12.0853,1.82927,-163.75,11.189
576.329,86.4336,11.0654,0,9.51062,0.510139,0.0958008,-4.26829,0,-8.32317,-36.6869,-2.10283,12.3535,1.7378,-165.091,13.2927
576.339,86.3593,11.4109,0,9.50583,0.529299,-0.0407153,-2.16463,0.640244,-8.35366,-36.8689,-2.17947,12.6697,3.07927,-166.738,11.4024
576.35,86.2893,11.7635,0,9.59924,0.598755,-0.131726,0.182927,0.548781,-7.28659,-37.051,-2.11241,13.1103,4.26829,-167.744,11.8598
576.359,86.221,12.1099,0,9.69743,0.708926,-0.0981958,1.25,-0.823171,-6.0061,-37.0701,-2.28485,13.254,6.40244,-168.902,12.2866
576.369,86.1564,12.4566,0,9.80042,0.754431,-0.122146,1.09756,-2.89634,-5.30488,-36.6103,-2.39981,13.3498,8.75,-168.049,11.8293
576.379,86.1039,12.7929,0,9.85072,0.752036,-0.0239502,0.0914634,-4.63415,-4.26829,-36.524,-2.16031,13.3882,10.1829,-165.305,12.2866
576.389,86.0646,13.1323,0,9.89143,0.677791,0.102986,-0.823171,-5.73171,-3.96341,-35.7864,-2.08367,13.4169,9.2378,-164.085,13.628
576.399,86.0315,13.4951,0,9.87946,0.603545,0.134121,-1.64634,-5.97561,-4.29878,-35.7385,-2.08367,14.0588,9.57317,-165.61,14.4207
576.409,85.9952,13.8853,0,9.81719,0.58678,0.186812,-2.37805,-4.42073,-4.84756,-35.5565,-1.54718,14.7389,6.12805,-168.445,14.2683
576.419,85.956,14.2952,0,9.82437,0.62989,0.0742456,-1.85976,-2.19512,-4.69512,-35.4798,-1.37474,15.3425,5.91463,-172.073,12.9268
576.429,85.9066,14.6844,0,9.8579,0.723296,-0.0455054,-1.12805,0.182927,-4.72561,-35.4894,-1.37474,15.2563,1.95122,-173.72,12.7744
576.439,85.8523,15.0994,0,9.83874,0.826282,-0.122146,-0.640244,1.09756,-4.05488,-35.4223,-1.23104,16.0035,-1.31098,-172.165,9.78659
576.449,85.8071,15.4898,0,9.77407,0.783171,-0.114961,-1.46341,-0.457317,-3.68902,-35.384,-1.08734,15.8311,-3.35366,-172.5,8.90244
576.459,85.7702,15.8729,0,9.68785,0.728086,0.0143701,-3.01829,-1.95122,-3.53659,-35.1445,-0.953218,15.8886,-6.06707,-168.78,6.95122
576.469,85.7479,16.2348,0,9.66869,0.59157,0.0742456,-4.45122,-3.62805,-3.84146,-34.8667,-1.1065,15.6586,-8.01829,-167.378,7.10366
576.479,85.7352,16.5694,0,9.6184,0.486189,0.196392,-5.36585,-4.60366,-4.17683,-34.7709,-1.19272,15.3808,-8.78049,-166.098,6.03659
576.489,85.708,16.9042,0,9.59924,0.55325,0.239502,-5.45732,-4.45122,-4.78659,-34.359,-1.14482,15.4479,-11.6159,-164.421,6.95122
576.499,85.6747,17.284,0,9.63756,0.62031,0.167651,-4.96951,-3.84146,-4.66463,-34.3111,-1.28852,16.4921,-12.3171,-166.616,6.89024
576.509,85.635,17.697,0,9.7621,0.718506,0.0694556,-3.68902,-3.07927,-4.29878,-34.5601,-1.6334,17.5076,-12.9878,-171.311,5.54878
576.519,85.5979,18.0907,0,9.81,0.766406,0.0263452,-3.20122,-3.29268,-3.56707,-34.7517,-1.76752,17.5459,-12.0427,-171.616,5.09146
576.529,85.5574,18.4774,0,9.91299,0.859812,-0.0167651,-2.53049,-4.17683,-2.89634,-34.5122,-2.00703,17.6034,-10.6707,-167.744,4.81707
576.539,85.5227,18.8711,0,9.86509,0.821492,-0.0119751,-3.04878,-5.12195,-2.83537,-34.4452,-1.97829,18.0153,-9.17683,-163.506,3.56707
576.549,85.4934,19.2806,0,9.87467,0.814307,0.0407153,-4.26829,-6.03659,-2.43902,-34.2823,-2.06451,18.5422,-9.60366,-162.805,4.48171
576.559,85.4759,19.6649,0,9.81958,0.692161,0.0718506,-5.39634,-6.67683,-2.86585,-34.0236,-1.99745,18.2261,-7.83537,-163.262,5.91463
576.569,85.4611,20.058,0,9.74294,0.6251,0.0502954,-6.40244,-6.34146,-3.38415,-33.4297,-1.97829,18.3698,-6.70732,-162.043,7.77439
576.579,85.4302,20.4474,0,9.62079,0.699346,-0.0143701,-6.7378,-5.64024,-3.96341,-32.989,-1.98787,18.3506,-3.71951,-162.622,9.14634
576.589,85.3981,20.8381,0,9.62798,0.744851,-0.148491,-6.09756,-5.60976,-3.59756,-32.7303,-1.80584,18.5327,-1.70732,-160.244,10.4573
576.599,85.3629,21.2539,0,9.67348,0.843047,-0.225132,-4.66463,-5.7622,-2.71341,-32.7495,-1.81542,19.3278,-1.67683,-160.061,10.6098
576.609,85.3139,21.6759,0,9.70462,0.972378,-0.239502,-4.45122,-7.07317,-2.34756,-32.5579,-1.4418,19.6535,-1.61585,-160,9.84756
576.619,85.282,22.087,0,9.71899,0.898132,-0.165256,-4.90854,-8.38415,-1.4939,-32.7591,-1.57592,19.9026,-1.21951,-157.012,7.59146
576.629,85.2857,22.4844,0,9.75491,0.766406,-0.0718506,-5.64024,-9.42073,-0.609756,-32.9124,-1.52802,20.0559,-1.58537,-154.787,4.32927
576.639,85.3153,22.8787,0,9.77647,0.63947,-0.0718506,-6.06707,-10.2439,-0.792683,-32.7112,-1.49928,20.2092,-2.07317,-147.805,2.92683
576.649,85.3476,23.2678,0,9.82916,0.56762,-0.146096,-5.97561,-9.69512,-1.18902,-32.5962,-1.6334,20.3625,-3.75,-144.238,0.731707
576.659,85.3641,23.6806,0,9.82677,0.598755,-0.270637,-5.18293,-8.44512,-1.61585,-32.3376,-1.7292,20.9852,-5.18293,-143.598,0.426829
576.669,85.3867,24.1266,0,9.87467,0.584385,-0.337698,-4.7561,-7.56098,-1.40244,-31.9735,-1.85375,21.7516,-7.89634,-144.482,0.121951
576.679,85.4129,24.5524,0,9.95849,0.529299,-0.407153,-4.39024,-6.31098,-1.61585,-31.8969,-1.91123,21.6366,-9.66463,-147.317,0.609756
576.689,85.4301,24.9707,0,9.87467,0.565225,-0.469424,-4.81707,-6.12805,-1.76829,-31.7244,-1.88249,21.7132,-10.9451,-146.707,1.79878
576.699,85.4339,25.3892,0,9.86269,0.570015,-0.455054,-5.42683,-6.18902,-2.56098,-31.4466,-1.76752,21.8761,-11.8598,-144.39,3.84146
576.709,85.4333,25.773,0,9.82677,0.598755,-0.500559,-4.90854,-6.09756,-2.59146,-31.1209,-1.97829,21.2917,-11.128,-142.012,4.96951
576.719,85.4362,26.1895,0,9.92257,0.56283,-0.481399,-4.39024,-5.36585,-2.71341,-30.8239,-1.79626,22.0677,-10.7317,-139.543,7.19512
576.729,85.4339,26.6243,0,9.89383,0.58678,-0.531694,-4.39024,-4.20732,-2.86585,-30.7281,-1.84417,22.7192,-9.69512,-139.512,8.62805
576.739,85.4341,27.0451,0,9.93694,0.584385,-0.483794,-4.02439,-3.20122,-2.71341,-30.5461,-1.93997,22.6521,-8.90244,-139.726,9.60366
576.749,85.4348,27.4741,0,9.9058,0.519719,-0.495769,-3.65854,-1.82927,-3.32317,-30.4503,-1.93997,23.1024,-7.68293,-139.604,9.48171
576.759,85.4225,27.8702,0,9.87946,0.61073,-0.555645,-3.20122,-1.52439,-3.47561,-30.3928,-1.91123,22.7287,-5.2439,-138.872,11.128
576.769,85.405,28.2654,0,9.89622,0.65384,-0.613125,-2.53049,-0.945122,-3.5061,-29.8851,-1.67172,22.6713,-2.62195,-134.177,11.189
576.779,85.3787,28.7024,0,9.80521,0.730481,-0.665815,-1.06707,-0.457317,-3.41463,-29.3965,-1.55676,23.5047,-2.86585,-132.652,13.4756
576.789,85.3579,29.1507,0,9.78366,0.735271,-0.632285,-0.457317,-0.487805,-2.86585,-29.5689,-1.5376,24.2615,-4.02439,-132.012,12.7439
576.799,85.3388,29.5644,0,9.77647,0.744851,-0.538879,-0.182927,-0.853659,-2.62195,-29.6551,-1.48012,23.9741,-6.34146,-130.427,12.561
576.809,85.3325,29.9859,0,9.8076,0.637075,-0.474214,-0.0304878,-0.640244,-2.80488,-29.6072,-1.2502,24.4627,-8.17073,-130,11.0366
576.819,85.323,30.42,0,9.77407,0.665815,-0.349673,0,-1.43293,-2.7439,-29.5881,-1.1544,25.1046,-11.5854,-128.018,11.0366
576.829,85.3139,30.8451,0,9.79563,0.6251,-0.356858,0.823171,-1.92073,-3.20122,-29.636,-1.37474,25.3154,-11.6768,-131.463,10.9451
576.839,85.2962,31.2487,0,9.89143,0.713716,-0.402363,1.40244,-0.670732,-3.04878,-29.5114,-1.28852,25.1046,-11.25,-131.159,12.622
576.849,85.2609,31.6518,0,9.91299,0.859812,-0.471819,1.7378,-0.457317,-3.04878,-29.2719,-1.61424,25.2579,-11.8598,-129.146,13.4756
576.859,85.228,32.055,0,9.91538,0.871787,-0.476609,1.85976,-0.579268,-2.71341,-28.8312,-1.71004,25.2387,-11.9207,-128.171,14.7256
576.869,85.1977,32.4754,0,9.87467,0.888552,-0.380808,1.64634,-0.213415,-2.19512,-28.4289,-1.75794,25.6315,-12.7744,-127.744,16.311
576.879,85.1628,32.8711,0,9.84114,0.934058,-0.385598,0.945122,0.0609756,-1.98171,-27.9978,-1.6334,25.0759,-12.9268,-125.244,16.9207
576.889,85.1441,33.2579,0,9.81479,0.862207,-0.335303,0.457317,-0.182927,-1.37195,-27.5954,-1.5855,24.8747,-12.1341,-122.744,17.1646
576.899,85.1352,33.627,0,9.72857,0.799937,-0.273032,0.121951,0.27439,-1.40244,-27.5188,-1.73878,24.7789,-11.5244,-116.89,15.4573
576.909,85.1335,33.9981,0,9.66869,0.735271,-0.179626,-0.670732,0.0304878,-1.67683,-27.6242,-1.1544,25.2579,-9.7561,-113.14,15.7012
576.919,85.1362,34.3716,0,9.61121,0.720901,-0.227527,-0.701219,0.0914634,-1.52439,-27.8253,-1.19272,25.8423,-9.72561,-110.396,14.7866
576.929,85.1311,34.7626,0,9.65432,0.768801,-0.244292,-0.457317,0.426829,-1.4939,-27.6146,-1.27894,26.3979,-11.6463,-108.262,13.9939
576.939,85.1211,35.1201,0,9.69983,0.811912,-0.332908,-0.182927,0.731707,-1.31098,-27.9211,-1.45138,26.2829,-13.3841,-104.939,11.4024
576.949,85.1126,35.4613,0,9.83156,0.819097,-0.299377,0,1.12805,-1.25,-27.6146,-1.26936,25.9572,-13.0488,-102.896,9.48171
576.959,85.1067,35.7979,0,9.83156,0.819097,-0.378413,-0.365854,0.457317,-1.03659,-27.3559,-1.38432,25.9285,-12.5915,-100.274,10.0915
576.969,85.0948,36.1438,0,9.87467,0.862207,-0.294587,-1.31098,0.121951,-0.884146,-26.7715,-2.00703,25.8997,-10.3963,-97.2866,11.2195
576.979,85.0936,36.5006,0,9.8124,0.814307,-0.268242,-1.67683,-0.335366,-0.762195,-26.7524,-2.27527,26.465,-9.72561,-93.2317,11.4634
576.989,85.0915,36.8418,0,9.77407,0.826282,-0.213157,-2.34756,0,-0.548781,-26.8194,-2.39023,26.5129,-7.65244,-90.4573,12.4695
576.999,85.1123,37.1858,0,9.83635,0.740061,-0.234712,-2.46951,0.487805,-0.518293,-26.6661,-2.75427,26.7524,-6.0061,-87.8963,12.3171
577.009,85.1291,37.5066,0,9.80521,0.754431,-0.270637,-2.46951,1.25,-0.487805,-26.6853,-2.33275,26.5608,-5.51829,-84.9695,13.3537
577.019,85.1311,37.8133,0,9.69983,0.783171,-0.352068,-3.14024,1.12805,-0.823171,-26.7236,-2.40939,26.5799,-4.90854,-82.1951,14.2683
577.029,85.1352,38.1234,0,9.70941,0.775986,-0.390388,-2.9878,0.914634,-0.792683,-26.5608,-1.94955,26.8003,-3.47561,-78.1402,14.8476
577.039,85.1447,38.4093,0,9.77647,0.752036,-0.505349,-2.89634,0.97561,-0.823171,-27.0014,-2.05493,26.9631,-1.34146,-77.3476,15.4878
577.049,85.1623,38.6852,0,9.75731,0.716111,-0.440684,-3.20122,-0.0304878,-0.792683,-26.8673,-1.6813,26.8673,-1.37195,-76.0366,15.7012
577.059,85.1776,38.971,0,9.73336,0.708926,-0.431104,-2.9878,-0.487805,-0.945122,-27.0302,-1.18314,27.5379,1.58537,-74.8171,15.1829
577.069,85.1992,39.244,0,9.74294,0.673001,-0.359253,-3.2622,-0.914634,-0.97561,-27.1547,-1.26936,27.6337,1.64634,-73.75,14.4817
577.079,85.2181,39.5069,0,9.77886,0.641865,-0.361648,-2.95732,-1.28049,-1.34146,-27.3942,-1.24062,27.8924,0.762195,-73.7195,13.2012
577.089,85.2417,39.7837,0,9.80042,0.641865,-0.428708,-3.07927,-0.640244,-1.09756,-26.9536,-0.943638,28.0457,-0.304878,-72.7134,12.2256
577.099,85.2636,40.0607,0,9.85072,0.62031,-0.507744,-3.20122,-0.213415,-1.31098,-26.8386,-0.771196,28.2085,-2.92683,-71.4939,12.3171
577.109,85.2799,40.316,0,9.80281,0.603545,-0.459844,-2.71341,-0.0304878,-1.70732,-26.5416,-1.0586,27.6433,-5,-69.0854,12.622
577.119,85.2957,40.5668,0,9.88185,0.60115,-0.445474,-2.77439,-0.0914634,-1.7378,-26.3787,-0.981958,27.6242,-6.03659,-66.2195,12.8963
577.129,85.3112,40.8187,0,9.87227,0.574805,-0.411943,-2.43902,-0.579268,-1.95122,-26.3117,-1.14482,27.8349,-6.12805,-64.0854,13.2012
577.139,85.327,41.0677,0,9.8555,0.5772,-0.474214,-2.19512,-0.335366,-1.89024,-26.1967,-1.1544,27.8924,-4.78659,-62.6829,14.3902
577.149,85.3351,41.2943,0,9.88904,0.598755,-0.483794,-2.2561,0.365854,-2.16463,-26.2734,-1.00112,27.6816,-5.4878,-59.6341,14.2683
577.159,85.339,41.5159,0,9.91778,0.59636,-0.421523,-2.22561,0.701219,-2.46951,-26.2446,-1.1544,27.7487,-4.32927,-59.5732,14.6951
577.169,85.3417,41.7228,0,9.83395,0.57241,-0.423918,-1.89024,0.914634,-2.77439,-26.6182,-1.2981,28.0074,-4.5122,-57.4695,14.3902
577.179,85.3448,41.9145,0,9.76928,0.550855,-0.395178,-1.70732,0.365854,-2.92683,-26.1967,-1.02028,27.4038,-3.32317,-55.122,13.7805
577.189,85.3413,42.1489,0,9.78366,0.584385,-0.452659,-0.97561,0.640244,-3.10976,-25.4016,-0.962798,27.787,-3.90244,-53.5671,16.0061
577.199,85.3374,42.386,0,9.79803,0.589175,-0.493374,-0.182927,1.37195,-3.10976,-25.4782,-0.790356,28.1702,-3.90244,-53.2927,16.0061
577.209,85.3284,42.6167,0,9.81719,0.627495,-0.481399,0.182927,1.92073,-3.14024,-25.6411,-0.876577,28.4385,-4.48171,-50.6098,15.3354
577.219,85.3212,42.8276,0,9.86509,0.63468,-0.498164,0.182927,1.76829,-2.95732,-26.0339,-0.828677,28.6205,-6.95122,-47.3476,13.4451
577.229,85.3074,43.0556,0,9.86748,0.680186,-0.462239,0.304878,2.40854,-3.04878,-25.4399,-0.100591,28.6205,-8.75,-44.1463,12.6829
577.239,85.2934,43.2547,0,9.84593,0.682581,-0.464634,0.152439,2.86585,-3.04878,-25.7273,-0.359253,28.4576,-9.32927,-40.0915,12.561
577.249,85.2819,43.4483,0,9.74054,0.656235,-0.390388,0,3.14024,-3.07927,-25.6123,-0.407153,28.4097,-10.1829,-36.2805,11.9817
577.259,85.2647,43.655,0,9.72617,0.694556,-0.337698,0.121951,3.62805,-3.17073,-25.6411,-0.455054,28.9749,-11.0061,-35.2439,11.25
577.269,85.2427,43.8562,0,9.76689,0.732876,-0.349673,-0.701219,3.53659,-3.23171,-25.8039,-0.301772,29.2336,-12.622,-34.4817,11.0976
577.279,85.2178,44.036,0,9.75252,0.732876,-0.280217,-0.426829,3.62805,-3.53659,-25.986,-0.435894,29.0995,-14.1159,-32.2866,11.128
577.289,85.1957,44.2104,0,9.80521,0.720901,-0.275427,-0.0304878,3.81098,-3.5061,-25.6986,-0.531694,28.8408,-14.1768,-29.0854,9.96951
577.299,85.1663,44.396,0,9.84832,0.797541,-0.299377,0.243902,3.62805,-3.38415,-25.1333,-0.694556,28.678,-14.4512,-25.7317,9.90854
577.309,85.1329,44.5839,0,9.80042,0.828677,-0.234712,-0.243902,2.43902,-3.41463,-24.9705,-1.00112,28.745,-14.1463,-24.4512,9.60366
577.319,85.1002,44.7486,0,9.74294,0.840652,-0.172441,-0.518293,1.52439,-3.20122,-25.0184,-0.991538,28.4097,-13.7805,-22.5,8.9939
577.329,85.0674,44.9201,0,9.75731,0.838257,-0.160466,-0.609756,2.13415,-3.32317,-24.8843,-1.00112,28.6109,-11.7073,-19.0549,11.5549
577.339,85.0307,45.0857,0,9.73575,0.866997,-0.251477,-0.670732,2.07317,-3.41463,-24.9322,-1.02028,28.6971,-9.90854,-17.439,10.8841
577.349,85.0005,45.2438,0,9.7118,0.866997,-0.268242,-0.365854,2.53049,-2.77439,-25.2004,-0.819097,28.9941,-10.5793,-15.1829,12.1646
577.359,84.9809,45.3969,0,9.73336,0.804727,-0.275427,-0.731707,2.34756,-2.65244,-25.1908,-0.799937,29.0228,-10.9146,-13.4146,13.628
577.369,84.9605,45.5669,0,9.73815,0.816702,-0.308958,-0.670732,1.43293,-2.62195,-24.6927,-0.455054,29.042,-8.81098,-12.378,13.9939
577.379,84.9453,45.7038,0,9.72857,0.785566,-0.222737,-0.823171,1.09756,-2.56098,-24.9034,-0.512534,28.6205,-7.95732,-10.3659,12.8049
577.389,84.9224,45.8509,0,9.70941,0.840652,-0.244292,-0.27439,0.243902,-2.59146,-24.9417,-0.320933,29.0707,-8.5061,-9.60366,12.622
577.399,84.9107,45.9891,0,9.68785,0.761616,-0.201182,0.243902,-0.365854,-2.59146,-25.21,-0.301772,29.3102,-8.87195,-8.17073,11.6159
577.409,84.9039,46.1339,0,9.69025,0.716111,-0.244292,0.701219,-0.487805,-2.71341,-25.1717,-0.148491,29.5881,-6.46341,-7.07317,11.2195
577.419,84.9061,46.2521,0,9.70941,0.682581,-0.285007,1.92073,-0.914634,-2.40854,-25.21,-0.483794,29.0995,-5.70122,-4.20732,10.6098
577.429,84.9086,46.3806,0,9.78844,0.673001,-0.402363,2.53049,-0.97561,-2.5,-25.2196,-0.340093,29.5306,-3.65854,0.97561,10.5793
577.439,84.9127,46.5248,0,9.81958,0.64426,-0.431104,3.20122,-1.09756,-2.68293,-24.6927,-0.713716,29.4731,-3.47561,4.39024,10.1524
577.449,84.9191,46.6714,0,9.88425,0.646655,-0.498164,3.59756,-1.34146,-2.5,-24.4244,-0.857417,29.3965,-2.43902,10.3049,8.29268
577.459,84.9252,46.7878,0,9.95131,0.61552,-0.538879,3.81098,-1.31098,-2.83537,-24.616,-0.847837,29.0133,-2.59146,15.3354,7.92683
577.469,84.9364,46.9062,0,9.94173,0.55804,-0.617915,4.02439,-0.884146,-2.9878,-24.3669,-0.704136,28.9175,-2.95732,21.0671,9.11585
577.479,84.9395,47.0129,0,9.86509,0.60594,-0.584385,3.90244,-0.426829,-3.10976,-24.6543,-0.752036,29.0899,-4.48171,23.4756,8.87195
577.489,84.9479,47.1133,0,9.88185,0.60115,-0.651445,3.71951,0.213415,-2.7439,-24.8747,-0.617915,29.3007,-4.42073,25.0915,8.44512
577.499,84.9519,47.2273,0,9.88904,0.603545,-0.574805,4.11585,0.121951,-3.04878,-24.3861,-0.550855,29.1953,-2.68293,27.3171,9.90854
577.509,84.944,47.3288,0,9.88904,0.673001,-0.467029,4.5122,-0.243902,-3.32317,-24.6927,-0.416733,29.3773,-3.23171,32.6829,9.42073
577.519,84.9312,47.4106,0,9.9082,0.687371,-0.373623,4.32927,-0.426829,-3.62805,-24.7885,-0.512534,29.1091,-1.67683,38.3537,11.4939
577.529,84.9153,47.5016,0,9.92736,0.66821,-0.409548,4.63415,-0.0609756,-4.17683,-24.7789,-0.407153,29.454,-2.95732,43.7195,10.8841
577.539,84.886,47.5844,0,9.90341,0.756826,-0.409548,5.12195,0.914634,-4.48171,-24.7693,-0.426313,29.339,-2.83537,47.8659,10.2744
577.55,84.8433,47.6734,0,9.90341,0.850232,-0.431104,4.66463,1.09756,-4.78659,-24.6064,-0.493374,29.4156,-1.67683,51.2195,8.96341
577.559,84.7996,47.7457,0,9.91538,0.895737,-0.395178,4.48171,1.40244,-4.45122,-24.616,-0.646655,29.1091,0.731707,57.0122,9.08537
577.569,84.7511,47.7966,0,9.92496,0.960403,-0.364043,4.90854,1.46341,-4.26829,-24.5202,-0.771196,28.5438,2.92683,61.7683,9.32927
577.579,84.6963,47.8388,0,9.8603,1.00351,-0.387993,5.06098,1.40244,-4.42073,-24.5106,-0.761616,28.381,3.32317,65.3963,8.44512
577.589,84.6424,47.8901,0,9.86269,1.03225,-0.464634,4.7561,1.89024,-4.08537,-24.6831,-0.962798,28.8696,5.06098,67.8354,8.84146
577.599,84.5973,47.9349,0,9.73575,0.955613,-0.395178,4.45122,2.22561,-4.08537,-24.4915,-0.637075,28.563,5.2439,73.7805,8.81098
577.609,84.5474,47.97,0,9.63277,0.991538,-0.371228,3.62805,2.5,-4.08537,-24.5681,-0.541274,28.4576,5.70122,75.6707,8.20122
577.619,84.4963,47.9815,0,9.58487,1.00112,-0.237107,3.17073,2.43902,-4.14634,-24.8364,-0.244292,28.2181,5,78.1402,8.07927
577.629,84.4472,47.9749,0,9.68785,1.00351,-0.208367,3.01829,2.86585,-4.14634,-25.0375,-0.234712,28.0169,5.09146,80.8841,8.14024
577.639,84.401,47.9503,0,9.73336,1.03944,-0.239502,4.05488,3.53659,-3.53659,-25.2675,0.100591,27.8445,4.02439,85.4268,7.53049
577.649,84.3541,47.9358,0,9.81958,1.09692,-0.232317,3.96341,4.20732,-3.07927,-25.3537,0.349673,28.1702,0.670732,86.5549,6.03659
577.659,84.323,47.9088,0,9.84114,1.03704,-0.203577,3.5061,4.78659,-2.28659,-25.6698,0.368833,28.199,-2.56098,87.6524,6.15854
577.669,84.2977,47.8636,0,9.69983,0.989143,-0.126936,2.40854,4.84756,-2.22561,-25.7081,0.627495,27.7774,-4.63415,90.5488,5.82317
577.679,84.259,47.7659,0,9.60882,1.07776,0.00479004,1.34146,4.45122,-2.16463,-26.2446,0.694556,27.0494,-6.95122,94.6037,4.72561
577.689,84.231,47.6563,0,9.59684,1.03704,0.0670605,0.884146,4.93902,-1.58537,-26.4745,0.665815,26.9248,-10.3659,98.0488,5.79268
577.699,84.1995,47.5388,0,9.59205,1.06818,0.0934058,1.43293,5.73171,-0.945122,-26.6278,0.474214,26.7907,-11.1585,98.3841,5.94512
577.709,84.1568,47.4022,0,9.58726,1.11608,0.0981958,1.64634,5.67073,-0.731707,-27.0302,0.522114,26.6374,-12.1037,99.2683,6.43293
577.719,84.0999,47.2619,0,9.58726,1.14242,0.0910107,1.37195,4.78659,-0.213415,-27.4517,0.876577,26.8386,-15.1524,99.3598,6.92073
577.729,84.0444,47.0648,0,9.60403,1.13524,0.122146,0.27439,3.62805,0,-27.969,0.771196,25.8806,-19.0854,100,7.83537
577.739,84.0295,46.8477,0,9.58966,1.08255,0.131726,-0.396341,3.10976,0.670732,-28.6875,0.934058,25.8902,-22.0122,97.5915,5.39634
577.749,84.0366,46.5999,0,9.57529,1.01309,0.277822,-0.823171,2.19512,1.0061,-29.1953,1.00112,25.4303,-22.8963,94.4817,4.26829
577.759,84.0628,46.3533,0,9.58008,0.936453,0.268242,-0.365854,1.64634,1.4939,-29.4252,1.17356,25.4207,-20.7622,91.2195,3.44512
577.769,84.0855,46.0853,0,9.60163,0.991538,0.155676,-0.640244,1.06707,2.22561,-29.7318,1.00112,24.9609,-22.1341,86.4939,4.35976
577.779,84.1122,45.8099,0,9.58008,0.989143,0.189207,-0.884146,0.304878,2.68293,-29.8946,1.17356,24.6831,-25.6098,84.2073,4.08537
577.789,84.1593,45.5252,0,9.58966,0.912502,0.323328,-0.548781,-0.396341,3.84146,-30.412,1.38432,24.6352,-29.878,78.4146,4.60366
577.799,84.2093,45.202,0,9.65432,0.910107,0.380808,0.0304878,-1.31098,4.14634,-31.0251,1.346,23.9933,-33.2622,71.25,6.18902
577.809,84.2708,44.8647,0,9.65672,0.878972,0.347278,0.0914634,-1.70732,5.06098,-31.7244,1.04902,23.9071,-36.9817,63.811,7.16463
577.819,84.3348,44.4837,0,9.74773,0.883762,0.440684,-0.0914634,-3.20122,5.39634,-32.692,0.953218,23.3227,-39.9695,52.7134,7.28659
577.829,84.4017,44.0926,0,9.86509,0.924478,0.435894,-0.0304878,-5.15244,6.18902,-33.5734,0.617915,23.3419,-42.439,40.7317,6.58537
577.839,84.4686,43.7105,0,9.72617,0.864602,0.661025,-2.7439,-9.5122,5.7622,-33.6979,-0.0143701,23.2365,-43.689,29.4207,5.27439
577.849,84.5475,43.3044,0,9.58966,0.708926,0.888552,-4.48171,-17.1341,5.36585,-33.5159,-0.570015,22.2306,-42.9573,20.0915,4.72561
577.859,84.6064,42.9223,0,9.36692,0.831072,1.15679,-5.88415,-25.8537,5.21341,-33.2572,-1.18314,22.1923,-44.5427,12.1037,5
577.869,84.6476,42.5375,0,9.26154,0.953218,1.25978,-8.53659,-30.4268,5.21341,-33.3243,-1.41306,21.809,-47.2866,-0.518293,6.37195
577.879,84.7038,42.1428,0,9.38129,0.900527,1.0562,-10.8841,-30.3963,6.0061,-33.9183,-1.33642,21.6079,-49.9695,-14.1768,9.54268
577.889,84.7827,41.7574,0,9.22562,0.799937,0.694556,-10.7927,-33.75,7.34756,-34.4739,-0.684976,21.7611,-55.6402,-30.3049,14.0549
577.899,84.8751,41.3568,0,8.99569,0.747246,0.0790356,-11.8598,-40.6707,8.47561,-35.1637,0.196392,21.4642,-58.9329,-48.7805,19.5732
577.909,84.9845,40.9241,0,8.95258,0.59157,-0.134121,-12.8659,-44.2378,8.41463,-36.0163,1.02986,20.8798,-63.5061,-66.1281,22.0427
577.919,85.0935,40.4939,0,9.00048,0.6251,-0.282612,-12.1037,-44.1768,8.9939,-36.9743,1.75794,21.0426,-68.2927,-83.75,24.9085
577.929,85.1997,40.1088,0,9.23759,0.65863,-0.546064,-13.0793,-36.6463,9.14634,-37.8174,1.64298,22.0581,-69.7561,-104.024,22.5
577.939,85.3394,39.7306,0,9.68067,0.428708,-1.03225,-14.0244,-23.872,9.63415,-38.4113,1.04902,22.1348,-69.0244,-122.683,18.0183
577.949,85.4996,39.3633,0,10.0567,0.227527,-1.26936,-15.0305,-18.6585,9.48171,-37.9419,0.0718506,21.7132,-66.4329,-136.159,14.1463
577.959,85.6564,38.9773,0,10.3776,0.0694556,-1.25978,-17.8354,-18.7195,7.59146,-37.118,-0.953218,20.4774,-65.6707,-147.713,12.4085
577.969,85.7919,38.6093,0,10.4447,-0.0119751,-1.14961,-20.2744,-21.7073,4.7561,-36.5911,-2.04535,20.1709,-61.7378,-165.122,13.4756
577.979,85.8988,38.3278,0,9.69983,0.117356,-0.948428,-23.2622,-28.5976,2.56098,-37.0126,-3.4153,21.8569,-58.9939,-189.39,17.1037
577.989,86.1339,38.1066,0,10.2028,-0.213157,-0.847837,-21.6159,-30.4573,-0.0609756,-37.7695,-3.58774,23.3035,-55.8841,-215.915,19.4817
577.999,86.231,37.9502,0,10.0663,-0.179626,-1.09931,-19.939,-25.2134,-2.0122,-37.2426,-2.92671,24.1753,-52.7439,-235.701,23.811
578.009,86.3091,37.8105,0,9.81958,-0.273032,-1.55916,-19.2378,-18.689,-3.53659,-35.8247,-2.16031,23.4664,-51.4024,-241.799,29.3902
578.019,86.3809,37.7031,0,9.87946,-0.335303,-1.92799,-19.2988,-12.0427,-4.39024,-34.8954,-1.62382,23.4377,-45.9756,-244.604,35.1829
578.029,86.4526,37.5984,0,10.1956,-0.462239,-2.41178,-18.689,-5.18293,-5.42683,-34.0332,-1.65256,22.8054,-38.2317,-249.207,40.9756
578.039,86.5053,37.4304,0,10.5022,-0.498164,-2.9794,-16.2195,0.304878,-7.40854,-33.6117,-1.36516,21.081,-28.628,-254.604,42.1037
578.049,86.5592,37.3101,0,10.4902,-0.699346,-2.87642,-10.5488,3.01829,-9.42073,-33.2189,-0.665815,21.6749,-18.75,-256.677,42.6829
578.059,86.5993,37.3062,0,10.5692,-0.917292,-2.68482,-4.5122,5,-13.0488,-33.65,-0.531694,24.319,-4.26829,-273.598,41.7378
578.069,86.6465,37.323,0,11.0147,-1.346,-2.68721,1.89024,6.7378,-16.3415,-33.7075,-1.4418,24.7501,16.4939,-291.646,33.1098
578.079,86.6742,37.3852,0,11.6374,-1.45857,-3.13508,10.9146,11.8293,-18.5976,-33.0752,-2.93629,25.2962,37.7134,-299.756,20.5793
578.089,86.6547,37.5811,0,12.6577,-1.28134,-4.45474,15.7012,26.1585,-20.5793,-31.6286,-3.16622,27.3368,52.1951,-302.012,8.44512
578.099,86.5833,38.0008,0,13.6804,-1.32445,-5.47022,9.35976,46.8902,-25.3963,-29.339,-2.57225,31.1113,53.689,-303.262,4.93902
578.109,86.4376,38.6118,0,14.4994,-0.972378,-5.17564,-3.68902,66.9207,-29.6646,-26.0339,-0.637075,33.2477,43.4451,-301.25,14.1159
578.119,86.2081,39.3473,0,13.8504,-0.261057,-3.01293,-25.3354,77.7134,-32.8963,-24.9801,0.962798,36.6199,27.0122,-300.305,31.4939
578.129,86.0911,40.1461,0,11.3859,-1.56155,0.0718506,-29.1463,72.2561,-35.6098,-23.8592,2.14115,38.2101,15.1524,-303.171,50.9146
578.139,86.0361,40.8766,0,9.57529,-1.86572,0.191602,-19.5427,54.2683,-36.0976,-24.2999,3.25244,37.5491,5.45732,-303.232,66.2195
578.149,85.9006,41.5371,0,9.0388,-1.08973,-0.910107,-18.5061,54.6037,-35.9451,-25.392,3.35782,37.7599,0.609756,-298.171,74.0549
578.159,85.7883,42.1223,0,7.47007,-1.1041,0.244292,-18.75,61.0976,-36.9817,-25.7465,3.72186,36.6773,-8.53659,-279.39,73.7805
578.169,85.6837,42.6737,0,5.25707,-0.809517,2.48603,-17.1951,53.3841,-37.1341,-24.1274,3.23328,34.2057,-17.5,-251.341,69.5122
578.179,85.6728,43.2931,0,5.81271,-1.26936,2.54591,-7.92683,28.1098,-35.061,-21.924,2.68721,34.0428,-30.3049,-221.646,62.561
578.189,85.5408,44.0409,0,6.66294,-0.565225,2.23695,3.01829,-12.5305,-32.1951,-18.5806,1.85375,33.8225,-34.6646,-193.598,53.9329
578.199,85.3073,44.8389,0,10.0279,0.306563,-0.816702,7.40854,-8.62805,-29.3598,-17.5555,0.512534,35.0104,-29.4207,-166.585,49.4817
578.209,85.0724,45.7868,0,11.5296,0.469424,-1.59987,6.12805,1.98171,-28.7805,-13.6277,0.0814307,33.8704,-21.0976,-140.152,50.3659
578.219,84.7873,46.8163,0,11.2422,0.775986,-0.749641,4.05488,17.8049,-31.0976,-11.7883,-1.02986,34.6272,-9.63415,-117.957,53.2622
578.229,84.4977,47.8782,0,10.1573,0.735271,0.354463,4.54268,17.7439,-31.7378,-10.6578,-2.49561,35.2116,-3.71951,-95.3354,54.3902
578.239,84.2377,48.8095,0,9.31902,0.402363,0.213157,8.04878,9.35976,-32.7134,-11.9895,-3.7985,34.8954,-5.54878,-72.1341,51.5244
578.249,84.0154,49.6776,0,9.35255,-0.0838257,-0.244292,16.4024,1.89024,-35.4878,-12.8421,-4.32541,36.2079,-13.1098,-52.622,47.5305
578.259,83.7338,50.5493,0,9.52739,0.438289,0.0574805,21.5549,-1.21951,-35.5793,-12.229,-3.23328,36.7348,-21.6463,-20.5793,45.5488
578.269,83.3701,51.4074,0,10.083,1.04662,0.469424,22.0122,-8.41463,-37.8049,-11.453,-1.74836,35.7193,-19.4207,0.457317,51.5244
578.279,82.9622,52.0938,0,10.0591,1.27894,0.826282,21.8293,-6.82927,-40.3659,-13.9342,-0.570015,36.0067,-10.5488,20.8537,59.7866
578.289,82.513,52.5771,0,10.2387,1.54,0.735271,22.1646,-3.44512,-42.7439,-16.7699,-0.368833,35.1445,3.20122,38.872,62.4085
578.299,81.985,52.9208,0,10.38,2.17468,0.399968,22.4695,2.86585,-45,-18.8871,0.512534,34.7709,10.7317,47.378,61.8293
578.309,81.4033,53.228,0,10.1477,2.62973,0.457449,21.7988,5.51829,-46.0671,-20.2858,0.876577,36.4953,11.3415,51.4024,59.1463
578.319,80.7596,53.4724,0,10.0471,3.10874,-0.0455054,21.0671,9.66463,-48.1402,-21.56,1.3939,36.8594,10.7012,55.4573,55.8537
578.329,80.0694,53.7191,0,9.57289,3.29555,0.00958008,20.2134,9.54268,-50.5183,-22.106,2.18905,38.2868,8.96341,60.2744,55.6098
578.339,79.3559,53.9853,0,9.73336,3.62606,-0.258662,19.9695,8.65854,-51.372,-21.9144,3.24286,39.1394,5.09146,63.3841,52.5305
578.349,78.6216,54.2236,0,9.61361,3.86556,-0.0622705,18.9634,7.5,-51.9512,-22.039,3.50152,38.6508,2.13415,61.7073,48.4756
578.359,77.8918,54.4434,0,9.29747,3.91107,-0.421523,18.811,3.44512,-51.128,-22.4509,3.2716,38.9861,-3.56707,58.3232,42.8354
578.369,77.173,54.618,0,8.98611,3.8943,-0.100591,19.7256,-1.03659,-50.2439,-22.8916,2.59141,38.2772,-6.82927,53.7805,32.8659
578.379,76.4528,54.794,0,9.10347,4.0859,-0.232317,22.5,-7.0122,-50.3354,-22.8437,2.28485,38.5071,-10.3354,52.5305,24.878
578.389,75.771,54.9851,0,9.38848,4.16015,-0.0718506,22.2866,-13.689,-48.4451,-22.8724,1.75794,39.3981,-11.372,49.2378,18.4451
578.399,75.1062,55.1537,0,9.53697,4.19607,0.0718506,21.7683,-15.6402,-48.4146,-22.6234,1.37474,38.4113,-11.189,52.3476,17.2866
578.409,74.4363,55.3147,0,9.70941,4.21284,-0.0407153,17.5,-14.7256,-50.8841,-22.6521,0.627495,38.4496,-8.32317,56.0671,16.8902
578.419,73.7917,55.4274,0,10.174,3.97094,-0.273032,15.7927,-15.3659,-54.0244,-22.9778,-0.292192,37.4054,-3.23171,56.0976,16.2195
578.429,73.1363,55.4979,0,10.3944,3.92065,-0.637075,15.8232,-13.2317,-57.7744,-22.8341,-1.13524,35.8151,0.518293,54.6951,14.6646
578.439,72.4538,55.5975,0,10.0064,3.7506,-0.232317,13.7805,-10.0915,-62.1341,-22.1731,-1.51844,35.863,5.36585,52.439,12.6524
578.449,71.7458,55.7207,0,9.9058,3.7506,-0.931663,13.1707,-6.03659,-65.7317,-21.7516,-1.60466,36.1217,8.14024,47.7439,10.5183
578.459,71.0188,55.7971,0,9.69264,3.83203,-0.289797,12.622,-2.13415,-67.4085,-24.2615,-0.905317,38.5359,12.378,31.8293,8.65854
578.469,70.2603,55.9491,0,9.4268,4.07632,-0.0742456,14.9085,-1.46341,-68.4146,-20.8798,-0.684976,35.9876,12.1341,48.75,8.68902
578.479,69.4944,56.12,0,9.39327,4.21763,-0.462239,12.7744,1.55488,-69.0854,-20.6786,0.225132,36.5432,14.1463,46.5244,10.2439
578.489,68.7339,56.2683,0,9.64953,4.50743,-0.58199,12.7439,-2.71341,-68.3537,-21.2534,1.07776,36.9552,15.7317,47.1951,12.6524
578.499,68.0013,56.2956,0,9.64714,4.40684,-0.328118,12.7134,-1.92073,-68.0488,-22.4509,1.70046,34.8475,11.6768,50.5183,13.5671
578.509,67.2495,56.2544,0,9.46512,4.54814,-0.354463,7.89634,1.89024,-69.2378,-22.8245,1.94955,33.2668,12.1951,58.7805,14.1463
578.519,66.4717,56.1946,0,8.96456,4.63197,0.184417,5.60976,3.56707,-70.0305,-22.815,2.13157,32.6537,12.1951,63.0488,13.9024
578.529,65.701,56.1656,0,8.75619,4.60083,-0.500559,9.72561,1.67683,-70.0915,-22.3839,2.45729,32.9028,14.2988,62.9268,15.3963
578.539,64.9234,56.1639,0,8.53824,4.77327,-0.929268,9.72561,3.81098,-69.3293,-21.9623,2.14115,33.0848,16.8598,60.7927,18.9024
578.549,64.1786,56.206,0,8.47118,4.64394,-0.543669,10.2134,0.945122,-68.5366,-21.3588,1.96871,33.5734,16.8293,62.378,19.6951
578.559,63.4788,56.2733,0,8.45202,4.43079,-0.342488,10.2439,0.304878,-67.6524,-21.2055,2.23695,34.2248,12.1341,62.7744,18.4451
578.569,62.8376,56.3165,0,8.68195,4.04519,-0.689766,10.5793,3.35366,-68.5671,-21.6366,2.58183,34.2057,3.5061,65.1219,14.0549
578.579,62.1792,56.3135,0,8.66279,4.26792,-0.62031,10.2134,3.62805,-69.0854,-22.518,3.11832,34.1099,-3.44512,66.1585,8.35366
578.589,61.5014,56.2233,0,8.54782,4.58407,-0.560435,11.3415,1.15854,-68.3841,-23.1598,3.7506,32.2992,-8.96341,65,2.10366
578.599,60.7912,56.0887,0,8.64842,5.35287,-0.57241,13.5671,-2.95732,-65.8232,-23.6005,4.31582,31.4658,-11.6159,61.4024,-3.62805
578.609,60.0691,55.9173,0,8.50471,5.80792,-0.481399,13.9329,-2.2561,-63.2317,-24.0987,4.19128,30.891,-13.5671,57.0732,-8.14024
578.619,59.3555,55.7025,0,8.27719,6.14083,-0.443079,14.1768,-2.80488,-59.2683,-23.9837,3.30034,29.3773,-12.7744,55.9451,-9.66463
578.629,58.6794,55.5235,0,8.2221,6.10969,-0.65384,12.7134,-2.40854,-56.7988,-23.5622,2.59141,29.6168,-12.378,63.3537,-10.9451
578.639,58.0733,55.3896,0,8.15983,5.6738,-0.675395,15.7927,-3.32317,-54.7256,-22.8245,1.52802,29.7318,-11.5854,69.7256,-8.87195
578.649,57.5088,55.2952,0,8.12151,5.37203,-1.13763,15.7012,-0.518293,-54.4207,-22.6617,1.02028,30.479,-9.42073,73.1707,-4.42073
578.659,56.9557,55.2692,0,7.85566,5.099,-1.22864,12.8659,-1.85976,-55.4268,-22.0869,0.905317,31.5232,-9.14634,69.7561,-0.213415
578.669,56.4403,55.2558,0,7.89398,4.89542,-1.19751,14.9695,-1.82927,-55.122,-21.6749,1.18314,31.255,-8.17073,66.1281,4.05488
578.679,55.9156,55.177,0,8.06882,5.18282,-0.656235,17.561,-3.71951,-55.2744,-22.0294,1.36516,29.8563,-5.54878,63.4756,5.97561
578.689,55.3825,55.0457,0,8.18378,5.50376,-0.56762,18.1402,-4.20732,-54.7256,-22.5371,1.42264,29.0133,0.579268,60.2134,5.42683
578.699,54.8205,54.8901,0,8.03529,5.7217,-0.775986,17.8354,0.0304878,-55.6402,-22.6808,1.02986,28.4385,5.42683,62.8659,2.31707
578.709,54.2244,54.759,0,7.75986,6.02108,-0.720901,16.9207,2.7439,-55.4573,-22.6042,0.828677,28.8408,9.02439,66.9817,-2.37805
578.719,53.6198,54.5972,0,7.5491,6.11928,-0.380808,15.7012,3.23171,-55.061,-22.7862,0.799937,28.1798,9.08537,74.3902,-7.56098
578.729,53.0201,54.4458,0,7.31199,6.06419,-0.134121,15.0915,1.25,-54.4817,-22.6234,1.17356,28.1319,9.93902,84.7561,-9.84756
578.739,52.4502,54.2646,0,7.34073,5.95402,0.0479004,12.8659,-5.15244,-53.9329,-22.7575,1.73878,27.4326,9.81707,91.4939,-10.0915
578.75,51.93,54.072,0,7.48444,5.75044,-0.119751,12.378,-7.71341,-53.1098,-23.2269,2.51477,27.5188,5.4878,87.2256,-6.61585
578.759,51.4182,53.9307,0,7.18985,5.56842,0.0910107,13.4756,-8.59756,-52.8659,-22.3551,3.09916,27.5284,0.335366,84.6037,-2.9878
578.769,50.8969,53.7687,0,7.00543,5.63548,0.160466,11.8902,-10.1829,-52.7134,-22.9491,3.28118,27.5763,-1.55488,79.3293,1.12805
578.779,50.3817,53.6069,0,7.09165,5.75284,-0.273032,10.6098,-7.68293,-52.6829,-23.3419,3.3195,27.902,-0.396341,81.189,2.5
578.789,49.8839,53.4649,0,7.2114,5.82229,-0.488584,8.93293,-7.22561,-52.2256,-22.8629,2.82133,27.6912,0.792683,87.9573,2.0122
578.799,49.4092,53.2991,0,7.42217,5.95162,-0.282612,6.40244,-12.439,-51.2805,-22.6713,1.99745,26.7715,1.82927,93.4146,-0.304878
578.809,48.9699,53.1445,0,7.72633,6.09772,-0.0670605,7.34756,-11.2805,-49.5427,-22.7287,1.26936,26.9727,0.457317,97.8354,-2.9878
578.819,48.5352,52.9876,0,7.66646,6.28693,-0.0646655,5.12195,-8.20122,-47.7744,-22.4797,0.637075,26.5033,3.10976,103.872,-6.4939
578.829,48.1317,52.8349,0,7.63772,6.11448,-0.162861,1.55488,-4.14634,-46.8598,-22.1348,0.732876,26.0913,3.68902,112.927,-8.32317
578.839,47.7545,52.7089,0,7.62574,5.95641,-0.273032,-0.701219,-1.76829,-46.4024,-22.0581,1.0107,26.5129,3.01829,118.78,-9.72561
578.849,47.3853,52.6259,0,7.51797,6.00671,-0.320933,-3.78049,-2.56098,-45.061,-22.1827,1.79626,27.605,0.945122,121.402,-8.14024
578.859,47.0137,52.5538,0,7.20901,5.95881,-0.459844,-5.73171,-5.70122,-44.1159,-22.8437,3.04167,28.6301,-2.22561,123.262,-6.85976
578.869,46.6224,52.4496,0,6.94556,6.0594,-0.55325,-6.79878,-5.27439,-43.7805,-23.3514,3.81766,28.3714,-3.44512,125.64,-5.15244
578.879,46.2197,52.2874,0,6.8785,6.12885,-0.883762,-4.96951,-1.67683,-44.5122,-24.252,4.05716,27.8828,-3.81098,127.073,-5.33537
578.889,45.7704,52.043,0,6.68689,6.54559,-0.754431,-3.96341,-2.7439,-44.6037,-25.9381,3.8464,27.5763,-7.62195,128.72,-8.41463
578.899,45.3036,51.7837,0,6.63181,6.96472,-0.55804,-4.05488,-12.1951,-43.2012,-26.8386,3.1758,27.9116,-12.1037,126.86,-16.0366
578.909,44.839,51.461,0,6.68929,7.23296,-0.680186,-4.17683,-15.4573,-42.2256,-27.4709,2.23695,26.7811,-12.8354,128.537,-25.7622
578.919,44.3452,51.1234,0,6.3468,7.35032,-0.960403,-5.82317,-13.1402,-42.1646,-27.6433,1.4897,26.3308,-13.9939,135.64,-33.5671
578.929,43.844,50.8124,0,6.09293,7.19464,-0.924478,-8.35366,-15.3659,-42.8049,-27.1835,1.0586,26.2063,-16.372,137.957,-37.5
578.939,43.3979,50.5418,0,6.2031,6.80904,-0.859812,-7.77439,-22.5,-42.439,-26.2829,1.31726,25.9955,-15.7317,142.439,-36.2805
578.949,42.9939,50.2688,0,6.69887,7.08447,-1.19272,-8.47561,-26.9207,-41.2195,-26.1392,1.71962,25.574,-14.1159,146.829,-32.622
578.959,42.6101,50.053,0,6.67971,6.99346,-0.929268,-10.4573,-25.4878,-40.5793,-25.9955,2.38065,26.5033,-17.2256,148.384,-28.811
578.969,42.2164,49.8175,0,6.48571,6.98627,-0.840652,-10.4573,-23.2012,-40.7012,-26.5703,2.49561,26.4075,-18.3537,145.244,-26.7988
578.979,41.8082,49.5683,0,6.41147,7.13476,-1.00351,-10.3659,-22.5915,-41.0976,-26.7332,2.71595,26.0339,-19.2378,144.482,-27.378
578.989,41.3909,49.2844,0,6.31088,7.21619,-1.0586,-10.7317,-21.9817,-41.2805,-25.8327,2.85007,24.2041,-18.4451,148.78,-28.1098
578.999,40.9723,48.9464,0,6.27256,7.31918,-1.08255,-10.7927,-23.5061,-41.0976,-27.4996,2.33275,24.3286,-15.8537,151.402,-29.5427
579.009,40.5467,48.6542,0,6.21268,7.30002,-1.13524,-12.6829,-25.061,-42.2561,-27.6146,1.84417,25.1429,-16.372,151.982,-31.9817
579.019,40.1397,48.3767,0,6.251,7.01022,-0.946033,-11.4024,-26.4939,-43.9329,-27.6912,1.71962,25.2962,-21.2805,154.604,-35.9451
579.029,39.7256,48.0621,0,6.28453,6.75875,-0.991538,-10.7622,-29.6951,-47.9268,-27.2984,1.35558,23.9262,-24.5427,161.555,-39.3598
579.039,39.3288,47.7185,0,6.42105,6.32525,-1.19032,-10.2439,-31.2805,-52.1341,-26.9727,1.7292,22.815,-24.939,169.97,-39.5122
579.049,38.9054,47.3827,0,6.41626,6.37554,-1.2023,-9.90854,-28.811,-55.1524,-26.8098,1.86333,22.585,-21.372,176.341,-37.5
579.059,38.4715,47.0514,0,6.40668,6.62462,-0.950823,-9.29878,-25.1524,-54.7561,-26.7332,1.89207,22.3551,-19.2073,179.329,-35.9146
579.069,38.062,46.7625,0,6.64857,6.9264,-1.09213,-6.06707,-19.878,-52.7134,-27.1931,1.56634,23.361,-22.622,183.506,-34.2988
579.079,37.677,46.4435,0,6.89526,7.15871,-0.790356,-6.85976,-17.0427,-51.25,-27.5188,1.71962,22.7766,-27.439,183.262,-35.1829
579.089,37.3013,46.1171,0,6.89526,7.12039,-0.816702,-5.79268,-14.6951,-51.4024,-27.6912,1.94955,22.518,-32.8963,185.274,-37.7744
579.099,36.8879,45.7741,0,6.74198,7.44133,-1.03225,-4.81707,-13.2622,-52.1341,-28.0553,2.14115,22.2306,-35.6707,189.451,-38.7805
579.109,36.418,45.4043,0,6.33962,7.81255,-1.11368,-6.98171,-13.4146,-52.378,-28.6492,2.32317,21.8953,-35.2439,192.378,-38.1402
579.119,35.9108,45.0084,0,6.0091,8.02092,-1.28373,-6.79878,-11.7988,-52.622,-29.3965,1.88249,21.6558,-36.0061,196.494,-37.8049
579.129,35.3883,44.5703,0,5.92528,8.13588,-1.11129,-7.65244,-10.7622,-53.628,-29.7509,1.66214,20.7936,-38.3841,202.805,-39.0549
579.139,34.8692,44.1337,0,5.7696,7.81016,-0.706531,-10.122,-11.4939,-55.1524,-29.9234,1.89207,20.6115,-42.4695,204.909,-39.878
579.149,34.3138,43.6925,0,5.34089,7.75747,-0.708926,-10,-13.5976,-56.0061,-29.5785,1.17356,19.9697,-45.3354,208.811,-39.4817
579.159,33.7161,43.2774,0,5.0511,8.18139,-0.958008,-7.9878,-15.7927,-55.6402,-29.1857,0.962798,19.8739,-43.2317,210.457,-40.7927
579.169,33.1285,42.8569,0,4.93374,8.15744,-1.14961,-8.87195,-19.5732,-54.7561,-29.042,0.771196,19.3853,-39.7561,215.061,-41.2805
579.179,32.5904,42.4579,0,5.26665,7.8365,-0.912502,-10.7317,-21.0366,-56.4939,-29.224,0.416733,19.6248,-37.8659,222.744,-40.7927
579.189,32.0236,42.0945,0,4.9529,8.26042,-0.773591,-8.32317,-20,-54.4817,-29.2432,0.502954,20.0272,-39.4512,226.799,-41.8598
579.199,31.4785,41.6962,0,4.92895,8.34425,-0.850232,-8.56707,-23.8415,-52.6524,-29.5881,0.493374,19.3374,-42.2256,228.78,-43.2317
579.209,30.9703,41.2725,0,5.07026,8.18857,-0.948428,-10.2134,-27.2866,-52.439,-29.7126,1.1544,18.6764,-42.2866,233.384,-43.3841
579.219,30.4771,40.8155,0,5.1924,8.09038,-1.04423,-8.75,-27.6524,-53.8415,-29.9713,1.71004,17.9387,-40.2134,236.006,-41.6768
579.229,29.9665,40.3789,0,5.18522,8.10475,-0.984353,-8.68902,-27.9268,-56.4634,-30.3736,1.43222,18.2261,-38.4451,237.988,-40.4268
579.239,29.3813,39.9224,0,4.34457,8.21731,-0.984353,-9.93902,-27.561,-55.4268,-30.5748,1.37474,17.68,-38.0793,239.817,-39.2683
579.249,28.8216,39.4645,0,4.32301,8.2221,-0.735271,-10.7927,-30.1524,-53.75,-30.6036,1.17356,17.3639,-38.1098,244.695,-40.061
579.259,28.3125,39.025,0,4.55293,8.0784,-0.833467,-12.3476,-33.4146,-53.1402,-30.7473,0.627495,17.4693,-38.6585,249.787,-39.5427
579.269,27.8107,38.6196,0,4.60323,8.24605,-1.09452,-13.4451,-32.8354,-52.9573,-30.7473,0.340093,17.7758,-41.3415,251.524,-41.5244
579.279,27.3137,38.2285,0,4.58407,8.5095,-1.08494,-13.3537,-32.4085,-51.7378,-30.0096,0.177231,17.3256,-43.5671,254.024,-42.8354
579.289,26.8623,37.7705,0,4.62239,8.37299,-0.974773,-12.5,-34.6951,-49.2988,-30.891,-0.158071,16.3867,-43.872,259.116,-45.4878
579.299,26.4248,37.3349,0,4.8092,8.80649,-1.08255,-16.1585,-37.7439,-48.2622,-31.4849,-0.110171,16.7891,-45.1524,262.195,-45.5793
579.309,25.9666,36.8566,0,4.54814,9.00288,-1.41785,-16.2195,-31.4024,-47.5305,-31.2167,0.330513,15.6012,-46.0976,262.012,-43.811
579.319,25.4849,36.3713,0,4.1841,9.11784,-1.19032,-16.3415,-31.0061,-46.4634,-31.4658,0.407153,15.285,-45.8537,263.963,-40
579.329,25.0542,35.8585,0,4.18649,8.15265,-1.12566,-14.7256,-32.0427,-47.4085,-32.3855,-0.0526904,14.921,-42.5305,265.945,-37.622
579.339,24.6077,35.3738,0,3.92544,8.56219,-1.26697,-11.1585,-32.2256,-44.6951,-32.213,-0.215552,14.988,-38.2927,269.482,-35.5488
579.349,24.196,34.8781,0,3.77695,8.83762,-1.19032,-12.1037,-33.0488,-39.0244,-32.3471,-0.282612,14.5473,-37.439,274.177,-34.6951
579.359,23.7989,34.4035,0,3.77934,8.87594,-1.14003,-12.4085,-35.1829,-38.2012,-32.6824,-0.723296,14.7294,-36.9512,276.463,-34.7866
579.369,23.3971,33.9254,0,3.78653,8.39454,-1.2023,-13.811,-34.2378,-41.9817,-32.2801,-0.627495,14.1737,-36.128,277.591,-37.0732
579.379,22.9739,33.4443,0,3.7506,8.464,-1.3963,-12.7439,-33.3841,-44.2073,-32.874,-0.752036,14.0588,-36.8598,278.506,-38.0488
579.389,22.5362,32.9384,0,3.7985,8.62686,-1.25978,-14.1463,-34.2378,-46.2805,-33.1327,-0.962798,13.4169,-36.372,277.988,-39.4207
579.399,22.0987,32.4382,0,3.7506,9.10107,-1.37714,-13.5671,-29.5732,-44.3598,-33.1902,-1.21188,13.1966,-36.189,278.293,-39.3902
579.409,21.6506,31.9755,0,3.25483,9.80281,-1.44899,-14.0854,-23.75,-38.1098,-33.6213,-0.914897,13.666,-38.75,275.823,-40
579.419,21.2488,31.4449,0,3.34105,9.17292,-1.2981,-16.128,-24.6037,-37.6524,-33.4105,-0.991538,12.1236,-38.2317,276.22,-39.2073
579.429,20.8505,30.8989,0,3.1734,8.90468,-1.32445,-13.0793,-20.6402,-37.3171,-33.6404,-0.838257,11.6063,-37.5915,278.476,-34.9085
579.439,20.4289,30.3312,0,2.91474,8.93103,-0.977168,-13.628,-23.872,-37.3476,-33.8704,-1.14482,10.974,-37.2561,280.915,-33.0488
579.449,20.0268,29.7862,0,2.83331,9.0412,-0.941243,-13.7805,-21.8293,-34.8476,-34.4068,-1.2023,11.1464,-34.0549,279.177,-30.2134
579.459,19.6247,29.2192,0,2.70158,9.21603,-1.07057,-13.5671,-22.8963,-33.5061,-34.7901,-1.76752,10.5333,-32.8049,278.018,-29.2988
579.469,19.2338,28.6581,0,2.692,9.40524,-1.20469,-15.3963,-25.9756,-32.439,-34.5601,-1.98787,10.1788,-31.25,274.756,-31.3415
579.479,18.8552,28.1096,0,2.72553,9.34297,-1.2526,-15.0915,-29.2988,-32.561,-35.4032,-2.31359,10.2555,-27.7744,272.439,-32.9268
579.489,18.4801,27.5436,0,2.72074,9.33579,-1.346,-13.7195,-32.6829,-32.9573,-35.7385,-2.85007,9.67109,-24.6646,267.866,-34.6037
579.499,18.1127,26.9665,0,2.5986,9.06994,-1.27415,-11.372,-33.2622,-32.4085,-35.6139,-2.96503,9.06754,-22.2256,265.64,-36.4939
579.509,17.7574,26.3993,0,2.52196,9.11305,-1.3005,-11.4329,-30.2134,-30.8537,-35.9013,-2.77343,8.91426,-18.3841,262.439,-36.4329
579.519,17.4149,25.8187,0,2.4549,9.15856,-1.28613,-10.2439,-26.9512,-29.3293,-36.3612,-2.79259,8.40652,-15.0915,259.024,-34.5732
579.529,17.0677,25.2276,0,2.25132,9.24957,-1.1999,-9.66463,-26.5854,-27.8049,-35.9876,-2.62973,7.74549,-9.17683,253.171,-30.8841
579.539,16.742,24.6618,0,2.17468,9.2328,-1.09931,-8.20122,-28.2927,-25.4573,-36.6486,-3.03209,7.90835,-4.60366,250,-29.878
579.549,16.4442,24.0896,0,2.23455,9.38848,-1.2023,-5.88415,-29.6951,-23.5366,-37.2521,-2.94587,7.53473,-0.0914634,246.829,-25.9146
579.559,16.1643,23.5542,0,2.2609,9.50344,-1.34121,-7.13415,-30.122,-22.3171,-38.4975,-3.43446,8.01374,2.95732,240.762,-25.4878
579.569,15.8838,23.003,0,2.23695,9.59684,-1.28613,-8.44512,-32.4695,-22.4085,-38.852,-2.93629,7.41019,5.54878,234.909,-25.6707
579.579,15.6001,22.4521,0,2.15073,9.54894,-1.38193,-9.69512,-35.9451,-22.439,-38.8712,-2.56267,7.00783,8.2622,228.018,-25.9146
579.589,15.3511,21.9335,0,2.32556,9.20885,-1.35319,-7.80488,-30.4573,-22.5,-39.0628,-1.81542,7.20901,7.95732,221.86,-23.7195
579.599,15.0952,21.4563,0,2.21779,9.25196,-1.37953,-7.92683,-26.2195,-22.2866,-39.7813,-1.43222,7.68801,5,213.628,-20.3963
579.609,14.825,20.9653,0,2.07169,9.44835,-1.28134,-6.82927,-24.878,-22.0122,-39.7238,-1.38432,7.05573,1.52439,204.817,-15.0915
579.619,14.5755,20.4711,0,2.14115,9.41722,-1.06818,-6.4939,-24.2073,-21.3415,-39.0436,-1.3939,6.50966,-2.2561,198.232,-9.32927
579.629,14.3206,19.9657,0,2.00942,9.4268,-0.986748,-6.15854,-26.9512,-20.8232,-38.2389,-1.6813,5.8199,-5.30488,190.671,-5.36585
579.639,14.0798,19.486,0,2.10043,9.41722,-0.790356,-5.06098,-25.8537,-21.0061,-38.4209,-1.5376,5.9157,-7.92683,182.256,-3.96341
579.649,13.8312,19.0486,0,1.99745,9.40524,-0.661025,-4.45122,-23.5976,-21.0976,-39.3214,-1.79626,6.4426,-10.122,174.634,-2.68293
579.659,13.5973,18.62,0,2.09564,9.45075,-0.608335,-3.47561,-20.2134,-21.1585,-39.149,-1.31726,6.24142,-13.75,168.049,0.396341
579.669,13.3607,18.1426,0,2.05253,9.49625,-0.780776,-3.38415,-14.7866,-21.2805,-39.2352,-1.45138,5.07265,-17.1341,162.195,0.884146
579.679,13.102,17.6888,0,1.80345,9.58247,-0.802332,-2.9878,-11.5244,-20.8841,-39.0723,-1.51844,5.11097,-19.7256,155.732,2.2561
579.689,12.8693,17.2269,0,1.98787,9.67588,-0.696951,-2.9878,-10.6707,-20.7012,-39.0244,-1.84417,4.63197,-22.6524,150.061,3.35366
579.699,12.6366,16.7204,0,2.02379,9.65193,-0.756826,-3.41463,-9.84756,-21.6463,-38.6221,-1.88249,3.49194,-25.4878,147.287,3.93293
579.709,12.4045,16.2323,0,2.08846,9.67827,-0.811912,-3.23171,-8.44512,-22.7439,-38.6221,-2.13157,3.44404,-26.4329,142.043,4.66463
579.719,12.1766,15.7274,0,2.14354,9.64953,-0.857417,-3.10976,-3.68902,-23.5061,-38.8041,-2.55309,2.82133,-26.372,136.494,4.66463
579.729,11.9406,15.2248,0,2.09085,9.57768,-0.953218,-2.2561,2.40854,-24.3598,-39.7909,-2.40939,2.57225,-25.2134,134.024,3.01829
579.739,11.7066,14.7415,0,2.00703,9.42201,-0.900527,-0.762195,7.2561,-24.0549,-39.8867,-2.39023,2.56267,-24.939,132.439,1.43293
579.749,11.4743,14.2653,0,1.90883,9.27831,-0.859812,1.70732,12.1951,-23.5366,-40.768,-2.58183,2.39981,-26.0976,131.799,1.92073
579.759,11.2363,13.7729,0,1.75555,9.20646,-0.974773,3.84146,15.0305,-22.8963,-40.5189,-2.60099,1.73878,-23.689,126.86,1.31098
579.769,11.022,13.304,0,1.86093,9.29507,-1.09452,4.45122,17.8963,-22.0427,-40.3657,-2.95545,1.80584,-21.9512,126.799,-2.13415
579.779,10.8095,12.8641,0,1.80824,9.19687,-0.998723,5.67073,19.0549,-21.8902,-40.0399,-3.07042,1.95913,-19.878,122.561,-3.59756
579.789,10.5994,12.442,0,1.73878,9.32142,-1.31487,6.7378,20.6707,-20.9451,-39.6088,-2.92671,1.93039,-17.561,118.384,-5.94512
579.799,10.387,12.0214,0,1.6334,9.49146,-1.49928,6.76829,23.7195,-19.9695,-39.1873,-2.85965,1.6334,-16.311,114.116,-5.97561
579.809,10.167,11.6209,0,1.50647,9.63037,-1.3963,5.82317,24.4207,-19.3902,-38.852,-2.96503,1.66214,-14.4817,109.482,-6.92073
579.819,9.93476,11.2271,0,1.36516,9.64714,-1.33403,6.43293,21.9817,-19.3902,-38.2676,-2.60099,1.47054,-14.2683,105.915,-7.65244
579.829,9.72262,10.8233,0,1.4921,9.60642,-1.11368,7.53049,19.939,-19.3902,-38.3347,-2.29443,1.02986,-14.2073,102.713,-7.83537
579.839,9.50925,10.422,0,1.48252,9.64953,-1.01549,8.53659,18.1707,-19.7561,-38.7466,-2.50519,0.799937,-14.0244,99.5732,-8.56707
579.849,9.31466,10.0358,0,1.60945,9.59684,-1.10171,9.14634,18.5366,-19.878,-39.2544,-2.49561,0.780776,-13.5366,95.2134,-10.0915
579.859,9.13673,9.63877,0,1.67891,9.54176,-1.18314,9.14634,20.3963,-19.5122,-39.7046,-2.55309,0.320933,-13.9329,91.5854,-12.1646
579.869,8.96727,9.22941,0,1.61664,9.4268,-1.12566,8.93293,23.2012,-18.5061,-39.4939,-2.70637,-0.186812,-14.5122,86.3415,-14.0244
579.879,8.81196,8.81602,0,1.54718,9.35734,-0.876577,10.3354,24.0549,-16.7073,-39.7813,-2.85007,-0.550855,-13.75,84.1463,-17.8049
579.889,8.66037,8.42145,0,1.38432,9.43877,-0.766406,11.6768,22.439,-14.5122,-40.4519,-2.65847,-0.531694,-13.1402,79.7561,-20.5488
579.899,8.52693,7.99943,0,1.39869,9.59684,-0.866997,10.8841,18.628,-12.8659,-40.768,-2.62973,-1.31726,-9.87805,77.8049,-20.9451
579.909,8.39939,7.59584,0,1.35319,9.67588,-0.972378,9.63415,15.061,-11.8598,-40.8447,-2.66805,-1.2981,-8.96341,75.1219,-20.9146
579.919,8.26532,7.21582,0,1.21667,9.72138,-1.14961,7.56098,12.6829,-11.0976,-41.2183,-2.62973,-1.19272,-8.78049,69.3293,-18.6585
579.929,8.11167,6.82462,0,0.996328,9.78844,-1.12566,5.97561,8.14024,-10.6707,-41.5344,-2.28485,-1.69088,-9.39024,67.0427,-15.6402
579.939,7.95477,6.4521,0,0.883762,9.77407,-1.07776,5.64024,4.48171,-10,-41.5536,-1.87291,-1.65256,-11.8598,61.6463,-9.69512
579.949,7.81299,6.09514,0,0.938848,9.86269,-1.26218,5.82317,1.79878,-9.32927,-41.6398,-1.88249,-1.65256,-13.4756,58.4451,-1.40244
579.959,7.68038,5.7541,0,0.989143,9.86748,-1.22386,4.17683,1.06707,-9.26829,-41.6781,-2.00703,-1.6334,-15.7622,55.0915,3.47561
579.969,7.5665,5.41565,0,1.07057,9.83156,-1.29571,3.20122,0.335366,-8.62805,-41.956,-1.98787,-1.86333,-18.2012,50.4268,8.47561
579.979,7.46687,5.0928,0,1.07297,9.82677,-1.23344,1.4939,-1.06707,-7.43902,-41.8793,-2.18905,-1.83458,-19.4512,46.25,10.7012
579.989,7.39606,4.76022,0,1.20709,9.74054,-1.12326,0.0914634,-2.19512,-6.40244,-41.3428,-2.28485,-2.23695,-20.1524,42.1341,13.7195
579.999,7.35521,4.44646,0,1.34361,9.66151,-1.08255,0.365854,-1.92073,-5.2439,-40.9884,-2.29443,-2.13157,-19.5732,37.5915,15.3963
580.009,7.31808,4.14758,0,1.32445,9.60642,-1.08015,0.853659,-0.914634,-4.81707,-40.7872,-2.68721,-2.09325,-21.6463,32.9268,14.3902
580.019,7.28154,3.83302,0,1.28373,9.65432,-1.24541,0.853659,-0.701219,-4.26829,-40.4231,-2.42855,-2.58183,-20.3963,28.5976,13.9634
580.029,7.24186,3.51992,0,1.25978,9.58487,-1.31487,1.46341,-1.58537,-4.48171,-40.1741,-2.51477,-2.77343,-19.0244,25.122,13.9024
580.039,7.19843,3.22668,0,1.20469,9.62558,-1.2981,1.21951,-2.80488,-4.20732,-39.8579,-2.86923,-2.62973,-16.7683,22.2866,14.9695
580.049,7.15792,2.9387,0,1.19751,9.63037,-1.30289,0.579268,-3.17073,-3.90244,-39.9441,-2.93629,-2.76385,-14.8476,17.6524,13.9329
580.059,7.11898,2.63883,0,1.2023,9.60163,-1.27176,0.121951,-3.29268,-3.93293,-39.8675,-2.99377,-3.1758,-14.0854,16.0061,13.1402
580.069,7.07556,2.33351,0,1.13284,9.55852,-1.26218,-0.121951,-4.69512,-3.65854,-39.6376,-2.98419,-3.47278,-12.4695,12.9573,14.2683
580.079,7.04032,2.04505,0,1.17116,9.55134,-1.01788,0.152439,-6.37195,-3.41463,-39.7334,-3.11832,-3.40572,-12.8659,10.4573,13.1402
580.089,7.01464,1.73949,0,1.19272,9.62558,-1.1544,0.853659,-7.31707,-2.68293,-39.8292,-3.02251,-3.92304,-10.4573,9.29878,13.689
580.099,7.00241,1.44296,0,1.27176,9.6663,-1.28613,0.182927,-6.89024,-2.40854,-39.743,-3.1279,-3.97094,-8.96341,8.62805,14.1463
580.109,7.00314,1.13466,0,1.32445,9.62319,-1.25978,-0.213415,-7.59146,-2.07317,-39.6184,-2.95545,-4.37331,-7.5,8.75,14.1159
580.119,7.02293,0.835286,0,1.46815,9.5202,-1.2526,-0.304878,-7.07317,-2.34756,-39.9729,-2.82133,-4.46911,-6.25,9.26829,13.4756
580.129,7.04514,0.560227,0,1.50407,9.55373,-1.34361,-0.304878,-5.54878,-2.40854,-40.0304,-2.72553,-4.24876,-5.2439,10.5183,13.1098
580.139,7.07295,0.325106,0,1.6334,9.52739,-1.38672,-0.365854,-3.87195,-3.14024,-40.1645,-2.70637,-3.74102,-7.37805,11.2805,11.7988
580.149,7.08797,0.0621533,0,1.60706,9.57529,-1.48252,-0.853659,-2.37805,-3.71951,-40.2986,-2.89797,-4.42121,-8.2622,10.9451,11.0976
580.159,7.0966,-0.186761,0,1.57113,9.55613,-1.37474,-0.701219,-2.0122,-3.90244,-39.8675,-2.53393,-4.31582,-6.7378,9.11585,10.3963
580.169,7.09874,-0.402034,0,1.57113,9.52978,-1.45617,-0.335366,-1.61585,-4.5122,-39.81,-2.55309,-3.8943,-7.07317,7.2561,8.5061
580.179,7.10329,-0.632507,0,1.58071,9.48428,-1.3963,0.762195,-1.4939,-4.48171,-38.3634,-2.31359,-4.17212,-6.85976,3.10976,10.2439
580.189,7.10307,-0.81901,0,1.57832,9.5681,-1.49689,1.25,-0.426829,-4.72561,-39.2352,-2.52435,-3.6548,-8.96341,4.11585,9.26829
580.199,7.10702,-0.989863,0,1.60945,9.59205,-1.56155,0.945122,1.06707,-4.63415,-39.743,-2.48603,-3.56858,-10.8537,0.518293,7.0122
580.209,7.10721,-1.17021,0,1.60227,9.63516,-1.5376,0.27439,2.59146,-4.81707,-39.7909,-2.37107,-3.86556,-13.0183,-0.945122,6.43293
580.219,7.10822,-1.32867,0,1.59269,9.55613,-1.44659,0.0304878,2.89634,-4.78659,-39.8962,-2.39023,-3.61648,-16.0061,-1.55488,5.7622
580.229,7.11152,-1.46294,0,1.59508,9.53697,-1.41546,0.609756,2.22561,-4.63415,-39.8483,-2.23695,-3.30034,-17.378,-3.07927,6.28049
580.239,7.11344,-1.62171,0,1.60466,9.56092,-1.44659,0.97561,2.80488,-4.81707,-39.8388,-2.28485,-3.83682,-17.6829,-5.82317,6.7378
580.249,7.10791,-1.76963,0,1.56155,9.62798,-1.48731,0.304878,3.9939,-4.90854,-39.5897,-2.02619,-3.73144,-18.9634,-5.51829,5.09146
580.259,7.09137,-1.9266,0,1.46815,9.6184,-1.57113,-0.365854,4.32927,-4.93902,-39.743,-2.15073,-4.00926,-21.2195,-5.45732,4.63415
580.269,7.07102,-2.08347,0,1.42983,9.56331,-1.45617,0,3.23171,-5,-39.9729,-2.09325,-4.15296,-22.5915,-8.78049,3.47561
580.279,7.05791,-2.24118,0,1.46575,9.62798,-1.55197,-0.335366,1.7378,-4.63415,-40.2507,-2.06451,-4.31582,-24.878,-10.9146,2.92683
580.289,7.04774,-2.37161,0,1.51365,9.6184,-1.54958,-1.28049,0.914634,-4.93902,-40.1932,-2.13157,-3.9422,-27.8659,-13.5366,1.09756
580.299,7.03345,-2.51444,0,1.45857,9.60403,-1.40827,-1.31098,-0.396341,-4.7561,-39.3023,-2.21779,-4.17212,-29.6037,-16.372,2.22561
580.309,7.02177,-2.67226,0,1.44659,9.62558,-1.37714,-1.15854,-1.70732,-4.35976,-39.3789,-2.44771,-4.54575,-31.311,-17.1646,2.83537
580.319,7.01888,-2.82267,0,1.49928,9.56092,-1.31487,-0.640244,-2.80488,-4.26829,-39.6951,-2.45729,-4.56491,-33.811,-18.1402,3.01829
580.329,7.01877,-2.93486,0,1.49449,9.59924,-1.27894,0,-3.07927,-3.90244,-39.8483,-2.86923,-4.00926,-35.2134,-18.0793,2.7439
580.339,7.02474,-3.0645,0,1.52802,9.60403,-1.28613,-0.426829,-2.40854,-3.71951,-39.0244,-2.79259,-4.30625,-36.189,-17.8659,4.45122
580.349,7.04317,-3.19442,0,1.59987,9.59924,-1.48731,-0.426829,-0.579268,-3.41463,-38.8137,-3.10874,-4.37331,-36.7073,-16.8598,5.73171
580.359,7.07566,-3.31006,0,1.71723,9.56571,-1.43222,-0.152439,-0.518293,-3.47561,-38.4975,-3.1279,-4.1817,-35.061,-17.1037,7.16463
580.369,7.12792,-3.41591,0,1.83938,9.45554,-1.3939,0.396341,-0.701219,-3.32317,-38.4592,-3.20454,-4.0859,-35.8537,-16.4024,7.56098
580.379,7.18435,-3.52797,0,1.88488,9.46991,-1.2981,0.670732,1.15854,-3.32317,-38.2389,-3.11832,-4.23918,-34.7561,-16.25,8.04878
580.389,7.23546,-3.62882,0,1.85614,9.53457,-1.32445,1.7378,4.14634,-3.23171,-38.5263,-3.04167,-4.15296,-32.9878,-15.7012,7.86585
580.399,7.2732,-3.74366,0,1.71723,9.54176,-1.32924,2.43902,6.85976,-2.89634,-38.4401,-3.20454,-4.44995,-31.4634,-15.061,7.89634
580.409,7.29565,-3.84783,0,1.59269,9.56571,-1.40348,3.14024,8.59756,-2.7439,-38.852,-3.03209,-4.39247,-30.7012,-15.3659,8.23171
580.419,7.31338,-3.94815,0,1.56395,9.64953,-1.47054,2.37805,8.65854,-2.62195,-38.8233,-2.81175,-4.39247,-29.4512,-14.9085,7.68293
580.429,7.32844,-4.05325,0,1.52563,9.64953,-1.43701,1.4939,6.95122,-2.43902,-38.8903,-2.88839,-4.54575,-30.0915,-13.0793,7.95732
580.439,7.35092,-4.14931,0,1.51365,9.55613,-1.42504,1.85976,5.70122,-2.04268,-39.0723,-2.89797,-4.47869,-28.75,-12.1037,9.69512
580.449,7.36485,-4.24965,0,1.44899,9.59205,-1.39869,2.2561,3.84146,-1.89024,-39.0532,-2.65847,-4.61281,-29.5732,-10.7622,9.29878
580.459,7.3688,-4.32436,0,1.38193,9.60163,-1.51605,2.5,2.92683,-1.82927,-39.2065,-2.79259,-4.24876,-29.0244,-9.81707,9.32927
580.469,7.36286,-4.42331,0,1.31726,9.61121,-1.4921,1.64634,1.55488,-1.79878,-39.034,-2.72553,-4.69903,-28.5366,-8.35366,9.05488
580.479,7.36751,-4.51613,0,1.35079,9.65193,-1.43222,0.487805,0.97561,-1.37195,-39.1203,-2.86923,-4.67029,-28.4451,-8.23171,10.3049
580.489,7.37322,-4.60236,0,1.40109,9.63037,-1.30768,-0.518293,-0.121951,-1.85976,-39.1011,-2.81175,-4.62239,-28.0793,-9.7561,9.42073
580.499,7.37324,-4.67263,0,1.38672,9.63756,-1.47773,-0.609756,0.792683,-2.07317,-39.4172,-2.64889,-4.44037,-28.2317,-10.2134,9.29878
580.509,7.36562,-4.72426,0,1.36277,9.5681,-1.42264,-0.884146,1.46341,-2.53049,-39.3119,-2.58183,-4.15296,-28.8415,-10.8841,9.29878
580.519,7.35285,-4.78066,0,1.37474,9.55373,-1.43941,-0.304878,1.61585,-3.14024,-39.446,-2.37107,-4.28709,-29.1463,-10.9451,10.0305
580.529,7.33435,-4.8422,0,1.38432,9.56331,-1.45138,0.213415,2.62195,-3.78049,-39.3885,-2.48603,-4.41163,-29.5427,-11.3415,10.7012
580.539,7.30415,-4.88084,0,1.38193,9.58966,-1.46815,0.213415,3.32317,-4.87805,-39.628,-2.32317,-4.07632,-29.4817,-11.0976,9.84756
580.549,7.26586,-4.91033,0,1.35798,9.57529,-1.3939,0.121951,3.78049,-5.4878,-39.2256,-2.57225,-3.90388,-30.8232,-11.7378,10.7012
580.559,7.22177,-4.9486,0,1.33882,9.63516,-1.41067,0.335366,5.12195,-5.82317,-39.4651,-2.59141,-4.10506,-31.4634,-12.4695,9.05488
580.569,7.18038,-4.98833,0,1.38432,9.64714,-1.47533,0,5.91463,-6.15854,-39.331,-2.92671,-4.14338,-32.3476,-12.5,6.76829
580.579,7.13718,-5.02238,0,1.37235,9.61361,-1.43941,-0.182927,6.79878,-6.34146,-39.264,-3.05125,-4.06674,-32.7439,-13.1402,5.91463
580.589,7.0847,-5.05051,0,1.31487,9.60163,-1.49449,-0.518293,7.5,-6.70732,-39.4076,-3.25244,-4.00926,-33.0183,-15.4573,5.18293
580.599,7.02932,-5.0712,0,1.26697,9.62798,-1.52563,-1.03659,8.20122,-6.4939,-39.446,-3.18538,-3.90388,-32.378,-15.9451,2.62195
580.609,6.97329,-5.09129,0,1.31487,9.56571,-1.50647,-1.18902,7.62195,-7.34756,-39.5801,-3.3195,-3.92304,-32.2561,-16.5854,1.76829
580.619,6.92556,-5.1049,0,1.37714,9.55613,-1.50168,-1.06707,6.70732,-7.37805,-39.7717,-3.43446,-3.8464,-30.8841,-17.9878,1.34146
580.629,6.88443,-5.12616,0,1.45617,9.55852,-1.48491,-0.731707,6.82927,-7.7439,-39.7717,-3.28118,-3.99968,-29.7256,-20.3659,1.03659
580.639,6.83872,-5.13785,0,1.41306,9.54415,-1.41785,-1.46341,8.47561,-7.80488,-39.9154,-3.52068,-3.85598,-29.7866,-19.5427,2.07317
580.649,6.78892,-5.14831,0,1.37235,9.50344,-1.23823,-0.365854,9.20732,-7.89634,-40.0112,-3.4153,-3.85598,-29.5427,-20.7317,2.34756
580.659,6.73229,-5.16246,0,1.28134,9.60163,-1.37953,-0.121951,9.81707,-7.43902,-40.3178,-3.63564,-3.96136,-29.8476,-21.4024,1.06707
580.669,6.6833,-5.16499,0,1.32205,9.64235,-1.48252,-1.92073,10.7927,-7.19512,-40.6147,-4.038,-3.7985,-30.2134,-23.5976,0
580.679,6.63004,-5.15306,0,1.27415,9.62079,-1.55676,-2.92683,10.8841,-7.19512,-40.95,-4.10506,-3.57816,-31.1585,-26.25,-2.37805
580.689,6.56983,-5.13969,0,1.27415,9.55852,-1.7795,-3.29268,11.2195,-8.10976,-40.2124,-3.8943,-3.49194,-31.0366,-29.7866,-4.48171
580.699,6.49119,-5.14492,0,1.16158,9.50104,-1.87291,-2.95732,12.3171,-8.84146,-40.6914,-4.21044,-3.87514,-31.8293,-33.9939,-6.67683
580.709,6.38193,-5.12763,0,1.01309,9.51541,-1.95673,-3.01829,13.4451,-10.3049,-41.0458,-3.9422,-3.5111,-33.9634,-36.5549,-9.2378
580.719,6.24988,-5.10994,0,0.857417,9.61121,-1.95673,-2.46951,14.2683,-10.8537,-40.95,-3.64522,-3.50152,-37.561,-41.7378,-8.35366
580.729,6.112,-5.08989,0,0.790356,9.69743,-2.03577,-2.59146,14.0854,-10.8232,-40.768,-3.4153,-3.43446,-42.2561,-42.7744,-8.44512
580.739,5.97104,-5.07272,0,0.766406,9.70222,-1.98068,-3.87195,12.439,-11.128,-40.0974,-3.59732,-3.42488,-47.0122,-45.6098,-6.18902
580.749,5.82997,-5.05591,0,0.740061,9.68306,-1.94955,-4.90854,9.87805,-11.128,-39.7621,-3.7985,-3.39614,-50.2744,-47.1951,-5.42683
580.759,5.70862,-5.03261,0,0.845442,9.62319,-1.83938,-5.73171,6.76829,-10.7317,-39.6184,-4.14338,-3.26202,-55,-48.3841,-6.76829
580.769,5.59785,-5.02427,0,0.917292,9.62558,-1.86572,-6.15854,3.44512,-10.7622,-39.4076,-4.65113,-3.49194,-56.8598,-48.8415,-8.41463
580.779,5.49263,-5.01246,0,0.960403,9.59684,-1.84177,-7.07317,1.37195,-10.9756,-39.5226,-5.20677,-3.43446,-58.4451,-48.5671,-10.9451
580.789,5.39445,-5.05067,0,0.993933,9.51781,-1.85614,-7.59146,-0.335366,-10.9756,-39.3885,-5.51333,-4.28709,-57.2866,-47.3476,-13.75
580.799,5.31039,-5.08008,0,1.04662,9.47949,-1.82261,-8.23171,-1.21951,-10.4268,-38.2964,-5.70494,-4.038,-55.3963,-45.6098,-14.7256
580.809,5.23641,-5.09513,0,1.10171,9.49865,-1.7292,-9.57317,-2.13415,-10.2134,-38.6796,-5.94444,-3.8464,-54.1463,-44.2073,-15.6707
580.819,5.18578,-5.07445,0,1.24781,9.61361,-1.68849,-11.0061,-3.23171,-9.57317,-38.9765,-6.48092,-3.2716,-54.9695,-45.4878,-15.8537
580.829,5.16922,-5.06003,0,1.40348,9.62079,-1.63819,-12.1341,-4.2378,-8.04878,-39.0915,-6.4426,-3.37698,-54.878,-45.8537,-15.6098
580.839,5.18995,-5.07191,0,1.60227,9.57768,-1.63819,-13.3232,-5.30488,-6.7378,-38.3251,-6.251,-3.74102,-54.8171,-43.4756,-14.5732
580.849,5.25317,-5.11852,0,1.8274,9.59445,-1.75794,-13.9939,-5.67073,-5.09146,-38.0569,-6.27016,-4.29667,-55.7622,-38.9024,-11.9207
580.859,5.35252,-5.18271,0,2.01182,9.60163,-1.67172,-14.7561,-5.57927,-3.81098,-37.6258,-6.54798,-4.55533,-52.8049,-33.0793,-9.69512
580.869,5.50789,-5.25851,0,2.17228,9.59445,-1.73878,-15.1829,-5.36585,-2.16463,-37.3479,-6.86413,-4.73735,-49.1768,-26.6768,-8.2622
580.879,5.87007,-5.27578,0,2.33754,9.52499,-1.66693,-15.4268,-4.45122,-0.365854,-36.9264,-6.95035,-3.76018,-46.0366,-24.2073,-7.83537
580.889,6.12847,-5.28843,0,2.5004,9.51062,-1.5855,-15.4573,-3.75,1.52439,-36.8019,-7.16111,-3.67396,-42.6829,-21.3415,-6.92073
580.899,6.35878,-5.27945,0,2.62734,9.51302,-1.56634,-15.7622,-3.5061,3.78049,-36.6199,-6.77791,-3.30992,-40.122,-20.8537,-4.26829
580.909,6.6245,-5.25176,0,2.76625,9.44596,-1.47773,-16.372,-2.31707,6.7378,-36.6199,-6.46176,-3.00335,-39.4817,-21.8902,-2.9878
580.919,6.93198,-5.1964,0,2.92192,9.38608,-1.37714,-17.3476,-0.97561,9.60366,-36.821,-6.17436,-2.55309,-41.7988,-22.7439,3.10976
580.929,7.29013,-5.1537,0,3.07042,9.23759,-1.43701,-18.628,0.731707,13.1707,-36.9552,-6.19352,-2.73511,-43.9329,-23.1707,7.68293
580.939,7.71158,-5.12594,0,3.26441,9.11065,-1.42025,-19.2073,3.17073,17.6524,-37.1084,-5.71452,-2.95545,-46.6768,-20.3963,13.0793
580.949,8.20356,-5.06377,0,3.47278,8.90708,-1.46336,-18.9939,5.09146,22.4695,-37.7599,-5.15887,-2.40939,-48.5061,-19.2073,16.0366
580.959,8.78563,-4.98924,0,3.79611,8.72266,-1.40827,-17.622,6.76829,28.1402,-38.009,-4.86189,-2.16989,-48.5671,-17.3171,19.1768
580.969,9.4704,-4.92487,0,4.14338,8.48076,-1.29331,-15.7622,8.47561,34.6646,-38.3251,-4.42121,-2.30401,-45.7622,-15.4878,21.9512
580.979,10.2731,-4.85105,0,4.53377,8.27479,-1.27655,-12.9878,11.2805,42.622,-38.488,-4.20086,-2.10283,-42.7744,-13.4451,25.5488
580.989,11.2116,-4.74985,0,5.05589,8.0305,-1.23344,-10.7317,14.2683,51.0366,-38.4017,-3.88472,-1.5855,-37.4085,-13.9024,28.0488
580.999,12.2766,-4.6215,0,5.53968,7.86285,-1.04423,-8.38415,17.9268,59.7866,-37.6545,-3.85598,-1.04902,-32.7439,-17.561,30.5488
581.009,13.4638,-4.50153,0,6.01629,7.70238,-1.01549,-6.46341,23.5366,68.6585,-37.6258,-4.05716,-1.12566,-26.8293,-24.6037,32.0732
581.019,14.7776,-4.40066,0,6.62702,7.49641,-1.08255,-2.95732,30.6707,76.8902,-37.3767,-4.28709,-1.37474,-17.5,-30.7012,31.8902
581.029,16.1746,-4.31558,0,7.01501,7.3575,-1.47294,3.71951,39.8171,83.6585,-37.3479,-3.61648,-1.5855,-5.06098,-36.128,33.6585
581.039,17.5788,-4.2268,0,7.13716,7.54671,-1.95194,12.5,53.0793,87.7134,-37.2617,-3.14706,-1.48012,14.0854,-40.6402,37.1951
581.049,18.9157,-4.11913,0,6.94556,8.04487,-2.47406,19.3598,70.4878,89.0244,-38.2389,-2.73511,-1.1544,34.6646,-44.6951,40.0915
581.059,20.1253,-4.06954,0,6.50966,9.11065,-2.85007,24.8476,88.8719,89.4817,-38.9861,-2.29443,-2.10283,55.4268,-44.5732,43.7805
581.069,21.1937,-4.14149,0,6.02587,10.871,-3.06802,25.2744,101.921,90.9146,-39.513,-2.74469,-4.19128,76.9207,-34.0244,41.2805
581.079,22.1636,-4.32539,0,5.60674,12.3655,-2.90037,20.0915,104.634,92.439,-40.8542,-2.39981,-6.37554,96.6768,-17.0732,38.9024
581.089,23.0651,-4.52819,0,4.85949,12.8157,-2.29203,13.3537,98.9634,94.8476,-42.4158,-3.24286,-7.05573,110.122,0.426829,35.2134
581.099,23.9323,-4.72252,0,4.04519,12.0685,-0.974773,16.1585,84.9085,97.7439,-42.6457,-3.21412,-7.02699,114.604,15.9146,31.0061
581.109,24.742,-4.92308,0,3.28118,11.6039,0.457449,26.5549,71.25,99.2378,-42.0805,-2.00703,-7.17069,115.823,23.5366,28.3232
581.119,25.3047,-5.13579,0,0.790356,12.1835,3.28118,28.2317,37.378,100.335,-41.0746,-1.13524,-7.36229,119.543,26.8293,27.1037
581.129,25.7014,-5.35997,0,-1.25978,12.5978,4.73974,29.2683,-4.60366,103.78,-40.3465,-0.0910107,-7.63053,119.726,17.6524,28.0488
581.139,26.094,-5.56415,0,-1.66454,13.0481,2.46448,23.7805,-13.5671,107.348,-40.5477,0.407153,-7.49641,121.037,8.35366,30.0305
581.149,26.5533,-5.76907,0,-1.13524,13.29,-0.962798,14.2988,11.311,110.091,-40.8063,0.742456,-7.72633,123.628,3.5061,33.9939
581.159,27.0477,-6.01163,0,-0.294587,12.399,-1.78189,6.67683,18.9634,107.409,-40.8926,0.215552,-8.58854,123.049,6.70732,35.8232
581.169,27.5318,-6.21478,0,0.661025,11.3692,-1.31008,3.44512,-4.81707,97.8049,-41.7069,-0.359253,-8.1766,122.927,10,38.5671
581.179,28.0014,-6.34925,0,1.18793,10.5093,-0.958008,-2.2561,-38.3537,90.9451,-42.3966,-0.0335303,-7.14195,121.921,9.81707,41.5244
581.189,28.4723,-6.44679,0,1.7771,9.51062,-0.191602,-2.95732,-70.4878,83.5976,-42.4158,0.215552,-6.55756,119.878,4.81707,46.6463
581.199,28.9237,-6.54012,0,1.96392,8.85678,-0.352068,-1.70732,-84.8476,78.6585,-40.8638,0.340093,-6.33722,120.396,-2.34756,51.128
581.209,29.4329,-6.62519,0,2.5962,8.44244,-0.847837,0.426829,-81.7988,76.0976,-39.3981,0.320933,-6.0594,120.335,-11.1585,57.9878
581.219,29.9564,-6.69816,0,2.98898,8.04487,-1.21906,-0.304878,-67.4695,71.8902,-38.191,0.752036,-5.75284,122.409,-19.9085,61.9207
581.229,30.5016,-6.78404,0,3.52068,7.5994,-1.32445,-1.70732,-49.7866,66.0366,-36.8402,0.799937,-5.83906,122.348,-28.1402,64.4817
581.239,31.0758,-6.82872,0,4.03561,6.95035,-1.04902,-0.0304878,-37.0427,59.3293,-35.8726,0.886157,-5.10139,122.896,-36.6768,64.2683
581.249,31.7196,-6.86152,0,4.86428,6.52882,-1.07776,5.39634,-27.439,54.2378,-34.8859,0.866997,-4.82357,122.561,-43.4756,61.9817
581.259,32.4009,-6.89525,0,5.57321,6.27016,-1.13045,11.4939,-18.5366,49.2988,-34.5218,0.474214,-4.81399,122.409,-45.5183,58.811
581.269,33.103,-6.92305,0,6.07856,5.98276,-1.02267,17.7439,-8.87195,45,-34.3302,0.617915,-4.71819,118.079,-46.0976,52.2561
581.279,33.7853,-6.98054,0,6.39949,5.94444,-1.19511,19.8171,0.884146,41.0366,-33.9278,0.493374,-5.13013,114.909,-45.1829,45.9451
581.289,34.4481,-7.07801,0,6.66534,5.87498,-1.22864,19.7866,9.69512,37.378,-33.4584,1.06818,-5.68578,107.683,-40.8841,37.9268
581.299,35.0923,-7.18928,0,6.84018,5.85822,-1.31487,19.7866,16.9817,35.1829,-33.5351,1.59508,-5.95402,100.884,-36.372,34.0244
581.309,35.6669,-7.34698,0,6.67252,5.74565,-1.36277,20.9146,21.189,29.6951,-34.0236,2.61057,-6.81623,91.0061,-31.6768,31.8598
581.319,36.1223,-7.51905,0,5.89893,5.48459,-1.53042,21.25,20.9756,23.1707,-34.8092,3.44404,-7.28565,80.5488,-26.128,33.872
581.329,36.4614,-7.66364,0,5.17085,5.3361,-1.54239,24.0244,20,18.3232,-36.3612,4.01884,-7.25691,69.0244,-23.5366,35.2744
581.339,36.6547,-7.80188,0,4.40444,5.22114,-1.5376,28.2927,18.1402,12.1951,-37.6258,4.41163,-7.48683,57.1341,-20.0305,34.7561
581.349,36.6765,-7.92671,0,3.89191,5.48938,-1.41785,34.3902,17.1951,5.39634,-39.149,4.50743,-7.64011,44.6037,-17.9268,29.1159
581.359,36.3052,-8.04269,0,3.95418,5.94683,-1.41546,38.0793,18.2012,-1.64634,-40.0591,4.62239,-7.74549,30.5183,-17.7134,23.1402
581.369,36.1701,-8.16326,0,4.2296,6.42344,-1.1544,39.8171,17.378,-7.7439,-40.1262,4.85231,-7.91793,15.1524,-15.1829,14.3902
581.379,36.0532,-8.29435,0,5.07984,6.65336,-1.0107,41.7378,17.9268,-14.3598,-40.2986,4.74693,-8.23408,-1.03659,-15.0305,4.57317
581.389,35.919,-8.43155,0,5.69296,6.81144,-0.960403,44.878,20.5183,-21.5244,-40.222,4.82357,-8.4161,-17.7134,-11.9512,-3.2622
581.399,35.757,-8.59097,0,6.01868,6.79467,-0.845442,45.0305,21.189,-27.9878,-40.3561,4.84273,-8.95258,-31.6159,-10.2439,-8.17073
581.409,35.5975,-8.74105,0,6.57912,6.73719,-0.740061,42.5305,19.3902,-33.75,-40.8447,4.30625,-9.00048,-44.7256,-9.32927,-10.1524
581.419,35.4339,-8.86676,0,6.87131,6.84976,-0.63468,36.2195,11.7988,-36.0671,-41.0267,3.59732,-8.69392,-54.7866,-9.90854,-13.1098
581.429,35.2582,-8.97825,0,7.12518,7.13476,-0.431104,30.4878,5.2439,-37.378,-41.1033,2.88839,-8.54064,-60.4268,-11.311,-14.6646
581.439,35.063,-9.10212,0,7.36708,7.47725,-0.364043,28.1402,0.0609756,-38.9329,-40.9021,2.11241,-8.81846,-64.5122,-12.1646,-16.4329
581.449,34.8653,-9.20436,0,7.30002,7.60658,-0.402363,23.872,-6.40244,-38.0488,-40.8542,1.22146,-8.49274,-63.9329,-12.0427,-17.1341
581.459,34.721,-9.29333,0,7.56587,7.57066,-0.340093,22.622,-15.1524,-35.3659,-40.768,0.675395,-8.31072,-62.1646,-14.2988,-16.1585
581.469,34.6148,-9.36557,0,7.94667,7.99937,-0.383203,21.0976,-21.5244,-31.4329,-41.0075,-0.0239502,-8.11912,-59.3598,-16.4939,-13.7195
581.479,34.5585,-9.44534,0,8.54782,8.40412,-0.198787,18.4146,-21.7378,-27.9268,-40.9788,0.0814307,-8.3203,-54.1159,-19.6951,-11.4634
581.489,34.5829,-9.53541,0,9.29507,8.6053,-0.110171,15.6707,-19.939,-23.3232,-40.9788,0.0622705,-8.58854,-49.7561,-23.6585,-5.67073
581.499,34.7157,-9.64288,0,9.98244,8.58854,-0.119751,13.2012,-18.6585,-16.4634,-41.247,0.282612,-9.04838,-42.8659,-25,0.304878
581.509,34.9518,-9.788,0,10.198,8.15265,-0.229922,11.0366,-17.3171,-9.87805,-41.429,0.589175,-9.89143,-38.3841,-24.3902,6.40244
581.519,35.2572,-9.96899,0,9.85072,7.72633,-0.687371,13.5061,-15.061,-3.53659,-41.6973,1.2023,-10.7536,-33.3537,-20.7927,12.4695
581.529,35.6033,-10.1828,0,8.95977,7.29523,-1.15679,18.2012,-13.3841,1.85976,-41.5057,1.87291,-11.4626,-28.3232,-14.3598,19.0244
581.539,35.9069,-10.4379,0,7.90596,7.0222,-1.54958,24.1768,-11.8902,4.69512,-41.9081,3.24286,-12.5355,-24.9085,-5.36585,24.0854
581.549,36.1477,-10.6335,0,6.89766,6.86892,-1.54718,28.689,-15.8841,5.64024,-42.5308,4.16254,-11.7021,-22.9573,-1.37195,28.0793
581.559,36.2681,-10.7955,0,5.9157,7.03417,-1.5376,29.7256,-21.5244,3.56707,-43.5271,5.26425,-11.453,-21.7073,-3.47561,28.5671
581.569,36.1768,-10.922,0,5.03912,7.55629,-1.84417,25.0305,-25.5488,-2.31707,-43.7283,5.6762,-10.9069,-19.4512,-3.35366,26.189
581.579,35.8539,-10.9563,0,4.36852,8.658,-2.04535,18.2927,-24.8476,-13.75,-44.2073,5.56124,-9.23999,-15.9451,-3.2622,20.6707
581.589,35.2694,-11.0116,0,3.81527,10.1621,-2.09564,13.0793,-23.9939,-28.4756,-44.4851,5.48459,-9.72857,-9.11585,3.32317,11.9512
581.599,34.47,-11.1121,0,3.04886,10.8734,-2.12438,7.16463,-35,-41.5549,-45.4431,4.60323,-10.8494,-5.91463,24.4207,-0.823171
581.609,33.6323,-11.2206,0,2.97701,10.7872,-1.9256,-4.5122,-51.8598,-46.6159,-46.0371,1.80584,-11.1368,-0.792683,51.0671,-13.5061
581.619,32.8945,-11.2193,0,3.65001,10.4399,-0.804727,-18.628,-64.3293,-45.9756,-46.6023,-0.512534,-8.93342,2.62195,67.7744,-25
581.629,32.2599,-11.0708,0,4.40684,10.768,0.105381,-26.0061,-72.7134,-43.0488,-46.8897,-3.16622,-5.85822,11.3415,70.4268,-36.9207
581.639,31.7418,-10.7659,0,5.48459,11.52,-0.426313,-27.2866,-72.8049,-38.9939,-47.2537,-5.47501,-2.52435,27.8659,63.5976,-48.75
581.649,31.3996,-10.3218,0,6.90005,11.5272,-1.83938,-17.5305,-58.2927,-33.2012,-46.6693,-6.23184,0.589175,44.6341,55.4268,-58.1402
581.659,31.2011,-9.75851,0,8.04487,11.1608,-3.4632,-5.39634,-37.7439,-29.2073,-46.7268,-6.18394,3.4153,53.5976,55.9451,-62.7439
581.669,30.9305,-9.08652,0,6.96951,11.3787,-4.49545,-9.78659,-19.2378,-28.2012,-46.6981,-6.00192,6.13604,51.311,55.4878,-57.0427
581.679,30.4235,-8.16449,0,3.76497,10.7249,-3.34345,-17.5915,1.21951,-28.0793,-48.9302,-3.2716,12.5068,40.7622,28.5061,-45.2439
581.689,29.5818,-7.38752,0,0.541274,9.81479,-1.2502,-11.5549,12.1646,-30.2439,-45.5293,-5.74326,9.37411,54.9695,36.0061,-30.2439
581.699,28.4235,-6.58748,0,-2.01661,9.60403,-0.919688,-5.09146,2.71341,-33.628,-43.1439,-3.88472,9.92975,48.5366,29.4207,-13.628
581.709,27.1679,-5.76622,0,-2.77104,9.71659,-2.35191,-6.98171,-18.5366,-37.622,-42.2721,-1.71004,10.7345,34.0244,19.6037,0.213415
581.719,25.8824,-4.93814,0,-2.61057,9.49386,-3.54702,-10.2134,-36.4329,-44.3598,-41.8123,0.100591,11.3668,17.9573,12.8049,5.82317
581.729,24.6042,-4.16693,0,-2.04535,9.36692,-4.4715,-14.1159,-51.189,-52.4695,-40.586,1.93997,10.5525,1.82927,7.59146,6.4939
581.739,23.4284,-3.4805,0,-0.780776,9.41482,-5.07984,-18.811,-59.1463,-60.0915,-40.0112,3.30992,9.37411,-16.7073,3.78049,5.85366
581.749,22.3819,-2.87037,0,0.474214,9.46991,-4.93374,-22.378,-54.878,-64.8171,-39.5418,4.48827,8.34904,-33.3537,-0.884146,3.62805
581.759,21.4659,-2.35817,0,1.63101,9.27831,-4.08351,-21.9512,-46.189,-68.1402,-39.3214,4.84273,6.95993,-46.189,-5.33537,-0.0304878
581.769,20.6488,-1.90751,0,2.40939,9.07712,-3.50631,-17.8963,-34.0549,-69.9085,-39.264,4.20086,6.2031,-60.7622,-8.9939,-6.79878
581.779,19.8538,-1.5541,0,2.56986,9.04838,-3.25723,-14.0549,-20.3963,-71.3415,-39.1681,2.74469,4.77567,-73.1402,-13.2012,-17.6524
581.789,19.0306,-1.24817,0,2.32317,9.02922,-3.14706,-11.0366,-10.6402,-72.9268,-38.488,1.17356,4.10506,-80.9756,-16.8293,-26.7073
581.799,18.109,-0.983881,0,1.54718,9.12023,-3.03688,-8.87195,-8.01829,-74.8476,-37.7216,-0.866997,3.52068,-86.8598,-18.9329,-34.4817
581.809,17.1185,-0.789373,0,0.835862,9.11065,-2.76864,-8.81098,-11.2805,-74.8171,-37.3,-2.89797,2.49561,-87.6219,-20.2439,-41.6768
581.819,16.0809,-0.659204,0,0.287402,9.10107,-2.53393,-10.8232,-18.628,-74.6341,-36.6294,-4.86189,1.5376,-85.8537,-18.9939,-47.8354
581.829,15.0695,-0.594603,0,0.301772,9.07712,-2.43813,-11.1585,-25.0305,-74.2683,-36.2462,-6.1552,0.560435,-80.1829,-17.439,-51.8902
581.839,14.1684,-0.582449,0,0.929268,8.95258,-2.60339,-9.84756,-31.7073,-73.2927,-36.1025,-7.54431,-0.234712,-71.311,-17.1341,-54.0244
581.849,13.3074,-0.61086,0,1.08973,8.92863,-2.57225,-9.2378,-37.7134,-73.1402,-36.2558,-8.2724,-0.876577,-61.372,-17.1951,-56.6768
581.859,12.5066,-0.650453,0,1.44899,8.81846,-2.73751,-9.48171,-41.2195,-73.5976,-36.1217,-8.2724,-1.06818,-49.0244,-16.7988,-58.5671
581.869,11.7073,-0.733749,0,1.33163,8.65081,-2.70877,-9.26829,-44.1463,-73.9024,-35.7672,-7.77423,-1.7771,-36.0061,-18.2927,-59.4512
581.879,10.9261,-0.814282,0,1.23823,8.62207,-2.80696,-9.26829,-46.0671,-72.5,-34.9625,-7.17069,-1.74836,-24.939,-19.2683,-59.4817
581.889,10.2335,-0.88802,0,1.64777,8.66758,-2.72793,-9.45122,-47.1951,-70.3354,-34.2631,-6.3947,-1.66214,-16.0976,-20.3963,-58.3232
581.899,9.60781,-0.928742,0,2.07648,8.74901,-2.55788,-8.41463,-48.5366,-70.2134,-33.5446,-5.48459,-1.18314,-5.88415,-20.9451,-57.7744
581.909,9.03442,-0.940931,0,2.2609,8.69153,-2.31359,-8.65854,-47.0732,-68.6585,-33.4872,-4.81399,-0.799937,-1.18902,-26.6463,-57.0427
581.919,8.51348,-0.97085,0,2.4525,8.57656,-2.10522,-9.87805,-45.5183,-67.2866,-33.583,-4.38289,-1.08734,5.09146,-31.9207,-56.128
581.929,8.009,-0.985388,0,2.38304,8.62926,-2.13157,-11.372,-43.5976,-65.6098,-33.9087,-3.93262,-0.895737,10.6402,-35.3963,-53.0488
581.939,7.51307,-1.01706,0,2.26808,8.54303,-2.12438,-12.7744,-41.0671,-64.6037,-34.1578,-3.44404,-1.17356,13.811,-36.8902,-50.4573
581.949,7.05806,-1.05331,0,2.25132,8.43765,-2.24174,-13.5366,-38.1098,-61.5854,-34.1769,-2.71595,-1.25978,14.5427,-36.0671,-45.0305
581.959,6.66075,-1.07782,0,2.45969,8.61489,-2.29682,-13.7805,-34.7561,-58.6585,-34.1386,-2.39023,-1.1065,11.7988,-37.2256,-40.2744
581.969,6.26846,-1.13499,0,2.27766,8.89989,-2.38065,-13.4146,-34.4207,-55.7317,-34.2344,-2.84049,-1.61424,10,-35.9756,-33.0488
581.979,5.89477,-1.20815,0,2.4501,9.40045,-2.48364,-11.9207,-33.75,-55.1524,-34.1194,-3.5111,-1.88249,7.83537,-35.4878,-29.8171
581.989,5.54107,-1.3001,0,2.63213,9.44117,-2.63692,-10.3049,-33.689,-55.8537,-34.0715,-3.80808,-2.19863,5.2439,-32.7134,-25.1829
581.999,5.2298,-1.4223,0,2.8381,9.18729,-2.73032,-11.0976,-31.5244,-55.4878,-33.8033,-4.79483,-2.67763,2.43902,-28.9329,-22.0427
582.009,4.94909,-1.57941,0,2.84768,9.0388,-2.79259,-11.7683,-31.7073,-53.6585,-33.2285,-5.45585,-3.19496,0.457317,-20.7012,-18.8415
582.019,4.70374,-1.75529,0,2.86684,8.86876,-2.94827,-11.4329,-30.8232,-51.4939,-33.4105,-5.76242,-3.559,-4.32927,-12.0122,-14.4512
582.029,4.52905,-1.95134,0,3.09197,8.66758,-3.08718,-11.0671,-28.5061,-48.2927,-33.5255,-5.6283,-3.95178,-7.04268,-3.35366,-8.23171
582.039,4.4126,-2.2199,0,3.25004,8.63644,-3.15903,-11.9512,-23.9024,-44.7256,-33.7267,-5.12055,-5.15887,-9.29878,7.34756,-1.7378
582.049,4.30875,-2.52496,0,3.20693,8.66997,-3.07281,-11.5244,-18.1098,-43.0183,-33.5255,-4.56491,-5.81032,-12.0122,18.4146,4.66463
582.059,4.19496,-2.91302,0,3.01293,8.79691,-2.87642,-11.6463,-10.3963,-41.4024,-33.2668,-4.26792,-7.18027,-16.1585,29.2683,9.05488
582.069,4.04655,-3.31719,0,2.75906,8.98132,-2.43094,-10.8841,-4.29878,-41.4329,-32.3471,-3.62606,-7.42935,-20.122,37.1951,14.2988
582.079,3.83397,-3.74699,0,2.23216,8.94061,-2.0669,-9.5122,-0.0304878,-42.0427,-32.031,-3.4632,-7.96584,-22.2561,41.4329,22.7439
582.089,3.55605,-4.1273,0,1.76752,8.83283,-1.9735,-8.10976,1.21951,-43.628,-32.146,-2.87881,-7.50599,-27.7134,41.9817,29.4512
582.099,3.23031,-4.44798,0,1.39869,8.65081,-2.08127,-6.98171,1.12805,-44.7256,-32.8836,-2.41897,-7.00783,-36.6768,39.3902,35.122
582.109,2.85903,-4.69817,0,1.1065,8.76577,-2.42615,-7.13415,-3.56707,-45.9756,-34.4356,-2.29443,-6.43302,-49.5122,37.2561,41.311
582.119,2.46139,-4.95793,0,0.969983,9.07233,-2.5962,-9.93902,-10,-47.1951,-35.8534,-2.08367,-7.01741,-60.2134,37.0732,45.061
582.129,2.04752,-5.15507,0,0.967588,9.37171,-2.51956,-12.3171,-15.7927,-49.2378,-38.1718,-2.07409,-6.55756,-68.9939,38.0793,46.6768
582.139,1.65624,-5.34185,0,1.12805,9.49625,-2.47406,-13.75,-19.0244,-49.5732,-39.8292,-2.40939,-6.80665,-76.2805,35.122,46.0976
582.149,1.28234,-5.50835,0,1.11368,9.35495,-2.27766,-13.0793,-21.311,-48.628,-40.9309,-2.86923,-6.76833,-78.3841,31.6768,44.0244
582.159,0.921716,-5.60924,0,1.00351,9.26394,-2.31598,-12.3476,-21.6768,-46.7988,-41.8602,-4.12422,-5.8199,-81.311,28.5061,44.6341
582.169,0.587731,-5.69173,0,0.890947,9.11065,-2.42136,-11.8293,-20.7012,-43.5976,-42.6649,-6.11688,-5.6762,-80.1524,23.0488,41.311
582.179,0.3019,-5.77778,0,0.874182,9.0412,-2.63213,-11.2195,-20.0305,-39.2378,-42.6266,-7.33355,-5.8199,-77.8659,18.1707,34.6341
582.189,0.0894381,-5.94834,0,1.02028,9.2328,-3.00335,-12.4085,-17.2866,-33.9329,-41.8889,-8.14786,-7.37187,-69.7561,20.9756,29.4817
582.199,-0.0576598,-6.20793,0,1.15679,9.46033,-2.97461,-14.3598,-15.5183,-29.0549,-41.4099,-9.09628,-9.06754,-55.3963,30.7927,23.7805
582.209,-0.141257,-6.54344,0,1.23583,9.92017,-2.72314,-16.7988,-14.0549,-23.1402,-41.2566,-9.58487,-10.6387,-38.8415,44.6037,18.689
582.219,-0.147515,-6.9964,0,1.45138,10.4638,-2.38783,-18.9329,-12.439,-17.0427,-40.7393,-10.3034,-12.9666,-18.9634,65.9756,14.5732
582.229,-0.0836368,-7.46955,0,1.65975,11.0674,-2.2106,-21.0671,-10.7012,-11.189,-41.1608,-10.9452,-13.7809,1.37195,87.6219,8.47561
582.239,0.0487266,-7.88477,0,1.99505,11.2997,-2.34472,-21.7988,-8.56707,-7.10366,-40.9884,-11.6254,-12.8804,23.1402,102.988,4.35976
582.249,0.225825,-8.12541,0,2.2585,11.2997,-2.80217,-22.4085,-6.76829,-4.93902,-42.2434,-12.2673,-10.1022,39.4817,103.506,0.884146
582.259,0.438516,-8.34192,0,2.46927,11.2758,-3.19496,-22.1341,-7.68293,-3.2622,-43.9773,-12.8804,-10.2076,47.5,106.128,-0.97561
582.269,0.755294,-8.40684,0,2.7878,11.2494,-3.72186,-23.2012,-10.2134,-0.0609756,-47.0142,-12.6888,-7.84129,53.4451,103.506,-4.5122
582.279,1.1182,-8.38871,0,3.20693,11.3524,-3.93262,-25.7012,-18.0793,6.37195,-49.802,-11.5679,-6.4905,55.3049,105.854,-4.66463
582.289,1.62301,-8.20607,0,3.79371,11.2111,-4.16015,-30.061,-28.75,15.6402,-53.088,-8.53106,-3.04167,52.622,100.457,-1.79878
582.299,2.31244,-7.89779,0,4.5218,10.9165,-4.13141,-34.5427,-36.6463,27.7439,-56.0099,-5.81032,0.00479004,46.7988,86.1281,2.13415
582.309,3.23923,-7.56743,0,5.60674,10.4303,-3.79371,-37.5,-36.9817,41.6159,-57.3128,-1.31726,0.828677,35.9451,77.5,7.5
582.319,4.36596,-7.1763,0,6.41147,10.1549,-3.24525,-39.7866,-31.9207,55.7317,-60.3784,8.0808,2.79259,29.3902,68.4146,21.0976
582.329,5.66344,-6.96656,0,7.04615,10.0184,-2.50759,-43.3232,-25.8841,69.6341,-50.2427,4.69903,-1.33642,-9.69512,71.9512,32.5915
582.339,7.0952,-6.57079,0,7.25451,9.87467,-1.35558,-48.3537,-14.5732,83.5671,-49.3135,8.3203,2.92671,-28.4451,74.5122,34.9695
582.349,8.62626,-6.12758,0,6.74198,9.33818,-0.0263452,-53.628,1.4939,97.5915,-44.0157,6.1073,3.80808,-50.5488,65.3659,29.2378
582.359,10.2065,-5.59489,0,5.68099,8.8017,0.979563,-55.2134,16.3415,111.829,-40.7201,4.1338,5.40795,-62.5915,48.6585,14.7256
582.369,11.8032,-5.02482,0,4.48108,7.80297,0.550855,-47.0427,30.4878,122.805,-39.0532,1.78668,6.16478,-58.75,34.2683,-4.84756
582.379,13.3153,-4.37027,0,2.94587,7.08686,-1.01788,-30.061,44.3902,132.317,-37.6449,-0.598755,7.72633,-46.5549,19.0549,-18.4756
582.389,14.6395,-4.04464,0,1.57592,7.40301,-1.80105,-13.5671,57.7744,137.774,-40.2699,-6.92161,2.71595,-38.4451,1.12805,-26.5549
582.399,15.7839,-3.4843,0,0.170046,8.02092,-2.33993,1.28049,66.1281,144.177,-39.4268,-4.42121,6.98867,-34.1768,-10.8537,-32.2256
582.409,16.782,-3.01128,0,-0.953218,8.54782,-2.92911,9.57317,69.1768,147.043,-41.0075,-5.66662,6.07856,-24.4817,-5.88415,-35.2134
582.419,17.7191,-2.55345,0,-1.35798,9.59684,-2.84049,11.5549,62.5,146.311,-43.278,-6.2031,6.46176,-24.9695,-11.7073,-34.7866
582.429,18.5739,-2.21397,0,-2.04295,11.5248,-2.57944,10.4878,44.2683,143.902,-43.6229,-6.57672,4.53617,-26.7683,-16.7073,-30.5488
582.439,19.432,-1.9529,0,-2.01182,13.278,-2.78301,9.14634,33.7195,143.049,-43.2205,-5.85822,3.23328,-28.0183,-20.3049,-21.6159
582.449,20.3773,-1.77208,0,-0.593965,14.9186,-3.4153,11.9512,33.9329,140.762,-41.9655,-5.11097,1.825,-27.9573,-24.8476,-7.53049
582.459,21.3429,-1.59488,0,1.33163,16.0203,-4.22242,17.3171,33.1098,130.427,-40.7105,-4.33499,1.81542,-23.1707,-30.1829,8.41463
582.469,22.3287,-1.47697,0,3.51589,15.7544,-4.86907,19.6951,31.0061,118.476,-39.3119,-2.63931,0.838257,-17.0122,-32.561,26.6159
582.479,23.3039,-1.36603,0,4.57449,13.9989,-4.20565,18.4756,30.1829,108.14,-38.4975,-1.41306,0.771196,-10.3354,-35.7622,42.439
582.489,24.235,-1.26623,0,4.45713,12.3607,-2.88839,22.561,33.5061,102.104,-38.2772,-0.119751,0.646655,-6.46341,-37.6524,52.622
582.499,25.125,-1.18898,0,3.93023,11.1009,-1.81542,30.122,44.9695,100.488,-37.7695,0.780776,0.330513,-7.34756,-36.9817,58.9939
582.509,25.9513,-1.14584,0,3.23088,10.368,-1.38432,37.8963,64.2683,100.274,-37.2138,1.346,-0.167651,-11.2195,-32.0122,61.0061
582.519,26.6793,-1.14448,0,2.41178,10.7752,-1.28852,46.25,86.8598,101.494,-36.5528,2.11241,-0.790356,-17.9573,-25.7317,60.9451
582.529,27.3231,-1.18813,0,1.97829,11.0123,-1.60706,50.8232,106.189,99.3598,-36.275,1.92081,-1.48012,-26.189,-18.1402,58.2622
582.539,27.8404,-1.24171,0,1.51365,10.9357,-1.67412,50.4573,119.207,92.4695,-35.796,1.75794,-1.6334,-34.5427,-14.4207,53.1402
582.549,28.1617,-1.31239,0,0.268242,10.6171,-1.65975,48.689,124.146,86.6463,-35.2403,1.42264,-1.91123,-39.6951,-15.7012,49.6951
582.559,28.3894,-1.38294,0,-0.146096,10.21,-1.42504,47.378,125.701,82.3781,-34.9529,1.18314,-1.94955,-42.439,-19.939,46.7378
582.569,28.5629,-1.4776,0,-0.299377,9.89383,-1.09931,46.9817,125.305,79.1768,-34.6847,0.234712,-2.37107,-44.0244,-27.7439,44.5732
582.579,28.75,-1.61758,0,-0.0143701,9.5681,-0.783171,47.6829,124.024,77.561,-34.1961,-0.502954,-3.08958,-41.2805,-30.3354,43.4146
582.589,28.9386,-1.77107,0,0.282612,9.06036,-0.524509,49.2073,121.921,74.2683,-33.3818,-0.694556,-3.30992,-39.9695,-34.1463,44.1159
582.599,29.1377,-1.89907,0,0.737666,8.43286,-0.512534,50.122,120.518,69.1768,-33.5351,-0.981958,-3.05125,-39.7866,-39.4817,48.75
582.609,29.3228,-2.05325,0,1.08494,8.1263,-0.641865,50.122,112.561,62.8354,-33.1902,-1.12566,-3.49194,-36.2805,-43.1402,53.2622
582.619,29.3274,-2.23226,0,0.165256,8.20294,-0.744851,47.0732,97.5915,57.9573,-33.1902,-1.35558,-3.95178,-34.3598,-43.6585,57.5305
582.629,29.269,-2.36743,0,-0.0191602,7.92991,-0.941243,43.7195,85.6707,54.1768,-33.5734,-1.26936,-3.44404,-36.5244,-42.7134,59.8476
582.639,29.109,-2.56232,0,-0.421523,7.53473,-1.21188,41.0671,71.9207,49.939,-33.4393,-0.847837,-4.39247,-38.2622,-39.2988,60.2744
582.649,28.8611,-2.77517,0,-0.756826,7.22817,-1.19751,38.3232,60.2744,46.311,-33.6117,-0.416733,-4.78525,-41.0976,-33.3841,58.3841
582.659,28.5169,-3.0277,0,-1.14482,7.39343,-1.24541,33.872,49.878,41.7378,-33.3626,0.148491,-5.45585,-42.5305,-27.378,55.5488
582.669,28.0541,-3.32755,0,-1.55916,7.5994,-1.17595,29.2378,38.1707,34.6341,-33.2381,0.426313,-6.27974,-41.25,-20,48.872
582.679,27.5239,-3.662,0,-1.72681,7.60179,-1.11368,24.1768,23.7805,29.2683,-33.4297,0.464634,-7.00783,-39.2683,-13.3841,40.1829
582.689,26.8871,-3.97435,0,-2.14833,7.41259,-0.869392,22.6829,8.2622,24.1768,-32.9411,0.359253,-6.75875,-36.6159,-9.11585,29.0244
582.699,26.0188,-4.32392,0,-3.07281,7.2617,-0.986748,22.9878,-21.2195,13.0793,-32.3471,0.177231,-7.36229,-29.8476,-4.11585,17.1646
582.709,20.484,-4.67357,0,-3.58295,7.24254,-0.938848,24.7866,-51.9817,-0.914634,-31.9831,-0.167651,-7.46767,-24.0244,2.22561,8.41463
582.719,19.5534,-5.04225,0,-2.82612,7.52276,-0.330513,20.122,-68.2622,-11.128,-31.8298,-0.598755,-7.90835,-18.5671,6.18902,1.31098
582.729,18.8783,-5.37944,0,-0.431104,7.65927,0.60115,13.689,-61.9512,-22.4085,-32.1843,-0.761616,-7.73591,-13.5061,8.41463,-5.03049
582.739,18.4128,-5.73699,0,1.0562,7.26409,1.81063,6.55488,-56.4024,-25.8537,-31.9352,-0.704136,-8.16702,-11.7073,12.8049,-9.5122
582.749,18.0542,-6.07016,0,1.47294,6.88568,1.83458,2.7439,-78.75,-23.6585,-32.6441,-0.407153,-8.18618,-12.0427,14.6646,-12.2561
582.759,18.011,-6.38019,0,3.72665,6.77312,1.37953,8.62805,-102.226,-26.372,-33.9662,0.0814307,-8.35862,-12.439,14.9695,-14.1768
582.769,18.0865,-6.67361,0,5.61872,7.24014,-0.208367,16.0061,-119.36,-32.7134,-35.7864,0.579595,-8.73224,-11.5549,15.5488,-13.75
582.779,18.2824,-6.93968,0,7.22338,7.62574,-1.8777,17.5915,-132.957,-31.7683,-37.7407,0.761616,-8.92384,-10.7317,18.0183,-12.8049
582.789,18.5256,-7.17501,0,8.37778,8.15504,-3.21412,17.8049,-147.835,-31.2805,-40.1357,1.23104,-9.10586,-7.7439,20.1829,-10.4268
582.799,18.825,-7.34082,0,8.87594,8.26042,-3.98292,17.1951,-156.159,-27.6829,-42.8469,1.38432,-8.53106,-4.02439,20.4878,-9.45122
582.809,19.311,-7.48446,0,9.77647,7.74549,-4.15536,17.4695,-162.957,-17.3171,-44.8779,0.694556,-8.6077,1.79878,22.2866,-11.3415
582.819,20.0031,-7.60976,0,11.1368,7.0701,-4.48827,23.0488,-159.878,-7.5,-45.4144,-0.493374,-8.43526,8.62805,25.5793,-16.6159
582.829,20.7742,-7.76893,0,12.6098,7.67364,-4.74453,29.3598,-139.817,-0.548781,-44.6671,-1.52802,-9.07712,14.7561,28.7195,-23.5366
582.839,21.5815,-7.95542,0,14.2576,8.06882,-4.68705,30.5793,-100.061,1.28049,-43.0577,-1.91123,-9.40285,18.0183,32.1951,-26.5854
582.849,22.4245,-8.23072,0,15.1126,7.66885,-4.53856,31.6768,-47.2256,1.28049,-41.2662,-1.66214,-10.8303,18.5366,40.7927,-24.0244
582.859,23.2633,-8.54776,0,14.9569,7.26409,-4.43558,31.4329,3.68902,0.487805,-40.107,-0.828677,-11.4817,14.1463,52.8354,-15.8537
582.869,24.0706,-8.96249,0,13.745,6.73719,-3.98292,31.4634,41.4634,-0.731707,-39.6376,0.483794,-13.3977,5.2439,69.7561,-5.97561
582.879,24.7644,-9.38591,0,11.8003,6.63899,-3.63324,31.2805,69.7561,-3.87195,-39.7813,2.35191,-13.8767,-8.62805,85.8537,5
582.889,25.2165,-9.74388,0,8.90708,7.06052,-3.03209,31.5244,95.2134,-8.62805,-41.5248,4.28709,-13.4552,-25.9146,95.3049,12.8354
582.899,25.2606,-9.87086,0,6.13125,8.51908,-2.24892,29.8476,113.841,-16.9817,-45.0407,6.40428,-10.0064,-39.939,85.8537,22.0427
582.909,24.8252,-10.011,0,3.55181,11.441,-2.18426,25.8232,127.896,-28.0793,-48.4417,8.10954,-11.2039,-48.5061,78.0793,30.4878
582.919,24.0079,-10.1664,0,1.00112,13.5295,-2.74469,17.439,116.585,-41.372,-51.2774,7.72633,-12.3344,-52.5305,82.9268,39.5122
582.929,23.0684,-10.2192,0,0.287402,12.5619,-2.19623,14.1159,77.9268,-49.5427,-53.5095,5.772,-10.4375,-59.2378,93.3232,44.1159
582.939,22.2756,-10.1714,0,1.56395,11.8649,-1.62861,0.945122,56.7683,-49.1463,-54.458,2.11241,-8.16702,-70.2134,97.9573,42.5305
582.949,21.4833,-10.0167,0,1.56874,12.9163,0.210762,-14.0244,42.5915,-49.5122,-54.1993,-1.02986,-5.50376,-77.7439,93.9024,37.6829
582.959,20.6221,-9.70031,0,0.835862,13.3115,1.36277,-7.28659,5.21341,-51.372,-54.2376,-3.11832,-1.55676,-74.5427,77.5,26.0671
582.969,19.8916,-9.29023,0,1.78668,12.1811,-0.60115,4.57317,-19.3293,-49.4817,-53.7586,-4.05716,0.876577,-63.1402,56.311,15.6098
582.979,19.3086,-8.77918,0,2.64889,11.5847,-4.31582,6.40244,-13.5976,-45.1829,-52.5228,-5.46543,3.5111,-49.4207,42.3476,9.81707
582.989,18.6568,-8.14873,0,1.60945,11.5727,-4.52659,-0.792683,2.10366,-43.2622,-50.4152,-7.31439,6.43302,-47.622,26.311,7.40854
582.999,17.771,-7.9221,0,-0.881367,11.6781,-2.019,-7.07317,8.14024,-43.5061,-40.9692,-16.4346,-1.64298,-43.9024,26.1585,2.0122
583.009,16.6354,-7.17728,0,-3.68114,11.8721,-0.826282,-11.9207,-10.1524,-44.4512,-45.9125,-7.89877,8.78014,-44.0549,-12.1951,-1.43293
583.019,15.4042,-6.57471,0,-4.45474,11.0722,-1.94236,-18.3232,-34.2073,-46.9512,-42.2242,-8.1766,5.9157,-39.0244,-12.8659,-2.77439
583.029,14.1036,-5.97403,0,-4.65831,10.0399,-3.05125,-21.8293,-48.689,-50.4878,-39.6663,-5.90612,5.93486,-44.0244,-17.0732,1.40244
583.039,12.8298,-5.41469,0,-3.86796,9.22322,-3.65001,-24.2683,-63.4451,-54.7561,-38.8712,-3.61648,5.48459,-50.9451,-24.1463,8.59756
583.049,11.7006,-4.89029,0,-2.36388,9.13939,-4.81878,-30.8841,-74.8781,-59.4512,-38.7275,-2.45729,5.21635,-53.9024,-31.6463,16.2805
583.059,10.7953,-4.42029,0,-0.294587,9.05796,-5.2427,-33.7805,-81.7073,-64.6951,-38.7275,-1.02028,4.60323,-55.061,-40.3659,20.8232
583.069,10.1287,-4.00481,0,1.80105,8.83283,-4.63436,-33.3232,-74.9695,-69.5122,-38.8903,0.330513,3.98052,-58.872,-45.9756,21.189
583.079,9.58415,-3.63324,0,3.01772,8.85678,-4.33738,-27.4695,-57.622,-73.2927,-38.9957,1.60466,3.50152,-63.628,-50,17.378
583.089,9.14011,-3.32439,0,4.00208,8.70111,-4.0883,-21.0671,-34.9695,-76.1585,-38.555,2.62973,2.62973,-67.4085,-53.3537,9.17683
583.099,8.64798,-3.12,0,3.59492,8.42568,-3.19735,-13.811,-15.0305,-78.7195,-37.894,2.34233,1.03944,-70.1829,-53.689,-3.29268
583.109,8.08235,-2.96318,0,2.98898,8.3682,-2.48843,-7.43902,-3.62805,-80.1829,-36.821,1.84417,0.378413,-72.8659,-50.7317,-17.5915
583.119,7.34298,-2.86507,0,1.64777,8.47597,-2.22018,-3.07927,-3.20122,-81.4024,-36.7348,0.723296,-0.474214,-73.75,-51.3415,-32.622
583.129,6.53691,-2.77939,0,1.04423,8.46639,-2.21539,-1.06707,-6.76829,-81.6159,-36.8402,-1.16398,-0.627495,-72.6219,-55.4268,-45.0305
583.139,5.66317,-2.75786,0,0.253872,8.52387,-2.39981,-0.365854,-15.7317,-79.2988,-36.5911,-3.19496,-1.61424,-71.5244,-58.628,-54.5427
583.149,4.90826,-2.77234,0,0.764011,8.81846,-2.41178,-1.89024,-25.0305,-75.5793,-36.6294,-3.8943,-2.17947,-70.3659,-56.8902,-61.7073
