time,angle1,angle2,intgangle,accX1,accY1,accZ1,gyroX1,gyroY1,gyroZ1,accX2,accY2,accZ2,gyroX2,gyroY2,gyroZ2
349.192,73.4178,5.39607,0,8.02092,2.28006,5.73847,-0.121951,0.335366,-1.58537,-38.8712,-3.50152,3.92304,-15.2439,-4.29878,6.21951
349.202,73.4165,5.38892,0,8.0329,2.29443,5.772,0,0.304878,-1.76829,-38.8233,-3.34824,3.53026,-13.75,-3.9939,6.15854
349.212,73.4116,5.38837,0,8.02811,2.31119,5.72649,-0.121951,0.548781,-1.82927,-38.9765,-3.4632,3.6548,-14.0549,-3.68902,5.82317
349.222,73.4091,5.39792,0,7.99697,2.3064,5.75763,-0.0609756,0.365854,-1.58537,-38.8807,-3.32908,3.81766,-14.5732,-4.35976,6.92073
349.232,73.3993,5.39559,0,7.98979,2.33754,5.7696,-0.152439,0.27439,-1.7378,-38.8424,-3.49194,3.61648,-14.8476,-4.02439,5.64024
349.242,73.3947,5.39563,0,8.01134,2.31838,5.7241,-0.0609756,0.365854,-1.67683,-38.8137,-3.35782,3.6548,-14.5122,-3.5061,6.21951
349.252,73.3877,5.39762,0,8.03529,2.34233,5.74565,-0.243902,0.365854,-1.64634,-38.7562,-3.33866,3.68354,-14.4512,-3.32317,5.06098
349.262,73.384,5.39955,0,8.04008,2.31598,5.69296,0.0914634,0.304878,-1.76829,-39.0628,-3.38656,3.71228,-15.122,-3.59756,6.03659
349.272,73.3913,5.39159,0,8.05206,2.28006,5.71931,-0.27439,0.152439,-1.46341,-39.0628,-3.45362,3.53984,-15.5793,-4.11585,5.85366
349.282,73.387,5.38083,0,8.00655,2.31598,5.75523,-0.243902,0.0609756,-1.67683,-38.9382,-3.54942,3.47278,-15.1524,-4.7561,5.51829
349.292,73.3788,5.38591,0,7.99458,2.33514,5.74326,-0.152439,0.0609756,-1.70732,-39.0244,-3.45362,3.7506,-14.1768,-3.87195,5.70122
349.302,73.3719,5.38986,0,8.00895,2.34472,5.74086,0.0609756,0.0609756,-1.52439,-39.034,-3.3195,3.73144,-14.9085,-5.09146,5.60976
349.312,73.3643,5.39759,0,8.01374,2.34712,5.76721,-0.0914634,0.213415,-1.58537,-39.0149,-3.4632,3.7985,-15.122,-4.90854,5.97561
349.322,73.3608,5.40724,0,8.01374,2.31598,5.71691,-0.0609756,-0.0914634,-1.70732,-38.8807,-3.39614,3.82724,-15.1524,-3.90244,5.94512
349.332,73.3594,5.42356,0,8.03529,2.32317,5.74326,-0.182927,0.121951,-1.52439,-39.034,-3.28118,3.96136,-15.7012,-4.96951,5.91463
349.342,73.363,5.43277,0,8.02571,2.29443,5.7696,-0.0304878,0,-1.4939,-38.8137,-3.5111,3.82724,-15.1524,-4.96951,6.89024
349.352,73.3621,5.43029,0,8.0305,2.31119,5.77679,-0.335366,0.182927,-1.61585,-38.9478,-3.39614,3.64522,-15.2744,-4.72561,6.92073
349.362,73.3632,5.43226,0,8.02571,2.29922,5.72889,0.0304878,-0.0304878,-1.61585,-39.1011,-3.53026,3.74102,-16.0061,-2.9878,5.54878
349.372,73.3659,5.44036,0,8.02332,2.30161,5.68817,0.0914634,0.152439,-1.46341,-39.0149,-3.47278,3.83682,-15.4878,-4.11585,6.03659
349.382,73.3682,5.43799,0,8.0329,2.30161,5.68817,0.365854,-0.243902,-1.52439,-38.8424,-3.42488,3.64522,-15.3963,-3.84146,5.27439
349.392,73.3651,5.43257,0,8.0329,2.33754,5.76002,0.182927,-0.182927,-1.43293,-39.0053,-3.54942,3.6069,-15.3049,-3.65854,5.06098
349.402,73.3639,5.43299,0,8.0329,2.31598,5.75044,0.243902,-0.27439,-1.58537,-38.9861,-3.59732,3.7027,-13.5671,-3.56707,6.28049
349.412,73.3601,5.42607,0,8.02571,2.32077,5.74805,-0.182927,-0.121951,-1.70732,-39.034,-3.29076,3.57816,-14.2073,-4.17683,5.33537
349.422,73.3606,5.42627,0,8.05924,2.3088,5.772,-0.121951,-0.121951,-1.64634,-38.8999,-3.54942,3.68354,-15.1829,-4.39024,5.30488
349.432,73.3603,5.42918,0,8.0305,2.32317,5.68817,-0.0304878,-0.0304878,-1.43293,-38.8903,-3.4153,3.73144,-13.811,-3.90244,4.7561
349.442,73.3635,5.44319,0,8.04248,2.29682,5.73368,0.0914634,0.182927,-1.55488,-39.0244,-3.38656,3.9422,-15.5793,-2.92683,6.0061
349.452,73.3606,5.44312,0,8.0305,2.31838,5.76242,-0.0304878,0.335366,-1.67683,-38.9095,-3.43446,3.69312,-16.4634,-3.90244,5.70122
349.462,73.3591,5.44156,0,8.04008,2.3064,5.76242,-0.213415,0.0914634,-1.76829,-38.9765,-3.39614,3.67396,-15.5183,-3.84146,4.72561
349.472,73.3672,5.43948,0,8.04248,2.29922,5.74326,-0.213415,0.152439,-1.18902,-38.8616,-3.44404,3.6548,-16.0366,-3.29268,5.09146
349.482,73.3695,5.4435,0,8.01853,2.29203,5.73128,-0.0609756,0.396341,-1.58537,-38.9765,-3.32908,3.76976,-16.4329,-3.35366,4.66463
349.492,73.3708,5.44655,0,8.00895,2.3064,5.74086,-0.0609756,-0.0609756,-1.43293,-38.8233,-3.49194,3.74102,-16.0671,-3.35366,4.90854
349.502,73.3716,5.44718,0,8.00655,2.31119,5.73607,-0.0914634,-0.152439,-1.40244,-38.9478,-3.47278,3.71228,-15.6402,-3.56707,4.87805
349.512,73.3766,5.4379,0,8.02571,2.29203,5.75284,0.182927,-0.365854,-1.40244,-38.9957,-3.44404,3.54942,-16.311,-2.43902,5.60976
349.522,73.38,5.44244,0,8.01374,2.29682,5.77439,0.213415,0.0304878,-1.40244,-39.1011,-3.33866,3.78892,-15.9756,-3.59756,4.7561
349.532,73.3763,5.45795,0,8.01374,2.31838,5.78876,-0.121951,-0.0609756,-1.64634,-38.7945,-3.4153,3.95178,-15.2134,-3.62805,4.35976
349.542,73.3791,5.46488,0,8.04248,2.30161,5.70015,0.182927,0.0304878,-1.4939,-38.8041,-3.45362,3.81766,-15.122,-2.83537,5.03049
349.552,73.3784,5.47742,0,8.0329,2.31598,5.73128,0.335366,-0.152439,-1.52439,-38.9286,-3.53984,3.93262,-15.4268,-2.62195,5.39634
349.562,73.3761,5.47133,0,8.02092,2.31359,5.71212,-0.304878,-0.0304878,-1.64634,-38.967,-3.40572,3.61648,-16.1585,-4.29878,4.11585
349.572,73.3764,5.46949,0,8.04727,2.33275,5.70494,0.0914634,0.121951,-1.28049,-39.0244,-3.44404,3.69312,-15.122,-3.78049,4.02439
349.582,73.3742,5.46603,0,8.02332,2.31598,5.72889,-0.0914634,0.121951,-1.61585,-38.8137,-3.40572,3.64522,-14.5732,-3.41463,4.45122
349.592,73.3774,5.46927,0,8.02571,2.31359,5.74565,0.182927,0.121951,-1.25,-38.9286,-3.44404,3.76976,-15.9756,-3.35366,5.30488
349.602,73.3773,5.46678,0,8.02092,2.31838,5.772,0.121951,0.304878,-1.40244,-38.9382,-3.54942,3.67396,-15.2744,-3.32317,4.42073
349.612,73.3838,5.46168,0,8.0305,2.28964,5.75044,0.0914634,0.0914634,-1.34146,-38.9286,-3.42488,3.62606,-14.2988,-3.32317,4.39024
349.622,73.3832,5.45115,0,8.04966,2.32556,5.7696,0.152439,0.0609756,-1.43293,-39.034,-3.52068,3.53984,-14.4512,-2.83537,4.35976
349.632,73.3831,5.45146,0,8.05924,2.30161,5.78397,-0.182927,0,-1.7378,-38.8903,-3.50152,3.7027,-15.1829,-4.08537,4.81707
349.642,73.3837,5.45324,0,8.02811,2.29922,5.75523,0.0609756,0,-1.61585,-39.0819,-3.3674,3.7506,-15.2134,-2.95732,4.57317
349.652,73.3836,5.46082,0,8.01374,2.30401,5.77918,-0.0304878,0.152439,-1.55488,-38.737,-3.32908,3.81766,-15.8841,-3.2622,3.96341
349.662,73.3863,5.45941,0,8.02092,2.30161,5.7696,-0.0914634,0.0304878,-1.40244,-38.8999,-3.32908,3.68354,-15.9451,-3.23171,4.26829
349.672,73.3807,5.46185,0,7.98021,2.32796,5.78876,-0.182927,0.121951,-1.52439,-38.9382,-3.26202,3.7506,-15,-3.84146,5.2439
349.682,73.3777,5.46996,0,8.0305,2.33514,5.71452,-0.0304878,0.243902,-1.43293,-38.9191,-3.32908,3.8464,-15.8537,-4.5122,4.45122
349.692,73.3773,5.45356,0,8.02571,2.33035,5.75763,-0.0609756,0.121951,-1.28049,-38.9765,-3.44404,3.43446,-14.1463,-4.08537,4.84756
349.702,73.383,5.43626,0,8.05445,2.30161,5.78637,-0.0304878,-0.0304878,-1.31098,-39.0532,-3.48236,3.4153,-15.061,-3.81098,4.87805
349.712,73.3853,5.43345,0,8.0305,2.3064,5.77918,0.0914634,-0.121951,-1.40244,-39.0436,-3.40572,3.6548,-15.3354,-3.5061,3.56707
349.722,73.391,5.42872,0,8.04008,2.27287,5.73847,-0.121951,-0.121951,-1.61585,-39.0053,-3.54942,3.61648,-15.3659,-3.41463,5.33537
349.732,73.3946,5.42069,0,8.04727,2.28006,5.75284,0.0304878,0.0304878,-1.67683,-39.0149,-3.53984,3.559,-15.7622,-2.80488,4.78659
349.742,73.3912,5.43409,0,8.03529,2.32556,5.73368,0.121951,0.0914634,-1.58537,-38.8903,-3.43446,3.91346,-15.8232,-2.59146,4.69512
349.752,73.3894,5.4181,0,8.05206,2.32317,5.74565,0.0609756,-0.0609756,-1.55488,-39.1586,-3.29076,3.43446,-14.9085,-3.59756,3.93293
349.762,73.3852,5.41435,0,8.02332,2.32317,5.70494,0.27439,-0.213415,-1.64634,-39.0149,-3.28118,3.62606,-15.3354,-2.7439,3.93293
349.772,73.3792,5.408,0,8.0329,2.33275,5.71452,-0.365854,-0.304878,-1.70732,-39.0244,-3.47278,3.57816,-14.2378,-3.04878,4.42073
349.782,73.3791,5.41172,0,8.02811,2.31598,5.74326,0.182927,0.121951,-1.46341,-38.8424,-3.54942,3.73144,-13.689,-2.9878,4.57317
349.792,73.3818,5.4098,0,8.04248,2.30161,5.72889,-0.0609756,-0.182927,-1.4939,-38.967,-3.48236,3.64522,-15.0915,-3.81098,3.84146
349.802,73.3814,5.41701,0,8.04008,2.31119,5.71691,0.0914634,0,-1.58537,-39.0244,-3.4632,3.80808,-15.6402,-3.75,4.54268
349.812,73.3827,5.42201,0,8.02811,2.31359,5.77918,-0.243902,0.121951,-1.37195,-39.1681,-3.58774,3.78892,-15.9451,-3.59756,4.66463
349.822,73.3843,5.43362,0,8.05685,2.29922,5.74086,-0.27439,0.304878,-1.64634,-39.1394,-3.3674,3.90388,-16.2805,-3.90244,4.45122
349.832,73.3844,5.42772,0,8.06403,2.31119,5.772,-0.27439,0.0609756,-1.61585,-39.1681,-3.43446,3.6069,-15.3963,-4.66463,4.08537
349.842,73.3823,5.42275,0,8.05206,2.33035,5.74565,-0.0609756,-0.121951,-1.4939,-38.9478,-3.47278,3.59732,-15.2439,-5.09146,4.26829
349.852,73.386,5.41856,0,8.02092,2.30401,5.75763,-0.213415,-0.701219,-1.31098,-38.9286,-3.66438,3.6069,-16.0061,-4.7561,4.29878
349.862,73.389,5.42203,0,8.01853,2.3088,5.73607,-0.365854,-0.152439,-1.28049,-38.8712,-3.57816,3.73144,-14.5122,-4.60366,4.66463
349.872,73.3812,5.41737,0,7.98499,2.33754,5.77439,-0.27439,-0.182927,-1.58537,-39.0723,-3.5111,3.61648,-15.8537,-3.29268,4.66463
349.882,73.3836,5.43006,0,8.02092,2.29922,5.76002,0,0.0304878,-1.46341,-38.7945,-3.43446,3.88472,-15.6402,-3.93293,5.03049
349.892,73.3874,5.42693,0,8.01613,2.28724,5.74805,-0.0609756,-0.0304878,-1.4939,-38.8424,-3.44404,3.62606,-15.7622,-3.59756,4.63415
349.902,73.3975,5.42488,0,8.04727,2.27527,5.74805,-0.121951,-0.0609756,-1.31098,-38.8328,-3.50152,3.64522,-15.3049,-2.5,5.39634
349.912,73.3963,5.41956,0,8.04487,2.33035,5.75044,-0.121951,-0.0304878,-1.37195,-39.1203,-3.35782,3.61648,-15.4573,-1.82927,4.42073
349.922,73.3927,5.43119,0,8.04966,2.32556,5.75284,-0.243902,-0.304878,-1.64634,-38.9095,-3.52068,3.88472,-14.8171,-2.34756,3.41463
349.932,73.3926,5.42886,0,8.03529,2.30401,5.73847,0.304878,-0.121951,-1.61585,-38.8328,-3.3674,3.64522,-15.7622,-1.98171,5.2439
349.942,73.3904,5.43009,0,8.03529,2.32317,5.72889,-0.304878,-0.335366,-1.52439,-38.67,-3.66438,3.69312,-16.4024,-0.884146,2.7439
349.952,73.3904,5.42641,0,8.03769,2.31838,5.73368,-0.152439,-0.0609756,-1.43293,-38.8328,-3.48236,3.62606,-14.5732,-0.518293,4.05488
349.962,73.3889,5.42819,0,8.0329,2.32556,5.75284,-0.213415,0.0609756,-1.43293,-38.9095,-3.52068,3.72186,-15.0915,-1.4939,4.05488
349.972,73.3894,5.42225,0,8.01134,2.3064,5.74086,-0.213415,-0.243902,-1.46341,-38.7849,-3.48236,3.57816,-16.0976,-1.46341,3.65854
349.982,73.3851,5.41891,0,8.05445,2.32796,5.74326,-0.152439,-0.0914634,-1.70732,-38.8807,-3.53984,3.62606,-16.0061,-2.0122,3.41463
349.992,73.3856,5.43631,0,8.01613,2.33035,5.73128,-0.335366,0.27439,-1.15854,-39.0436,-3.33866,3.99968,-15.6707,-1.85976,3.84146
350.002,73.3851,5.43476,0,8.06882,2.32317,5.79595,-0.335366,0.0304878,-1.52439,-38.967,-3.54942,3.67396,-15.4573,-2.22561,4.02439
350.012,73.3803,5.44703,0,8.03529,2.35191,5.7217,-0.27439,0.0304878,-1.34146,-38.852,-3.53984,3.90388,-15.2134,-1.34146,4.2378
350.022,73.3797,5.45191,0,8.05685,2.33275,5.76481,0.0304878,-0.487805,-1.37195,-38.8903,-3.45362,3.78892,-14.5427,-1.15854,3.44512
350.032,73.3745,5.46091,0,8.01613,2.33514,5.71452,-0.152439,-0.396341,-1.55488,-38.8712,-3.47278,3.86556,-15.5183,-0.0304878,2.86585
350.042,73.375,5.46241,0,8.00655,2.31838,5.74326,-0.152439,-0.335366,-1.31098,-38.8903,-3.559,3.74102,-15.5183,-0.853659,4.32927
350.052,73.3804,5.4622,0,8.04727,2.32317,5.69057,-0.121951,0.0609756,-1.06707,-38.8807,-3.559,3.71228,-16.1585,-0.640244,3.47561
350.062,73.3861,5.47041,0,8.04487,2.30401,5.76242,-0.182927,-0.27439,-1.25,-38.9574,-3.44404,3.86556,-15.3963,-0.548781,4.14634
350.072,73.3951,5.46103,0,8.06403,2.29922,5.74565,-0.213415,0,-1.15854,-38.8616,-3.40572,3.559,-15.6402,-0.213415,4.14634
350.082,73.3997,5.44715,0,8.0329,2.28964,5.77439,-0.0914634,0.243902,-1.43293,-38.852,-3.5111,3.47278,-15.1829,-0.518293,3.62805
350.092,73.3962,5.44069,0,8.04727,2.33035,5.78397,-0.182927,-0.304878,-1.55488,-38.9861,-3.56858,3.6069,-14.6646,0.335366,3.75
350.102,73.3998,5.44613,0,8.03529,2.30401,5.71691,-0.0609756,-0.27439,-1.34146,-38.8999,-3.35782,3.7985,-15.8232,-0.182927,3.93293
350.112,73.4011,5.44153,0,8.05206,2.31838,5.75523,-0.121951,-0.182927,-1.37195,-38.8807,-3.53984,3.62606,-16.4939,-0.396341,4.02439
350.122,73.4075,5.43476,0,8.04487,2.28006,5.73847,-0.0304878,-0.335366,-1.46341,-38.8137,-3.48236,3.57816,-15.3049,-0.701219,3.59756
350.132,73.4168,5.42996,0,8.02332,2.27287,5.74565,-0.0914634,-0.152439,-1.28049,-39.0819,-3.47278,3.63564,-15.1524,0.27439,3.78049
350.142,73.4187,5.42526,0,8.04727,2.3064,5.75763,-0.243902,-0.335366,-1.43293,-38.9957,-3.54942,3.62606,-15.6098,0.213415,2.80488
350.152,73.4205,5.41452,0,8.02332,2.29203,5.79834,-0.0914634,-0.121951,-1.52439,-38.9957,-3.53984,3.52068,-14.7256,1.0061,2.92683
350.162,73.4232,5.40359,0,8.03769,2.3064,5.7217,-0.213415,-0.121951,-1.34146,-38.8233,-3.47278,3.49194,-15.5488,0.213415,3.78049
350.172,73.4219,5.40374,0,8.03769,2.3088,5.77918,-0.365854,-0.0609756,-1.58537,-38.8616,-3.67396,3.68354,-16.0976,1.43293,3.75
350.182,73.4231,5.3972,0,8.05445,2.31598,5.73847,-0.243902,-0.243902,-1.37195,-38.8712,-3.5111,3.56858,-15.7927,1.40244,4.14634
350.192,73.4259,5.39789,0,8.02571,2.29922,5.73847,-0.0609756,0.304878,-1.37195,-38.9478,-3.61648,3.69312,-16.25,0.426829,3.35366
350.202,73.4296,5.38574,0,8.05206,2.29922,5.69296,-0.396341,0,-1.40244,-38.9574,-3.6069,3.47278,-16.0976,0.609756,4.17683
350.212,73.4313,5.37,0,8.06164,2.31119,5.76721,-0.27439,0.0609756,-1.40244,-38.8712,-3.4632,3.39614,-16.4024,0.97561,3.5061
350.222,73.439,5.36822,0,8.04966,2.2609,5.7696,-0.243902,0.152439,-1.55488,-39.0436,-3.30992,3.64522,-15.2134,1.76829,4.02439
350.232,73.4397,5.35458,0,8.0329,2.29203,5.73847,-0.0609756,0.0304878,-1.61585,-38.9286,-3.57816,3.42488,-15.8232,0.823171,3.20122
350.242,73.437,5.3461,0,8.02571,2.31598,5.72649,-0.243902,0.27439,-1.52439,-38.9574,-3.44404,3.5111,-16.0366,1.95122,4.35976
350.252,73.4397,5.33288,0,8.0329,2.29443,5.80313,-0.243902,0.243902,-1.43293,-38.9478,-3.4632,3.42488,-15.7622,2.62195,3.59756
350.262,73.4405,5.32236,0,8.0305,2.28724,5.76242,-0.152439,-0.243902,-1.64634,-38.852,-3.61648,3.45362,-15.7012,2.56098,3.44512
350.272,73.4427,5.30915,0,8.03769,2.29443,5.70015,-0.121951,0.0914634,-1.4939,-38.8616,-3.54942,3.40572,-14.7256,3.96341,3.38415
350.282,73.4399,5.28595,0,8.04008,2.33514,5.78397,-0.243902,0.152439,-1.31098,-38.9382,-3.4632,3.23328,-15.0915,4.72561,2.95732
350.292,73.4381,5.28748,0,8.05685,2.33275,5.75523,0.0609756,-0.182927,-1.34146,-38.9286,-3.53984,3.64522,-15.3659,5.03049,3.5061
350.302,73.435,5.27009,0,8.02811,2.33035,5.74805,-0.27439,-0.27439,-1.37195,-39.1011,-3.56858,3.33866,-14.1768,6.46341,3.17073
350.312,73.4319,5.24113,0,8.00655,2.32077,5.70733,-0.27439,-0.27439,-1.43293,-38.8903,-3.59732,3.10874,-14.7866,6.37195,3.71951
350.322,73.4284,5.20853,0,8.02332,2.32556,5.75044,-0.457317,-0.27439,-1.46341,-39.1011,-3.559,3.04167,-15.7012,6.09756,3.96341
350.332,73.4286,5.19765,0,8.03769,2.31119,5.74086,-0.0304878,-0.121951,-1.43293,-38.9382,-3.49194,3.38656,-15.2744,7.46951,4.11585
350.342,73.4286,5.19211,0,8.02092,2.32796,5.74565,-0.243902,-0.304878,-1.15854,-39.0149,-3.4632,3.47278,-16.2805,5.82317,3.62805
350.352,73.4283,5.19097,0,8.04487,2.32556,5.70733,-0.0914634,-0.457317,-1.31098,-39.0244,-3.62606,3.54942,-14.6646,6.79878,3.38415
350.362,73.4272,5.18105,0,8.06403,2.33514,5.74086,-0.27439,-0.27439,-1.31098,-38.8041,-3.48236,3.37698,-15.3659,6.70732,2.28659
350.372,73.4268,5.17768,0,8.01853,2.32796,5.70733,-0.0914634,-0.152439,-1.18902,-38.9191,-3.52068,3.49194,-14.6341,6.28049,2.89634
350.382,73.4334,5.16081,0,8.04727,2.31598,5.68578,-0.0914634,-0.243902,-0.97561,-38.9574,-3.52068,3.26202,-15.2744,6.98171,3.44512
350.392,73.4332,5.14907,0,7.99937,2.32317,5.68578,-0.335366,-0.640244,-1.15854,-38.8616,-3.4632,3.33866,-15.4268,9.32927,2.59146
350.402,73.431,5.12235,0,8.01374,2.35191,5.67859,-0.243902,-0.579268,-0.914634,-38.8328,-3.56858,3.07042,-13.9329,9.39024,2.04268
350.412,73.43,5.10703,0,8.01134,2.34233,5.70733,-0.304878,-0.365854,-0.97561,-39.034,-3.44404,3.26202,-14.2683,8.38415,1.64634
350.422,73.4387,5.08882,0,8.01134,2.3064,5.76481,-0.640244,-0.640244,-0.823171,-39.149,-3.4632,3.21412,-14.1768,9.35976,1.09756
350.432,73.4458,5.06367,0,8.04727,2.31359,5.71691,-0.457317,-0.335366,-0.945122,-39.1873,-3.47278,3.08,-16.0061,8.14024,0.853659
350.442,73.4587,5.04283,0,8.0305,2.3064,5.76002,-0.457317,-0.396341,-0.609756,-39.1681,-3.43446,3.13748,-17.2256,8.53659,0.243902
350.452,73.4738,5.02547,0,8.06882,2.29922,5.79834,-0.487805,-0.701219,-0.670732,-39.0628,-3.54942,3.1758,-16.5854,8.81098,0.97561
350.462,73.4917,5.00075,0,8.05206,2.3064,5.75284,-0.731707,-0.97561,-0.365854,-39.0149,-3.69312,3.04167,-15.7622,11.4329,1.95122
350.472,73.5112,4.97525,0,8.00176,2.27048,5.75523,-0.853659,-1.18902,-0.548781,-38.9574,-3.66438,3.00335,-16.9207,10.3963,2.2561
350.482,73.5284,4.94818,0,8.00176,2.28006,5.71212,-0.853659,-1.15854,-0.518293,-39.0149,-3.6069,2.96503,-16.311,11.0061,3.17073
350.492,73.5361,4.93523,0,7.9826,2.31119,5.74326,-0.731707,-1.4939,-0.487805,-38.9957,-3.76018,3.18538,-15.7317,9.81707,4.57317
350.502,73.5564,4.92415,0,8.01134,2.26569,5.73607,-0.579268,-1.0061,-0.518293,-39.2544,-3.68354,3.2237,-15.7927,7.95732,4.05488
350.512,73.5643,4.90716,0,8.00176,2.31838,5.78637,-0.792683,-1.34146,-0.365854,-39.1298,-3.7027,3.09916,-16.2195,6.7378,4.57317
350.522,73.5768,4.90146,0,8.01853,2.3088,5.75763,-0.762195,-1.25,-0.304878,-39.1873,-3.73144,3.28118,-16.25,4.66463,4.29878
350.532,73.5841,4.87701,0,8.04727,2.33514,5.7696,-0.579268,-1.7378,-0.27439,-39.2352,-3.64522,2.94587,-16.0366,1.95122,4.72561
350.542,73.603,4.86719,0,8.06403,2.31359,5.74805,-0.518293,-1.92073,-0.0304878,-39.2065,-3.76018,3.1758,-16.4939,0.396341,4.57317
350.552,73.6146,4.86022,0,8.08559,2.32077,5.69775,-0.304878,-1.98171,-0.365854,-39.0244,-3.72186,3.20454,-16.4329,0.670732,5.15244
350.562,73.637,4.83672,0,8.05685,2.28006,5.72649,-0.884146,-1.89024,-0.243902,-39.0149,-3.9422,2.90755,-16.4634,-0.945122,6.21951
350.572,73.6584,4.81071,0,8.0808,2.2585,5.70494,-0.518293,-1.89024,-0.579268,-39.0149,-3.77934,2.84049,-16.0976,-3.23171,6.89024
350.582,73.6815,4.78678,0,8.08319,2.2609,5.66422,-0.518293,-1.58537,-0.457317,-39.264,-3.7985,2.87881,-15,-2.59146,7.65244
350.592,73.6937,4.75621,0,8.11912,2.30161,5.7241,-0.548781,-1.61585,-0.548781,-39.1586,-3.73144,2.73511,-15.5183,-3.93293,8.04878
350.602,73.7129,4.72361,0,8.08798,2.25611,5.68338,-0.792683,-1.28049,-0.640244,-39.2927,-3.87514,2.68721,-14.5427,-4.14634,6.89024
350.612,73.7212,4.69874,0,8.09038,2.27766,5.68578,-0.701219,-1.34146,-0.945122,-39.2448,-3.57816,2.79259,-15.122,-5.12195,7.22561
350.622,73.739,4.68151,0,8.08798,2.23934,5.6762,-1.06707,-1.09756,-0.853659,-39.3214,-3.6548,2.90755,-14.939,-7.04268,6.03659
350.632,73.7492,4.6684,0,8.06643,2.24892,5.65943,-0.914634,-1.06707,-1.06707,-39.4364,-3.50152,2.97461,-14.7866,-7.43902,6.03659
350.642,73.7761,4.65972,0,8.13349,2.19863,5.69536,-0.884146,-0.670732,-0.884146,-39.1681,-3.47278,3.02251,-15.3963,-7.37805,6.06707
350.652,73.7926,4.62861,0,8.13109,2.21779,5.71452,-1.06707,-0.579268,-1.15854,-39.2448,-3.56858,2.62973,-15.6402,-8.23171,4.96951
350.662,73.8161,4.58961,0,8.11193,2.19384,5.70254,-0.792683,-0.701219,-0.97561,-39.2735,-3.74102,2.47645,-15.1829,-7.19512,4.54268
350.672,73.8304,4.52852,0,8.09756,2.20102,5.70733,-0.823171,-0.762195,-1.31098,-39.1969,-3.68354,2.06451,-15.1524,-6.46341,4.60366
350.682,73.8545,4.45841,0,8.10475,2.17707,5.70254,-0.731707,-0.579268,-1.03659,-39.3693,-3.7027,1.88249,-15.6402,-4.14634,4.02439
350.692,73.8634,4.42824,0,8.11912,2.20581,5.70973,-0.853659,-0.97561,-1.58537,-39.3214,-3.67396,2.52435,-17.2866,-4.66463,4.08537
350.702,73.8792,4.41856,0,8.12391,2.18665,5.68578,-0.914634,-0.853659,-1.37195,-39.3023,-3.78892,2.85965,-16.5549,-4.5122,3.96341
350.712,73.8945,4.41,0,8.11912,2.17228,5.62351,-0.701219,-0.548781,-1.52439,-39.4747,-3.6548,2.87881,-16.372,-6.34146,4.05488
350.722,73.9085,4.391,0,8.13109,2.19384,5.69536,-0.487805,-0.335366,-1.37195,-39.5993,-3.7027,2.69679,-17.2561,-6.92073,4.32927
350.732,73.919,4.40054,0,8.13828,2.18426,5.70494,-0.457317,-0.335366,-1.67683,-39.3598,-3.43446,3.15664,-17.6829,-9.42073,3.81098
350.742,73.9306,4.39044,0,8.15265,2.19144,5.70015,-0.213415,0.121951,-1.55488,-39.2448,-3.40572,2.81175,-17.1951,-9.60366,3.84146
350.752,73.9515,4.39007,0,8.14067,2.14833,5.70494,-0.396341,0.182927,-1.40244,-39.1586,-3.44404,2.96503,-16.372,-10.3049,3.62805
350.762,73.956,4.39055,0,8.15504,2.20821,5.66183,-0.243902,0.365854,-1.79878,-38.8807,-3.56858,2.95545,-16.9512,-11.1585,4.29878
350.772,73.9555,4.38216,0,8.1287,2.26329,5.6259,0,0.609756,-1.40244,-38.6508,-3.52068,2.78301,-16.8293,-12.1646,3.5061
350.782,73.9508,4.3757,0,8.09517,2.28006,5.60674,-0.0609756,0.701219,-1.37195,-38.4975,-3.47278,2.80217,-17.4085,-11.311,2.46951
350.792,73.9456,4.39372,0,8.04487,2.27766,5.65225,0.0609756,0.762195,-1.25,-38.5263,-3.64522,3.21412,-16.7378,-12.5,3.20122
350.802,73.9383,4.39277,0,8.02332,2.29203,5.70973,0.182927,0.640244,-1.09756,-38.7658,-3.72186,2.91713,-17.1341,-13.3841,4.32927
350.812,73.9312,4.40568,0,8.0305,2.29203,5.71212,0.0609756,0.701219,-1.12805,-39.0244,-3.57816,3.1758,-17.8963,-13.4146,3.47561
350.822,73.9273,4.42291,0,8.03529,2.28724,5.72649,0,0.548781,-0.97561,-39.1681,-3.61648,3.26202,-17.6829,-16.128,4.60366
350.832,73.9221,4.42331,0,8.04248,2.3088,5.70254,0.304878,0.121951,-0.731707,-39.1873,-3.80808,2.98419,-17.2866,-15.8232,4.32927
350.842,73.9216,4.42444,0,8.0305,2.28724,5.69296,0.213415,-0.0914634,-0.701219,-39.0915,-3.57816,2.99377,-16.5854,-14.6646,4.2378
350.852,73.9247,4.44602,0,8.08319,2.28724,5.73607,0.0609756,-0.304878,-0.670732,-39.3119,-3.67396,3.3674,-15.3963,-14.8476,4.17683
350.862,73.9239,4.472,0,8.06403,2.3064,5.73368,0.304878,-1.12805,-0.518293,-39.3023,-3.91346,3.45362,-14.6037,-16.1585,3.68902
350.872,73.938,4.49126,0,8.0784,2.2609,5.81271,0.426829,-1.52439,-0.335366,-39.1969,-3.7985,3.33866,-14.5427,-18.2012,4.32927
350.882,73.9529,4.51569,0,8.09038,2.2585,5.81032,0.548781,-1.76829,-0.335366,-39.2544,-3.8464,3.44404,-15.2439,-18.9939,5.12195
350.892,73.9846,4.54594,0,8.08559,2.13875,5.79834,0.487805,-1.61585,-0.823171,-39.1394,-3.8943,3.54942,-13.6585,-19.7561,6.28049
350.902,74.001,4.56378,0,8.07361,2.18665,5.74565,1.0061,-1.40244,-1.0061,-38.9765,-3.9901,3.33866,-14.1159,-20.3049,6.28049
350.912,74.002,4.57953,0,8.07122,2.24653,5.64746,0.945122,-1.37195,-1.21951,-38.9095,-3.9422,3.30992,-12.2561,-20.0305,6.52439
350.922,73.986,4.58833,0,8.09277,2.35909,5.67141,0.27439,-1.70732,-0.792683,-39.0723,-3.83682,3.21412,-12.4085,-20.0305,7.71341
350.932,73.9813,4.59943,0,8.10714,2.3064,5.63788,-0.0304878,-1.06707,-0.914634,-39.0819,-3.52068,3.26202,-12.1951,-19.6951,7.19512
350.942,74.013,4.61903,0,8.11193,2.12917,5.62351,-0.243902,-0.304878,-0.97561,-39.1011,-3.54942,3.4153,-12.439,-20.7317,5.2439
350.952,74.0153,4.65034,0,8.06403,2.24892,5.66422,0.243902,0.0609756,-1.03659,-39.034,-3.5111,3.62606,-13.0793,-20.6707,5
350.962,74.0196,4.6613,0,8.10475,2.24892,5.64506,-0.0914634,0.243902,-1.03659,-39.1107,-3.61648,3.30034,-13.4451,-20.9451,3.96341
350.972,74.0279,4.68498,0,8.15744,2.21779,5.58279,-0.243902,1.25,-1.34146,-39.2831,-3.74102,3.53984,-13.1707,-22.2866,4.29878
350.982,74.0368,4.72682,0,8.15265,2.20581,5.59956,0.0609756,1.15854,-1.40244,-39.0244,-3.90388,3.8464,-12.5305,-22.7134,4.7561
350.992,74.027,4.75965,0,8.17181,2.31359,5.58279,-0.0609756,1.31098,-1.43293,-38.8999,-3.95178,3.7027,-11.1585,-23.9634,4.32927
351.002,74.0248,4.78867,0,8.13828,2.27527,5.64027,-0.121951,1.31098,-1.25,-38.852,-3.7985,3.6548,-10.7317,-23.9024,4.66463
351.012,74.0267,4.81336,0,8.13588,2.2609,5.67141,-0.0304878,1.52439,-1.12805,-38.6987,-3.87514,3.58774,-10.6707,-23.3232,5.45732
351.022,74.0193,4.83026,0,8.14067,2.31838,5.63788,0.213415,1.58537,-1.0061,-38.8233,-3.62606,3.48236,-10.7622,-23.1402,4.96951
351.032,74.0113,4.87175,0,8.05445,2.29922,5.72889,-0.0304878,1.92073,-0.97561,-39.2256,-3.67396,3.96136,-9.17683,-22.5,5.09146
351.042,74.008,4.89358,0,8.01134,2.26569,5.76721,-0.0914634,1.64634,-0.97561,-39.1969,-3.76018,3.64522,-10.3354,-22.2256,4.93902
351.052,74.0157,4.92232,0,7.98739,2.21539,5.78397,0.213415,1.89024,-0.853659,-39.1203,-3.53026,3.76976,-10.8537,-23.2622,6.06707
351.062,74.0257,4.97135,0,7.97542,2.18665,5.78158,0.152439,1.18902,-1.03659,-39.1969,-3.53026,4.14338,-11.4634,-25.4878,8.2622
351.072,74.0303,5.02414,0,7.96823,2.19144,5.77679,0.762195,0.670732,-1.28049,-39.2352,-3.47278,4.23918,-10.8841,-27.8659,7.56098
351.082,74.034,5.07427,0,7.9826,2.20342,5.77918,0.914634,0.670732,-1.21951,-39.1586,-3.43446,4.21044,-11.9817,-30.9146,9.48171
351.092,74.0321,5.11423,0,8.00655,2.23216,5.74086,1.03659,0.518293,-1.31098,-39.2927,-3.35782,4.07632,-12.5915,-32.4085,10.5183
351.102,74.0306,5.15502,0,7.98499,2.22258,5.73847,0.823171,-0.27439,-1.34146,-39.3693,-3.57816,4.12422,-12.1037,-33.1402,11.311
351.112,74.0331,5.19262,0,8.04008,2.22258,5.76002,0.823171,-0.609756,-1.25,-39.4076,-3.62606,4.09548,-11.9207,-34.6037,11.7988
351.122,74.0326,5.24421,0,8.06164,2.25132,5.83906,0.823171,-0.609756,-1.12805,-39.5609,-3.62606,4.37331,-12.1341,-37.8049,12.1646
351.132,74.0319,5.29691,0,8.07122,2.25371,5.75284,0.914634,-0.396341,-1.15854,-39.628,-3.43446,4.42121,-12.9573,-42.2561,12.1037
351.142,74.0409,5.33398,0,8.06643,2.213,5.68338,1.03659,-0.670732,-1.03659,-39.6184,-3.5111,4.17212,-12.439,-44.7561,12.4695
351.152,74.0458,5.38167,0,8.08559,2.21539,5.73128,0.762195,-0.304878,-1.31098,-39.8675,-3.47278,4.40205,-12.5,-47.9268,12.3476
351.162,74.0435,5.41366,0,8.08559,2.22976,5.67859,0.701219,0.0304878,-1.64634,-39.743,-3.37698,4.1338,-13.811,-50.7927,12.9573
351.172,74.0353,5.43911,0,8.08559,2.25611,5.69775,0.426829,-0.182927,-1.76829,-39.6184,-3.45362,4.01884,-14.5732,-53.3537,12.3476
351.182,74.0303,5.48243,0,8.0784,2.23216,5.65225,0.457317,0.243902,-1.82927,-39.5801,-3.4632,4.33499,-13.872,-57.1341,12.6524
351.192,74.0271,5.52377,0,8.11912,2.2106,5.6762,0.0914634,0.335366,-2.10366,-39.6759,-3.6069,4.32541,-14.0549,-61.5549,13.1098
351.202,74.0256,5.54144,0,8.12391,2.19384,5.7217,0.487805,1.0061,-2.19512,-39.4939,-3.53984,3.90388,-14.6646,-65.5793,12.4695
351.212,74.0212,5.5784,0,8.14307,2.20342,5.66901,0.0609756,1.31098,-2.37805,-39.3693,-3.81766,4.2296,-15.6707,-69.2988,13.3232
351.222,74.015,5.62407,0,8.15983,2.2106,5.64506,-0.0914634,1.55488,-2.5,-39.3981,-3.90388,4.39247,-15.7622,-74.7256,11.9817
351.232,74.0076,5.68495,0,8.19815,2.24413,5.69536,0.182927,1.46341,-2.31707,-39.4843,-3.7985,4.67987,-14.8476,-81.25,13.1402
351.242,73.9988,5.73577,0,8.20055,2.23216,5.6762,0.365854,1.82927,-2.62195,-39.6855,-3.8464,4.55533,-15.7927,-84.9085,13.2927
351.252,73.9944,5.78391,0,8.19576,2.19863,5.63309,0.182927,2.0122,-2.65244,-39.9154,-3.54942,4.56491,-15.7012,-86.2805,13.1707
351.262,74.0006,5.78022,0,8.24845,2.11959,5.68338,0.121951,2.31707,-2.86585,-39.6567,-3.69312,3.66438,-14.7256,-83.1402,13.9939
351.272,74.0085,5.77593,0,8.18378,2.07888,5.61872,-0.0609756,2.53049,-3.01829,-39.4268,-3.58774,3.64522,-14.9085,-78.7195,15.3659
351.282,74.0166,5.79802,0,8.1263,2.03337,5.62351,0.0609756,2.83537,-3.35366,-39.3214,-3.39614,4.09548,-14.9695,-78.3232,15.5793
351.292,74.0286,5.85478,0,8.14546,2.01182,5.58998,0.762195,2.92683,-3.32317,-39.4172,-3.559,4.71819,-15.5793,-81.9512,17.7439
351.302,74.0415,5.91146,0,8.15983,1.95673,5.65225,1.25,3.71951,-3.90244,-39.81,-3.54942,4.78525,-16.0366,-87.2256,17.6829
351.312,74.0475,5.97523,0,8.17899,1.98068,5.75523,1.95122,4.14634,-4.26829,-39.992,-3.64522,4.95769,-14.5427,-91.9817,18.8415
351.322,74.0377,6.06013,0,8.22689,2.07648,5.7696,2.83537,4.35976,-4.69512,-40.2124,-3.7985,5.39837,-13.8415,-95.5793,19.2073
351.332,74.0185,6.14966,0,8.25324,2.1627,5.78637,2.95732,4.08537,-4.60366,-39.8675,-3.62606,5.48459,-11.5549,-98.5976,20.7622
351.342,73.9931,6.24771,0,8.25803,2.22497,5.79355,3.44512,3.75,-4.45122,-39.9346,-3.72186,5.70494,-9.39024,-100.091,23.0488
351.352,73.9556,6.33963,0,8.24366,2.32317,5.73368,3.5061,3.38415,-4.39024,-39.7142,-3.7506,5.6283,-7.95732,-101.555,23.9329
351.362,73.9083,6.41686,0,8.15504,2.36388,5.64746,3.14024,3.35366,-4.57317,-39.1681,-3.4153,5.36005,-6.34146,-100.518,24.6646
351.372,73.8575,6.52295,0,8.09277,2.40939,5.63309,2.56098,3.32317,-4.17683,-38.8999,-3.53026,5.87738,-5.45732,-101.89,24.8476
351.382,73.81,6.65275,0,8.02811,2.36149,5.67141,2.40854,3.59756,-4.32927,-38.7466,-3.49194,6.32764,-4.78659,-106.189,24.0549
351.392,73.7655,6.79153,0,7.97542,2.3088,5.63309,2.7439,4.29878,-4.63415,-38.7754,-3.73144,6.56714,-5.06098,-110.03,22.8963
351.402,73.7195,6.93789,0,7.96344,2.32556,5.67141,2.68293,5,-4.60366,-38.6891,-3.58774,6.76833,-3.75,-114.085,21.3415
351.412,73.665,7.09372,0,7.99458,2.37586,5.65704,2.62195,5.54878,-5,-38.7179,-3.57816,7.03657,-2.2561,-115.671,19.2988
351.422,73.619,7.26915,0,8.03529,2.36388,5.78637,2.40854,5.39634,-4.57317,-38.737,-3.37698,7.48683,-1.82927,-118.171,17.0427
351.432,73.5702,7.46784,0,8.05445,2.37346,5.73607,1.85976,5.30488,-4.90854,-38.7083,-3.42488,8.00416,0.121951,-121.921,17.378
351.442,73.5293,7.65373,0,8.03529,2.29443,5.80792,1.98171,5.21341,-5.18293,-38.5454,-3.42488,7.87961,-0.426829,-122.957,15.8537
351.452,73.4826,7.81397,0,8.00176,2.29203,5.8654,1.37195,4.81707,-5.7622,-38.0281,-3.33866,7.45809,0.823171,-122.073,16.189
351.462,73.4264,7.97205,0,7.96823,2.31598,5.82469,1.09756,4.63415,-6.37195,-37.8174,-3.06083,7.50599,1.70732,-117.134,17.9573
351.472,73.3628,8.14779,0,7.9323,2.35191,5.79355,1.09756,4.35976,-6.61585,-37.712,-3.10874,7.89877,3.01829,-117.256,18.0183
351.482,73.2967,8.35003,0,7.86045,2.31598,5.79355,0.914634,4.17683,-7.19512,-37.9706,-2.91713,8.54064,0.97561,-116.86,17.5305
351.492,73.2319,8.58608,0,7.82932,2.27766,5.80313,1.0061,4.42073,-7.59146,-38.5646,-2.96503,9.41243,1.67683,-120.213,17.6829
351.502,73.1659,8.81898,0,7.80537,2.26329,5.90612,0.762195,4.35976,-7.95732,-38.5071,-2.80217,9.49865,1.85976,-123.384,17.2256
351.512,73.1013,9.05593,0,7.81734,2.24413,6.02587,0.853659,4.57317,-8.2622,-38.4592,-2.86923,9.71899,1.28049,-125.305,17.1951
351.522,73.0186,9.29777,0,7.8389,2.3567,6.0091,0.97561,3.71951,-8.78049,-38.2293,-2.46687,9.91059,1.31098,-127.195,16.7683
351.532,72.939,9.54655,0,7.86764,2.34472,6.03066,0.701219,2.9878,-8.90244,-38.2389,-2.26569,10.2076,0.548781,-128.11,17.9573
351.542,72.858,9.80483,0,7.86285,2.34233,6.02587,0.426829,2.43902,-9.2378,-38.1143,-2.24653,10.5237,-0.762195,-127.957,18.628
351.552,72.79,10.0906,0,7.87243,2.2106,6.05461,0.182927,1.64634,-9.90854,-37.3288,-1.96871,10.974,-2.71341,-128.902,19.939
351.562,72.7077,10.3853,0,7.80058,2.21779,6.01389,0.762195,1.25,-11.128,-36.9647,-1.825,11.2231,-4.54268,-130.122,21.5854
351.572,72.6116,10.6557,0,7.79339,2.29682,5.98276,0.487805,1.37195,-11.5854,-36.754,-1.83458,10.9452,-5.21341,-127.53,23.0793
351.582,72.4964,10.9119,0,7.79339,2.46448,5.92528,1.06707,2.0122,-11.4329,-36.6677,-2.09325,10.8686,-8.5061,-123.933,23.2622
351.592,72.3766,11.1636,0,7.9347,2.63692,5.79834,1.15854,2.31707,-10.4268,-36.524,-2.22737,10.9357,-7.68293,-121.524,24.8171
351.602,72.2595,11.4188,0,7.9826,2.70158,5.75044,0.97561,1.70732,-9.7561,-36.5719,-2.62015,11.1943,-8.5061,-118.872,24.8171
351.612,72.1587,11.7013,0,8.02092,2.68242,5.82708,0.884146,0.304878,-8.75,-36.7731,-2.44771,11.9224,-6.31098,-118.933,24.939
351.622,72.0579,11.9617,0,7.83171,2.64171,5.88217,0.97561,-1.37195,-8.65854,-36.9647,-2.90755,11.7883,-2.86585,-119.146,24.6951
351.632,71.9533,12.2304,0,7.76705,2.71116,5.82948,1.34146,-1.89024,-8.01829,-36.8689,-3.02251,12.0853,2.10366,-120.854,21.8902
351.642,71.8518,12.4907,0,7.76944,2.75667,5.81032,1.64634,-1.82927,-7.31707,-36.8306,-3.00335,12.114,5.4878,-120.518,20.7012
351.652,71.7496,12.7654,0,7.73591,2.74948,5.7696,1.46341,-2.0122,-7.53049,-36.9456,-2.88839,12.593,7.28659,-122.53,18.2622
351.662,71.642,13.0533,0,7.71196,2.85247,5.87738,1.09756,-2.13415,-6.79878,-36.8785,-2.58183,13.005,8.75,-123.323,16.7378
351.672,71.5392,13.3303,0,7.77184,2.92192,5.81271,0.97561,-1.46341,-5.88415,-36.8785,-2.61057,13.005,8.10976,-126.189,17.7439
351.682,71.4389,13.5714,0,7.85087,3.00335,5.8678,0.762195,-0.762195,-5.15244,-36.9935,-2.33275,12.5834,8.47561,-127.774,17.9573
351.692,71.349,13.7915,0,7.8365,2.97222,5.85582,0.152439,-1.70732,-4.60366,-36.7731,-1.97829,12.3056,7.40854,-126.555,17.0732
351.702,71.2815,14.026,0,7.79818,2.74948,5.94444,-0.731707,-1.46341,-5.30488,-36.6869,-1.81542,12.6984,5.7622,-125.671,16.25
351.712,71.2218,14.318,0,7.64251,2.56267,5.9157,-1.92073,-1.21951,-6.46341,-36.5049,-1.70046,13.8384,5.21341,-128.963,16.5854
351.722,71.1463,14.6445,0,7.54671,2.56746,5.97078,-2.2561,-1.70732,-7.68293,-36.8594,-1.74836,14.8156,2.77439,-134.238,15.3963
351.732,71.0523,14.9531,0,7.53713,2.71595,5.9612,-1.4939,-1.85976,-7.62195,-36.7635,-1.51844,14.6623,0.731707,-140.671,15.122
351.742,70.9647,15.2354,0,7.71436,2.77104,5.9636,-1.98171,-2.37805,-7.28659,-36.7923,-1.70046,14.4036,-0.152439,-141.433,13.7195
351.752,70.9009,15.5123,0,7.8365,2.67045,6.06179,-2.31707,-4.2378,-6.95122,-36.5528,-1.52802,14.4228,-1.34146,-140.732,15.0305
351.762,70.8486,15.7782,0,7.80297,2.58902,6.15281,-2.2561,-5.51829,-6.85976,-36.1408,-1.60466,14.2695,-0.579268,-137.439,14.9695
351.772,70.7867,16.1028,0,7.80058,2.68242,6.1073,-2.19512,-5.7622,-6.67683,-35.499,-1.16398,15.2946,-1.18902,-135,16.0976
351.782,70.7098,16.3638,0,7.76944,2.78301,6.04742,-1.70732,-7.40854,-6.82927,-35.7768,-2.18905,14.4803,0.396341,-132.744,17.0427
351.792,70.6243,16.6441,0,7.70717,2.85247,5.99234,-1.64634,-8.93293,-6.64634,-36.1121,-1.62382,15.1701,0.365854,-132.622,16.5854
351.802,70.5439,16.9146,0,7.75028,2.86923,5.89893,-2.16463,-9.26829,-6.28049,-35.7864,-1.7292,15.0647,0.670732,-130.427,15.4268
351.812,70.4977,17.1945,0,7.80776,2.6441,5.76002,-2.83537,-8.32317,-6.25,-35.566,-1.67172,15.3425,0.0304878,-131.006,14.5122
351.822,70.4583,17.4887,0,7.72633,2.53154,5.74805,-3.68902,-7.22561,-6.79878,-35.5948,-1.67172,15.8215,-1.25,-133.018,12.9268
351.832,70.4098,17.7734,0,7.67604,2.55309,5.77679,-3.68902,-6.37195,-7.28659,-35.3744,-1.67172,15.764,-4.02439,-133.323,12.1037
351.842,70.3542,18.0509,0,7.7407,2.68721,5.73847,-3.41463,-7.0122,-6.58537,-35.1828,-1.4897,15.7544,-6.15854,-132.988,11.128
351.852,70.284,18.3509,0,7.75747,2.82373,5.7241,-3.81098,-8.71951,-6.43293,-34.8667,-1.37474,16.2334,-7.04268,-133.262,12.5915
351.862,70.2335,18.6425,0,7.84608,2.76625,5.79355,-4.5122,-10.3049,-5.7622,-34.8763,-1.11608,16.3005,-8.96341,-134.268,12.9268
351.872,70.2152,18.9532,0,7.8868,2.50759,5.85343,-4.96951,-11.2805,-6.21951,-34.5506,-1.09692,16.722,-8.2622,-133.872,14.2378
351.882,70.1967,19.25,0,7.77902,2.39981,5.82469,-5.30488,-11.4329,-7.28659,-34.4356,-1.17356,16.6358,-8.07927,-134.116,13.3537
351.892,70.1678,19.5434,0,7.70957,2.4022,5.79355,-4.81707,-10.1524,-8.04878,-34.608,-1.2502,16.8849,-9.93902,-131.677,13.0793
351.902,70.1102,19.8492,0,7.68801,2.63931,5.76002,-4.29878,-9.84756,-7.68293,-34.2152,-1.26936,17.1435,-10.7317,-131.616,12.0427
351.912,70.0666,20.1589,0,8.05445,2.71835,5.64027,-4.20732,-9.96951,-6.98171,-34.3973,-1.32684,17.5459,-9.11585,-130.152,11.6768
351.922,70.0288,20.4937,0,8.14067,2.70158,5.65464,-4.32927,-9.08537,-7.07317,-34.1194,-1.4897,18.1207,-10.7317,-129.268,10.9756
351.932,69.9923,20.7807,0,8.16702,2.72074,5.74326,-4.63415,-8.71951,-6.89024,-34.3781,-1.67172,17.5938,-10.1524,-129.146,11.1585
351.942,69.9685,21.0829,0,8.1263,2.50519,5.66422,-4.17683,-8.71951,-8.29268,-34.1386,-1.825,17.9962,-11.189,-124.604,10.3354
351.952,69.9285,21.408,0,7.91793,2.48124,5.65704,-4.54268,-9.02439,-9.45122,-33.9374,-1.6813,18.5614,-10.7012,-124.695,9.78659
351.962,69.8674,21.7258,0,7.8389,2.57225,5.61393,-4.2378,-9.42073,-10.122,-34.1578,-1.60466,18.7913,-9.02439,-124.36,10.8537
351.972,69.794,22.0186,0,7.85327,2.7423,5.60435,-2.71341,-11.6463,-9.29878,-34.2248,-1.7771,18.5997,-8.65854,-121.159,10.5488
351.982,69.7255,22.3345,0,8.06643,2.89318,5.52771,-2.34756,-11.8598,-7.95732,-34.3111,-1.83458,19.3278,-7.86585,-121.555,9.90854
351.992,69.6552,22.6323,0,8.10235,2.96024,5.52771,-3.59756,-12.8659,-7.59146,-33.9183,-1.64298,19.0021,-7.7439,-120.366,10.7927
352.002,69.5958,22.9209,0,8.19336,2.93869,5.48938,-4.02439,-11.1585,-7.31707,-33.8512,-1.7292,19.0212,-6.06707,-118.811,9.87805
352.012,69.5582,23.2293,0,8.1287,2.70398,5.43909,-3.53659,-9.32927,-7.92683,-33.7841,-1.48012,19.5961,-5.12195,-120.091,11.1585
352.022,69.5136,23.4944,0,7.99697,2.71595,5.4798,-3.78049,-9.2378,-7.9878,-33.5255,-1.7292,18.8392,-4.45122,-119.329,11.9817
352.032,69.4666,23.7928,0,7.91075,2.72553,5.52052,-2.89634,-9.45122,-7.80488,-32.9219,-1.69088,19.347,-1.85976,-118.628,12.9573
352.042,69.4317,24.1087,0,8.14546,2.78301,5.59237,-1.58537,-11.8902,-6.98171,-32.5196,-1.52802,19.6823,-1.06707,-118.262,13.2317
352.052,69.3863,24.4043,0,8.33946,2.99617,5.41035,-1.64634,-11.4939,-6.28049,-32.8932,-1.92081,19.7493,-0.701219,-120,13.9024
352.062,69.3555,24.6761,0,8.47118,2.90995,5.2882,-2.37805,-9.81707,-6.52439,-33.0752,-2.03577,19.6248,2.80488,-118.079,13.8415
352.072,69.3284,24.9685,0,8.26521,2.75906,5.3385,-2.95732,-8.71951,-7.22561,-32.6345,-2.03577,19.9888,6.12805,-115.976,14.2378
352.082,69.2948,25.2698,0,8.25324,2.80217,5.40556,-3.10976,-8.96341,-7.34756,-32.4717,-2.39981,20.2954,7.22561,-115.03,14.6646
352.092,69.274,25.5712,0,8.29395,2.74469,5.3385,-1.89024,-9.14634,-7.0122,-32.51,-2.28485,20.5541,10.7622,-117.165,12.8659
352.102,69.2493,25.8923,0,8.40891,2.8357,5.25228,-1.52439,-8.68902,-6.79878,-32.1364,-2.01661,20.9468,11.7683,-117.409,12.0732
352.112,69.2196,26.2221,0,8.51669,2.9315,5.23312,-1.89024,-8.84146,-6.61585,-32.2897,-1.98787,21.4833,10.8232,-118.049,12.4085
352.122,69.2003,26.556,0,8.47837,2.82373,5.19959,-1.7378,-9.32927,-6.79878,-32.0693,-1.56634,21.6941,11.8293,-116.677,13.5061
352.132,69.1783,26.8888,0,8.28437,2.71356,5.07984,-2.19512,-7.5,-7.68293,-32.1268,-1.51844,21.9815,11.5244,-116.982,12.6829
352.142,69.1418,27.2238,0,8.23408,2.80696,5.06786,-2.07317,-4.11585,-7.80488,-31.619,-1.14482,21.9527,10.9451,-116.555,13.6585
352.152,69.1122,27.5476,0,8.19576,2.77822,5.04391,-1.46341,-1.4939,-7.37805,-31.5424,-0.684976,21.9432,8.04878,-115.945,13.872
352.162,69.0886,27.8899,0,8.14786,2.76625,5.13253,-1.43293,-0.670732,-6.76829,-31.37,-0.589175,22.4701,5.21341,-116.982,13.8415
352.172,69.0623,28.2069,0,8.15744,2.8381,5.17564,-1.09756,0.823171,-6.21951,-31.0155,-0.464634,21.9719,3.81098,-117.317,14.2073
352.182,69.0551,28.515,0,8.25084,2.77822,5.19959,-0.304878,1.0061,-5.51829,-30.891,-0.522114,21.9719,0.457317,-113.841,13.872
352.192,69.0457,28.8319,0,8.23887,2.7902,5.25707,-0.152439,0.0304878,-5.54878,-30.8431,-0.790356,22.3839,-1.67683,-110.518,12.0427
352.202,69.0342,29.1592,0,8.27479,2.84768,5.26665,0.762195,-0.548781,-5.21341,-30.5748,-0.694556,22.6713,-2.56098,-109.238,12.6829
352.212,69.0252,29.474,0,8.26521,2.82612,5.18043,1.52439,-0.792683,-5.21341,-30.7089,-1.02028,22.7766,-3.17073,-109.939,12.8354
352.222,69.0105,29.7936,0,8.21252,2.84049,5.31934,0.609756,-1.06707,-5.39634,-31.0059,-1.02028,23.361,-4.87805,-111.006,14.3598
352.232,69.0084,30.0936,0,8.26521,2.71356,5.37442,-0.884146,0.579268,-5.97561,-30.8622,-1.03944,23.1024,-5.27439,-111.707,13.1098
352.242,68.9987,30.3923,0,8.18378,2.70398,5.34568,-1.09756,-0.243902,-6.52439,-30.4982,-0.464634,23.064,-4.45122,-108.598,13.3232
352.252,68.9711,30.7478,0,8.1766,2.86684,5.25467,-0.548781,-2.53049,-6.25,-30.0383,-0.234712,24.1849,-3.90244,-107.348,13.689
352.262,68.9412,31.0881,0,8.28916,2.98898,5.45106,0.121951,-3.59756,-5.51829,-30.4024,-0.292192,24.4627,-3.75,-104.939,14.1768
352.272,68.9225,31.3902,0,8.35383,2.97701,5.44388,0.0304878,-3.20122,-4.87805,-30.6323,-0.205972,24.1178,-3.84146,-101.463,13.689
352.282,68.8853,31.7071,0,8.10714,2.97701,5.40795,-0.213415,-1.34146,-5.67073,-30.1916,-0.474214,24.3669,-4.39024,-98.6585,10.4573
352.292,68.8411,32.0054,0,8.01134,2.99138,5.45825,0.152439,0.426829,-5.82317,-29.7414,-0.656235,23.8879,-3.47561,-94.6037,10.6098
352.302,68.8119,32.3153,0,7.95386,2.84528,5.38161,1.09756,0.762195,-6.0061,-29.3294,-1.21188,24.0699,-4.78659,-92.2866,9.17683
352.312,68.7777,32.638,0,7.82932,2.7902,5.42711,0.335366,0.823171,-6.70732,-29.5881,-1.2502,24.8268,-4.11585,-93.5976,7.95732
352.322,68.7346,32.9504,0,7.77663,2.83331,5.59716,0.487805,0.426829,-6.85976,-29.4156,-1.81542,24.7406,-4.66463,-93.2012,7.10366
352.332,68.6737,33.2588,0,7.88919,3.02491,5.47741,0.884146,-0.0304878,-6.79878,-28.7354,-1.71962,24.3478,-3.62805,-93.5061,6.82927
352.342,68.5941,33.5693,0,7.81255,3.1734,5.4798,0.27439,-2.04268,-6.52439,-28.5247,-1.22146,24.4915,-4.02439,-91.1281,7.71341
352.352,68.4973,33.87,0,7.87003,3.36979,5.52052,-1.09756,-2.89634,-6.25,-28.4576,-1.37474,24.4915,-2.65244,-90.1829,7.59146
352.362,68.4164,34.1801,0,7.95146,3.30513,5.41514,-2.46951,-2.5,-6.06707,-28.5055,-0.981958,25.0088,-1.55488,-88.811,6.89024
352.372,68.348,34.4608,0,7.94907,3.19975,5.42951,-3.35366,-1.67683,-6.28049,-28.5343,-0.886157,24.6639,0,-87.0122,6.43293
352.382,68.278,34.7605,0,7.77663,3.10155,5.45585,-4.63415,-0.853659,-6.95122,-28.1223,-0.953218,24.9609,2.13415,-88.3232,6.55488
352.392,68.2193,35.0301,0,7.74549,2.99617,5.44148,-5.54878,0.335366,-7.16463,-28.1415,-1.11608,24.5777,1.28049,-87.7134,7.0122
352.402,68.1563,35.2771,0,7.75507,2.99856,5.37921,-6.43293,0,-7.7439,-27.5092,-1.21188,23.8017,1.43293,-81.189,6.37195
352.412,68.088,35.5553,0,7.70478,3.01772,5.37682,-6.98171,-0.640244,-7.89634,-27.308,-0.953218,24.5202,-1.34146,-76.8598,4.90854
352.422,68.0242,35.8545,0,7.86764,2.98898,5.40556,-7.92683,-1.37195,-8.78049,-27.5475,-1.16398,25.4495,-0.701219,-76.3719,4.17683
352.432,67.9431,36.1423,0,7.89159,3.13987,5.41035,-8.29268,-2.71341,-8.84146,-28.2181,-1.03944,26.0818,-1.92073,-75.6098,4.81707
352.442,67.8766,36.4108,0,8.09517,3.13987,5.37682,-8.14024,-3.17073,-8.53659,-28.7259,-0.665815,26.3883,-2.92683,-71.311,3.20122
352.452,67.7982,36.6614,0,8.05924,3.24046,5.62111,-8.93293,-4.11585,-8.44512,-28.8696,-0.378413,26.35,-4.26829,-71.0671,3.93293
352.462,67.748,36.921,0,8.1287,3.07281,5.74086,-7.77439,-7.77439,-8.17073,-28.8887,-0.273032,26.8098,-2.95732,-71.4024,4.05488
352.472,67.72,37.1923,0,8.42328,2.94827,5.39119,-7.95732,-9.26829,-8.90244,-28.6205,-0.311353,27.0781,-2.9878,-72.561,5.57927
352.482,67.6815,37.4543,0,8.13588,2.85486,5.30736,-8.23171,-9.63415,-9.93902,-28.6109,-0.483794,27.0973,-1.55488,-73.3537,3.78049
352.492,67.6335,37.7364,0,7.94188,2.86444,5.26904,-7.7439,-10.5488,-9.96951,-28.1127,-0.435894,27.3655,-1.70732,-70.5793,4.57317
352.502,67.5999,38.0051,0,8.0784,2.85247,5.19001,-6.28049,-9.93902,-9.39024,-27.8924,-0.263452,27.1068,-2.80488,-68.8719,3.44512
352.512,67.5692,38.2894,0,8.33946,2.97461,5.09421,-5.03049,-8.38415,-8.78049,-27.605,-0.0239502,27.4709,-2.16463,-65.3659,3.44512
352.522,67.5267,38.5394,0,8.32748,3.13987,5.12055,-4.35976,-7.77439,-7.95732,-27.4326,0.0910107,26.7619,-3.2622,-63.2622,4.08537
352.532,67.5073,38.8045,0,8.52148,3.08,5.13013,-3.68902,-7.31707,-7.28659,-27.1739,0.292192,27.126,-3.32317,-57.1951,5.39634
352.542,67.4817,39.0586,0,8.23887,3.00575,5.01038,-3.9939,-5.97561,-7.62195,-27.308,0.311353,27.2601,-3.53659,-54.939,5.94512
352.552,67.4697,39.3105,0,8.30353,2.92671,4.97925,-4.05488,-2.71341,-7.56098,-27.0781,0.301772,27.2218,-5.60976,-54.3598,6.03659
352.562,67.4552,39.5648,0,8.14307,2.99377,5.02715,-2.86585,-1.15854,-6.28049,-27.0494,0.349673,27.49,-7.77439,-54.3293,8.41463
352.572,67.4381,39.8085,0,8.11672,3.07281,5.08702,-1.70732,-0.609756,-5.45732,-27.1068,0.474214,27.5379,-8.53659,-53.9329,7.89634
352.582,67.4502,40.0289,0,8.4137,2.97701,5.16606,-0.792683,0.762195,-5.09146,-26.6087,0.340093,26.7236,-8.93293,-50.4573,9.11585
352.592,67.4403,40.2598,0,8.02092,3.02491,5.18522,-0.0304878,-1.46341,-4.90854,-26.5224,0.244292,27.1164,-11.4024,-45.3354,10.9451
352.602,67.4324,40.5139,0,8.01374,3.07042,5.18043,1.0061,-3.81098,-4.14634,-26.3596,0.359253,27.7487,-13.3537,-41.5549,10.4878
352.612,67.4338,40.7482,0,8.10714,3.10634,5.06307,1.0061,-4.26829,-3.32317,-26.2829,0.732876,27.4421,-15.0915,-39.6037,10.5183
352.622,67.4569,40.9728,0,8.14067,2.99856,5.04152,1.82927,-3.32317,-2.86585,-26.3596,0.522114,27.5188,-15.2439,-37.8963,11.6463
352.632,67.4761,41.1897,0,7.97302,3.02491,5.15887,2.04268,-1.37195,-2.28659,-26.3979,0.522114,27.5954,-13.75,-35.9451,10.9146
352.642,67.4949,41.4164,0,7.90835,3.04167,5.27144,2.56098,-0.670732,-1.89024,-26.1201,0.292192,27.7679,-15.7622,-33.0793,10.6402
352.652,67.5339,41.6315,0,7.98021,3.01293,5.23791,3.17073,-0.609756,-1.34146,-25.9189,0.0335303,27.5092,-17.2256,-29.0244,10.7927
352.662,67.5538,41.8266,0,8.03769,3.12071,5.1469,3.41463,-0.640244,-1.46341,-26.0147,-0.148491,27.3559,-18.4756,-23.7805,9.32927
352.672,67.5881,42.0081,0,8.08319,3.07281,5.13732,3.35366,-0.27439,-1.28049,-25.8997,-0.148491,27.126,-18.9024,-17.3476,9.45122
352.682,67.6144,42.1865,0,8.04727,3.1255,5.24988,3.10976,0,-1.03659,-25.8902,-0.225132,27.2314,-20.3659,-13.7195,8.78049
352.692,67.657,42.3559,0,8.2221,3.10395,5.19959,2.9878,1.03659,-0.945122,-26.1584,-0.196392,27.4805,-18.2927,-10.3659,9.93902
352.702,67.661,42.5128,0,7.98499,3.2213,5.25707,3.14024,0,-0.853659,-26.1584,-0.378413,27.3463,-16.8598,-9.29878,10.3659
352.712,67.6814,42.6571,0,8.07361,3.22609,5.15887,3.32317,-0.0609756,-0.304878,-26.4937,-0.253872,27.5475,-17.7134,-8.04878,10.2134
352.722,67.6978,42.782,0,8.19815,3.28357,5.17564,3.10976,0.335366,-0.304878,-26.714,-0.263452,27.4421,-19.3598,-8.5061,9.54268
352.732,67.7173,42.9016,0,7.97062,3.1734,5.19719,2.40854,0.243902,-0.457317,-26.714,-0.148491,27.4326,-17.5305,-8.10976,8.47561
352.742,67.7355,43.0051,0,7.84369,3.10634,5.20917,1.89024,1.58537,-0.731707,-26.7045,-0.292192,27.1643,-18.7195,-5.45732,8.59756
352.752,67.7555,43.1129,0,7.85806,3.10395,5.21396,2.19512,1.92073,-0.701219,-26.8673,-0.445474,27.5379,-17.6524,-4.32927,6.40244
352.762,67.7778,43.2181,0,8.03529,3.16861,5.25467,1.7378,1.43293,-0.518293,-26.5129,-0.330513,27.2314,-18.811,-0.640244,5.06098
352.772,67.8076,43.3393,0,8.11912,3.18298,5.27383,1.79878,1.25,-0.304878,-26.3308,-0.541274,27.5379,-17.2256,1.09756,5.73171
352.782,67.8237,43.409,0,8.13349,3.25962,5.32173,1.7378,1.64634,0,-26.532,-0.416733,26.6374,-18.3232,2.89634,5.73171
352.792,67.8278,43.4842,0,8.13588,3.30513,5.30018,1.46341,1.76829,0.121951,-26.7332,-0.570015,27.0494,-17.3171,5.4878,5.27439
352.802,67.8531,43.5565,0,8.09277,3.20693,5.24988,1.85976,1.95122,0.396341,-26.9248,-0.752036,27.2505,-16.8902,6.92073,6.21951
352.812,67.8751,43.6312,0,8.05685,3.20693,5.18522,1.4939,1.67683,0.0304878,-26.9631,-0.684976,27.4134,-15.0305,6.40244,7.16463
352.822,67.9078,43.6913,0,8.04248,3.16143,5.21635,0.182927,2.13415,0.0609756,-27.3847,-0.522114,27.5571,-14.4817,6.52439,6.95122
352.832,67.9557,43.7621,0,8.11433,3.11832,5.35047,-0.518293,1.0061,-0.0609756,-27.1931,-0.570015,27.6816,-13.8415,6.40244,8.56707
352.842,68.0088,43.8215,0,8.14067,3.07042,5.26186,0.426829,-0.213415,-0.304878,-27.4134,-0.378413,27.7008,-14.6037,7.43902,7.86585
352.852,68.047,43.8623,0,8.17181,3.13508,5.22593,0.365854,-0.0304878,-0.27439,-27.2793,-0.253872,27.1835,-14.4207,9.60366,8.47561
352.862,68.0589,43.8823,0,8.11193,3.2237,5.19719,0.426829,0.0304878,-0.0914634,-27.5858,0.0239502,27.0302,-15.3049,9.90854,7.56098
352.872,68.0924,43.9031,0,8.10714,3.15185,5.19719,0.304878,0.548781,0.0609756,-27.6146,-0.0239502,27.0973,-16.6159,9.96951,7.62195
352.882,68.1261,43.9094,0,8.0808,3.1255,5.25707,0.426829,1.21951,0.426829,-27.6721,-0.0718506,26.829,-15.7622,10.5488,8.10976
352.892,68.1647,43.9295,0,7.99937,3.07042,5.30976,0.731707,2.19512,0.487805,-27.49,-0.244292,26.9823,-16.0061,10.1829,6.67683
352.902,68.2107,43.921,0,7.97302,3.0273,5.29778,0.97561,2.43902,0.487805,-27.6433,-0.196392,26.4745,-15.9451,9.57317,6.46341
352.912,68.2705,43.9215,0,8.03769,2.98898,5.24749,1.31098,1.52439,0.457317,-27.8253,-0.416733,26.8482,-17.7439,8.32317,6.55488
352.922,68.3307,43.923,0,8.09517,3.01533,5.14211,1.58537,0.670732,0.243902,-27.8828,-0.502954,26.9248,-18.1402,8.29268,6.43293
352.932,68.3766,43.8984,0,8.08559,3.06562,5.13492,0.579268,1.31098,0.0304878,-27.902,-0.225132,26.3404,-18.1402,9.48171,6.76829
352.942,68.42,43.9044,0,8.07122,3.05125,5.24988,0.487805,2.40854,-0.0609756,-27.9595,-0.205972,27.0973,-17.9878,10.9146,6.89024
352.952,68.4597,43.8891,0,8.06882,3.05604,5.25228,0.304878,3.53659,0.152439,-28.1127,0.0718506,26.7428,-19.1463,10.1829,6.31098
352.962,68.5019,43.8703,0,8.09038,3.04646,5.28341,0.548781,3.47561,-0.0609756,-28.2373,0.100591,26.7524,-19.6951,8.2622,5.33537
352.972,68.5296,43.8433,0,8.14546,3.10874,5.31694,0.579268,2.37805,-0.0304878,-28.1702,-0.0622705,26.4841,-18.4451,8.78049,5.79268
352.982,68.566,43.8184,0,8.09996,3.05844,5.25946,0.579268,1.64634,0.182927,-28.1511,-0.110171,26.4841,-17.8354,7.68293,4.7561
352.992,68.6003,43.7857,0,8.0329,3.03209,5.31455,0.823171,1.40244,0.365854,-28.2564,-0.416733,26.3692,-18.8415,5.91463,4.32927
353.002,68.6271,43.754,0,7.97781,3.03688,5.45585,0.945122,1.79878,0.121951,-28.4672,-0.435894,26.5512,-17.7439,3.75,4.78659
353.012,68.6535,43.714,0,7.96344,3.03209,5.41514,1.70732,0.579268,0,-28.5055,-0.637075,26.3596,-17.1341,3.41463,4.7561
353.022,68.6791,43.6625,0,8.01613,3.04646,5.34808,2.56098,0.0914634,0.243902,-28.6013,-0.809517,26.1392,-16.4329,2.56098,4.5122
353.032,68.6969,43.6279,0,8.05445,3.08479,5.3864,2.43902,-0.548781,0.335366,-28.7067,-0.761616,26.5799,-15,1.4939,4.17683
353.042,68.7108,43.5963,0,8.11193,3.11592,5.29539,1.82927,-0.182927,0.0304878,-28.8121,-0.608335,26.714,-14.7866,1.34146,4.57317
353.052,68.7182,43.5696,0,8.10235,3.10874,5.27144,0.762195,1.0061,-0.426829,-28.6684,-0.359253,26.6566,-15.3049,-0.97561,4.02439
353.062,68.7292,43.5479,0,8.18618,3.08,5.40556,0.304878,1.18902,-0.914634,-28.6109,-0.119751,26.6853,-15.7317,-3.56707,3.35366
353.072,68.7515,43.5167,0,8.22929,3.04407,5.33131,0.670732,0.0609756,-0.823171,-28.8504,-0.0718506,26.6566,-15.3963,-4.29878,5.27439
353.082,68.7705,43.4661,0,8.10475,2.98659,5.16845,0.335366,0.457317,-1.15854,-28.9462,-0.167651,26.2542,-17.5305,-6.37195,4.32927
353.092,68.782,43.427,0,7.99458,2.9794,5.26425,0.762195,1.37195,-1.21951,-28.6492,0.0718506,26.1871,-16.7988,-10.0915,4.32927
353.102,68.7828,43.3959,0,7.97062,3.03449,5.34329,1.21951,1.28049,-1.09756,-28.5917,-0.119751,26.2829,-17.1951,-10.1829,4.26829
353.112,68.7906,43.3644,0,8.01134,3.03449,5.32173,1.28049,1.09756,-0.823171,-28.6875,-0.320933,26.3308,-17.1951,-10.7622,4.2378
353.122,68.8037,43.3316,0,8.09038,3.04886,5.37921,1.7378,0.548781,-0.640244,-28.6013,-0.483794,26.1871,-15.2439,-12.1037,3.2622
353.132,68.8207,43.2986,0,8.13109,2.98659,5.36724,2.28659,-0.396341,-1.21951,-28.7833,-0.397573,26.3021,-13.9024,-15.7012,7.0122
353.142,68.8222,43.2771,0,8.02811,3.02012,5.28581,2.04268,-0.365854,-1.43293,-28.6588,-0.809517,26.4075,-12.2256,-19.1768,6.28049
353.152,68.8195,43.259,0,7.97542,3.0273,5.29539,2.04268,-0.243902,-1.40244,-28.1702,-0.752036,26.0051,-14.0549,-21.9207,5.03049
353.162,68.8128,43.2357,0,8.02332,3.08958,5.23072,2.56098,-0.27439,-1.06707,-28.199,-0.301772,25.8997,-14.4512,-21.4329,4.08537
353.172,68.7901,43.2306,0,8.06643,3.19496,5.1924,1.06707,-0.182927,-1.0061,-28.266,-0.378413,26.3596,-14.8476,-21.311,5.06098
353.182,68.7946,43.2126,0,8.1263,3.09676,5.30018,0.609756,0,-0.731707,-28.6396,-0.550855,26.3883,-14.7866,-24.1159,5.18293
353.192,68.8027,43.2014,0,8.07601,3.01054,5.42232,1.12805,-0.731707,-1.31098,-29.2336,-0.282612,27.0685,-13.1402,-26.5549,7.53049
353.202,68.7931,43.1762,0,7.93949,3.0297,5.35047,0.884146,-1.58537,-1.79878,-29.0516,-0.531694,26.5512,-14.2683,-28.2317,7.2561
353.212,68.7799,43.166,0,7.9323,3.04167,5.3385,0.396341,-2.04268,-1.92073,-28.8696,-0.263452,26.7045,-12.5305,-30.2134,6.95122
353.222,68.7621,43.1539,0,8.03769,3.11113,5.25707,0.396341,-0.884146,-1.98171,-28.8504,-0.244292,26.6182,-13.7195,-33.1402,8.35366
353.232,68.7452,43.1445,0,8.11433,3.12311,5.26665,0.27439,-0.792683,-2.16463,-28.7354,-0.646655,26.5512,-13.0183,-36.4024,7.46951
353.242,68.7249,43.145,0,8.14307,3.13748,5.29299,0.0609756,-0.670732,-2.5,-28.7163,-0.244292,26.7332,-10.8841,-41.372,7.46951
353.252,68.7091,43.1494,0,8.05924,3.02491,5.36724,0.0914634,-0.518293,-3.14024,-28.381,-0.579595,26.5033,-10.3659,-43.4451,6.7378
353.262,68.6892,43.1741,0,7.99697,3.04167,5.3385,0.213415,-0.914634,-3.04878,-27.9116,-0.483794,26.532,-9.32927,-45.6707,8.17073
353.272,68.6668,43.1955,0,7.91793,3.01772,5.25707,0.487805,-1.31098,-3.2622,-27.8637,-0.598755,26.4266,-10.4573,-46.5549,8.62805
353.282,68.6467,43.1987,0,7.95865,3.00575,5.11337,0.884146,-1.18902,-3.44512,-28.2085,-0.493374,26.3404,-10.3354,-47.9268,9.48171
353.292,68.6283,43.2278,0,8.02332,3.02491,5.18043,0.853659,-1.52439,-3.38415,-27.9978,-0.474214,26.7428,-8.2622,-49.9695,9.66463
353.302,68.6175,43.2323,0,8.1766,3.01533,5.21635,1.34146,-1.70732,-3.5061,-28.2852,-0.541274,26.4554,-6.12805,-51.6768,9.93902
353.312,68.6123,43.2463,0,8.18857,3.00335,5.28102,1.12805,-0.884146,-3.20122,-28.1894,-0.809517,26.5799,-5.82317,-54.3293,10.3963
353.322,68.6263,43.2845,0,8.10954,2.82133,5.28102,2.19512,-0.396341,-3.32317,-27.6721,-0.483794,26.6661,-4.7561,-54.9085,12.9573
353.332,68.623,43.3016,0,8.01613,2.85486,5.25707,3.04878,-0.609756,-4.05488,-28.0169,-0.579595,26.5224,-4.45122,-57.561,13.3537
353.342,68.6235,43.2938,0,8.10714,2.90276,5.19001,4.26829,-1.64634,-3.53659,-28.0648,-0.675395,26.0243,-4.20732,-53.689,13.628
353.352,68.6152,43.3318,0,8.27719,3.02012,5.06786,4.39024,-2.5,-3.65854,-27.9211,-0.311353,26.9536,-4.69512,-53.1707,14.4817
353.362,68.6041,43.3767,0,8.45681,3.10634,5.10858,4.11585,-2.56098,-3.68902,-28.3522,-0.598755,27.5571,-5.15244,-56.8293,14.4207
353.372,68.608,43.4129,0,8.44005,3.00814,5.10379,4.90854,-2.10366,-3.38415,-28.8983,-0.205972,27.8924,-4.96951,-61.6768,13.872
353.382,68.6154,43.4649,0,8.30593,2.90995,5.12295,5.57927,-0.945122,-3.65854,-28.678,0.0335303,28.084,-4.08537,-65.8841,14.8476
353.392,68.6278,43.5319,0,8.20294,2.78062,5.27144,5.4878,-0.243902,-4.26829,-28.4672,-0.186812,28.2948,-4.32927,-66.9207,17.7744
353.402,68.636,43.5832,0,8.2221,2.74469,5.25707,6.43293,-0.121951,-5.15244,-28.2469,-0.416733,27.7583,-1.21951,-66.189,18.9329
353.412,68.6219,43.6502,0,7.91075,2.79499,5.38161,7.80488,-3.35366,-5.36585,-27.6912,-0.387993,27.6529,-4.35976,-63.4451,18.9939
353.422,68.6001,43.6553,0,8.23168,2.92192,5.32652,7.68293,-4.7561,-5.97561,-27.2218,-0.732876,25.8327,-5.82317,-56.3415,18.7195
353.432,68.5694,43.71,0,8.32748,3.01054,5.33371,7.71341,-6.43293,-6.25,-27.0877,-1.26936,26.8865,-4.35976,-50.4268,19.3293
353.442,68.5535,43.7824,0,8.47837,2.90516,5.35526,8.47561,-7.86585,-6.76829,-27.5379,-1.47054,27.8062,-2.40854,-52.622,16.0976
353.452,68.5197,43.8288,0,8.21971,2.93869,5.25707,10.0915,-10.3963,-7.07317,-28.4097,-1.36516,28.0936,1.89024,-55.3659,14.2073
353.462,68.5074,43.8902,0,8.45202,2.84768,5.06068,10.4573,-11.7378,-7.10366,-28.3522,-1.0586,28.4385,5.60976,-59.3598,13.2012
353.472,68.4975,43.9558,0,8.64123,2.85007,5.21156,11.6768,-10.8841,-7.62195,-28.4385,-0.684976,28.6684,6.98171,-63.9634,13.9634
353.482,68.463,44.0195,0,8.89271,3.08479,5.15408,10.0915,-9.5122,-8.35366,-28.5151,-0.340093,28.7354,8.96341,-69.4207,16.128
353.492,68.4356,44.0931,0,8.88552,2.99377,5.17324,8.23171,-9.93902,-8.75,-28.5151,-0.282612,29.0228,11.9512,-75.1524,17.5
353.502,68.4251,44.1496,0,8.86157,2.79259,5.16127,9.35976,-9.78659,-9.39024,-28.4959,0.177231,28.6205,14.939,-79.7866,17.8963
353.512,68.404,44.2352,0,8.66758,2.82852,4.84033,12.4085,-10.9451,-9.29878,-27.7391,0.752036,28.6205,17.1037,-83.9939,19.6037
353.522,68.3541,44.3258,0,8.464,2.95306,4.56491,12.439,-8.93293,-9.90854,-27.72,0.914897,28.8025,14.7256,-86.0061,19.6951
353.532,68.2901,44.4363,0,8.15025,2.91713,4.96248,12.3171,-6.43293,-10.5183,-27.6912,1.24062,29.3677,8.23171,-87.4695,17.7134
353.542,68.2086,44.5557,0,8.06643,3.01293,5.25228,13.0793,-6.34146,-10.8232,-27.0685,1.60466,29.0612,1.95122,-84.6646,17.9878
353.552,68.1258,44.6951,0,8.28198,3.04167,5.32173,11.4329,-4.87805,-11.7683,-27.3272,1.65256,29.9809,-3.81098,-85.7927,17.8963
353.562,68.038,44.8195,0,8.29395,3.06083,5.32652,13.5366,-5.57927,-12.2561,-27.4326,1.40348,29.8372,-5.06098,-87.2256,18.7195
353.572,67.9329,44.9525,0,8.29156,3.23807,4.89781,14.2988,-7.5,-12.0122,-27.3751,1.67172,30.1246,-6.15854,-89.1159,17.378
353.582,67.8419,45.0776,0,8.464,3.22609,4.63197,14.7256,-8.56707,-11.7378,-27.2505,1.40348,29.9138,-5.94512,-89.3598,20.8232
353.592,67.749,45.2238,0,8.44244,3.20933,4.85949,14.4207,-6.52439,-12.2256,-27.0494,1.60466,30.3928,-6.64634,-88.689,20.9756
353.602,67.6502,45.3894,0,8.07122,3.08718,5.1469,16.6159,-6.21951,-12.7744,-26.7332,1.08734,30.6994,-9.26829,-91.8293,23.2012
353.612,67.5425,45.5647,0,7.98021,3.10874,5.34808,20.0915,-9.08537,-13.1707,-26.1105,1.00112,30.412,-10.2134,-93.8415,24.0854
353.622,67.3921,45.7558,0,8.16462,3.5087,5.25707,16.9207,-10.5793,-13.7195,-25.689,0.684976,30.5269,-10,-95.5488,23.0793
353.632,67.2789,45.9452,0,8.36101,3.25004,5.0966,16.6768,-7.86585,-14.3293,-25.1621,0.905317,30.0671,-11.189,-93.689,20.4878
353.642,67.1594,46.1528,0,8.44723,3.365,4.55054,18.3537,-4.69512,-14.2378,-24.5873,1.00112,30.0862,-13.2927,-89.5122,21.0366
353.652,67.0044,46.3543,0,8.42807,3.63803,4.48348,14.4207,0.426829,-14.7866,-24.6735,0.780776,30.2587,-16.0366,-88.0183,22.6829
353.662,66.8773,46.5754,0,8.44005,3.42248,4.54814,12.9268,-0.823171,-14.8476,-24.0987,0.780776,30.3162,-15.5793,-84.8476,23.1402
353.672,66.73,46.8187,0,8.33467,3.52068,4.54575,13.9939,-3.20122,-15.4878,-23.8496,0.914897,30.8718,-15.4268,-82.1951,24.6037
353.682,66.6106,47.0735,0,8.28677,3.25962,4.46911,12.8963,-4.08537,-15.8537,-23.6101,0.713716,31.1688,-14.2378,-80,26.7988
353.692,66.4995,47.3251,0,8.29395,3.1734,4.23439,15.5488,-9.66463,-16.3415,-23.3706,1.08734,31.073,-14.878,-75.8232,28.8415
353.702,66.3324,47.5649,0,8.01374,3.47996,4.53617,15.6402,-9.05488,-17.1037,-23.2269,1.22146,30.8526,-16.0671,-71.311,31.7683
353.712,66.145,47.8044,0,7.9347,3.70031,5.04391,15.7012,-9.32927,-16.4024,-22.9587,1.28852,30.7856,-17.0427,-66.0061,31.6768
353.722,65.9605,48.0618,0,7.98021,3.78413,4.98643,16.0366,-8.2622,-15.7317,-22.7096,1.90165,31.255,-18.4756,-62.2256,31.9207
353.732,65.7681,48.3275,0,7.92512,3.80329,4.70142,15.122,-5.06098,-16.372,-22.9299,1.43222,32.1076,-23.4756,-61.4634,30.5488
353.742,65.5854,48.5955,0,8.12391,3.79611,4.59365,14.3598,-6.12805,-16.9817,-22.5755,1.54718,32.0023,-24.0549,-59.4817,29.2073
353.752,65.4021,48.8516,0,8.26282,3.87754,4.31822,15.3963,-9.69512,-17.2256,-22.3072,0.981958,31.619,-23.3537,-53.6585,30.3963
353.762,65.2003,49.1108,0,8.26761,4.02124,4.67747,17.8354,-12.0427,-17.8659,-22.0869,0.617915,31.7436,-18.628,-45.8841,30.8537
353.772,64.9939,49.393,0,8.18857,3.97094,4.35894,19.2683,-12.1646,-18.872,-22.2402,0.292192,33.0082,-15.8537,-42.0427,31.25
353.782,64.7449,49.6352,0,7.96584,4.17452,4.55533,20.5488,-8.93293,-20,-22.6617,-0.0526904,32.7591,-12.2256,-37.3476,30.9451
353.792,64.4587,49.8405,0,7.85566,4.45713,4.74214,21.6159,-7.59146,-20.3963,-23.2461,0.0718506,32.7782,-11.372,-32.7134,29.1463
353.802,64.1712,50.0361,0,7.97781,4.55293,4.65592,21.7683,-5.06098,-20.8232,-23.3514,0.349673,32.8932,-9.32927,-30.6098,28.2622
353.812,63.8641,50.2438,0,8.09277,4.75651,4.9529,20.0915,-4.63415,-21.9207,-23.5239,0.723296,33.7458,-8.81098,-32.7134,29.0549
353.822,63.5428,50.4292,0,8.09756,4.94572,4.74214,17.2256,-4.96951,-22.0122,-24.0029,1.52802,33.9757,-9.93902,-33.2927,30.8841
353.832,63.2252,50.6021,0,8.18857,4.94811,4.53377,14.2988,-3.23171,-22.8354,-24.1562,1.95913,34.0428,-10.7927,-31.0976,30.5488
353.842,62.9193,50.7398,0,8.33946,4.9553,4.29906,15.8841,-3.9939,-23.1707,-24.3765,1.90165,33.4872,-10.4573,-26.8598,32.0122
353.852,62.6103,50.878,0,8.39215,4.95051,4.02603,17.8963,-5.70122,-24.4817,-24.9992,1.74836,34.5506,-9.78659,-23.8415,31.6159
353.862,62.2988,51.0492,0,8.59093,5.0008,4.48827,19.9085,-5.57927,-26.0366,-25.3154,1.5855,36.2175,-8.38415,-30.7927,32.0122
353.872,61.981,51.1982,0,8.54782,4.97925,4.65352,20.061,-5.73171,-27.2866,-25.095,1.00112,35.4032,-6.25,-29.1159,31.8598
353.882,61.6609,51.3714,0,8.44963,4.8547,4.21763,22.0732,-4.14634,-28.872,-25.1621,0.838257,36.5336,-3.62805,-25.6098,30.9756
353.892,61.3331,51.5403,0,8.5598,4.93853,4.17691,21.189,-1.09756,-30.0915,-25.0663,0.694556,36.5049,-0.884146,-22.5915,32.0122
353.902,60.9857,51.7009,0,8.46639,4.92177,4.1817,23.0793,0.121951,-32.378,-24.6927,0.742456,35.9397,3.32317,-17.8354,31.2805
353.912,60.591,51.8674,0,8.11433,5.05349,4.45234,23.9024,5.18293,-34.3598,-24.4148,1.22146,35.9684,5.97561,-14.6646,31.0976
353.922,60.1941,52.0195,0,8.32748,5.2427,4.81399,23.2012,6.76829,-34.8171,-24.434,1.60466,35.7385,6.40244,-14.1463,32.4085
353.932,59.7777,52.1596,0,8.44244,5.54447,3.99968,23.689,5.06098,-35.3659,-24.6256,2.26569,35.8247,3.23171,-12.5305,31.6159
353.942,59.3294,52.2715,0,7.94907,5.46064,4.46671,21.7378,8.84146,-37.0427,-25.3249,2.71595,36.0642,0.579268,-12.561,31.5854
353.952,58.8954,52.3863,0,8.2221,5.56363,4.39247,23.4756,4.14634,-37.3171,-25.7752,2.69679,36.9456,-2.5,-14.2683,30.8841
353.962,58.4264,52.4787,0,7.95625,5.69536,4.44995,23.5366,2.28659,-38.689,-26.4554,2.73511,37.2905,-4.17683,-14.6951,27.5
353.972,57.9625,52.5468,0,7.89159,5.53968,4.02124,27.561,-1.25,-40.2134,-26.6087,2.66805,36.8019,-9.14634,-13.5671,24.6037
353.982,57.4681,52.6114,0,7.92512,5.78158,4.11464,28.0183,-2.16463,-42.1341,-26.3596,2.85007,36.4378,-11.5549,-12.439,22.8659
353.992,56.9606,52.6879,0,7.87003,5.75044,4.00687,25.7012,-0.945122,-44.3902,-26.1488,2.98419,36.6199,-12.4085,-14.2378,21.0671
354.002,56.4525,52.7426,0,7.72154,5.62351,3.9925,27.2561,-0.97561,-45.6707,-25.7848,2.67763,35.4894,-12.6829,-14.2073,21.189
354.012,55.9203,52.8072,0,7.73352,5.86301,3.89909,26.9207,1.06707,-46.9207,-25.0567,2.38065,34.905,-13.9634,-9.54268,18.5671
354.022,55.4003,52.8916,0,7.58263,5.61153,4.59125,30.3354,4.54268,-48.1098,-24.3573,1.75794,34.6847,-15.3659,-3.59756,17.561
354.032,54.8637,53.002,0,7.6928,5.90612,4.31582,30.1524,5.7622,-48.811,-23.8688,1.5376,34.9625,-13.3537,0.27439,18.4756
354.042,54.3347,53.1374,0,7.84608,6.00192,4.29187,29.8171,3.29268,-49.3293,-23.9837,1.32684,36.1504,-10.0305,3.17073,20.0915
354.052,53.7865,53.2345,0,7.67843,5.96839,3.85359,28.4146,3.38415,-51.4634,-24.3382,1.40348,35.566,-11.4024,5.54878,20.9451
354.062,53.2195,53.294,0,7.58263,6.02347,4.06435,27.2256,4.96951,-53.2622,-24.0795,1.92081,34.1482,-14.3902,14.9085,23.7195
354.072,52.6238,53.3379,0,7.39103,6.06658,3.92304,28.7805,3.71951,-55.4878,-24.7118,2.55309,34.6272,-14.4512,16.7683,26.2195
354.082,51.9944,53.3279,0,7.1635,6.17436,3.60929,29.878,4.78659,-57.3171,-25.0759,2.54351,33.4967,-15.122,19.3902,28.4756
354.092,51.3405,53.3038,0,7.01501,6.3468,3.52307,28.1707,7.28659,-58.2927,-25.0088,2.96503,32.9986,-14.0549,25,28.5671
354.102,50.7147,53.3092,0,7.14674,6.32764,3.73384,29.4512,9.2378,-58.0183,-24.7022,2.89797,33.4872,-13.5061,28.9329,28.4146
354.112,50.1212,53.3458,0,7.04136,6.09772,4.04758,34.8476,6.09756,-57.2866,-24.1178,2.92671,33.6883,-13.7195,33.9329,25.9756
354.122,49.5341,53.4018,0,6.93837,6.06898,3.97813,41.8902,2.9878,-57.2561,-23.6197,2.92671,33.6883,-16.3415,41.5549,23.2622
354.132,48.9085,53.4835,0,6.93119,6.62462,3.76018,41.7683,2.83537,-57.2256,-23.5239,3.28118,34.4643,-19.9085,44.1768,20.7012
354.142,48.2544,53.5385,0,6.91442,7.0222,3.23328,33.9939,6.46341,-57.8659,-23.9358,3.3674,34.3111,-25.5183,45.8841,18.2012
354.152,47.6063,53.5451,0,6.8282,7.12758,3.84161,35.2134,6.4939,-56.9817,-24.4627,3.30992,33.6021,-29.8171,48.3537,17.9268
354.162,46.9578,53.4929,0,7.00783,7.50839,3.30273,33.872,7.2561,-56.8293,-25.0567,3.00335,32.6345,-31.0976,51.9207,15.9451
354.172,46.3139,53.4222,0,6.89047,7.39343,3.37458,31.8598,8.9939,-57.5915,-25.1812,2.13157,32.2226,-29.7561,57.6524,15.7927
354.182,45.6721,53.3176,0,6.76114,7.31918,3.33866,31.4939,10.9146,-58.1707,-25.3154,1.74836,31.37,-29.9695,63.5976,15.061
354.192,44.9959,53.2306,0,6.36117,7.38624,3.42248,28.2317,15.9451,-58.9329,-25.0854,1.22146,31.4849,-30.061,67.5305,14.878
354.202,44.3606,53.1884,0,6.46655,7.15392,3.59732,27.7439,21.5854,-58.9329,-24.3478,1.346,31.734,-32.439,68.6281,17.7439
354.212,43.7645,53.1655,0,6.48332,6.96711,3.63324,32.439,19.0244,-57.9268,-23.6005,1.6813,31.2837,-31.8598,72.1951,21.2195
354.222,43.1663,53.1623,0,6.29411,7.03896,3.26681,40.8841,15.2439,-57.0427,-23.361,2.33275,31.5424,-28.5671,78.8719,26.1585
354.232,42.5573,53.1379,0,6.36596,7.43654,3.09197,43.4756,14.6646,-56.8293,-23.6293,2.60099,31.3125,-28.2927,84.0854,28.9939
354.242,41.9066,53.0657,0,5.82948,7.52515,3.35542,43.811,15.6402,-56.6159,-24.0795,2.80217,30.5557,-31.2195,90,27.5
354.252,41.24,52.9648,0,5.56124,7.62814,3.16382,44.5427,16.4634,-56.1585,-24.6064,2.84049,30.3545,-32.0732,91.2195,23.1402
354.262,40.5609,52.8152,0,5.384,7.96104,2.95066,42.5305,17.8963,-54.6646,-24.5873,2.75427,28.9366,-33.2622,92.8659,16.5244
354.272,39.8893,52.679,0,5.18282,8.09038,2.71835,40.1829,15.6707,-52.378,-24.6639,2.44771,29.2528,-35.7927,98.6585,9.60366
354.282,39.2375,52.5601,0,5.0487,8.06643,3.18059,36.9817,13.9634,-50.4878,-24.2999,1.91123,29.157,-40.6402,104.055,4.20732
354.292,38.6156,52.4418,0,4.86907,7.81016,3.13029,35.7317,13.4756,-48.5671,-23.6293,1.49928,28.2948,-46.1585,113.75,-0.518293
354.302,38.0459,52.3574,0,4.86428,7.48204,2.96503,36.7988,12.1951,-46.7378,-22.7575,1.71004,28.0169,-48.2927,121.616,-0.670732
354.312,37.5209,52.2881,0,4.96009,7.41738,3.18298,37.378,9.26829,-44.8476,-21.6749,1.4418,27.0014,-47.6829,128.78,2.04268
354.322,37.0154,52.2243,0,4.84991,7.46049,2.73032,38.2927,7.37805,-42.4085,-21.3779,1.43222,26.7332,-45.5183,136.189,4.26829
354.332,36.5528,52.1672,0,4.8092,7.49641,2.78541,37.0427,6.79878,-38.3537,-21.4163,1.00112,26.9248,-45.0915,145.396,3.32317
354.342,36.2077,52.0737,0,5.47501,7.38624,2.72314,39.4207,5.06098,-35.2134,-21.4737,0.857417,26.1201,-44.6341,155.701,-1.95122
354.352,35.8788,51.9796,0,5.54687,7.44851,2.75906,40.1524,4.45122,-34.5122,-21.4546,0.780776,26.0243,-44.3598,161.616,-7.04268
354.362,35.5018,51.8383,0,5.06547,7.4557,2.64889,37.9268,2.80488,-35.0305,-22.2497,0.886157,25.8039,-47.2561,165.427,-11.5244
354.372,35.1178,51.6855,0,4.99601,7.16829,2.42855,35.2744,2.40854,-37.8963,-22.7479,1.30768,25.9955,-51.9512,168.171,-16.0061
354.382,34.6788,51.4866,0,4.59125,7.07249,2.73272,35.9756,1.64634,-40.4573,-23.6101,1.52802,25.7752,-55.2439,171.098,-20.122
354.392,34.204,51.2586,0,4.38528,7.14913,2.84528,36.0976,-0.0609756,-42.0122,-24.3669,2.22737,25.756,-57.378,173.384,-19.6341
354.402,33.6667,50.9671,0,4.04998,7.43414,2.75667,37.2256,-1.28049,-43.3537,-24.5969,2.45729,24.4148,-58.6585,179.634,-17.7744
354.412,33.1246,50.6822,0,4.03561,7.5994,2.29203,36.1585,-2.77439,-43.689,-25.1525,2.27527,24.8843,-60.4268,186.159,-15.7622
354.422,32.5861,50.3977,0,3.99489,7.66885,2.31838,36.6463,-5.64024,-43.5061,-25.095,2.10283,24.6064,-62.0732,189.665,-14.6646
354.432,32.0492,50.1129,0,3.98771,7.92272,2.28006,36.4024,-8.71951,-42.8049,-24.9609,1.0107,24.2424,-62.8354,193.171,-13.4146
354.442,31.5285,49.8645,0,4.06435,7.92991,2.22258,34.2073,-9.60366,-43.1098,-24.7118,0.502954,24.549,-66.0976,196.006,-13.8415
354.452,31.0587,49.6136,0,4.3781,8.02571,2.32077,32.1951,-9.87805,-41.9817,-24.0891,0.522114,23.6867,-70.2439,199.909,-14.7256
354.462,30.6252,49.3704,0,4.4739,7.81974,2.09804,32.1341,-7.95732,-41.6159,-23.4664,0.799937,23.0449,-71.8598,203.75,-14.5732
354.472,30.1695,49.1137,0,4.35415,7.73352,2.03816,31.4634,-6.25,-43.9634,-22.882,1.16398,22.039,-72.6524,209.848,-10.061
354.482,29.6747,48.839,0,4.43079,7.65448,1.70046,32.1037,-3.65854,-50.2744,-23.2173,1.2023,21.8282,-70,213.354,-7.2561
354.492,29.1553,48.537,0,4.41642,7.52276,1.94476,32.0427,0.548781,-54.5122,-23.6963,1.02028,21.5504,-66.8293,216.433,-8.56707
354.502,28.6402,48.2129,0,4.41642,7.4054,2.07648,32.3171,5.42683,-55.9451,-23.5622,1.06818,20.8031,-65.3659,220.122,-11.9817
354.512,28.1128,47.8517,0,4.36852,7.60419,2.27287,31.372,9.26829,-56.3415,-24.1753,0.704136,20.4391,-66.2805,226.524,-16.1585
354.522,27.6055,47.5254,0,4.46671,7.63532,2.41178,32.2866,9.90854,-56.2805,-24.5106,0.646655,21.1193,-67.6219,229.726,-22.5305
354.532,27.1291,47.1728,0,4.54814,7.4533,2.04535,34.5427,7.80488,-56.3415,-24.9226,0.368833,20.7457,-68.1707,232.713,-28.4146
354.542,26.6414,46.8205,0,4.54335,7.73591,1.6358,35.8841,6.12805,-56.4939,-25.1525,0.483794,20.6882,-66.0976,235.03,-30.8841
354.552,26.0984,46.4315,0,4.24876,8.25084,1.58311,37.8963,8.53659,-56.6463,-25.4112,0.282612,19.9793,-61.25,237.713,-31.128
354.562,25.5179,46.0238,0,3.97094,8.82804,1.2023,40.3049,11.25,-55.3963,-25.8902,-0.464634,19.7398,-56.4634,239.97,-29.3598
354.572,24.9301,45.5995,0,3.83922,9.18969,0.670605,40.4268,14.939,-54.1768,-26.0147,-0.981958,19.2703,-52.2866,246.463,-27.7134
354.582,24.3376,45.1544,0,3.67396,9.29986,0.843047,38.8415,19.7561,-53.5671,-26.7428,-1.70046,19.1458,-49.5122,250.518,-26.6768
354.592,23.7687,44.6895,0,3.68594,9.46033,1.26218,36.5854,23.2317,-51.8293,-27.3368,-2.04535,18.8967,-45.122,250.823,-26.25
354.602,23.2103,44.2207,0,3.56618,9.77168,1.74357,31.2805,23.9024,-49.3902,-27.787,-1.80584,18.8105,-42.8049,251.341,-26.189
354.612,22.6783,43.7315,0,3.40093,9.49625,2.17707,27.7744,19.9695,-47.1341,-28.0553,-1.57592,18.3027,-38.6585,252.927,-24.2988
354.622,22.0699,43.2693,0,2.66566,9.3789,2.23934,29.2073,13.3232,-48.1707,-29.1186,-1.37474,19.1458,-34.3293,256.067,-24.1159
354.632,21.4027,42.7723,0,2.11001,9.31663,2.38065,28.0793,5.88415,-49.0854,-29.2432,-1.45138,18.274,-31.7073,258.75,-23.9939
354.642,20.7723,42.2525,0,2.19384,8.98132,2.12438,29.8171,-0.487805,-48.6585,-29.4635,-0.953218,17.6609,-28.628,261.494,-24.2988
354.652,20.1323,41.6997,0,2.05253,9.07473,1.88967,33.0183,-4.26829,-48.9329,-29.5977,-0.493374,16.8178,-26.311,265,-23.5976
354.662,19.5204,41.1794,0,2.20102,8.86157,1.59029,34.2988,-3.29268,-49.8171,-29.8467,-0.110171,17.1435,-22.378,265.366,-23.2317
354.672,18.9003,40.6206,0,2.15552,9.10826,1.50407,36.0671,-2.92683,-50.6098,-30.2395,-0.110171,16.3388,-17.9268,265.579,-23.9024
354.682,18.3402,40.048,0,2.62734,9.39806,1.35798,35.9756,-2.62195,-50.4573,-30.2587,-0.196392,15.7544,-13.9024,271.28,-24.939
354.692,17.7634,39.5189,0,2.26808,9.58247,1.53521,31.0061,-9.32927,-48.5976,-31.2454,-0.570015,16.6358,-11.7378,271.799,-25.9756
354.702,17.2185,38.9347,0,2.44771,9.72857,1.48491,27.9573,-16.7378,-48.1707,-31.3316,-0.742456,15.3712,-8.04878,275.976,-27.7134
354.712,16.6659,38.371,0,2.49322,9.64953,1.48012,25.5793,-23.7195,-50.8232,-31.8777,-1.11608,15.6012,-4.35976,278.079,-30.7317
354.722,16.1162,37.7851,0,2.22497,9.22083,1.42504,28.0183,-28.1402,-49.7561,-32.7782,-1.52802,15.2467,-3.84146,277.073,-33.811
354.732,15.5299,37.1986,0,1.74836,9.40045,1.19751,32.9573,-29.3598,-48.4451,-33.8033,-1.12566,15.285,-5.06098,274.146,-37.0732
354.742,14.9248,36.5932,0,1.31487,9.44596,1.02986,33.811,-32.2561,-46.2195,-33.9949,-0.895737,14.6144,-5.91463,273.293,-39.4512
354.752,14.3597,35.9322,0,1.2502,9.35016,0.819097,35,-37.3171,-42.7439,-33.9853,-0.589175,13.2253,-3.90244,274.848,-38.7195
354.762,13.8276,35.2837,0,1.15679,9.49386,0.289797,36.8293,-39.4817,-39.1768,-34.6272,-0.522114,13.2445,-3.62805,277.744,-35.3354
354.772,13.3207,34.6421,0,1.18553,9.79084,0.0981958,33.2927,-38.6585,-37.5915,-34.3398,-0.512534,12.8134,-2.34756,279.146,-31.25
354.782,12.8599,33.9961,0,1.60227,9.72138,0.328118,30.7317,-38.1707,-38.9329,-33.6692,-0.416733,12.0661,-2.07317,280.549,-28.6585
354.792,12.4788,33.3294,0,2.27048,9.44117,0.208367,29.6951,-38.4146,-40.2439,-33.4776,-0.713716,11.2422,-1.70732,283.232,-28.1402
354.802,12.1452,32.7312,0,2.6944,9.03162,0.177231,29.5732,-40.061,-42.4695,-33.4967,-0.570015,11.9416,-0.670732,282.256,-27.7744
354.812,11.8319,32.1229,0,2.85965,8.84481,0.325723,29.7561,-40.2439,-43.75,-33.7075,-1.18314,11.4434,-0.701219,279.329,-27.8963
354.822,11.5685,31.5629,0,3.20454,8.7514,0.304167,33.5366,-38.6585,-43.7805,-33.7267,-1.2502,11.8362,-0.640244,274.146,-27.4695
354.832,11.3155,30.9934,0,3.25483,9.14897,0.201182,35.0915,-35.122,-42.1646,-33.765,-1.07776,11.2997,-0.853659,266.951,-27.1341
354.842,11.071,30.4667,0,3.08239,9.55373,0.215552,32.6524,-31.5854,-38.3537,-33.7841,-1.1544,11.635,-0.97561,264.939,-27.9268
354.852,10.7888,29.9158,0,2.62015,9.87467,-0.00718506,29.4512,-27.439,-36.5244,-33.6021,-1.0107,10.8303,-4.08537,264.482,-28.5671
354.862,10.4659,29.3594,0,2.13396,10.0279,0.00239502,26.2195,-21.0061,-35.4573,-33.6883,-0.771196,10.4183,-6.18902,266.341,-27.8049
354.872,10.1575,28.7757,0,1.98308,10.0303,-0.00479004,24.5732,-17.7439,-32.9268,-33.4872,-0.684976,9.56571,-7.71341,267.073,-25.3354
354.882,9.854,28.1601,0,1.76992,9.67348,0.0934058,23.9634,-18.75,-31.4024,-34.244,-0.579595,8.88552,-9.11585,266.28,-24.5122
354.892,9.53223,27.5682,0,1.346,9.24238,-0.0191602,25.2134,-23.1098,-29.6341,-34.4739,-0.675395,8.92384,-9.29878,262.53,-22.6829
354.902,9.15747,26.9624,0,0.850232,9.51541,0.0215552,28.9634,-29.5427,-29.2073,-35.0679,-0.483794,8.45442,-10.9451,259.665,-21.7378
354.912,8.80674,26.3738,0,0.859812,10.0567,-0.354463,27.2256,-27.1951,-27.0732,-36.3324,-0.493374,8.63644,-11.2195,257.104,-21.4329
354.922,8.41877,25.773,0,0.474214,9.71899,-0.0742456,25.061,-28.689,-27.3171,-37.3192,-0.761616,8.24366,-13.628,253.384,-20.4268
354.932,8.0494,25.1634,0,0.63947,9.59205,-0.0718506,26.8598,-28.9634,-28.2927,-37.7982,-1.3939,7.76465,-16.2195,248.384,-21.4329
354.942,7.68616,24.5649,0,0.718506,9.51541,-0.296982,29.3293,-28.75,-29.4512,-38.7562,-1.5376,7.70717,-17.9268,241.86,-20.5488
354.952,7.33533,24.0145,0,0.771196,9.73096,-0.392783,26.8902,-29.4817,-29.3598,-39.6663,-1.99745,8.30114,-15.2439,232.835,-19.5427
354.962,7.03715,23.4152,0,1.04423,9.75491,-0.490979,26.128,-30.3963,-27.9268,-39.6088,-2.14115,6.97909,-14.1159,224.817,-17.2561
354.972,6.78669,22.8378,0,1.17356,9.67827,-0.280217,27.2561,-32.1037,-25.3049,-39.1873,-2.11241,6.85455,-14.1768,219.726,-14.1768
354.982,6.59501,22.3147,0,1.40348,9.94412,-0.996328,23.75,-30.3963,-22.1037,-38.8616,-2.45729,7.33355,-12.622,213.933,-12.1646
354.992,6.41669,21.8028,0,1.33642,10.0782,-1.12326,15.9756,-28.5061,-20.1524,-38.9095,-2.40939,7.16111,-12.4695,210.122,-11.0061
355.002,6.2499,21.3043,0,1.31726,9.80281,-0.766406,17.2561,-24.7561,-19.5427,-38.5359,-2.27527,6.95035,-11.6159,203.994,-9.54268
355.012,6.07944,20.7527,0,1.19272,9.62558,-0.534089,20.3354,-23.0488,-19.0549,-38.1239,-2.06451,5.59956,-9.5122,198.293,-7.46951
355.022,5.90938,20.2184,0,1.16637,9.66151,-0.452659,19.6646,-21.9512,-18.9939,-38.2006,-2.06451,5.51333,-9.69512,192.47,-7.71341
355.032,5.77409,19.6602,0,1.36277,9.52978,-0.684976,17.8659,-22.0122,-18.3537,-37.6545,-2.21779,4.65113,-6.67683,185.671,-8.68902
355.042,5.63266,19.1409,0,1.23823,9.616,-0.969983,17.8354,-18.9634,-17.622,-38.2485,-1.90165,4.99601,-5.4878,180.701,-8.75
355.052,5.46392,18.637,0,0.866997,9.66151,-0.962798,18.0183,-17.6524,-16.189,-38.8807,-2.05493,4.97685,-5.12195,177.561,-7.68293
355.062,5.28461,18.1218,0,0.701741,9.64235,-0.984353,19.4207,-15.6098,-15.6402,-39.2735,-2.00703,4.46911,-4.96951,174.634,-7.04268
355.072,5.09625,17.6052,0,0.56762,9.73815,-1.03704,19.3902,-14.2378,-15.2439,-39.7909,-2.06451,4.1338,-5.54878,173.018,-6.46341
355.082,4.9032,17.0797,0,0.399968,9.76449,-1.19032,18.7195,-13.5671,-14.0854,-39.7142,-2.68721,3.6069,-6.06707,172.287,-7.86585
355.092,4.72946,16.6137,0,0.452659,9.70701,-1.23583,17.439,-12.7439,-13.1707,-39.7334,-2.75427,4.2775,-7.89634,168.506,-8.93293
355.102,4.55764,16.1039,0,0.486189,9.72857,-1.26697,15.7012,-14.8476,-13.7195,-39.7334,-3.01293,3.1758,-7.2561,167.561,-10.3659
355.112,4.40564,15.6131,0,0.64905,9.62079,-1.16877,16.5244,-15.1524,-14.0854,-39.4843,-3.10874,3.11832,-6.7378,162.622,-13.5671
355.122,4.26471,15.1327,0,0.766406,9.73815,-1.13045,15.9146,-15.2134,-14.5732,-39.2735,-3.01293,2.93629,-6.25,160.396,-17.0427
355.132,4.11972,14.6493,0,0.730481,9.80521,-1.52802,11.5549,-12.8963,-14.7866,-39.2927,-3.2716,2.54351,-3.47561,157.53,-19.7866
355.142,3.97019,14.1672,0,0.680186,9.67109,-1.53042,11.8598,-8.71951,-15.061,-39.0053,-3.08,2.20821,-1.79878,154.177,-23.3232
355.152,3.80856,13.6897,0,0.570015,9.62798,-1.46575,13.2012,-5.42683,-15.3049,-38.8903,-2.99377,1.93997,-1.89024,151.159,-25.3963
355.162,3.63167,13.239,0,0.428708,9.55852,-1.38193,14.4512,-3.53659,-15.5183,-38.6604,-2.92671,2.04535,1.0061,145.549,-26.0671
355.172,3.44533,12.8314,0,0.359253,9.53457,-1.26218,15.5183,-2.13415,-16.0061,-39.216,-3.02251,2.49561,0.152439,140.396,-27.0732
355.182,3.27021,12.4099,0,0.426313,9.52739,-1.34361,16.8293,-0.701219,-16.0671,-39.0628,-2.95545,1.94955,-0.518293,135.03,-26.8293
355.192,3.10277,11.9767,0,0.423918,9.58726,-1.54958,16.8293,0.243902,-15.5793,-39.2831,-3.00335,1.45138,0.823171,130.457,-24.2683
355.202,2.93521,11.5663,0,0.364043,9.69743,-1.42983,16.1585,0.121951,-15.1524,-39.6567,-2.91713,1.54718,-0.884146,125.579,-21.5549
355.212,2.76875,11.1734,0,0.246687,9.71899,-1.37714,16.4634,-0.97561,-13.9634,-39.7909,-2.59141,1.56634,-1.82927,123.018,-17.8049
355.222,2.60394,10.7573,0,0.146096,9.70701,-1.39151,16.7988,-2.80488,-12.9268,-40.107,-2.58183,0.886157,-3.32317,121.402,-16.7378
355.232,2.42831,10.3351,0,-0.0215552,9.74294,-1.41546,15.5488,-5.82317,-12.3476,-40.5189,-2.39023,0.493374,-5.33537,121.616,-14.5122
355.242,2.24812,9.89006,0,-0.126936,9.82677,-1.37235,12.8354,-7.43902,-11.9207,-40.5381,-2.58183,-0.205972,-8.35366,123.659,-12.9878
355.252,2.06531,9.43715,0,-0.179626,9.78605,-1.29571,11.4634,-10.2439,-11.9207,-40.4998,-2.55309,-0.665815,-9.26829,122.256,-13.4451
355.262,1.88074,8.97766,0,-0.253872,9.78605,-1.33882,10.122,-11.5549,-11.5854,-40.3082,-2.57225,-1.1065,-8.78049,119.939,-12.8963
355.272,1.69619,8.52245,0,-0.301772,9.82437,-1.38672,9.96951,-12.378,-11.4024,-40.404,-2.53393,-1.36516,-8.87195,117.683,-13.1707
355.282,1.51595,8.07767,0,-0.285007,9.86988,-1.47773,8.81098,-12.439,-11.5549,-39.8675,-2.95545,-1.48012,-8.71951,117.835,-13.5061
355.292,1.34276,7.65168,0,-0.244292,9.84114,-1.43701,8.84146,-13.3537,-11.6768,-39.7334,-2.66805,-1.46096,-6.46341,115.945,-13.1098
355.302,1.19203,7.26769,0,-0.129331,9.80281,-1.42743,8.62805,-14.0244,-11.0976,-39.5993,-2.42855,-1.02986,-5.27439,112.195,-12.6524
355.312,1.06548,6.87343,0,0.0263452,9.8555,-1.42743,7.07317,-14.8476,-10.7927,-39.264,-2.51477,-1.48012,-6.67683,106.982,-11.3415
355.322,0.964158,6.53469,0,0.155676,9.75491,-1.4418,5.73171,-14.7561,-10.0305,-39.7813,-2.28485,-0.819097,-6.95122,101.25,-9.45122
355.332,0.885132,6.18876,0,0.320933,9.68546,-1.47533,5.15244,-14.2073,-9.96951,-40.1741,-2.43813,-1.2023,-4.96951,98.3232,-6.25
355.342,0.818206,5.81751,0,0.354463,9.55373,-1.39869,6.34146,-13.1402,-9.35976,-40.3273,-2.16031,-1.91123,-5.97561,95.5183,-1.55488
355.352,0.76469,5.42755,0,0.383203,9.62558,-1.32684,6.58537,-11.9817,-8.44512,-40.5381,-2.49561,-2.52435,-5.67073,94.2988,1.0061
355.362,0.72552,5.07221,0,0.411943,9.69025,-1.40348,5.30488,-10.6098,-7.40854,-41.2758,-2.54351,-2.22737,-6.0061,92.2866,1.25
355.372,0.678367,4.69654,0,0.299377,9.7597,-1.38672,5.21341,-8.78049,-6.92073,-41.5823,-2.63931,-2.88839,-7.71341,89.1159,2.37805
355.382,0.624996,4.34621,0,0.208367,9.90341,-1.39869,4.08537,-6.92073,-6.52439,-41.3811,-2.39023,-2.68721,-7.37805,87.8354,1.98171
355.392,0.562696,4.01022,0,0.0574805,9.83874,-1.45138,1.82927,-5.39634,-5.7622,-41.3907,-2.62973,-2.68721,-7.80488,85.5793,2.10366
355.402,0.500363,3.68495,0,-0.0383203,9.72617,-1.54239,1.92073,-4.66463,-4.72561,-41.0842,-3.01293,-2.73511,-9.39024,79.7866,5.06098
355.412,0.440711,3.37805,0,-0.0718506,9.71899,-1.56874,2.28659,-3.59756,-4.14634,-40.404,-2.90755,-2.60099,-10.3659,77.1646,5.60976
355.422,0.381085,3.05907,0,-0.134121,9.78844,-1.65975,2.80488,-2.89634,-3.44512,-40.5573,-3.24286,-3.05125,-10.8537,75.6707,4.84756
355.432,0.337575,2.76807,0,-0.0742456,9.73815,-1.66933,3.38415,-3.81098,-2.53049,-40.404,-3.1279,-2.78301,-11.8598,70.5183,4.02439
355.442,0.320696,2.48164,0,0.0383203,9.70462,-1.75794,3.32317,-5.12195,-1.40244,-40.1453,-3.16622,-2.89797,-10.4878,67.9268,2.13415
355.452,0.310056,2.2038,0,0.0407153,9.63756,-1.75076,3.71951,-5.54878,-0.792683,-40.0112,-2.97461,-2.94587,-9.20732,65.3659,2.65244
355.462,0.292741,1.92503,0,0.00479004,9.63995,-1.61664,3.35366,-5.97561,-0.426829,-39.6951,-2.85007,-3.13748,-8.78049,63.9939,1.06707
355.472,0.256889,1.64755,0,-0.0622705,9.62558,-1.68849,2.80488,-4.66463,-0.365854,-39.7525,-3.05125,-3.3195,-8.07927,62.3476,1.34146
355.482,0.1846,1.35427,0,-0.167651,9.57768,-1.57592,2.71341,-3.62805,-0.213415,-39.6759,-2.83091,-3.78892,-9.17683,61.3415,1.85976
355.492,0.119465,1.06002,0,-0.222737,9.58008,-1.75794,2.43902,-2.07317,-0.914634,-39.5514,-2.84049,-4.00926,-9.29878,58.1707,2.2561
355.502,0.045503,0.765945,0,-0.299377,9.57289,-1.62861,2.2561,-1.09756,-1.28049,-39.513,-2.42855,-4.21044,-10.122,57.3476,2.5
355.512,-0.0418254,0.491751,0,-0.368833,9.57289,-1.73639,1.95122,-0.670732,-1.12805,-39.6663,-2.62015,-4.09548,-10.8537,53.2012,2.10366
355.522,-0.114356,0.230177,0,-0.359253,9.72617,-1.96152,-1.58537,0.243902,-1.4939,-39.7525,-2.39023,-4.0859,-13.1707,49.5427,2.10366
355.532,-0.184864,-0.0204476,0,-0.342488,9.57768,-1.85375,-1.64634,0.304878,-1.61585,-39.9825,-2.70637,-4.11464,-13.4146,45.061,0.548781
355.542,-0.247861,-0.285419,0,-0.306563,9.56571,-1.83458,-0.426829,-0.426829,-1.55488,-40.1932,-2.67763,-4.59365,-15.3354,38.7195,0.426829
355.552,-0.30497,-0.544124,0,-0.287402,9.6184,-1.75076,0.243902,-0.701219,-1.55488,-40.2315,-2.60099,-4.68945,-16.7073,34.3293,0.182927
355.562,-0.351328,-0.795535,0,-0.239502,9.68546,-1.78189,0.243902,-2.2561,-1.55488,-40.2986,-2.92671,-4.76609,-18.2012,29.878,-0.121951
355.572,-0.372318,-1.05403,0,-0.105381,9.68785,-1.72681,0.426829,-3.78049,-1.31098,-40.1453,-2.95545,-5.06307,-20.6707,27.2866,-0.243902
355.582,-0.37518,-1.30832,0,0,9.64474,-1.72681,1.03659,-4.63415,-1.43293,-40.0208,-2.95545,-5.16845,-22.8049,23.5976,0.243902
355.592,-0.373882,-1.58491,0,0.0143701,9.59684,-1.76752,1.25,-4.42073,-1.34146,-39.8771,-2.90755,-5.73368,-22.6829,22.378,-0.396341
355.602,-0.379967,-1.85035,0,0.0143701,9.54176,-1.73639,1.03659,-3.53659,-1.89024,-39.7046,-3.03209,-5.71452,-24.0244,19.7561,1.34146
355.612,-0.386065,-2.09769,0,0.0263452,9.55852,-1.77471,1.37195,-1.82927,-2.04268,-39.925,-3.07042,-5.61872,-25.2134,17.3171,1.09756
355.622,-0.399389,-2.3504,0,0.0263452,9.54655,-1.75076,1.85976,-0.640244,-2.65244,-39.5705,-3.34824,-5.84864,-25.4573,14.4512,3.01829
355.632,-0.413392,-2.59932,0,0.00718506,9.58966,-1.68609,2.10366,-0.152439,-2.5,-39.3693,-3.13748,-5.93486,-24.1463,12.8659,5.27439
355.642,-0.423764,-2.84928,0,0.0167651,9.67109,-1.7316,2.10366,0.548781,-2.31707,-39.1203,-3.13748,-6.09772,-24.1463,10.4878,5.60976
355.652,-0.432029,-3.09603,0,0.00479004,9.69983,-1.74357,1.06707,0.853659,-2.0122,-39.1107,-3.4632,-6.21268,-25.6707,11.0061,5.73171
355.662,-0.43422,-3.29579,0,0.0407153,9.67827,-1.6837,0.27439,1.31098,-1.98171,-39.2256,-3.28118,-5.5804,-25.3963,8.84146,5.67073
355.672,-0.439928,-3.48815,0,0.0407153,9.65432,-1.82021,0.518293,2.16463,-2.2561,-39.1298,-3.38656,-5.5804,-25.0915,7.46951,5.82317
355.682,-0.446099,-3.67419,0,0.0981958,9.70701,-1.76752,0.518293,2.77439,-2.92683,-39.1203,-3.24286,-5.60914,-27.8049,5.36585,5.7622
355.692,-0.433591,-3.85649,0,0.193997,9.74294,-1.76034,0.365854,3.23171,-2.46951,-38.9957,-3.06083,-5.65704,-27.6524,4.72561,4.7561
355.702,-0.41184,-4.03482,0,0.217947,9.6663,-1.73399,0.396341,2.92683,-2.13415,-39.0915,-2.97461,-5.73368,-29.0549,3.17073,6.64634
355.712,-0.381465,-4.19545,0,0.275427,9.58008,-1.64059,0.487805,3.38415,-2.16463,-38.9574,-2.93629,-5.5325,-28.4756,1.67683,7.59146
355.722,-0.347098,-4.36214,0,0.275427,9.5226,-1.67172,0.335366,3.71951,-1.98171,-39.0244,-2.89797,-5.76242,-30.5183,1.03659,7.59146
355.732,-0.32043,-4.52737,0,0.244292,9.51541,-1.71004,0.640244,4.11585,-2.07317,-39.034,-3.04167,-5.85822,-30.5793,-0.152439,7.59146
355.742,-0.320432,-4.71144,0,0.126936,9.53936,-1.70765,1.15854,5.15244,-2.59146,-39.1011,-2.96503,-6.31806,-32.9573,-0.609756,7.22561
355.752,-0.332171,-4.88657,0,0.0574805,9.59445,-1.76513,1.06707,5.73171,-2.7439,-39.0532,-3.03209,-6.27974,-32.622,-0.182927,7.07317
355.762,-0.355307,-5.06467,0,-0.0143701,9.62079,-1.70525,1.09756,5.85366,-2.92683,-38.9382,-2.91713,-6.4426,-35.4573,-2.22561,6.58537
355.772,-0.387791,-5.24169,0,-0.0622705,9.70701,-1.77471,0.365854,5.64024,-3.29268,-38.4113,-3.07042,-6.45218,-35.9756,-0.0914634,7.86585
355.782,-0.416891,-5.39137,0,-0.0574805,9.66151,-1.87291,0.243902,5.42683,-3.07927,-38.8424,-3.47278,-6.16478,-35.122,0.670732,7.89634
355.792,-0.436295,-5.5319,0,0.00479004,9.63037,-1.80584,0.152439,5.30488,-2.9878,-39.0053,-3.47278,-6.13604,-35.6402,0,9.02439
355.802,-0.454264,-5.674,0,0.0359253,9.66869,-1.81542,0.335366,4.93902,-3.2622,-39.0244,-3.43446,-6.27016,-35.5183,-1.52439,9.32927
355.812,-0.457413,-5.79134,0,0.126936,9.58966,-1.81542,0.731707,4.93902,-3.04878,-39.0436,-3.09916,-5.94444,-34.6037,-4.02439,9.60366
355.822,-0.451442,-5.90433,0,0.186812,9.6639,-1.77471,0.640244,4.84756,-2.92683,-39.2256,-3.3674,-5.97318,-34.3598,-2.7439,9.66463
355.832,-0.437243,-6.00554,0,0.273032,9.61121,-1.71483,0.426829,5.39634,-3.17073,-39.3885,-3.1279,-5.8678,-33.5671,-2.62195,8.75
355.842,-0.425377,-6.10838,0,0.241897,9.616,-1.71723,-0.304878,7.16463,-3.01829,-38.9957,-3.02251,-5.90612,-32.622,-2.0122,8.2622
355.852,-0.419274,-6.20763,0,0.225132,9.57529,-1.67412,-0.0304878,8.5061,-3.29268,-39.0819,-3.09916,-5.92528,-33.4451,-1.25,7.83537
355.862,-0.420064,-6.30573,0,0.179626,9.60163,-1.70525,0.0609756,9.5122,-3.35366,-38.9286,-3.3195,-5.95402,-32.8659,-2.2561,6.03659
355.872,-0.42972,-6.39038,0,0.105381,9.62558,-1.68849,-0.243902,10.6402,-3.29268,-38.8712,-3.23328,-5.772,-33.0183,-0.548781,6.06707
355.882,-0.444214,-6.46585,0,0.0694556,9.67588,-1.65017,-0.335366,10.4268,-3.32317,-39.0149,-3.30992,-5.69536,-32.8659,-1.85976,5.30488
355.892,-0.455006,-6.55946,0,0.0718506,9.6639,-1.76992,0.304878,9.78659,-3.04878,-39.0532,-3.23328,-6.06898,-33.0488,-0.701219,3.84146
355.902,-0.471183,-6.63533,0,0.0287402,9.6663,-1.89925,0.0304878,9.2378,-3.04878,-38.9191,-3.38656,-5.80074,-34.3598,-0.365854,3.56707
355.912,-0.49102,-6.70335,0,-0.0119751,9.71659,-1.94476,-0.792683,8.53659,-2.92683,-38.6796,-3.43446,-5.6762,-35.7622,0.884146,1.37195
355.922,-0.508839,-6.77239,0,0.00239502,9.6663,-1.93757,-1.18902,8.59756,-2.95732,-38.6412,-3.66438,-5.74326,-34.5732,-1.43293,1.76829
355.932,-0.530667,-6.85572,0,-0.0191602,9.63516,-1.91602,-1.67683,9.17683,-3.10976,-38.8424,-3.67396,-6.06898,-33.811,-0.792683,0.670732
355.942,-0.549975,-6.94621,0,-0.0239502,9.54415,-1.82261,-0.884146,9.02439,-2.86585,-38.8233,-3.5111,-6.251,-32.7134,-1.21951,1.79878
355.952,-0.561892,-7.03527,0,0.00479004,9.56571,-1.93278,-0.579268,8.29268,-2.59146,-38.9382,-3.7506,-6.30848,-29.2378,-1.4939,2.68293
355.962,-0.562165,-7.14675,0,0.0670605,9.58487,-1.93518,-0.945122,7.80488,-2.37805,-38.8903,-3.9901,-6.75875,-26.9512,-1.70732,3.20122
355.972,-0.554337,-7.23861,0,0.0550855,9.54415,-1.84417,-1.21951,7.46951,-1.7378,-39.0149,-4.1338,-6.50966,-25.8841,-1.25,2.86585
355.982,-0.548615,-7.31856,0,0.0431104,9.54176,-1.77471,-1.34146,7.04268,-1.7378,-39.1586,-4.19128,-6.38512,-23.1707,-0.701219,1.7378
355.992,-0.54323,-7.385,0,0.0766406,9.57289,-1.78668,-2.0122,6.82927,-2.07317,-39.2831,-4.21044,-6.22226,-22.378,-0.884146,1.25
356.002,-0.541271,-7.45139,0,0.0910107,9.59684,-1.70046,-2.19512,6.28049,-2.43902,-39.3885,-4.1817,-6.28932,-21.5854,-2.10366,-0.243902
356.012,-0.536163,-7.50625,0,0.122146,9.65193,-1.69328,-2.71341,5.82317,-2.5,-39.264,-3.86556,-6.11688,-22.4695,-3.68902,0.365854
356.022,-0.533256,-7.54298,0,0.102986,9.69264,-1.76513,-3.44512,5.45732,-2.43902,-39.4747,-3.78892,-5.8678,-23.2012,-4.26829,0.0304878
356.032,-0.534973,-7.59098,0,0.0598755,9.63277,-1.83938,-3.29268,4.96951,-2.34756,-39.4172,-3.74102,-6.08814,-25.1524,-5.03049,0.426829
356.042,-0.543013,-7.63267,0,0.00479004,9.63037,-1.92799,-2.89634,4.96951,-2.22561,-39.2544,-3.54942,-5.98276,-27.7134,-4.45122,0.518293
356.052,-0.564059,-7.6726,0,-0.0646655,9.6639,-1.95913,-3.23171,5.21341,-2.53049,-39.1298,-3.64522,-5.9636,-28.0488,-4.96951,1.12805
356.062,-0.587149,-7.73002,0,-0.0574805,9.65672,-2.07648,-4.39024,5.91463,-2.86585,-38.9765,-3.74102,-6.27974,-28.3841,-6.06707,0.884146
356.072,-0.609759,-7.7708,0,-0.0359253,9.53457,-2.04774,-4.08537,6.67683,-3.14024,-39.0723,-3.91346,-6.04024,-29.6951,-5.67073,0.396341
356.082,-0.624283,-7.83022,0,0.0263452,9.47709,-2.03098,-3.2622,6.95122,-3.20122,-39.2544,-4.0859,-6.43302,-28.2927,-7.16463,0
356.092,-0.629929,-7.88616,0,0.0910107,9.48667,-1.89925,-3.29268,7.22561,-3.20122,-39.3023,-4.2296,-6.42344,-27.0732,-7.95732,-1.34146
356.102,-0.638043,-7.93123,0,0.100591,9.46272,-1.81782,-3.07927,6.76829,-3.53659,-39.7334,-4.54575,-6.3468,-24.6951,-10.3354,-3.14024
356.112,-0.641424,-7.97307,0,0.126936,9.44835,-1.80345,-3.23171,5.57927,-3.44512,-40.0974,-4.77567,-6.38512,-24.939,-12.1646,-4.63415
356.122,-0.646041,-7.99175,0,0.172441,9.46272,-1.85375,-3.35366,4.66463,-4.05488,-40.0208,-4.91937,-5.99234,-24.939,-14.2988,-6.67683
356.132,-0.675588,-8.005,0,0.0694556,9.5226,-1.95913,-3.5061,5.06098,-5.21341,-40.1836,-4.55533,-5.93486,-26.2805,-15.1829,-6.67683
356.142,-0.719738,-8.01045,0,0.0143701,9.58487,-2.01182,-3.9939,5.97561,-6.06707,-39.8196,-4.60323,-5.76242,-27.622,-18.5061,-6.28049
356.152,-0.773473,-8.00524,0,-0.0431104,9.65193,-2.16031,-4.39024,8.10976,-6.43293,-39.5226,-4.21044,-5.54208,-30.9756,-20.8841,-5.45732
356.162,-0.843502,-8.02186,0,-0.167651,9.72138,-2.1627,-4.78659,8.93293,-6.70732,-39.2256,-4.2296,-5.89654,-31.9512,-25.061,-2.59146
356.172,-0.910879,-8.04785,0,-0.160466,9.62079,-2.07409,-4.78659,8.59756,-6.64634,-39.1969,-4.23918,-6.07856,-33.3841,-27.6524,-0.731707
356.182,-0.972492,-8.04433,0,-0.150886,9.61121,-1.96871,-4.32927,8.14024,-6.31098,-39.1777,-4.58407,-5.5804,-34.6646,-29.8476,-0.304878
356.192,-1.02593,-8.04702,0,-0.117356,9.56092,-1.89207,-4.60366,6.85976,-6.0061,-39.5035,-4.86189,-5.74326,-34.9085,-32.2561,0.213415
356.202,-1.05933,-8.05356,0,0.00479004,9.52978,-1.85614,-4.81707,5.91463,-5.57927,-39.5801,-5.06307,-5.82948,-35.7927,-33.5976,-2.46951
356.212,-1.08773,-8.07717,0,0.0502954,9.50344,-1.78908,-5.18293,4.54268,-5.70122,-39.4364,-5.23551,-6.12646,-34.6646,-36.4939,-3.32317
356.222,-1.10729,-8.09808,0,0.150886,9.48428,-1.82979,-5.4878,3.96341,-6.09756,-39.5035,-5.26425,-6.1073,-33.811,-37.0427,-5.79268
356.232,-1.14426,-8.09075,0,0.0119751,9.59684,-1.77471,-6.15854,3.01829,-6.18902,-39.3981,-5.09181,-5.60914,-32.378,-38.3232,-5.73171
356.242,-1.1752,-8.0858,0,0.0407153,9.56092,-1.80824,-6.89024,2.10366,-6.0061,-39.3981,-5.07265,-5.65704,-32.4085,-41.4634,-4.7561
356.252,-1.1982,-8.08483,0,0.0814307,9.58487,-1.83458,-7.22561,2.16463,-5.7622,-39.5226,-4.99601,-5.75284,-33.0793,-44.5732,-5.33537
356.262,-1.22192,-8.0864,0,0.0670605,9.63995,-1.88249,-7.31707,2.89634,-5.70122,-39.4076,-4.92895,-5.79116,-32.5,-47.5915,-3.68902
356.272,-1.2427,-8.11423,0,0.110171,9.61121,-1.74836,-7.77439,3.47561,-5.97561,-39.2448,-5.03433,-6.24142,-32.6524,-49.9695,-2.9878
356.282,-1.25768,-8.14977,0,0.146096,9.67827,-1.75076,-8.07927,4.11585,-5.85366,-39.2544,-4.95769,-6.40428,-32.0732,-51.372,-0.457317
356.292,-1.26684,-8.17349,0,0.160466,9.63756,-1.66933,-8.23171,4.35976,-5.4878,-39.4651,-5.33131,-6.251,-32.7134,-50.8841,0.121951
356.302,-1.27252,-8.19714,0,0.162861,9.68785,-1.55916,-8.10976,4.02439,-5.18293,-39.1298,-5.03433,-6.21268,-33.75,-50.6707,-0.335366
356.312,-1.27315,-8.2093,0,0.208367,9.74294,-1.65975,-9.35976,4.42073,-5.21341,-38.9957,-5.08223,-6.00192,-35.2134,-49.6646,0.426829
356.322,-1.27285,-8.21527,0,0.232317,9.7597,-1.66693,-9.63415,4.93902,-5.39634,-38.6508,-5.00559,-5.84864,-36.5549,-49.3902,0.731707
356.332,-1.26334,-8.24493,0,0.299377,9.75252,-1.71244,-9.87805,5.42683,-5.27439,-38.2868,-5.06307,-6.2031,-37.8963,-48.2317,2.07317
356.342,-1.24542,-8.26449,0,0.335303,9.78366,-1.70765,-10.7622,5.27439,-4.84756,-38.258,-5.05349,-6.04024,-38.1098,-47.1037,2.9878
356.352,-1.20939,-8.29198,0,0.443079,9.79803,-1.72202,-12.2866,4.90854,-4.32927,-38.3059,-4.89063,-6.19352,-38.9939,-45.5793,2.83537
356.362,-1.16261,-8.29977,0,0.519719,9.78126,-1.67172,-14.2378,4.20732,-4.14634,-38.2868,-5.06307,-5.85822,-42.2866,-42.561,3.32317
356.372,-1.09723,-8.30646,0,0.641865,9.77407,-1.59748,-16.0366,3.68902,-3.78049,-37.5395,-4.43079,-5.7241,-44.1463,-40.6098,4.66463
356.382,-1.00866,-8.31534,0,0.744851,9.74773,-1.43941,-17.5915,2.92683,-3.07927,-37.5587,-4.77567,-5.76242,-46.7073,-38.7805,7.89634
356.392,-0.913192,-8.2781,0,0.809517,9.74533,-1.43462,-18.689,2.2561,-3.04878,-38.4209,-4.44995,-5.10139,-49.939,-38.0488,8.20122
356.402,-0.788039,-8.27061,0,0.941243,9.78844,-1.33642,-19.9695,1.55488,-2.40854,-38.4592,-4.40205,-5.58998,-53.3232,-36.5854,8.41463
356.412,-0.624309,-8.26074,0,1.07776,9.81958,-1.26218,-21.9512,1.52439,-1.79878,-38.4305,-4.45953,-5.5325,-57.1037,-34.4512,8.78049
356.422,-0.382245,-8.2619,0,1.29571,9.83874,-1.19032,-23.4146,3.20122,-1.09756,-37.8269,-4.49785,-5.61872,-59.2378,-32.1037,8.81098
356.432,0.0534029,-8.271,0,1.38672,9.8603,-0.981958,-25.1829,6.76829,0.0304878,-37.5395,-4.46911,-5.70494,-62.1951,-30.2134,8.65854
356.442,0.358629,-8.26547,0,1.54958,9.87946,-0.907712,-26.7073,10.8841,0.853659,-37.3479,-4.81399,-5.42711,-63.628,-27.561,7.86585
356.452,0.598937,-8.25202,0,1.67891,9.86509,-0.826282,-27.3171,14.5732,2.19512,-37.0797,-4.54575,-5.24509,-65.7317,-25.3659,9.20732
356.462,0.829791,-8.24006,0,1.74357,9.89862,-0.742456,-27.378,17.8659,3.56707,-36.7923,-4.62239,-5.20677,-67.0732,-21.189,10.2134
356.472,1.06805,-8.22728,0,1.78429,9.86509,-0.761616,-27.5915,20.2439,4.84756,-36.8402,-4.74693,-5.17803,-67.1341,-16.8598,9.84756
356.482,1.31735,-8.21785,0,1.78429,9.84593,-0.66821,-27.561,22.3476,6.61585,-37.1084,-4.36373,-5.25467,-67.0122,-14.2378,10.7622
356.492,1.58126,-8.19445,0,1.82979,9.88185,-0.550855,-28.5366,24.6646,8.20122,-36.9743,-4.35415,-4.98643,-64.3293,-10.8841,11.5854
356.502,1.86024,-8.16901,0,1.81063,9.88904,-0.347278,-30.3659,27.1341,10.5183,-37.2809,-4.11464,-4.96727,-64.4817,-7.5,11.8598
356.512,2.16938,-8.14137,0,1.87291,9.89862,-0.179626,-32.622,28.8415,13.4756,-38.1335,-3.92304,-5.02475,-64.2073,-7.19512,12.5
356.522,2.51728,-8.12924,0,1.99505,9.90101,0.0383203,-34.5122,30.9756,16.6768,-37.8078,-3.38656,-5.22593,-62.439,-7.0122,13.9329
356.532,2.90481,-8.1755,0,2.08846,9.91059,0.208367,-36.5549,32.4085,20.3963,-37.5491,-3.2237,-6.1552,-56.3415,-2.37805,15.1829
356.542,3.33127,-8.15877,0,2.13396,9.9058,0.301772,-37.9573,33.5366,24.6341,-38.8712,-3.66438,-5.29299,-50.4573,-0.243902,14.6646
356.552,3.7932,-8.12757,0,2.19623,9.92736,0.464634,-39.1768,33.7195,28.4756,-39.4651,-3.20454,-5.10139,-44.1463,1.09756,12.9268
356.562,4.30002,-8.09076,0,2.24174,9.85072,0.502954,-40.6098,32.439,33.2927,-39.5035,-2.54351,-4.98643,-40.4268,0.762195,13.6585
356.572,4.85586,-8.06597,0,2.38544,9.81719,0.574805,-41.0976,30.3659,37.622,-39.4172,-1.95913,-5.16845,-35.122,-1.09756,16.3415
356.582,5.46321,-8.03158,0,2.50998,9.79803,0.627495,-40.8841,27.2561,42.561,-39.3406,-1.5376,-4.97685,-31.0366,-2.5,18.0488
356.592,6.12092,-8.00692,0,2.65368,9.92496,0.65863,-40.5488,24.0244,47.7134,-39.513,-1.1065,-5.14929,-22.9268,-3.23171,21.5244
356.602,6.80418,-8.02295,0,2.74709,10.1309,0.704136,-39.9085,20.6707,51.25,-39.0053,-0.502954,-5.78158,-18.1707,-3.93293,27.2561
356.612,7.52287,-8.01096,0,3.04167,10.404,0.514929,-37.622,16.4024,53.9634,-40.2507,-0.464634,-5.46543,-12.3171,-2.53049,29.8476
356.622,8.27967,-8.01555,0,3.42248,10.756,0.414338,-34.9085,14.6341,56.5549,-40.9117,-0.761616,-5.85822,-6.82927,-4.45122,31.9817
356.632,9.04947,-8.02857,0,3.56139,10.847,0.165256,-32.0427,16.5854,58.3537,-41.7835,-0.838257,-6.14562,-2.0122,-4.60366,33.0488
356.642,9.77275,-8.05304,0,3.21412,10.871,0.00479004,-28.2622,24.0854,58.6585,-41.8793,-0.713716,-6.37554,2.68293,-1.95122,34.5427
356.652,10.4336,-8.1137,0,2.72553,11.3213,0.203577,-26.8293,33.2622,59.7561,-40.4519,-0.205972,-6.83539,6.52439,-1.25,39.4817
356.662,10.996,-8.22308,0,1.76992,11.7236,0.771196,-30.7622,39.2683,61.1585,-39.1873,-0.138911,-7.51557,6.92073,3.90244,47.0732
356.672,11.4815,-8.32826,0,1.12087,11.6805,1.24062,-33.9634,41.5549,60.7927,-38.9286,-0.0910107,-7.45809,4.84756,6.76829,51.6463
356.682,11.8927,-8.43456,0,0.222737,11.7045,1.27415,-34.0549,42.3476,63.1707,-39.0819,0.00479004,-7.57305,0.304878,9.29878,53.5671
356.692,12.2449,-8.546,0,-0.529299,11.0602,1.31247,-31.189,38.872,65.7927,-39.4843,0.215552,-7.82213,-3.93293,8.71951,55.7622
356.702,12.5545,-8.63438,0,-0.728086,10.0327,1.18553,-24.939,35.4573,65.061,-40.0016,0.253872,-7.59221,-6.89024,6.28049,57.8963
356.712,12.8031,-8.70555,0,-1.13284,9.70701,0.756826,-17.7744,34.7866,64.5732,-40.8063,0.522114,-7.51557,-10.8841,-0.792683,60.4268
356.722,13.0462,-8.75352,0,-0.926873,9.80281,0.0455054,-15.9451,30.7622,61.9512,-41.4674,0.847837,-7.28565,-9.32927,-9.72561,63.2317
356.732,13.3421,-8.81433,0,-0.392783,9.57289,-0.131726,-16.9207,21.0671,61.6159,-41.429,0.981958,-7.59221,-5.2439,-19.3293,68.3537
356.742,13.6415,-8.86147,0,-0.136516,9.73336,-0.0311353,-16.0976,7.46951,59.4207,-41.2566,0.570015,-7.38145,-0.97561,-28.0488,71.5244
356.752,14.03,-8.93081,0,0.828677,9.70941,-0.0934058,-14.1768,-1.79878,57.5305,-40.6531,-0.301772,-7.74549,5.64024,-35.2744,73.7195
356.762,14.4848,-8.98342,0,1.4897,9.87706,0.00479004,-13.0793,-7.68293,57.5305,-39.7621,-1.09692,-7.34313,11.3415,-41.2195,72.9878
356.772,15.0392,-9.03776,0,2.28724,9.50823,0.162861,-13.2012,-9.29878,58.5366,-38.9957,-1.28852,-7.27607,16.311,-43.1402,70.4878
356.782,15.6908,-9.07743,0,3.13029,9.03401,0.222737,-11.7378,-6.18902,58.1707,-38.4401,-1.6813,-6.95993,20.5183,-45.0915,65.7317
356.792,16.3716,-9.09799,0,3.59492,9.09868,0.141306,-7.19512,-0.426829,57.5,-37.894,-1.5855,-6.56714,24.8171,-47.5305,62.1037
356.802,17.0715,-9.13695,0,3.94939,8.82804,0.0670605,-2.77439,9.39024,55.6402,-37.5779,-1.11608,-6.84497,28.1707,-48.811,60.3049
356.812,17.7498,-9.19707,0,4.14338,8.71069,-0.00718506,0.914634,21.5244,52.1341,-37.2617,-0.684976,-7.17069,29.6951,-48.0793,60.2134
356.822,18.3831,-9.24905,0,4.17212,8.66039,0.0814307,4.02439,33.3232,48.3537,-37.4821,-0.205972,-7.10363,31.0366,-44.7866,60.7317
356.832,18.9615,-9.30157,0,4.11225,8.87355,-0.0311353,7.89634,43.8415,45.7927,-37.7503,0.0622705,-7.18985,32.3476,-42.0427,60.2744
356.842,19.5305,-9.33928,0,4.09548,8.69871,-0.00239502,8.84146,53.628,45.3049,-38.0473,0.186812,-7.02699,32.7134,-42.439,57.439
356.852,20.0771,-9.39369,0,3.9925,8.50232,0.234712,10.3049,63.0488,44.2988,-37.8557,0.320933,-7.30481,33.9024,-42.1646,54.2378
356.862,20.5825,-9.44209,0,3.79371,8.53345,0.440684,11.7378,73.1707,43.628,-37.8748,0.359253,-7.23775,32.378,-40.9451,47.0122
356.872,21.0221,-9.50998,0,3.36261,8.68913,0.756826,12.1037,81.1281,43.689,-37.5683,0.809517,-7.54431,29.8171,-40.0915,39.939
356.882,21.4024,-9.57349,0,3.04886,8.63165,1.03225,12.5305,86.6463,42.0122,-37.3671,1.00112,-7.46767,28.4146,-37.9268,34.9085
356.892,21.7332,-9.64731,0,2.83331,8.62207,1.14721,14.4512,87.8963,40.3049,-37.53,1.2023,-7.71675,23.9329,-36.6159,29.939
356.902,22.0037,-9.73684,0,2.62494,8.63165,1.30289,14.1159,84.8476,37.439,-37.3958,1.13524,-8.00416,19.939,-34.9695,24.5732
356.912,22.2337,-9.81503,0,2.57465,8.52866,1.47533,12.9573,79.0854,34.0854,-37.6162,0.895737,-7.90835,16.372,-32.6524,21.6159
356.922,22.4191,-9.90106,0,2.44052,8.46879,1.70525,11.7073,69.7866,31.4939,-38.1527,0.732876,-8.20534,12.439,-30.3049,18.75
356.932,22.5828,-9.98827,0,2.3543,8.21492,1.64059,10.3354,58.5061,29.8171,-38.1048,0.541274,-8.28198,9.35976,-32.1037,14.5122
356.942,22.7389,-10.0613,0,2.48124,8.06164,1.45617,9.63415,48.3537,27.1037,-38.2772,0.416733,-8.1287,6.64634,-31.6768,10.8841
356.952,22.8685,-10.142,0,2.53872,7.91793,1.61185,10.3354,39.3598,23.3537,-37.9515,0.311353,-8.24366,3.44512,-31.6768,6.18902
356.962,22.9664,-10.2446,0,2.64171,7.96344,1.64777,9.54268,32.8963,19.2073,-37.9227,0.215552,-8.67476,-0.121951,-30.5488,0.548781
356.972,23.0427,-10.3645,0,2.86923,8.04008,1.93757,8.47561,30.2744,14.5732,-37.3096,0.435894,-8.8951,-4.11585,-27.8963,-3.2622
356.982,23.1205,-10.4703,0,3.08479,7.85806,2.13157,9.72561,27.1037,11.2195,-37.2905,0.895737,-8.71308,-9.63415,-23.0793,-6.25
356.992,23.1605,-10.5916,0,3.07042,7.75986,2.02858,11.4939,23.3232,7.22561,-37.3,0.866997,-9.04838,-14.0244,-20.8537,-9.08537
357.002,23.1412,-10.724,0,2.96264,7.87482,1.98308,8.75,21.128,3.90244,-36.936,1.2981,-9.22083,-18.628,-16.4634,-9.87805
357.012,23.1344,-10.8515,0,3.21412,8.10235,2.22737,5.57927,17.1037,3.04878,-37.1468,1.36516,-9.26873,-22.8659,-13.2622,-13.4756
357.022,23.1872,-10.9637,0,3.44643,7.72873,2.48364,7.65244,16.5854,3.14024,-37.1276,1.45138,-9.07712,-25.7622,-10.7317,-16.7378
357.032,23.2599,-11.0691,0,3.41769,7.64251,2.47166,13.3232,14.7866,0.823171,-37.2617,1.14482,-9.05796,-28.9329,-7.68293,-19.6341
357.042,23.3343,-11.1988,0,3.64522,7.77663,2.32317,15.0305,13.6585,-1.31098,-37.1851,1.19272,-9.52739,-30.0305,-5.67073,-20.7622
357.052,23.3641,-11.3304,0,3.80808,7.6473,2.58423,18.2317,15.061,-3.96341,-37.3575,0.943638,-9.69025,-30.3354,-3.71951,-23.9939
357.062,23.4133,-11.443,0,4.06914,7.6952,2.54591,20.9146,13.5976,-4.57317,-37.9898,0.943638,-9.61361,-28.872,-5.51829,-26.0671
357.072,23.5235,-11.5383,0,4.48348,7.96584,2.47885,20.8537,9.54268,-2.86585,-38.6317,0.828677,-9.55613,-26.1585,-8.96341,-30.7927
357.082,23.81,-11.6204,0,4.7134,7.98021,2.35191,20,7.56098,-0.853659,-38.8424,0.934058,-9.45075,-25.1829,-12.9878,-32.2866
357.092,24.0856,-11.7035,0,4.82357,8.07361,2.49322,21.4939,9.35976,0.884146,-39.1107,1.1544,-9.61361,-22.8354,-18.2622,-34.4207
357.102,24.2482,-11.7767,0,4.8092,8.26282,2.60099,21.7683,11.189,3.17073,-38.7849,1.13524,-9.43159,-22.622,-23.1707,-34.1768
357.112,24.4226,-11.8459,0,4.95769,8.42568,2.7878,19.5427,13.2317,4.96951,-38.8041,1.36516,-9.42201,-23.0793,-25.3659,-32.8354
357.122,24.6197,-11.9081,0,5.15169,8.55501,2.92671,16.6463,14.3598,6.55488,-38.4209,1.7771,-9.26873,-25.0305,-29.2378,-31.7683
357.132,24.8389,-11.9978,0,5.31455,8.61249,2.91474,14.1159,14.878,7.95732,-38.2772,1.93997,-9.77647,-25.9451,-31.5854,-27.5915
357.142,25.082,-12.0992,0,5.43669,8.61489,2.91953,11.9817,14.8476,9.66463,-38.4496,2.25611,-10.1022,-26.9512,-32.5,-24.3902
357.152,25.3375,-12.2146,0,5.49896,8.67237,3.0297,10.7622,17.0122,11.189,-38.9382,2.05493,-10.562,-27.6524,-33.0183,-20.8537
357.162,25.6027,-12.32,0,5.60914,8.68434,3.13029,10.8232,20.6402,11.7073,-39.3693,2.26569,-10.5812,-29.2073,-33.7805,-18.628
357.172,25.8356,-12.4051,0,5.49657,8.82565,3.25004,11.0976,25.5488,10.8841,-40.2124,2.09325,-10.5046,-29.878,-34.878,-17.5915
357.182,26.048,-12.5368,0,5.43669,8.91426,3.33866,10.6098,30.4268,10.3659,-40.9021,1.93039,-11.6542,-31.5244,-34.5427,-15.8841
357.192,26.2443,-12.6916,0,5.384,8.83283,3.50631,9.39024,32.3476,9.17683,-40.9309,1.87291,-12.2098,-32.1951,-33.3841,-14.5732
357.202,26.4471,-12.8582,0,5.41514,8.62926,3.46799,10.5793,32.8354,8.71951,-41.2566,2.01661,-12.6505,-32.9878,-30.061,-13.1707
357.212,26.6509,-13.0293,0,5.46783,8.48076,3.3171,12.1341,32.439,7.80488,-41.5248,2.17947,-12.9475,-35.9756,-28.1098,-10.5183
357.222,26.8527,-13.2079,0,5.42232,8.33946,3.13508,15.0305,29.1463,7.56098,-41.4099,2.61057,-13.1966,-40.4878,-27.3476,-6.95122
357.232,27.0596,-13.4283,0,5.69057,8.51429,3.05365,13.4756,22.9878,7.0122,-41.5153,3.24286,-14.2025,-48.3232,-22.8963,-4.87805
357.242,27.2588,-13.6964,0,5.62111,8.40652,2.59381,6.31098,16.128,6.61585,-41.3716,3.63564,-15.2946,-61.6159,-18.3537,-4.20732
357.252,27.3818,-13.742,0,4.88105,8.16941,2.31598,1.37195,6.12805,5.12195,-42.3583,4.41163,-11.3093,-71.7073,-20,-2.46951
357.262,27.3642,-13.5561,0,4.01166,8.36341,1.99745,9.08537,-15,2.56098,-45.0503,4.44037,-7.35271,-72.7439,-45.061,-0.335366
357.272,27.1556,-13.3737,0,3.47996,9.47949,1.74597,30.9451,-39.2378,-6.55488,-47.4837,3.62606,-7.78381,-60.1524,-72.7744,-0.0304878
357.282,26.7121,-13.3152,0,2.81894,10.8542,1.81303,50.6707,-56.0061,-19.5427,-48.5183,2.88839,-10.5812,-42.9268,-81.6768,-0.426829
357.292,26.0546,-13.3018,0,1.85135,11.6685,2.26808,51.8598,-60.1524,-30.9756,-48.3171,1.27894,-11.4434,-31.5549,-70.3354,-1.40244
357.302,25.3064,-13.2291,0,1.59987,11.7332,2.73032,32.8049,-52.2866,-39.0244,-47.7902,-1.02028,-9.92975,-25.5488,-54.9085,-5.79268
357.312,24.6366,-13.099,0,2.4549,12.1236,3.01054,10.5183,-38.5061,-40.061,-48.1926,-3.59732,-8.61728,-17.0732,-39.1768,-12.3171
357.322,24.1859,-13.0296,0,3.76976,12.4158,2.41657,9.26829,-37.9573,-30.1829,-48.3746,-6.41386,-9.78605,2.31707,-18.5061,-20.8537
357.332,24.0158,-12.9216,0,5.46543,13.4672,1.38672,19.0244,-51.9207,-13.0793,-48.5758,-8.39694,-8.7993,27.8659,7.13415,-31.4024
357.342,24.0538,-12.7617,0,6.51685,13.7594,0.0838257,21.8598,-68.5061,1.15854,-48.2309,-9.62319,-7.41977,50.7622,27.7439,-43.5366
357.352,24.0442,-12.4629,0,5.15887,13.1247,-0.0862207,17.1341,-71.4634,4.32927,-47.11,-8.81846,-4.12422,61.9512,43.2317,-51.7073
357.362,23.6028,-12.0305,0,1.37953,11.6518,-0.184417,5.82317,-75.6402,-0.0609756,-45.3377,-7.06531,-1.02028,64.3293,51.189,-51.4634
357.372,22.8938,-11.5631,0,-1.43701,9.79084,-1.06578,1.28049,-82.5,-7.04268,-43.5462,-5.06307,0.0239502,66.3719,52.561,-40.3963
357.382,21.89,-10.9983,0,-2.99617,8.28198,-1.74836,7.92683,-77.2256,-15.122,-41.6302,-3.00335,2.14115,71.1281,49.4512,-25.3354
357.392,20.7163,-10.3322,0,-3.56379,7.66646,-1.74597,19.1768,-66.0366,-24.2073,-41.0458,-1.43222,4.35415,66.9512,47.2561,-9.02439
357.402,19.5605,-9.57961,0,-3.10395,7.99937,-1.57113,26.6768,-69.9085,-32.378,-41.6398,-0.828677,6.50966,57.0427,42.7439,-3.71951
357.412,18.5687,-8.75777,0,-1.49449,8.04966,-1.90165,34.6646,-89.9695,-39.8171,-41.4099,0.215552,8.30114,45.6707,32.6524,-5.03049
357.422,17.7798,-7.89293,0,0.208367,8.54782,-3.23328,41.8293,-109.543,-45.4573,-41.2853,1.73878,9.67109,30.2744,20.6402,-5.54878
357.432,17.1211,-7.05305,0,1.40348,9.21603,-4.40205,44.2683,-116.555,-48.5976,-40.8159,3.01293,9.69983,15.6098,10.5183,-6.58537
357.442,16.5339,-6.23333,0,2.1627,9.67348,-4.93614,43.872,-106.616,-50.7012,-40.3944,3.21412,9.81479,-2.13415,2.0122,-8.38415
357.452,15.9833,-5.45091,0,2.62973,9.62319,-4.88584,43.3841,-87.439,-53.628,-40.5381,3.7027,9.73815,-18.4756,-3.44512,-11.3415
357.462,15.4716,-4.77983,0,3.08239,9.40045,-4.69903,43.9329,-63.1707,-56.6463,-39.3214,2.92671,7.98499,-32.378,-3.38415,-14.0244
357.472,14.9939,-4.22695,0,3.40572,9.22322,-4.44276,43.811,-42.9573,-58.5366,-38.3826,2.33275,6.18394,-45.7927,-5.88415,-18.0183
357.482,14.5121,-3.74761,0,3.43685,9.27352,-3.77216,42.6829,-24.878,-60.061,-37.7311,1.07776,5.18761,-54.7866,-9.96951,-21.3415
357.492,13.9416,-3.3526,0,2.62494,9.23759,-3.13508,40.9451,-12.9573,-60.9756,-37.0989,-0.895737,4.00926,-60.9146,-11.9817,-27.9878
357.502,13.264,-3.04355,0,1.56155,8.97893,-2.45729,42.0122,-7.16463,-60.8232,-37.0414,-3.06083,2.84049,-60.1524,-13.4451,-34.6951
357.512,12.5307,-2.78841,0,0.929268,8.86157,-2.17468,43.5061,-10.7012,-59.9695,-36.6486,-4.75651,2.13157,-57.2256,-14.2683,-41.7378
357.522,11.7372,-2.62926,0,0.285007,8.89031,-1.95913,43.3537,-19.7256,-59.1463,-36.1217,-6.38512,0.732876,-47.561,-13.7805,-46.8598
357.532,10.9704,-2.4994,0,0.282612,8.93342,-1.96631,43.1402,-28.5976,-57.9878,-35.6044,-7.69759,0.368833,-39.2378,-11.4329,-49.6341
357.542,10.1885,-2.42562,0,-0.146096,9.21603,-1.63101,43.0793,-41.4634,-55.5488,-35.2499,-8.47358,-0.426313,-27.6524,-11.4634,-51.5244
357.552,9.46196,-2.399,0,-0.0574805,9.35495,-1.54239,43.2012,-55.2744,-52.622,-34.8763,-9.02922,-1.09692,-15.9756,-9.66463,-51.7988
357.562,8.82143,-2.40505,0,0.203577,9.45554,-1.73639,42.6524,-67.5,-48.5671,-34.6655,-9.17292,-1.57592,-3.47561,-10.3659,-51.4329
357.572,8.25657,-2.44249,0,0.383203,9.35974,-1.5855,42.8049,-79.4207,-44.4207,-34.2248,-8.98132,-2.03577,9.45122,-10.8232,-51.0976
357.582,7.72078,-2.5319,0,0.313748,9.51302,-1.60706,43.689,-88.0183,-41.6768,-33.9853,-8.464,-2.82133,23.9939,-9.14634,-48.9634
357.592,7.24315,-2.63108,0,0.498164,9.63037,-1.68609,42.7744,-95.8841,-39.0244,-33.7841,-7.51557,-3.00335,37.1646,-8.84146,-46.5549
357.602,6.83845,-2.69881,0,0.768801,9.41961,-1.96871,40.9451,-101.829,-36.0366,-33.8704,-6.93119,-2.61057,45.6707,-13.3232,-40.7012
357.612,6.51473,-2.76817,0,1.12805,9.15376,-2.25611,40.4878,-102.835,-33.4146,-34.7038,-6.73,-2.75427,54.3293,-17.6524,-37.622
357.622,6.27404,-2.80092,0,1.74118,9.00527,-2.42855,41.7683,-98.3232,-33.5976,-35.1924,-6.22226,-2.27527,61.8598,-21.0061,-37.0427
357.632,6.02007,-2.85311,0,1.69328,8.9909,-2.66326,40.8841,-96.311,-34.878,-35.6427,-5.8199,-2.63931,69.5732,-23.4451,-33.5671
357.642,5.78325,-2.92473,0,1.85135,8.91426,-2.96024,39.5427,-93.5366,-35.8232,-35.7576,-4.88105,-2.99377,74.2988,-25.122,-30.3963
357.652,5.56373,-3.01518,0,2.04535,8.76338,-3.24286,38.5061,-89.0244,-37.4085,-35.7481,-4.28709,-3.32908,77.9878,-22.5,-26.7378
357.662,5.32743,-3.14279,0,2.00703,8.67955,-3.29315,37.7744,-83.5366,-39.3293,-35.3553,-3.73144,-3.92304,78.4451,-19.0244,-22.7744
357.672,5.06335,-3.25815,0,1.84417,8.68195,-3.29555,37.1951,-77.3476,-40.5488,-35.1349,-3.54942,-3.77934,76.4024,-16.8598,-19.2073
357.682,4.77602,-3.38331,0,1.70765,8.53585,-3.1734,35.6098,-73.2927,-42.0732,-34.6751,-3.91346,-3.9422,72.6219,-13.5976,-17.0732
357.692,4.48266,-3.50347,0,1.7795,8.38736,-3.04886,35.5183,-68.689,-44.6341,-34.1961,-3.99968,-3.88472,67.0427,-12.8354,-15.7317
357.702,4.1221,-3.66707,0,1.43701,8.59573,-2.95306,35.5793,-68.2927,-47.0122,-34.1769,-4.58407,-4.62239,60.4573,-13.689,-15.7622
357.712,3.72726,-3.86556,0,1.4442,8.82086,-3.00096,34.4207,-70.1219,-50.8537,-33.5925,-4.96727,-5.16845,56.0366,-13.5671,-14.939
357.722,3.37413,-4.04876,0,1.86093,8.83044,-2.94587,32.9878,-69.4512,-52.7134,-33.4393,-5.41753,-5.02475,52.0122,-10.8841,-12.5305
357.732,3.0415,-4.22987,0,2.03337,8.83523,-3.05125,30.4878,-67.0122,-53.5061,-32.8549,-5.21635,-5.00559,47.0732,-8.17073,-9.45122
357.742,2.71823,-4.44798,0,2.08606,8.98851,-2.93869,27.2561,-63.0183,-53.4451,-32.7495,-5.05349,-5.6283,43.4451,-2.80488,-2.62195
357.752,2.39492,-4.72075,0,2.04056,9.22562,-2.74948,23.2927,-57.8659,-52.8963,-32.8836,-5.15887,-6.5863,40.9756,2.04268,3.17073
357.762,2.06801,-4.99744,0,1.83219,9.49386,-2.52675,19.5427,-54.3598,-50.7622,-33.0561,-5.37921,-6.82581,40.7927,8.23171,9.17683
357.772,1.75317,-5.32716,0,1.64538,9.57529,-2.26808,15.8841,-50.6707,-47.8049,-33.0177,-5.18761,-7.78381,43.3841,11.8598,15.6098
357.782,1.45311,-5.68193,0,1.42983,9.58247,-2.16749,12.3171,-49.5732,-44.3598,-33.0369,-5.25467,-8.35862,45.5183,17.7134,22.8354
357.792,1.20966,-6.11959,0,1.52323,9.53697,-2.12438,9.7561,-48.5976,-40.3963,-32.9124,-4.86189,-9.81479,50.7317,26.0366,28.9939
357.802,0.995173,-6.55123,0,1.47533,9.51302,-2.13875,7.16463,-46.7073,-37.4085,-32.5483,-4.36373,-9.86269,57.1037,32.7134,35.0305
357.812,0.81941,-6.91349,0,1.51605,9.27591,-2.17947,4.96951,-46.4939,-34.8476,-33.0177,-4.33499,-9.16334,61.9817,38.0488,42.9573
357.822,0.64976,-7.1238,0,1.40109,9.01964,-2.23455,6.25,-45.4268,-33.6585,-33.8512,-4.66071,-7.20901,62.6524,40.8232,47.3171
357.832,0.503456,-7.2178,0,1.4921,8.83283,-2.41897,10.2744,-46.9512,-33.1707,-35.0008,-5.04391,-5.74326,60.7317,36.1585,47.5
357.842,0.389321,-7.17913,0,1.76273,9.0891,-2.95545,10.2744,-52.0427,-33.0183,-36.5719,-4.93853,-3.90388,48.2012,29.9695,43.1402
357.852,0.260505,-7.17353,0,1.82021,9.22801,-3.4153,6.85976,-55.0915,-35.122,-37.8844,-4.63197,-4.58407,34.3598,27.9573,36.6768
357.862,0.107464,-7.17119,0,1.79626,9.24238,-3.79611,2.5,-52.5305,-37.5305,-38.9095,-3.5111,-4.75651,21.6463,29.2988,32.1341
357.872,-0.0805952,-7.19283,0,1.56155,9.24478,-3.92783,-0.365854,-44.939,-38.5366,-39.81,-2.91713,-5.27383,11.9512,34.6037,32.1951
357.882,-0.279307,-7.21216,0,1.39151,9.59205,-3.88472,-2.10366,-37.4085,-37.2866,-41.18,-2.61057,-5.41753,4.7561,37.622,32.6829
357.892,-0.475717,-7.23147,0,1.152,9.9082,-3.25244,-3.10976,-33.0488,-34.1463,-42.2913,-3.30992,-5.5804,-2.68293,36.9817,31.7988
357.902,-0.638635,-7.3429,0,1.02746,10.4782,-2.86205,-2.9878,-33.811,-29.0244,-43.1056,-3.98052,-7.47725,-9.87805,41.3415,25.6098
357.912,-0.766625,-7.62979,0,0.941243,11.0171,-3.05125,-6.34146,-36.7378,-24.3293,-42.8948,-4.50743,-10.9452,-13.811,55.1524,15.9146
357.922,-0.851238,-8.03624,0,0.922083,11.3284,-3.05604,-12.9878,-38.3537,-19.6951,-42.5595,-5.29299,-13.4456,-9.45122,72.9573,5.36585
357.932,-0.849613,-8.54329,0,1.32684,11.4242,-2.86444,-20.2134,-36.0976,-15.0915,-41.3524,-5.6283,-15.3617,-0.731707,93.2317,-0.457317
357.942,-0.764949,-9.10954,0,1.76034,11.3237,-2.70877,-21.4634,-33.1707,-11.128,-40.6147,-6.30848,-16.6358,9.02439,114.848,-3.29268
357.952,-0.587968,-9.66398,0,2.48124,11.3692,-2.95545,-22.5305,-26.5244,-8.62805,-40.2794,-7.45809,-16.6358,18.5976,135.274,-6.03659
357.962,-0.443963,-9.93034,0,1.92799,11.4602,-3.02012,-22.7134,-24.2988,-6.0061,-42.0709,-9.06754,-11.817,27.1037,141.646,-7.7439
357.972,-0.337632,-10.1707,0,1.24541,11.5991,-3.09676,-24.6341,-28.9939,-2.7439,-43.7953,-10.2842,-12.0086,31.311,134.848,-9.26829
357.982,-0.123334,-10.403,0,1.84177,11.6877,-3.07042,-26.1585,-30.3659,0.243902,-46.746,-11.8649,-12.8229,37.2256,140.884,-10.4268
357.992,0.13685,-10.5988,0,2.36628,12.0589,-3.09197,-30.4573,-30.7927,3.56707,-49.0644,-11.8362,-12.7655,40.2134,154.36,-9.54268
358.002,0.449593,-10.6825,0,2.51238,12.8613,-2.71835,-37.561,-27.1037,9.63415,-51.172,-11.3284,-10.7728,42.8049,166.494,-9.02439
358.012,0.906723,-10.6275,0,3.36261,13.1654,-2.00463,-47.2561,-24.0244,18.3232,-52.4366,-10.6099,-7.80297,44.6646,167.287,-12.561
358.022,1.55696,-10.4471,0,4.23439,13.2301,-1.12326,-60.4878,-30.7927,31.9817,-53.0976,-7.99458,-4.90021,49.1768,161.616,-12.8049
358.032,2.39565,-10.1446,0,4.77327,13.1415,-0.847837,-77.9878,-39.3902,48.0183,-52.6473,-4.01884,-1.90165,52.4085,149.604,-7.0122
358.042,3.40689,-9.69443,0,5.17564,12.6553,-1.02028,-95.2134,-37.3476,62.6829,-52.609,-0.0431104,1.71004,52.3476,128.78,2.07317
358.052,4.536,-9.10388,0,4.99841,12.423,-1.1041,-111.159,-26.9512,77.439,-43.9103,-3.07042,4.47869,50.1524,122.317,17.1646
358.062,5.7246,-8.19901,0,4.26313,11.6278,-0.268242,-122.744,-14.8476,89.4512,-58.2804,8.04248,14.5665,33.1707,57.8659,15
358.072,6.98749,-7.51291,0,3.33387,9.80521,0.0143701,-122.744,-9.02439,102.226,-45.8742,2.45729,7.52515,20.3963,38.2317,13.2622
358.082,8.30451,-6.76074,0,2.38304,8.20773,-0.687371,-115.793,-9.2378,115.61,-43.4792,4.48827,8.90468,11.311,18.75,5.73171
358.092,9.71095,-6.22421,0,1.97829,6.87131,-1.47533,-97.7134,-9.45122,127.683,-40.7105,-0.253872,4.87147,16.311,7.19512,1.37195
358.102,10.9852,-5.70345,0,0.804727,6.98627,-0.890947,-78.75,-8.35366,136.433,-38.5933,0.483794,4.73735,2.22561,14.5122,-0.182927
358.112,12.1317,-5.15794,0,-0.471819,9.21125,-0.766406,-64.4207,2.37805,145.396,-39.628,-1.81542,5.70494,0.396341,24.2683,-5.18293
358.122,13.2189,-4.69047,0,-1.12326,10.0878,-2.51238,-49.2073,36.8293,148.659,-40.2794,-4.31582,4.76609,-4.11585,20.4878,-12.378
358.132,14.3025,-4.40247,0,-1.32205,11.9032,-4.41163,-49.1768,74.9085,150.488,-39.7717,-6.5863,1.84417,-2.34756,14.6341,-21.9817
358.142,15.3926,-4.16779,0,-1.03944,13.0361,-4.97685,-57.439,98.0793,149.726,-40.2699,-7.66885,1.08734,10.1829,4.63415,-28.3841
358.152,16.5101,-4.02351,0,0.871787,13.8288,-4.65831,-60.6402,104.512,138.079,-39.7909,-8.21492,-0.368833,25.2744,-1.34146,-27.7744
358.162,17.5549,-3.8754,0,1.58311,14.4994,-3.44164,-60.8841,93.5366,127.591,-39.4268,-7.46767,-0.215552,39.0244,-6.06707,-17.9268
358.172,18.5598,-3.81704,0,2.24413,14.6408,-2.46448,-56.6463,77.5915,120.579,-37.5204,-7.06531,-1.59508,50.3963,-6.58537,-0.853659
358.182,19.5382,-3.75604,0,2.63692,14.0779,-2.44771,-49.4817,73.0793,116.067,-36.2941,-6.1073,-1.48012,57.378,-11.8598,19.6951
358.192,20.4562,-3.7267,0,2.27766,13.4073,-2.91474,-42.7134,87.3781,113.872,-34.541,-4.25834,-1.83458,55.5183,-5.09146,42.1951
358.202,21.2124,-3.70704,0,0.608335,13.0768,-2.73272,-41.25,101.799,113.476,-35.6331,-3.24286,-2.03577,56.8598,-7.9878,62.5305
358.212,21.9373,-3.68078,0,0.431104,12.3272,-2.29682,-41.9207,108.537,113.171,-35.0296,-1.55676,-1.87291,50.2439,-3.35366,76.7683
358.222,22.6493,-3.66074,0,0.543669,11.6661,-1.99505,-40.5488,114.909,111.982,-35.317,0.177231,-1.96871,33.75,-3.20122,88.0488
358.232,23.3179,-4.04068,0,0.0910107,11.0099,-1.48012,-38.7195,116.494,113.476,-28.745,-6.52882,-6.77791,22.1341,-2.5,95.2439
358.242,23.9465,-4.09685,0,0.217947,10.471,-1.45857,-34.0244,116.25,109.299,-34.1865,4.61281,-3.23328,18.5366,11.372,93.1707
358.252,24.4973,-4.12765,0,-0.117356,10.2938,-1.23823,-32.8963,111.707,106.402,-35.1445,1.6334,-2.98419,3.87195,4.26829,86.6159
358.262,24.9342,-4.21359,0,-0.859812,9.8579,-1.06818,-34.1159,104.329,104.756,-34.7901,2.54351,-3.81766,-2.71341,7.19512,76.7073
358.272,25.3903,-4.32759,0,-0.323328,9.29507,-1.02986,-34.9085,104.726,101.494,-34.3302,2.09325,-4.24876,-6.61585,7.5,64.2683
358.282,25.7607,-4.5036,0,-0.474214,8.4137,-0.960403,-34.0854,104.268,96.189,-33.2956,1.6813,-5.12055,-9.78659,5.94512,51.9207
358.292,26.0003,-4.70767,0,-0.821492,7.85806,-0.876577,-29.5427,104.146,89.2073,-32.8453,1.41306,-5.57082,-12.8049,6.15854,43.872
358.302,26.0961,-4.90392,0,-1.23104,7.40301,-0.809517,-24.6951,101.616,82.1037,-32.4621,1.65256,-5.51333,-16.128,4.96951,39.2683
358.312,26.1225,-5.13033,0,-1.0562,7.08207,-0.900527,-20.7012,98.3232,73.2622,-32.3663,1.5855,-6.06898,-18.0183,0.213415,39.6646
358.322,26.0824,-5.32293,0,-0.962798,6.64618,-0.950823,-16.128,97.7439,66.0366,-32.6729,1.35558,-5.76242,-22.4695,-1.64634,41.6159
358.332,25.9425,-5.52734,0,-1.09213,6.34201,-1.17356,-8.44512,94.1768,58.9024,-32.9219,1.346,-6.1073,-27.9268,-4.96951,46.9817
358.342,25.6017,-5.71716,0,-1.64538,5.97078,-1.47294,-2.86585,88.811,49.6037,-33.6883,1.13524,-6.1552,-35.5793,-6.79878,52.0427
358.352,25.0998,-5.90891,0,-2.01421,5.65704,-1.54718,2.10366,78.2927,41.0366,-34.4643,1.38432,-6.45218,-43.7805,-8.9939,56.7988
358.362,24.4802,-6.11957,0,-2.14354,5.39358,-1.60227,6.79878,67.0427,32.2256,-35.1254,1.19272,-7.00783,-54.5427,-10.9756,58.6585
358.372,23.8125,-6.35697,0,-2.04774,5.31694,-1.54239,12.9573,54.3902,24.8171,-35.4894,0.972378,-7.64969,-63.872,-9.93902,58.2927
358.382,23.1099,-6.64721,0,-2.06211,5.54447,-1.41306,19.2073,43.811,18.5366,-35.681,0.838257,-8.71308,-71.5549,-7.40854,52.7134
358.392,22.4311,-6.96455,0,-1.83458,5.86061,-1.26218,24.878,31.9512,13.3841,-35.8822,0.570015,-9.39327,-75.2439,-1.79878,41.9512
358.402,21.7516,-7.31299,0,-1.50407,5.88935,-0.787961,31.3415,17.6524,7.89634,-35.978,-0.186812,-10.1501,-76.7683,1.79878,29.6037
358.412,21.7604,-7.6586,0,-1.08494,5.28102,-0.474214,37.3171,1.09756,0.884146,-35.5469,-0.838257,-10.2076,-75.2439,3.78049,13.3841
358.422,20.9711,-7.9982,0,-0.134121,5.07984,-0.234712,42.9268,-10.3659,-5.97561,-35.7193,-1.0586,-10.3896,-71.5854,3.29268,-1.52439
358.432,20.3958,-8.35707,0,0.100591,5.26186,0.280217,42.9573,-13.2622,-18.1402,-35.087,-1.36516,-10.7632,-66.4024,1.37195,-17.6829
358.442,19.7333,-8.73725,0,0.136516,5.87738,0.991538,41.6159,-10.3659,-28.689,-34.7134,-0.838257,-11.2518,-63.8415,-0.365854,-28.4756
358.452,19.2419,-9.11436,0,1.43701,6.32285,1.41785,46.7378,-3.29268,-36.0061,-34.7134,-0.273032,-11.453,-62.439,0.213415,-34.878
358.462,18.8395,-9.53871,0,2.49322,7.20182,1.6837,57.561,8.17073,-40.7622,-35.0104,0.00479004,-12.6122,-61.4939,3.87195,-37.6524
358.472,18.4753,-9.91976,0,4.06914,8.77056,0.991538,68.1707,18.7195,-49.5122,-36.5719,0.234712,-12.6792,-60.9451,8.10976,-37.7744
358.482,18.1249,-10.252,0,4.96727,9.81479,1.18314,70.1524,28.1098,-52.8354,-38.737,0.273032,-12.775,-60.9756,11.6768,-33.2622
358.492,17.8097,-10.4929,0,5.56124,10.7608,1.79387,67.1037,22.561,-50.9451,-41.8027,-0.234712,-12.2002,-59.1159,12.9878,-29.6951
358.502,17.5705,-10.6567,0,6.02587,11.5033,2.28964,59.2988,7.16463,-44.4817,-43.7762,-0.809517,-11.3955,-54.7866,7.7439,-24.2683
358.512,17.5306,-10.7341,0,7.12997,11.7452,3.38416,55.0915,-6.46341,-32.0122,-44.3797,-1.49928,-9.95849,-44.0854,-7.2561,-17.8354
358.522,17.7397,-10.7651,0,8.65321,11.9464,4.22242,61.25,-20.2134,-16.189,-43.3834,-2.47645,-8.93342,-33.3537,-23.9024,-13.5671
358.532,18.1594,-10.8064,0,10.3776,12.3703,4.16015,64.1159,-25.5183,-2.59146,-41.8697,-3.13748,-8.88552,-25.3963,-34.8171,-7.62195
