time,angle1,angle2,intgangle,accX1,accY1,accZ1,gyroX1,gyroY1,gyroZ1,accX2,accY2,accZ2,gyroX2,gyroY2,gyroZ2
403.193,87.0195,7.84449,0,9.77647,0.402363,1.1544,0.0609756,0.0304878,-1.34146,-38.6412,-2.31359,5.30257,-14.2683,-5,4.60366
403.203,87.0207,7.84674,0,9.8124,0.407153,1.12326,-0.0304878,-0.0914634,-1.58537,-38.5933,-2.23695,5.34089,-14.3293,-4.45122,3.93293
403.213,87.0222,7.84504,0,9.82197,0.416733,1.18074,0,-0.0609756,-1.46341,-38.6987,-2.37107,5.29299,-14.878,-3.17073,4.14634
403.223,87.0242,7.84228,0,9.80042,0.407153,1.17356,-0.182927,0,-1.52439,-38.6891,-2.22737,5.27383,-14.5732,-2.62195,4.20732
403.233,87.0207,7.85712,0,9.81719,0.440684,1.10889,-0.27439,-0.0609756,-1.52439,-38.7083,-2.38065,5.5804,-14.8476,-2.7439,3.68902
403.243,87.0211,7.86054,0,9.83635,0.404758,1.14003,-0.243902,-0.152439,-1.67683,-38.7466,-2.39981,5.39837,-15.6402,-2.34756,3.2622
403.253,87.0233,7.88137,0,9.83874,0.390388,1.08015,-0.365854,-0.182927,-1.70732,-38.8328,-2.39023,5.71452,-13.5976,-3.07927,4.02439
403.263,87.0216,7.90127,0,9.8124,0.414338,1.18793,-0.213415,0,-1.70732,-38.7083,-2.35191,5.69536,-14.878,-2.77439,3.78049
403.273,87.0194,7.89786,0,9.82197,0.438289,1.14242,-0.152439,-0.152439,-1.46341,-38.7275,-2.33275,5.30257,-14.0549,-3.78049,4.20732
403.283,87.0166,7.89772,0,9.8555,0.428708,1.05381,-0.182927,-0.152439,-1.64634,-38.6796,-2.48603,5.35047,-14.0549,-3.78049,3.59756
403.293,87.0165,7.90969,0,9.81479,0.402363,1.09452,-0.396341,-0.396341,-1.7378,-38.8137,-2.41897,5.5804,-13.9939,-3.71951,4.35976
403.303,87.0121,7.92076,0,9.83395,0.435894,1.14482,0.0609756,-0.243902,-1.67683,-38.8328,-2.45729,5.57082,-13.9329,-5.15244,4.42073
403.313,87.0115,7.92015,0,9.81479,0.440684,1.15919,-0.0914634,-0.182927,-1.34146,-38.7466,-2.36149,5.36963,-13.9024,-3.07927,4.39024
403.323,87.008,7.92995,0,9.82677,0.447869,1.15919,-0.152439,-0.243902,-1.46341,-38.6412,-2.42855,5.5325,-13.5976,-3.96341,4.05488
403.333,87.0035,7.94683,0,9.85072,0.440684,1.14721,-0.27439,-0.0304878,-1.64634,-38.8041,-2.35191,5.68578,-14.5427,-4.11585,3.29268
403.343,87.0136,7.94831,0,9.81479,0.371228,1.11368,-0.121951,-0.213415,-1.43293,-38.8616,-2.32317,5.43669,-14.4512,-4.08537,3.75
403.353,87.0137,7.94325,0,9.83395,0.426313,1.17835,0.182927,0.0304878,-1.46341,-38.6317,-2.30401,5.29299,-14.939,-3.84146,3.35366
403.363,87.0133,7.96065,0,9.81,0.428708,1.11368,0,0.121951,-1.46341,-38.7275,-2.27527,5.69536,-15.8232,-3.32317,3.23171
403.373,87.0153,7.95104,0,9.85311,0.409548,1.16637,0.0609756,-0.0609756,-1.52439,-38.7083,-2.29443,5.23551,-15.6098,-3.04878,3.07927
403.383,87.0168,7.93853,0,9.8124,0.416733,1.20709,-0.121951,-0.0609756,-1.46341,-38.7275,-2.30401,5.17803,-15.1829,-3.9939,2.7439
403.393,87.0188,7.93865,0,9.79323,0.419128,1.08255,0.182927,-0.0914634,-1.40244,-38.7754,-2.43813,5.39837,-16.5549,-3.14024,2.31707
403.403,87.0224,7.92634,0,9.81958,0.407153,1.12805,0,-0.304878,-1.43293,-38.8328,-2.37107,5.18761,-15.3049,-3.81098,2.04268
403.413,87.0247,7.93516,0,9.83156,0.416733,1.11847,-0.0914634,-0.121951,-1.40244,-38.7275,-2.45729,5.5325,-15.5793,-3.81098,3.10976
403.423,87.0265,7.91274,0,9.8076,0.421523,1.15919,0.304878,-0.0609756,-1.37195,-38.7179,-2.50519,4.99601,-15.6098,-3.35366,3.29268
403.433,87.0293,7.90415,0,9.81958,0.423918,1.13524,-0.0304878,0.0609756,-1.28049,-38.7658,-2.36149,5.22593,-15.1524,-3.65854,2.89634
403.443,87.0311,7.91791,0,9.82916,0.428708,1.15679,0.213415,0.182927,-1.28049,-38.7849,-2.48603,5.60914,-15.8537,-4.54268,2.77439
403.453,87.039,7.91438,0,9.82437,0.387993,1.13045,0.27439,0.152439,-1.34146,-38.7466,-2.39981,5.31215,-16.2195,-4.48171,4.32927
403.463,87.039,7.9088,0,9.8124,0.414338,1.14482,0.426829,0.27439,-1.55488,-38.7849,-2.57225,5.28341,-15.8841,-3.2622,3.35366
403.473,87.0431,7.90848,0,9.82437,0.397573,1.16398,0.335366,0.27439,-1.46341,-38.7849,-2.47645,5.36963,-15.8232,-3.75,3.01829
403.483,87.0464,7.89996,0,9.81719,0.409548,1.13524,0.121951,0.0304878,-1.37195,-38.7658,-2.58183,5.22593,-14.5427,-3.14024,2.68293
403.493,87.0456,7.89291,0,9.81958,0.426313,1.11847,-0.0609756,-0.0914634,-1.46341,-38.9478,-2.66805,5.27383,-14.9085,-2.13415,3.38415
403.503,87.0473,7.89133,0,9.83395,0.419128,1.08255,-0.0609756,0.121951,-1.37195,-38.7083,-2.49561,5.33131,-14.878,-2.22561,3.53659
403.513,87.0511,7.88386,0,9.84593,0.411943,1.14242,0,0.487805,-1.31098,-38.7754,-2.55309,5.23551,-15.0305,-2.62195,3.81098
403.523,87.051,7.87269,0,9.81958,0.431104,1.10889,0.121951,0.213415,-1.34146,-38.6796,-2.50519,5.14929,-14.5732,-3.78049,3.53659
403.533,87.0445,7.86491,0,9.83395,0.447869,1.14003,0,0.243902,-1.61585,-38.7466,-2.47645,5.20677,-15.5793,-4.60366,3.65854
403.543,87.0414,7.87341,0,9.83635,0.433499,1.06578,-0.27439,0.0914634,-1.55488,-38.7083,-2.66805,5.48459,-14.2378,-3.04878,3.78049
403.553,87.0437,7.87748,0,9.8124,0.423918,1.11368,-0.304878,-0.152439,-1.28049,-38.8041,-2.53393,5.42711,-15.1524,-2.89634,3.23171
403.563,87.0458,7.88708,0,9.8124,0.421523,1.16637,-0.121951,-0.0609756,-1.31098,-38.7945,-2.36149,5.52291,-15.061,-3.53659,2.83537
403.573,87.0434,7.89251,0,9.82677,0.431104,1.13284,-0.0609756,-0.457317,-1.52439,-38.6508,-2.55309,5.43669,-14.0244,-3.5061,3.71951
403.583,87.0417,7.90148,0,9.81,0.426313,1.14961,-0.152439,-0.121951,-1.52439,-38.6604,-2.54351,5.50376,-14.4512,-3.41463,3.78049
403.593,87.0425,7.89422,0,9.82197,0.395178,1.14482,-0.213415,-0.304878,-1.70732,-38.7083,-2.64889,5.23551,-14.3902,-3.07927,3.90244
403.603,87.046,7.88007,0,9.82437,0.414338,1.11847,-0.213415,-0.0609756,-1.31098,-38.8616,-2.50519,5.13013,-14.8476,-3.41463,4.08537
403.613,87.0441,7.88117,0,9.81958,0.411943,1.14482,-0.0609756,0.152439,-1.70732,-38.8712,-2.50519,5.38879,-16.0061,-3.01829,4.57317
403.623,87.0523,7.8627,0,9.83156,0.392783,1.14003,-0.121951,-0.0914634,-1.25,-38.9286,-2.54351,5.05349,-14.3598,-3.71951,4.20732
403.633,87.0555,7.85612,0,9.82677,0.411943,1.12566,-0.335366,-0.182927,-1.34146,-38.7275,-2.44771,5.22593,-14.0549,-2.31707,3.84146
403.643,87.0539,7.86252,0,9.81719,0.423918,1.14961,-0.304878,-0.396341,-1.52439,-38.6987,-2.59141,5.43669,-14.1463,-4.17683,4.57317
403.653,87.0561,7.84572,0,9.8124,0.421523,1.1999,-0.27439,-0.243902,-1.28049,-38.8041,-2.46687,5.05349,-14.5732,-3.71951,3.23171
403.663,87.0601,7.85296,0,9.84353,0.409548,1.10171,-0.0914634,-0.365854,-1.31098,-38.6987,-2.56267,5.44627,-14.6341,-3.53659,5.54878
403.673,87.0646,7.84294,0,9.83874,0.397573,1.14003,0,-0.182927,-1.40244,-38.7658,-2.51477,5.15887,-15.5488,-3.96341,4.17683
403.683,87.073,7.85573,0,9.79803,0.387993,1.16158,0,-0.243902,-1.25,-38.7849,-2.57225,5.55166,-15.061,-4.05488,2.95732
403.693,87.0773,7.85915,0,9.83395,0.409548,1.16398,0.27439,0.0304878,-1.25,-38.7945,-2.67763,5.39837,-14.6646,-4.05488,3.96341
403.703,87.0803,7.85807,0,9.80521,0.399968,1.17595,0.0914634,-0.213415,-1.43293,-38.8328,-2.40939,5.33131,-15.3659,-2.95732,4.5122
403.713,87.079,7.87145,0,9.83874,0.435894,1.17116,0,0.0304878,-1.31098,-38.6987,-2.39981,5.56124,-14.939,-3.68902,3.75
403.723,87.0861,7.87535,0,9.81958,0.390388,1.11368,0.182927,-0.0609756,-1.28049,-38.8999,-2.29443,5.43669,-15.9756,-2.77439,3.20122
403.733,87.0927,7.88037,0,9.79084,0.399968,1.1065,0.0304878,-0.27439,-1.18902,-38.7275,-2.61057,5.43669,-15.9451,-2.19512,3.96341
403.743,87.096,7.87856,0,9.84114,0.407153,1.11608,0.121951,-0.0609756,-1.31098,-38.7562,-2.52435,5.32173,-15.8232,-3.29268,3.35366
403.753,87.0926,7.87013,0,9.78605,0.411943,1.11368,0,-0.0914634,-1.70732,-38.6604,-2.47645,5.18761,-16.372,-4.66463,3.44512
403.763,87.0964,7.86815,0,9.8124,0.387993,1.12805,0,0.0609756,-1.4939,-38.7275,-2.67763,5.30257,-14.9695,-4.7561,3.47561
403.773,87.0994,7.88182,0,9.84353,0.399968,1.13763,0.182927,0.0609756,-1.40244,-38.6987,-2.78301,5.57082,-15.8537,-4.42073,4.57317
403.783,87.0962,7.8784,0,9.83635,0.426313,1.12566,0.152439,0.121951,-1.52439,-38.8903,-2.64889,5.31215,-15.7927,-3.47561,3.84146
403.793,87.1013,7.88539,0,9.84593,0.390388,1.17595,0.0914634,-0.0304878,-1.37195,-38.8328,-2.62973,5.48459,-15.9451,-3.23171,5
403.803,87.0975,7.89067,0,9.81719,0.411943,1.1065,0.213415,0,-1.7378,-38.8999,-2.62015,5.46543,-15.3963,-4.20732,4.69512
403.813,87.096,7.89474,0,9.82437,0.433499,1.14721,-0.121951,-0.0609756,-1.31098,-38.8137,-2.48603,5.43669,-14.7866,-4.02439,5.06098
403.823,87.0927,7.90375,0,9.84593,0.440684,1.08973,-0.0304878,-0.0609756,-1.37195,-38.7658,-2.43813,5.51333,-15.8537,-5.64024,4.84756
403.833,87.0939,7.90717,0,9.80521,0.397573,1.10889,-0.182927,-0.0304878,-1.55488,-38.8041,-2.40939,5.42711,-15.7317,-5.73171,4.08537
403.843,87.0941,7.90334,0,9.80042,0.421523,1.13524,-0.152439,0.121951,-1.34146,-38.5838,-2.39981,5.27383,-15.7317,-5.4878,4.72561
403.853,87.091,7.92356,0,9.8076,0.423918,1.15919,-0.213415,0.426829,-1.55488,-38.6125,-2.64889,5.69536,-14.7866,-4.69512,4.78659
403.863,87.0916,7.92434,0,9.8076,0.411943,1.13284,-0.152439,0.182927,-1.43293,-38.5838,-2.63931,5.36963,-16.25,-4.11585,4.08537
403.873,87.0934,7.9124,0,9.82197,0.404758,1.16877,-0.27439,0.365854,-1.43293,-38.5742,-2.62973,5.14929,-16.25,-3.90244,4.81707
403.883,87.0903,7.91046,0,9.83156,0.414338,1.19032,-0.243902,-0.121951,-1.67683,-38.5263,-2.70637,5.31215,-16.5244,-2.62195,4.26829
403.893,87.0938,7.91221,0,9.83395,0.392783,1.1544,-0.213415,0.213415,-1.46341,-38.7083,-2.67763,5.39837,-15.9146,-3.04878,4.84756
403.903,87.0936,7.92101,0,9.83156,0.416733,1.1041,-0.0914634,0.152439,-1.43293,-38.8616,-2.62973,5.54208,-15.5488,-3.65854,4.93902
403.913,87.0969,7.92644,0,9.83874,0.387993,1.09931,-0.0609756,0.426829,-1.52439,-38.8807,-2.49561,5.49417,-15.9146,-3.04878,4.02439
403.923,87.0941,7.93034,0,9.82916,0.421523,1.13045,-0.152439,0.335366,-1.55488,-38.8999,-2.60099,5.47501,-14.3598,-2.71341,5.33537
403.933,87.0937,7.92285,0,9.79803,0.402363,1.10889,-0.121951,0.243902,-1.61585,-38.8903,-2.62015,5.27383,-15.4878,-3.71951,5.21341
403.943,87.0918,7.93351,0,9.82437,0.421523,1.1065,0.0914634,0.304878,-1.4939,-38.852,-2.57225,5.5804,-15.5488,-3.71951,4.42073
403.953,87.088,7.93857,0,9.82437,0.419128,1.12087,0.0914634,0.121951,-1.67683,-38.7083,-2.47645,5.47501,-14.2683,-2.16463,5.30488
403.963,87.0863,7.94649,0,9.8076,0.423918,1.07776,-0.243902,0.152439,-1.46341,-38.7658,-2.72553,5.5325,-15.0915,-3.32317,4.7561
403.973,87.0851,7.94894,0,9.79323,0.423918,1.11368,-0.213415,0.182927,-1.43293,-38.6125,-2.62973,5.41753,-14.6951,-4.35976,4.93902
403.983,87.0834,7.96384,0,9.78844,0.426313,1.152,-0.0609756,0.548781,-1.43293,-38.737,-2.39023,5.65704,-15.2134,-3.35366,5.64024
403.993,87.0835,7.98307,0,9.81958,0.426313,1.14961,-0.152439,0.457317,-1.31098,-38.7945,-2.62015,5.75284,-16.2195,-2.95732,3.84146
404.003,87.0808,7.9843,0,9.8124,0.438289,1.13045,-0.213415,0.548781,-1.37195,-38.5933,-2.65847,5.42711,-16.2195,-1.89024,5.03049
404.013,87.0805,7.97368,0,9.83874,0.411943,1.12805,-0.182927,-0.0609756,-1.52439,-38.6508,-2.49561,5.22593,-15.3963,-3.23171,5.06098
404.023,87.0827,7.96088,0,9.83395,0.407153,1.14721,-0.182927,-0.213415,-1.40244,-38.6891,-2.73511,5.18761,-15.4268,-2.7439,4.2378
404.033,87.0792,7.95256,0,9.81479,0.431104,1.14961,0.0914634,-0.0304878,-1.52439,-38.6891,-2.56267,5.25467,-15.1829,-3.2622,5.57927
404.043,87.0794,7.93824,0,9.80281,0.419128,1.16158,0.304878,-0.0304878,-1.40244,-38.8041,-2.49561,5.15887,-15.7927,-3.68902,5.57927
404.053,87.0759,7.92988,0,9.81958,0.426313,1.13045,-0.0914634,0.0609756,-1.58537,-38.7562,-2.67763,5.24509,-14.8171,-3.96341,5.33537
404.063,87.0725,7.93663,0,9.81479,0.421523,1.12566,-0.0304878,0.0609756,-1.64634,-38.7466,-2.55309,5.50376,-14.9695,-3.23171,4.96951
404.073,87.0713,7.9336,0,9.81,0.431104,1.13284,0,0.121951,-1.37195,-38.7083,-2.48603,5.33131,-15.8232,-3.62805,4.17683
404.083,87.0753,7.93281,0,9.82916,0.414338,1.12566,-0.335366,0.0914634,-1.21951,-38.8328,-2.42855,5.38879,-14.939,-2.71341,5.88415
404.093,87.0748,7.92176,0,9.80042,0.423918,1.11368,0.0304878,-0.182927,-1.40244,-38.8328,-2.54351,5.20677,-15.3354,-3.41463,4.35976
404.103,87.0727,7.92059,0,9.82916,0.426313,1.14721,0.0609756,-0.0609756,-1.4939,-38.8137,-2.54351,5.36963,-15.2439,-3.17073,5
404.113,87.0797,7.90902,0,9.82197,0.383203,1.14482,-0.121951,-0.243902,-1.37195,-38.8903,-2.43813,5.19719,-15.7927,-3.38415,4.60366
404.123,87.0859,7.91509,0,9.81479,0.397573,1.18553,0.121951,0.121951,-1.25,-38.7849,-2.55309,5.48459,-14.9085,-2.68293,4.2378
404.133,87.0864,7.91254,0,9.8076,0.421523,1.09931,0.0609756,-0.121951,-1.34146,-38.67,-2.61057,5.32173,-16.2805,-3.04878,5.27439
404.143,87.0933,7.90874,0,9.82197,0.390388,1.08973,0,-0.213415,-1.28049,-38.7754,-2.65847,5.31215,-16.2805,-3.14024,5.18293
404.153,87.0991,7.91284,0,9.82437,0.380808,1.13524,-0.27439,-0.182927,-1.43293,-38.488,-2.61057,5.40795,-15.061,-2.86585,4.54268
404.163,87.1049,7.92294,0,9.80521,0.385598,1.16398,0.121951,0.0609756,-1.37195,-38.737,-2.58183,5.55166,-15.7622,-2.40854,5.79268
404.173,87.1091,7.92239,0,9.82197,0.385598,1.13284,-0.121951,-0.243902,-1.46341,-38.6604,-2.46687,5.36005,-16.3415,-3.14024,5.51829
404.183,87.107,7.91583,0,9.79323,0.407153,1.11368,0,-0.365854,-1.64634,-38.7658,-2.59141,5.27383,-15.5488,-1.95122,5.82317
404.193,87.1095,7.92134,0,9.80281,0.390388,1.13284,0.0609756,-0.396341,-1.52439,-38.7754,-2.46687,5.48459,-15.0305,-0.853659,5.33537
404.203,87.1088,7.91555,0,9.81479,0.392783,1.15919,-0.487805,-0.0914634,-1.70732,-38.8616,-2.44771,5.30257,-15.4878,-1.03659,4.48171
404.213,87.1019,7.92122,0,9.81719,0.433499,1.09213,-0.182927,-0.0914634,-1.70732,-38.8424,-2.63931,5.49417,-16.4329,-1.55488,4.48171
404.223,87.1,7.92978,0,9.8076,0.407153,1.14242,0.0304878,-0.182927,-1.64634,-38.852,-2.50519,5.55166,-16.0976,-1.06707,5.09146
404.233,87.0988,7.92537,0,9.81479,0.416733,1.1041,-0.213415,0.243902,-1.4939,-38.8807,-2.54351,5.33131,-15.2744,-2.19512,5.12195
404.243,87.1022,7.91706,0,9.82677,0.399968,1.09931,-0.152439,-0.0304878,-1.37195,-38.9286,-2.72553,5.26425,-16.7073,-2.86585,3.87195
404.253,87.1018,7.91018,0,9.84353,0.411943,1.12566,-0.213415,0.121951,-1.4939,-38.8328,-2.62973,5.27383,-16.4939,-1.89024,5.09146
404.263,87.1007,7.91021,0,9.82916,0.399968,1.09452,-0.243902,0.121951,-1.67683,-38.8328,-2.46687,5.38879,-16.0366,-2.13415,5.36585
404.273,87.0999,7.90131,0,9.83156,0.416733,1.12805,-0.27439,0.0914634,-1.46341,-38.9095,-2.55309,5.24509,-15.7622,-1.64634,5.51829
404.283,87.1004,7.90516,0,9.81719,0.431104,1.16398,0,0.213415,-1.18902,-38.8328,-2.72553,5.44627,-16.6768,-3.01829,5.94512
404.293,87.098,7.91089,0,9.82437,0.428708,1.14482,0.0609756,0.152439,-1.43293,-38.8137,-2.59141,5.48459,-16.2805,-1.37195,6.64634
404.303,87.1021,7.91403,0,9.84114,0.387993,1.10889,-0.0304878,0.152439,-1.46341,-38.7754,-2.64889,5.43669,-16.2195,-1.76829,5.36585
404.313,87.1004,7.92537,0,9.82677,0.414338,1.1041,-0.182927,0.0914634,-1.55488,-38.8328,-2.47645,5.58998,-17.2561,-1.82927,6.15854
404.323,87.1028,7.9232,0,9.81,0.402363,1.11368,0.0914634,0.304878,-1.40244,-38.8233,-2.51477,5.36005,-15.9146,-1.98171,6.06707
404.333,87.0996,7.91283,0,9.84593,0.433499,1.1041,0.0304878,0.121951,-1.43293,-38.7658,-2.49561,5.20677,-16.25,-2.31707,6.58537
404.343,87.0984,7.91551,0,9.8124,0.416733,1.13763,0.0914634,0.182927,-1.4939,-38.6891,-2.57225,5.41753,-16.2195,-1.92073,5.7622
404.353,87.0944,7.91257,0,9.81479,0.433499,1.12805,0.152439,0.213415,-1.4939,-38.8999,-2.33275,5.35047,-15.9451,-1.92073,4.63415
404.363,87.0959,7.90847,0,9.8124,0.421523,1.15679,-0.0304878,0.27439,-1.25,-38.8807,-2.62973,5.32173,-16.2195,-3.10976,5.88415
404.373,87.0993,7.8911,0,9.82677,0.395178,1.08015,-0.182927,0.457317,-1.43293,-38.8233,-2.57225,5.08223,-15.4268,-2.37805,5.15244
404.383,87.0942,7.88919,0,9.82916,0.435894,1.11608,0,0.0304878,-1.55488,-38.7083,-2.58183,5.32173,-16.0061,-2.95732,4.35976
404.393,87.0972,7.88736,0,9.83156,0.397573,1.12805,0.0914634,0.426829,-1.43293,-38.7849,-2.47645,5.33131,-15.3963,-3.32317,4.87805
404.403,87.0991,7.88389,0,9.82916,0.419128,1.14482,-0.0304878,0.182927,-1.25,-38.6412,-2.63931,5.28341,-16.0366,-2.77439,5.64024
404.413,87.1054,7.8572,0,9.78366,0.385598,1.12326,0.0609756,0.335366,-1.34146,-38.7849,-2.65847,4.90021,-16.2195,-1.85976,4.57317
404.423,87.1079,7.84753,0,9.82197,0.409548,1.152,0.0304878,0.0914634,-1.31098,-38.7179,-2.52435,5.16845,-15.4268,-1.95122,4.14634
404.433,87.1104,7.83545,0,9.80042,0.397573,1.1041,-0.0304878,0.0304878,-1.43293,-38.7945,-2.67763,5.13013,-15.4878,-1.89024,5.09146
404.443,87.108,7.8273,0,9.8076,0.411943,1.17356,-0.0304878,0.27439,-1.61585,-38.7754,-2.64889,5.18761,-16.372,-1.92073,4.5122
404.453,87.1111,7.82494,0,9.82197,0.380808,1.12087,0.152439,0.243902,-1.58537,-38.7275,-2.39981,5.27383,-15.3659,-2.62195,5.03049
404.463,87.1096,7.81146,0,9.81,0.397573,1.12805,0.0609756,0.426829,-1.70732,-38.6796,-2.49561,5.07265,-15.9146,-2.65244,5.18293
404.473,87.1099,7.7918,0,9.80281,0.395178,1.18793,0.0609756,0.213415,-1.61585,-38.8328,-2.48603,4.97685,-15.2744,-2.37805,5.67073
404.483,87.1064,7.78477,0,9.84353,0.419128,1.11368,-0.121951,-0.0304878,-1.61585,-38.6796,-2.51477,5.15887,-16.7378,-3.5061,5.27439
404.493,87.1061,7.78335,0,9.81,0.407153,1.11847,-0.213415,-0.0304878,-1.52439,-38.7466,-2.49561,5.26425,-15.4573,-2.37805,4.69512
404.503,87.1035,7.78215,0,9.8076,0.423918,1.12805,-0.121951,0.0609756,-1.4939,-39.0053,-2.60099,5.30257,-15.3659,-2.31707,4.5122
404.513,87.1002,7.77837,0,9.83156,0.431104,1.14961,0.121951,0.396341,-1.46341,-38.9957,-2.73511,5.25467,-15.3659,-2.46951,5.03049
404.523,87.0977,7.77119,0,9.81,0.411943,1.15919,0,0.182927,-1.64634,-38.9191,-2.44771,5.17803,-15.8232,-3.75,4.54268
404.533,87.0961,7.75903,0,9.84832,0.416733,1.14961,0.121951,0.152439,-1.52439,-38.8041,-2.66805,5.07265,-14.7561,-3.32317,4.72561
404.543,87.0963,7.74686,0,9.8579,0.409548,1.17116,-0.0304878,0.243902,-1.4939,-39.0053,-2.49561,5.09181,-15.2439,-2.86585,6.28049
404.553,87.1013,7.76388,0,9.80042,0.387993,1.14482,0.121951,0.0304878,-1.40244,-38.8424,-2.64889,5.57082,-16.2805,-3.04878,5.2439
404.563,87.103,7.77158,0,9.81719,0.419128,1.1041,-0.152439,-0.152439,-1.25,-38.6221,-2.39981,5.38879,-16.2805,-3.10976,5.18293
404.573,87.1046,7.80602,0,9.80521,0.404758,1.1065,-0.243902,0.152439,-1.43293,-38.6987,-2.48603,5.8678,-16.372,-3.87195,5.15244
404.583,87.1078,7.80518,0,9.81,0.404758,1.13284,0.182927,-0.182927,-1.31098,-38.7083,-2.49561,5.28341,-15.7317,-2.53049,4.93902
404.593,87.1021,7.80543,0,9.81958,0.423918,1.09692,0.121951,-0.0609756,-1.7378,-38.5167,-2.62973,5.27383,-16.4024,-2.95732,5.67073
404.603,87.1016,7.80445,0,9.8076,0.395178,1.16637,-0.0304878,0.0304878,-1.67683,-38.7562,-2.39981,5.28341,-15.1524,-3.62805,5.15244
404.613,87.1071,7.79595,0,9.81719,0.376018,1.15679,-0.0914634,0.0609756,-1.4939,-38.7275,-2.55309,5.14929,-15.9756,-3.20122,3.93293
404.623,87.1024,7.79506,0,9.80281,0.419128,1.11368,0.0914634,-0.0609756,-1.70732,-38.8137,-2.47645,5.29299,-14.5427,-1.64634,4.32927
404.633,87.0991,7.78455,0,9.82437,0.431104,1.17356,0.152439,0.0304878,-1.46341,-38.8041,-2.37107,5.12055,-14.878,-2.5,4.29878
404.643,87.0979,7.7828,0,9.8124,0.431104,1.14961,0,-0.213415,-1.31098,-38.9382,-2.47645,5.28341,-15.7927,-2.68293,4.17683
404.653,87.1011,7.78029,0,9.81,0.414338,1.1065,-0.0609756,-0.213415,-1.21951,-38.9095,-2.53393,5.26425,-14.8171,-2.86585,3.93293
404.663,87.1015,7.7707,0,9.8076,0.423918,1.18074,0.0304878,-0.396341,-1.28049,-38.7083,-2.63931,5.11097,-16.7683,-3.35366,4.57317
404.673,87.0982,7.75946,0,9.78844,0.433499,1.07536,-0.152439,-0.121951,-1.43293,-38.6891,-2.55309,5.07265,-16.25,-3.47561,4.45122
404.683,87.0956,7.75991,0,9.80042,0.414338,1.16158,0.0609756,-0.0914634,-1.61585,-38.6029,-2.69679,5.25467,-14.6341,-3.90244,4.2378
404.693,87.0961,7.76621,0,9.83874,0.407153,1.1544,-0.0304878,-0.213415,-1.4939,-38.6891,-2.58183,5.36963,-15.0305,-3.53659,5.09146
404.703,87.0989,7.78052,0,9.82677,0.390388,1.14961,0.0304878,-0.213415,-1.52439,-38.7658,-2.59141,5.52291,-16.2805,-3.87195,4.60366
404.713,87.0911,7.78055,0,9.84353,0.455054,1.13284,-0.0914634,-0.121951,-1.52439,-38.7945,-2.51477,5.29299,-15.9756,-2.40854,4.81707
404.723,87.0865,7.77501,0,9.81719,0.414338,1.11368,0.0304878,-0.304878,-1.79878,-38.737,-2.52435,5.18761,-16.5549,-2.68293,4.35976
404.733,87.0868,7.77194,0,9.85072,0.402363,1.1041,-0.243902,0.0304878,-1.58537,-38.8807,-2.72553,5.24509,-14.6341,-2.89634,4.48171
404.743,87.0885,7.77339,0,9.82437,0.395178,1.16158,0.0609756,-0.27439,-1.55488,-38.6891,-2.47645,5.29299,-14.9695,-3.75,4.81707
404.753,87.0913,7.79187,0,9.81958,0.402363,1.14482,0,-0.365854,-1.40244,-38.7466,-2.59141,5.59956,-15.7317,-3.35366,4.26829
404.763,87.0903,7.78255,0,9.81719,0.411943,1.14242,0.0609756,0,-1.55488,-38.6317,-2.44771,5.11097,-14.8476,-4.08537,3.9939
404.773,87.0905,7.78378,0,9.82197,0.409548,1.12566,0.0609756,-0.27439,-1.4939,-38.8712,-2.68721,5.32173,-15.4573,-3.59756,4.42073
404.783,87.0944,7.78377,0,9.83874,0.392783,1.11847,0.0609756,-0.152439,-1.43293,-38.9286,-2.50519,5.31215,-14.6037,-2.62195,3.96341
404.793,87.0938,7.77457,0,9.85311,0.414338,1.16637,-0.0304878,-0.335366,-1.4939,-38.8903,-2.50519,5.13971,-14.3293,-4.63415,5.09146
404.803,87.0953,7.75577,0,9.82916,0.409548,1.15679,-0.0304878,-0.518293,-1.40244,-38.967,-2.64889,4.97685,-14.6951,-4.32927,4.93902
404.813,87.095,7.76481,0,9.8124,0.421523,1.12805,-0.0304878,-0.609756,-1.37195,-38.8999,-2.63931,5.43669,-15.1524,-5.64024,5.73171
404.823,87.0866,7.77401,0,9.81,0.447869,1.12566,-0.213415,-0.701219,-1.67683,-38.8807,-2.59141,5.44627,-15.061,-4.69512,4.69512
404.833,87.0874,7.77857,0,9.79803,0.395178,1.13045,-0.426829,-0.457317,-1.61585,-38.9957,-2.43813,5.38879,-16.2195,-4.29878,4.63415
404.843,87.0876,7.77476,0,9.81958,0.402363,1.14482,-0.121951,0.0609756,-1.58537,-38.7179,-2.56267,5.20677,-15.2439,-4.69512,3.78049
404.853,87.0908,7.76552,0,9.81,0.397573,1.11847,-0.0914634,0.152439,-1.43293,-38.5838,-2.39023,5.09181,-16.25,-4.78659,4.69512
404.863,87.098,7.75918,0,9.82197,0.376018,1.14242,-0.182927,0.27439,-1.40244,-38.5359,-2.62973,5.13013,-15.9451,-4.5122,4.87805
404.873,87.1006,7.77511,0,9.83874,0.385598,1.13284,-0.0609756,0.396341,-1.58537,-38.5933,-2.59141,5.52291,-16.7988,-3.53659,4.81707
404.883,87.1013,7.78198,0,9.83156,0.383203,1.12326,0,0.121951,-1.7378,-38.6796,-2.66805,5.38879,-14.7256,-3.47561,3.93293
404.893,87.1018,7.78402,0,9.83635,0.395178,1.12566,-0.0304878,0.0914634,-1.61585,-38.6891,-2.55309,5.31215,-15.3659,-3.14024,5.27439
404.903,87.1002,7.7761,0,9.84593,0.419128,1.13763,-0.182927,0.243902,-1.4939,-38.6221,-2.63931,5.13013,-16.3415,-3.59756,4.20732
404.913,87.0997,7.76787,0,9.81958,0.385598,1.09931,-0.243902,0.182927,-1.79878,-38.7945,-2.59141,5.14929,-15.1829,-1.4939,4.90854
404.923,87.0961,7.76998,0,9.82437,0.416733,1.12805,-0.0914634,0.365854,-1.67683,-38.7945,-2.55309,5.32173,-15.1829,-2.04268,4.26829
404.933,87.092,7.78565,0,9.80521,0.409548,1.11608,0.121951,0.182927,-1.79878,-38.7945,-2.62973,5.56124,-15.3963,-1.61585,4.11585
404.943,87.0837,7.79939,0,9.78126,0.419128,1.16158,0.152439,0.27439,-2.0122,-38.7562,-2.48603,5.5325,-15.6402,-1.70732,5.15244
404.953,87.0791,7.7972,0,9.80281,0.407153,1.10889,0.182927,0.365854,-1.89024,-38.9191,-2.62973,5.28341,-14.6341,-2.68293,5.21341
404.963,87.0741,7.81271,0,9.82437,0.428708,1.16158,-0.0304878,0.182927,-1.67683,-38.7658,-2.61057,5.57082,-14.5732,-2.2561,4.60366
404.973,87.0677,7.80991,0,9.81479,0.440684,1.16158,0.0609756,0.0914634,-1.64634,-38.8712,-2.56267,5.27383,-15.4573,-3.14024,4.78659
404.983,87.0627,7.81308,0,9.83395,0.445474,1.152,0,0.487805,-1.4939,-38.6796,-2.57225,5.35047,-15.2439,-2.86585,4.45122
404.993,87.0594,7.8161,0,9.8124,0.440684,1.16158,0.0304878,0.304878,-1.43293,-39.0149,-2.47645,5.39837,-15.7317,-2.34756,4.7561
405.003,87.0573,7.82523,0,9.81958,0.435894,1.13284,-0.0914634,0,-1.40244,-38.8999,-2.45729,5.49417,-15.6098,-1.52439,4.78659
405.013,87.0529,7.82927,0,9.8124,0.452659,1.10171,-0.121951,0.121951,-1.37195,-38.8999,-2.59141,5.40795,-15.6402,-2.5,4.48171
405.023,87.0534,7.82387,0,9.82916,0.416733,1.11847,0.0304878,-0.396341,-1.46341,-38.7658,-2.43813,5.22593,-15.2744,-3.10976,5.73171
405.033,87.0522,7.82745,0,9.78605,0.423918,1.13524,-0.182927,-0.426829,-1.4939,-38.7083,-2.49561,5.36963,-14.6951,-3.35366,4.20732
405.043,87.06,7.8341,0,9.80281,0.376018,1.152,0.0304878,-0.152439,-1.43293,-38.6796,-2.46687,5.41753,-16.189,-4.5122,4.60366
405.053,87.0535,7.85298,0,9.80042,0.455054,1.15679,0.0914634,-0.152439,-1.4939,-38.488,-2.39023,5.60914,-16.8598,-3.84146,5.12195
405.063,87.0549,7.85282,0,9.81,0.419128,1.11129,-0.0609756,0.365854,-1.37195,-38.5838,-2.56267,5.31215,-15.9451,-2.0122,4.72561
405.073,87.0597,7.86999,0,9.81479,0.404758,1.13284,0.0914634,0.0914634,-1.31098,-38.488,-2.61057,5.59956,-15.1524,-1.70732,5.18293
405.083,87.0639,7.8607,0,9.83395,0.404758,1.08973,0.0304878,-0.152439,-1.34146,-38.4975,-2.62015,5.15887,-16.9207,-0.609756,5.39634
405.093,87.0706,7.83811,0,9.8579,0.395178,1.12087,-0.121951,-0.304878,-1.28049,-38.5071,-2.54351,4.92895,-15.6098,0.792683,4.84756
405.103,87.0727,7.81998,0,9.83874,0.407153,1.10171,-0.213415,-0.396341,-1.43293,-38.737,-2.50519,5.02475,-16.372,2.16463,4.45122
405.113,87.0809,7.82201,0,9.82916,0.404758,1.10889,-0.152439,-0.182927,-1.06707,-38.6987,-2.45729,5.36005,-15.3049,2.89634,4.45122
405.123,87.0893,7.82961,0,9.84593,0.385598,1.11608,-0.152439,-0.121951,-1.25,-38.67,-2.58183,5.45585,-15.2744,3.41463,4.08537
405.133,87.0974,7.84202,0,9.80521,0.402363,1.18074,-0.213415,-0.0914634,-1.06707,-38.3538,-2.56267,5.50376,-16.2805,4.66463,3.23171
405.143,87.088,7.82658,0,9.78605,0.479004,1.14721,-0.0914634,-0.182927,-1.28049,-38.4209,-2.44771,5.04391,-15.0305,5.45732,3.87195
405.153,87.0811,7.81714,0,9.78844,0.476609,1.11368,-0.121951,-0.27439,-1.12805,-38.5071,-2.70637,5.14929,-14.6341,5.73171,3.53659
405.163,87.0747,7.82021,0,9.79563,0.505349,1.11847,-0.670732,-0.457317,-0.518293,-38.3443,-2.69679,5.34089,-14.0549,7.04268,2.83537
405.173,87.072,7.82669,0,9.78605,0.490979,1.08734,-0.518293,-0.487805,-0.518293,-38.5167,-2.75427,5.42711,-14.9695,7.37805,2.13415
405.183,87.0796,7.82636,0,9.79803,0.450264,1.11608,-0.426829,-0.945122,-0.518293,-38.8041,-2.52435,5.36005,-13.872,9.32927,1.28049
405.193,87.0965,7.85491,0,9.80281,0.423918,1.1544,-0.396341,-1.40244,-0.365854,-39.034,-2.72553,5.89654,-14.5122,8.68902,0.487805
405.203,87.1123,7.87924,0,9.84353,0.440684,1.1544,-0.884146,-1.82927,-0.152439,-39.3789,-2.49561,5.88696,-14.5122,6.70732,-0.0304878
405.213,87.1213,7.88558,0,9.87946,0.443079,1.16877,-0.853659,-2.34756,-0.457317,-39.3885,-2.45729,5.5804,-15.3354,4.90854,0.27439
405.223,87.1295,7.91393,0,9.86269,0.435894,1.19751,-1.28049,-2.28659,-0.579268,-39.331,-2.44771,5.9636,-15.7317,4.14634,0.518293
405.233,87.1249,7.91046,0,9.86269,0.469424,1.16398,-1.76829,-2.53049,-0.97561,-39.1777,-2.46687,5.39837,-16.7988,3.84146,1.52439
405.243,87.1253,7.88273,0,9.8124,0.443079,1.1544,-2.34756,-2.07317,-0.97561,-38.9095,-2.60099,4.92895,-16.128,1.89024,1.7378
405.253,87.1334,7.85423,0,9.80281,0.445474,1.10171,-2.40854,-1.98171,-0.426829,-38.9286,-2.63931,4.90021,-16.9207,2.31707,0.762195
405.263,87.1483,7.81545,0,9.83874,0.450264,1.11129,-2.0122,-1.64634,0.457317,-38.9286,-2.69679,4.69903,-17.1646,1.58537,1.09756
405.273,87.1642,7.79938,0,9.9058,0.445474,1.1999,-2.10366,-2.19512,0.487805,-38.8712,-2.64889,5.05349,-16.7073,-0.457317,0.609756
405.283,87.1949,7.78565,0,9.92975,0.378413,1.11847,-1.58537,-2.86585,1.0061,-38.6508,-2.56267,5.04391,-18.0183,-3.56707,-1.58537
405.293,87.2423,7.75974,0,9.94412,0.280217,1.03704,-2.22561,-2.22561,1.18902,-38.8712,-2.21779,4.84273,-19.939,-6.03659,-2.62195
405.303,87.304,7.72168,0,9.99921,0.182021,1.0083,-2.77439,0.243902,1.28049,-38.9478,-2.38065,4.62239,-19.7866,-6.09756,-3.14024
405.313,87.3631,7.67995,0,10.0591,0.182021,0.960403,-2.19512,1.70732,1.89024,-38.9382,-2.46687,4.53617,-19.6951,-4.69512,-3.84146
405.323,87.4057,7.63713,0,10.0495,0.285007,0.955613,-1.40244,0.914634,1.76829,-39.034,-2.41897,4.49785,-19.2073,-5.15244,-2.95732
405.333,87.4388,7.58524,0,9.89383,0.325723,0.948428,-0.792683,-0.0914634,1.09756,-39.2352,-2.67763,4.33499,-19.0549,-4.39024,-2.83537
405.343,87.4893,7.54667,0,9.69264,0.294587,1.00351,-1.70732,1.12805,0.0304878,-39.3789,-3.04167,4.54575,-17.7744,-5.36585,-2.53049
405.353,87.5283,7.51099,0,9.46751,0.258662,1.13763,-2.31707,3.32317,-0.640244,-39.2065,-3.19496,4.54575,-17.439,-6.4939,-1.21951
405.363,87.5707,7.43935,0,9.36453,0.182021,1.30529,-2.68293,4.14634,-1.09756,-39.1777,-3.2716,3.88472,-17.0732,-7.89634,-1.55488
405.373,87.5959,7.39787,0,9.45554,0.201182,1.36277,-2.07317,3.17073,-1.43293,-39.1777,-2.97461,4.36373,-15.9756,-7.34756,-0.609756
405.383,87.6145,7.37171,0,9.69504,0.253872,1.2981,-1.0061,0.152439,-1.15854,-39.1298,-3.14706,4.59365,-14.6037,-8.38415,-0.304878
405.393,87.6232,7.3618,0,9.81479,0.308958,1.16637,-0.182927,-2.56098,-1.06707,-39.1011,-2.72553,4.85231,-17.0122,-9.60366,0.27439
405.403,87.6351,7.37038,0,9.88664,0.287402,1.07536,0.304878,-3.38415,-1.09756,-39.0244,-2.78301,5.14929,-15.3963,-12.439,0.365854
405.413,87.6348,7.3702,0,9.8555,0.292192,1.07297,-0.121951,-2.62195,-1.79878,-39.0819,-2.77343,5.00559,-14.6341,-13.5976,1.09756
405.423,87.6298,7.38106,0,9.81719,0.277822,1.13524,-0.548781,-2.13415,-2.31707,-38.9574,-2.84049,5.17803,-14.2073,-14.8171,2.22561
405.433,87.6183,7.3966,0,9.83874,0.294587,1.08015,-0.518293,-1.09756,-2.68293,-39.1011,-3.04167,5.28341,-13.7195,-15.7927,2.89634
405.443,87.6104,7.37199,0,9.91059,0.308958,0.993933,-0.0914634,-0.487805,-2.2561,-39.2352,-3.05125,4.60323,-12.5915,-16.8598,3.53659
405.453,87.5927,7.33051,0,9.92496,0.399968,0.986748,0.792683,-0.121951,-2.0122,-39.3023,-3.04167,4.29667,-10.061,-17.2866,3.87195
405.463,87.5692,7.25093,0,9.92975,0.452659,0.962798,0.579268,-0.304878,-1.89024,-39.1586,-2.92671,3.59732,-9.45122,-14.6037,5.33537
405.473,87.5528,7.22978,0,9.91299,0.450264,1.00591,0.823171,-0.670732,-1.15854,-39.3598,-2.74469,4.57449,-10.6402,-17.6829,6.21951
405.483,87.5334,7.25923,0,9.83635,0.445474,1.05141,0.152439,0.0914634,-1.58537,-39.6567,-2.89797,5.46543,-12.561,-25.5183,5.79268
405.493,87.5221,7.28986,0,9.74773,0.392783,1.06339,-0.365854,0.701219,-1.61585,-39.743,-3.08,5.49417,-13.0183,-32.7439,3.47561
405.503,87.5145,7.32238,0,9.7142,0.335303,1.07536,0.0609756,0.97561,-2.07317,-39.5418,-3.08,5.51333,-14.939,-35.0305,5.67073
405.513,87.5112,7.35397,0,9.75731,0.299377,1.15919,0.304878,1.09756,-2.16463,-39.2544,-2.93629,5.47501,-14.3902,-36.3415,6.46341
405.523,87.5085,7.36814,0,9.83156,0.282612,1.15679,0.487805,0.335366,-2.31707,-38.9191,-2.85965,5.14929,-15,-35.3659,9.14634
405.533,87.5013,7.40447,0,9.88425,0.316143,1.11608,0.396341,-0.27439,-2.31707,-38.6604,-2.91713,5.51333,-15.3354,-34.2073,9.63415
405.543,87.4988,7.43558,0,9.92017,0.308958,1.09213,0.182927,-0.823171,-2.04268,-38.7083,-3.00335,5.46543,-15.3659,-30.9756,11.0366
405.553,87.4981,7.45452,0,9.98005,0.296982,1.07297,-0.396341,-0.579268,-2.04268,-38.5167,-2.85965,5.25467,-15.3354,-29.3598,11.0061
405.563,87.4972,7.48242,0,10.0375,0.361648,1.14961,-0.731707,-0.121951,-1.34146,-38.5742,-2.91713,5.43669,-13.5061,-27.5915,10.5183
405.573,87.4911,7.47825,0,9.98963,0.414338,1.02507,0.121951,0.27439,-1.03659,-38.8233,-2.95545,4.93853,-10.9146,-25.7927,9.66463
405.583,87.4759,7.47936,0,9.91299,0.462239,1.01788,0.548781,0.182927,-1.03659,-38.7849,-3.1279,5.02475,-10,-25.1524,8.62805
405.593,87.4515,7.49161,0,9.78126,0.479004,1.04423,0.0609756,0.243902,-1.7378,-38.8999,-3.37698,5.22593,-6.03659,-27.7134,7.5
405.603,87.4212,7.52541,0,9.68306,0.517324,1.04662,-0.304878,0.365854,-1.64634,-38.7562,-3.30034,5.5804,-4.93902,-30.6098,6.37195
405.613,87.4004,7.57974,0,9.66151,0.467029,1.10171,-0.853659,0.792683,-1.58537,-38.9382,-3.16622,5.98276,-3.32317,-32.8049,6.7378
405.623,87.3888,7.62944,0,9.64714,0.445474,1.11368,-0.609756,0.335366,-1.03659,-38.8137,-2.99377,5.90612,-3.78049,-36.9207,6.92073
405.633,87.3909,7.69256,0,9.71899,0.426313,1.14482,-0.0914634,-0.365854,-0.304878,-38.9095,-2.82133,6.18394,-5.54878,-38.9634,8.14024
405.643,87.4073,7.77686,0,9.78126,0.397573,1.03704,0.182927,-0.97561,0.152439,-38.8616,-2.45729,6.57672,-8.47561,-43.628,8.07927
405.653,87.424,7.85585,0,9.77647,0.397573,1.08973,0.335366,-2.37805,0.609756,-39.1107,-2.48603,6.56714,-11.4024,-48.4756,8.68902
405.663,87.4483,7.92621,0,9.80521,0.364043,1.12805,0.0914634,-3.56707,0.823171,-39.1107,-2.49561,6.46176,-13.6585,-50.7317,9.72561
405.673,87.4613,7.96352,0,9.82916,0.431104,1.13763,0.731707,-4.14634,1.21951,-39.2831,-2.76385,5.95402,-14.5122,-50.4573,9.39024
405.683,87.4711,7.99434,0,9.82437,0.431104,1.07776,0.731707,-3.53659,0.914634,-39.2544,-2.97461,5.85822,-14.2988,-51.2805,11.0366
405.693,87.4818,8.03171,0,9.89862,0.407153,1.05381,0.426829,-2.0122,0.304878,-39.5035,-2.87881,6.03066,-14.4512,-52.1646,11.0366
405.703,87.4876,8.08395,0,9.87946,0.416733,1.09452,-0.0609756,-1.46341,0.0304878,-39.7621,-2.95545,6.3468,-12.4085,-56.9207,12.7744
405.713,87.522,8.1292,0,9.99921,0.313748,1.18553,-1.34146,-1.03659,0.182927,-39.3981,-2.92671,6.18394,-12.4695,-61.8902,13.75
405.723,87.5483,8.18561,0,9.73096,0.289797,1.24541,-1.82927,-1.85976,-0.609756,-39.8771,-2.65847,6.47134,-11.5549,-67.8963,14.939
405.733,87.542,8.25436,0,9.79563,0.411943,1.03465,-1.79878,-1.40244,-0.823171,-39.7334,-2.52435,6.70126,-11.7988,-70.3963,16.6159
405.743,87.581,8.32369,0,9.78605,0.225132,0.996328,-2.68293,-1.25,-0.670732,-39.5418,-2.24653,6.72042,-11.2195,-72.6219,15.8841
405.753,87.6355,8.37148,0,9.75491,-0.129331,1.24302,-3.44512,-2.53049,-2.2561,-39.3502,-2.16031,6.3468,-11.2195,-74.3902,15.4573
405.763,87.6349,8.38183,0,9.68785,0.160466,1.26697,-1.61585,-3.62805,-3.20122,-39.1394,-1.98787,5.68578,-12.622,-74.2378,15.8232
405.773,87.6116,8.41897,0,9.73815,0.371228,1.14242,-2.19512,-3.44512,-2.80488,-38.9861,-2.18905,6.13604,-12.8963,-75.8232,13.1707
405.783,87.5689,8.48408,0,9.73575,0.55804,1.09213,-2.86585,-3.62805,-2.10366,-38.8233,-2.03577,6.62462,-13.9939,-76.7073,12.9573
405.793,87.5439,8.53827,0,9.89383,0.505349,1.01788,-3.04878,-3.2622,-0.548781,-38.8328,-2.31359,6.47134,-14.2988,-79.0854,12.5
405.803,87.6211,8.57549,0,9.98005,0.0263452,1.08973,-2.53049,-2.92683,-0.670732,-38.8233,-2.52435,6.21268,-13.9329,-78.0793,11.7378
405.813,87.6606,8.62512,0,9.80281,0.172441,1.00591,-0.640244,-3.87195,-0.914634,-38.9957,-2.72553,6.48092,-12.7744,-79.3293,11.6768
405.823,87.6742,8.67787,0,9.76449,0.256267,1.00351,-1.0061,-4.29878,-1.28049,-39.1107,-2.90755,6.5863,-10.5793,-80.4573,11.5244
405.833,87.6808,8.75908,0,9.79323,0.225132,1.0586,-2.04268,-5.21341,-1.95122,-38.9574,-2.96503,7.09405,-9.2378,-82.4695,13.0793
405.843,87.6844,8.84593,0,9.77886,0.241897,1.09213,-1.64634,-5.21341,-1.98171,-38.9574,-3.05125,7.24733,-8.04878,-83.6281,13.1707
405.853,87.6792,8.94547,0,9.78126,0.289797,1.00591,-1.03659,-5.09146,-2.10366,-38.9095,-3.04167,7.51557,-5.03049,-86.3415,14.939
405.863,87.6708,9.05078,0,9.79323,0.330513,0.986748,-0.365854,-5.03049,-1.89024,-38.5263,-3.05125,7.61137,-1.28049,-86.6768,15.8537
405.873,87.6722,9.17887,0,9.8579,0.249082,0.936453,0.548781,-5.06098,-2.07317,-38.4017,-3.03209,8.05206,1.12805,-89.5732,17.4085
405.883,87.6742,9.31291,0,9.79323,0.136516,1.0107,1.12805,-5.88415,-3.17073,-38.2197,-3.01293,8.20534,3.53659,-90.2744,17.7439
405.893,87.6614,9.45552,0,9.82437,0.189207,1.02028,1.21951,-7.0122,-3.90244,-37.9419,-2.98419,8.38736,3.81098,-90.7317,18.0183
405.903,87.6336,9.59718,0,9.84353,0.263452,1.09452,0.853659,-6.85976,-4.5122,-38.009,-2.67763,8.48316,5.21341,-91.1281,16.9207
405.913,87.5994,9.7609,0,9.89862,0.306563,1.01549,0.27439,-5.67073,-4.72561,-37.8269,-2.49561,8.92384,5.33537,-92.439,18.2012
405.923,87.5615,9.90215,0,9.92496,0.352068,0.998723,-0.213415,-4.90854,-4.63415,-37.9898,-2.48603,8.68434,5.64024,-91.2195,16.7683
405.933,87.5151,10.0517,0,9.95131,0.411943,0.835862,-0.121951,-3.93293,-4.87805,-38.1718,-2.30401,8.96216,3.84146,-94.1463,15.9451
405.943,87.4789,10.163,0,9.88904,0.366438,0.65384,0.182927,-3.01829,-4.45122,-38.3251,-2.20821,8.4161,2.40854,-96.4024,14.6646
405.953,87.4491,10.3025,0,9.90341,0.318538,0.62989,-0.853659,-3.44512,-4.45122,-38.6508,-2.08367,9.05796,1.21951,-100.396,13.811
405.963,87.4269,10.4703,0,9.91538,0.246687,0.701741,-1.4939,-4.48171,-4.60366,-39.1394,-1.99745,9.76689,-1.15854,-106.372,13.2317
405.973,87.4049,10.6434,0,9.93454,0.220342,0.713716,-1.12805,-3.2622,-4.93902,-39.446,-1.90165,10.0447,-4.05488,-112.226,13.0183
405.983,87.3818,10.8199,0,9.94412,0.196392,0.64426,-0.304878,-0.701219,-5.36585,-39.6567,-1.69088,10.2651,-5.79268,-118.963,13.9329
405.993,87.3546,10.9723,0,10.0447,0.220342,0.495769,1.52439,2.92683,-5.57927,-39.8196,-1.4418,9.96807,-8.47561,-123.811,12.9268
406.003,87.3197,11.1175,0,10.0615,0.299377,0.512534,2.71341,3.87195,-5.4878,-39.6184,-1.67172,9.88185,-9.66463,-128.232,11.311
406.013,87.2777,11.2438,0,10.0064,0.364043,0.517324,2.22561,3.38415,-5.51829,-39.513,-1.51844,9.60403,-11.4024,-130.244,11.9817
406.023,87.2383,11.3816,0,9.94652,0.335303,0.661025,2.0122,3.41463,-5.64024,-39.3406,-1.49928,9.85311,-14.1159,-134.268,11.5854
406.033,87.1921,11.5323,0,9.87946,0.378413,0.790356,1.61585,4.2378,-5.88415,-39.3023,-1.51844,10.1597,-16.0671,-140.03,11.3415
406.043,87.1419,11.6859,0,9.88664,0.402363,0.876577,1.40244,6.03659,-6.09756,-39.0149,-1.86333,10.2172,-19.2683,-148.567,12.5305
406.053,87.0965,11.8519,0,9.82437,0.378413,0.979563,1.98171,7.62195,-5.97561,-38.5263,-1.87291,10.3992,-18.3537,-156.159,13.2012
406.063,87.0429,12.0508,0,9.7621,0.457449,1.00351,2.10366,8.10976,-5.91463,-38.5454,-2.18905,11.0985,-19.0244,-164.207,13.872
406.073,86.9828,12.2625,0,9.77407,0.498164,1.0107,2.16463,8.75,-6.21951,-38.4688,-1.99745,11.4338,-17.8354,-170.183,16.0671
406.083,86.9323,12.5001,0,9.78605,0.416733,1.08255,1.64634,8.35366,-6.34146,-38.3826,-1.94955,12.0278,-15.8232,-174.482,18.2622
406.093,86.8882,12.7133,0,9.78844,0.344883,1.07536,1.25,7.13415,-6.64634,-38.4784,-2.24653,11.7691,-14.3902,-176.921,19.7561
406.103,86.8469,12.9207,0,9.81719,0.340093,1.09931,1.15854,5.7622,-6.52439,-38.191,-2.06451,11.7308,-14.2378,-177.287,21.189
406.113,86.8065,13.1148,0,9.8603,0.364043,1.19511,1.18902,4.48171,-6.25,-37.779,-2.16989,11.5105,-12.8963,-177.226,21.9817
406.123,86.7611,13.3407,0,9.8555,0.356858,1.23344,0.823171,3.81098,-6.92073,-37.3671,-2.39981,12.1044,-10.2744,-175.549,23.2012
406.133,86.7165,13.5883,0,9.84832,0.277822,1.33163,0.335366,3.23171,-7.86585,-36.8689,-2.49561,12.4972,-6.70732,-175.793,25.2134
406.143,86.6617,13.8021,0,9.82916,0.285007,1.37474,0.0914634,1.79878,-8.90244,-36.6869,-2.65847,11.999,-1.09756,-176.707,25.8232
406.153,86.5895,14.0206,0,9.75012,0.371228,1.33163,-0.182927,1.43293,-9.72561,-36.3995,-2.54351,12.1332,1.28049,-178.75,27.1341
406.163,86.4878,14.2875,0,9.76928,0.593965,1.24541,-0.518293,1.92073,-10.2439,-36.6486,-2.59141,13.2445,3.41463,-180.488,26.8293
406.173,86.3713,14.5975,0,9.80042,0.783171,1.05141,-1.15854,2.7439,-9.72561,-36.7061,-2.50519,14.2408,0.97561,-183.72,25.3963
406.183,86.2499,14.8988,0,9.80521,0.864602,0.958008,-2.53049,3.2622,-9.5122,-36.8977,-2.30401,14.3653,-1.40244,-188.72,22.378
406.193,86.1441,15.2215,0,9.77886,0.792751,0.979563,-4.78659,3.2622,-8.9939,-36.6677,-1.90165,14.9018,-1.98171,-188.293,20.0915
406.203,86.0589,15.5226,0,9.87467,0.66342,1.07776,-6.55488,2.43902,-8.71951,-36.6773,-1.83458,14.7485,-2.31707,-185.549,18.872
406.213,85.982,15.7952,0,9.78844,0.56762,1.23344,-7.62195,2.37805,-9.11585,-35.7576,-1.47054,14.0971,-6.12805,-179.756,18.1402
406.223,85.8944,16.0906,0,9.60403,0.584385,1.32445,-8.44512,1.85976,-10.0305,-35.4702,-1.4418,14.6144,-8.14024,-174.451,17.9573
406.233,85.8034,16.4447,0,9.52978,0.617915,1.33882,-8.38415,1.64634,-10.0915,-34.5985,-1.30768,15.5341,-10.0305,-172.409,17.1646
406.243,85.7048,16.795,0,9.53697,0.684976,1.20948,-8.17073,0.97561,-10.2439,-34.6943,-1.71962,15.7544,-10.5183,-175.213,17.9573
406.253,85.6096,17.1664,0,9.63037,0.742456,1.22146,-7.71341,0.396341,-9.48171,-34.5985,-2.05493,16.3484,-9.57317,-178.018,17.2561
406.263,85.5297,17.5396,0,9.87467,0.699346,1.22386,-7.95732,-0.182927,-8.84146,-34.7517,-2.40939,16.7316,-4.84756,-178.201,17.9878
406.273,85.4591,17.9062,0,9.88425,0.613125,1.2023,-8.53659,-0.518293,-9.08537,-34.5218,-2.58183,16.7891,-2.28659,-174.085,18.1098
406.283,85.3848,18.2717,0,9.90101,0.62989,1.21667,-9.32927,-1.40244,-9.42073,-34.2919,-2.85965,16.9424,0.0914634,-170.518,19.4512
406.293,85.2925,18.6635,0,9.73096,0.713716,1.20948,-10.4878,-2.13415,-10.2744,-33.6883,-2.62015,17.4118,1.28049,-168.415,20.5793
406.303,85.2014,19.0929,0,9.77647,0.720901,1.0586,-10.5183,-2.10366,-10.3049,-33.5351,-2.31359,18.3315,0.0914634,-170.488,20.4878
406.313,85.1033,19.5188,0,9.75491,0.819097,1.03704,-10.2744,-0.762195,-10,-33.104,-2.04535,18.3602,0.426829,-168.628,20.122
406.323,85.0199,19.9285,0,9.75491,0.749641,1.07057,-10.7012,-0.365854,-9.54268,-32.874,-1.48012,18.2548,1.64634,-165.945,20.8232
406.333,84.9333,20.382,0,9.68785,0.756826,1.15679,-11.1585,-1.4939,-9.87805,-32.6537,-1.09692,19.2895,1.58537,-163.75,21.5854
406.343,84.8418,20.8507,0,9.79084,0.843047,1.04902,-11.0976,-1.46341,-9.63415,-32.7591,-0.799937,19.9984,-0.152439,-164.573,20.0915
406.353,84.7529,21.3184,0,9.82677,0.821492,1.06339,-10.9146,-1.0061,-9.84756,-32.7782,-0.368833,20.3529,-2.37805,-166.402,18.4146
406.363,84.6461,21.7748,0,9.62798,0.943638,1.05381,-10.5488,-1.95122,-10.1829,-32.7687,-0.378413,20.487,-5.09146,-167.591,17.5305
406.373,84.5333,22.2288,0,10.1094,1.04183,1.1065,-11.0366,-1.7378,-10.4268,-32.7878,-0.263452,20.8127,-6.7378,-168.72,18.1707
406.383,84.425,22.6618,0,9.98484,1.08015,0.907712,-10.3963,-1.12805,-9.60366,-32.5771,-0.301772,20.6211,-7.46951,-167.348,18.0183
406.393,84.3239,23.1287,0,9.97526,1.13284,0.895737,-10.1829,-1.82927,-8.47561,-32.0885,-0.483794,21.3396,-9.05488,-166.951,17.3476
406.403,84.248,23.5997,0,9.98723,1.0083,0.850232,-9.72561,0.335366,-7.56098,-32.0406,-0.531694,21.7611,-9.08537,-170.061,17.1341
406.413,84.1956,24.0687,0,9.99442,0.876577,0.914897,-9.32927,1.18902,-6.85976,-31.7819,-0.780776,21.9144,-9.57317,-172.713,16.128
406.423,84.1432,24.5445,0,9.86748,0.840652,0.981958,-9.48171,1.70732,-7.2561,-31.255,-0.713716,22.0773,-10.0915,-171.494,14.3598
406.433,84.0863,25.0106,0,9.69983,0.835862,1.02507,-9.54268,0.609756,-7.71341,-30.7185,-0.953218,21.8953,-10.4573,-168.262,13.4146
406.443,84.0306,25.4669,0,9.73575,0.843047,0.876577,-8.90244,0.152439,-7.65244,-30.3353,-0.895737,21.8186,-10.5488,-163.415,12.8659
406.453,83.9764,25.9663,0,9.76689,0.881367,0.819097,-8.47561,0.365854,-7.19512,-29.8276,-0.991538,22.7096,-13.1098,-160.122,14.1159
406.463,83.9288,26.4674,0,9.68306,0.859812,0.962798,-6.43293,-0.579268,-6.79878,-29.7222,-0.981958,23.0832,-13.4146,-158.872,15.0305
406.473,83.8916,26.964,0,9.75491,0.823887,0.936453,-5.88415,-0.823171,-6.34146,-29.6456,-0.598755,23.3514,-15.2134,-158.11,15.5488
406.483,83.8528,27.4449,0,9.69743,0.821492,1.01788,-5.18293,-1.76829,-6.55488,-29.8659,-0.589175,23.6197,-15.3963,-155.274,17.0122
406.493,83.8176,27.9002,0,9.74294,0.792751,0.953218,-4.7561,-1.37195,-6.64634,-29.818,-0.541274,23.4472,-14.1463,-154.177,19.1463
406.503,83.7848,28.3434,0,9.80042,0.809517,0.886157,-3.38415,-0.914634,-6.34146,-29.7605,-0.502954,23.5335,-13.811,-152.896,20.7622
406.513,83.7553,28.7893,0,9.90101,0.831072,0.862207,-2.04268,-1.0061,-5.91463,-29.406,-0.828677,23.6963,-11.5549,-149.634,21.4634
406.523,83.7292,29.2284,0,10.0375,0.852627,0.778381,-0.97561,0,-5.51829,-29.4827,-1.04902,24.0029,-9.69512,-146.555,21.3415
406.533,83.7106,29.6843,0,10.0016,0.809517,0.799937,0.0914634,0.396341,-5.27439,-28.8025,-0.953218,24.1945,-6.61585,-143.902,20.122
406.543,83.6907,30.1351,0,9.94173,0.809517,0.847837,0.731707,0.243902,-5.39634,-28.2181,-1.02028,23.9933,-5.03049,-139.878,19.4817
406.553,83.6727,30.6017,0,9.80042,0.766406,0.866997,1.0061,0.701219,-5.60976,-28.1702,-1.24062,24.7118,-4.2378,-133.323,17.5305
406.563,83.6469,31.0293,0,9.65672,0.807122,0.910107,0.823171,1.79878,-5.82317,-27.9211,-1.1544,24.0891,-4.63415,-124.36,15.061
406.573,83.6174,31.4918,0,9.7621,0.845442,0.862207,0.853659,3.47561,-5.88415,-27.4709,-0.857417,24.8555,-3.38415,-114.909,14.7561
406.583,83.5857,31.945,0,9.81719,0.900527,0.847837,1.7378,4.42073,-5.57927,-27.5188,-0.934058,25.1142,-4.08537,-111.646,13.8415
406.593,83.5496,32.3749,0,9.81719,0.996328,0.871787,2.59146,4.96951,-4.96951,-28.0265,-0.914897,25.4782,-5.91463,-106.463,12.622
406.603,83.5173,32.7714,0,9.94891,1.00351,0.900527,3.38415,5.30488,-4.72561,-28.1415,-0.656235,25.2387,-6.25,-101.159,11.7378
406.613,83.4758,33.1216,0,9.73096,1.07536,0.989143,3.38415,4.11585,-4.60366,-28.4289,-0.656235,24.8364,-5.60976,-95.5488,11.128
406.623,83.4308,33.4761,0,9.72378,1.1065,1.06818,2.77439,3.41463,-4.66463,-28.5247,-0.876577,25.3345,-5.4878,-93.6585,9.81707
406.633,83.3948,33.8245,0,9.63037,1.01549,1.16398,2.28659,3.17073,-4.81707,-28.6396,-0.838257,25.6219,-4.72561,-92.2256,8.90244
406.643,83.3531,34.1796,0,9.64474,1.07057,1.22864,1.61585,4.17683,-4.81707,-28.4193,-1.1544,25.8997,-3.96341,-90.3659,5.82317
406.653,83.3095,34.5224,0,9.59205,1.08494,1.2981,0.823171,4.39024,-4.84756,-28.6109,-0.876577,26.1201,-4.87805,-89.7256,6.40244
406.663,83.2669,34.8572,0,9.77168,1.13045,1.19032,1.31098,5.27439,-4.54268,-28.1319,-0.646655,25.8231,-5.45732,-86.2805,4.5122
406.673,83.2217,35.1765,0,9.83156,1.22146,1.2023,1.58537,5.60976,-3.87195,-27.7391,-0.455054,25.4303,-6.52439,-82.2256,3.62805
406.683,83.1648,35.532,0,9.63995,1.32205,1.17116,0.701219,4.63415,-3.59756,-27.1931,-0.263452,26.0243,-6.31098,-83.0793,1.43293
406.693,83.1205,35.8838,0,9.63995,1.28373,1.22386,0.182927,3.5061,-2.80488,-26.9919,-0.512534,26.0913,-8.10976,-78.0488,2.10366
406.703,83.0739,36.2369,0,9.58726,1.31966,1.32205,-0.487805,2.71341,-2.46951,-27.0398,-0.684976,26.5129,-9.20732,-73.75,1.25
406.713,83.038,36.5553,0,9.5681,1.2502,1.35558,-1.31098,2.07317,-2.40854,-27.2601,-0.656235,26.2638,-7.5,-69.3598,0.731707
406.723,83.0171,36.8565,0,9.51781,1.15919,1.43462,-1.98171,1.46341,-2.19512,-27.2697,-0.876577,26.1871,-8.65854,-65.2439,0.762195
406.733,83.003,37.1566,0,9.58487,1.11368,1.4442,-2.46951,1.28049,-2.31707,-27.4709,-0.694556,26.6374,-6.95122,-64.1768,1.18902
406.743,82.9765,37.4311,0,9.61361,1.19751,1.44659,-2.89634,0.914634,-2.46951,-27.7966,-0.914897,26.6374,-7.31707,-62.1951,0.487805
406.753,82.9575,37.7014,0,9.71659,1.19032,1.41306,-3.04878,0.609756,-2.04268,-27.5379,-0.866997,26.5512,-6.95122,-60.9451,-0.152439
406.763,82.9538,37.9728,0,9.9537,1.13763,1.27176,-2.86585,0.731707,-1.7378,-27.4326,-0.502954,26.7332,-3.44512,-59.3598,1.12805
406.773,82.9305,38.249,0,9.86269,1.26936,1.32684,-2.9878,-0.0609756,-1.61585,-27.2984,-0.311353,26.9823,-2.43902,-56.7683,0.884146
406.783,82.9089,38.5071,0,9.67588,1.2502,1.29092,-3.87195,-1.03659,-1.31098,-27.2601,-0.282612,26.7811,-1.7378,-55.4573,1.79878
406.794,82.9107,38.7684,0,9.63037,1.11847,1.31247,-4.42073,-1.76829,-1.31098,-27.3176,-0.541274,27.1739,-1.25,-51.9207,1.76829
406.803,82.9193,39.0064,0,9.64714,1.08734,1.34121,-4.93902,-1.58537,-1.25,-27.1739,-0.205972,26.7428,-0.640244,-48.0488,1.85976
406.813,82.9659,39.2379,0,9.72378,0.938848,1.25978,-4.60366,-1.58537,-0.914634,-27.2984,-0.464634,26.944,-2.46951,-45.7012,3.41463
406.823,83.0056,39.4601,0,9.75731,0.950823,1.21906,-3.47561,-1.34146,-1.0061,-27.0398,-0.359253,26.6949,0.396341,-43.75,2.5
406.833,83.0394,39.6926,0,9.8076,0.984353,1.10171,-3.59756,-1.4939,-0.945122,-26.9536,-0.311353,27.0685,-0.182927,-42.439,3.17073
406.843,83.0625,39.9112,0,9.70222,1.03225,1.04902,-3.2622,-2.04268,-0.914634,-27.0685,-0.301772,27.0781,1.18902,-40.8841,3.62805
406.853,83.0917,40.1414,0,9.69264,1.01788,1.09931,-2.9878,-2.65244,-0.762195,-26.9536,-0.110171,27.4517,0.426829,-40.3963,4.48171
406.863,83.1326,40.3622,0,9.67827,0.938848,1.12805,-2.83537,-2.7439,-0.914634,-27.1931,-0.177231,27.6912,-0.121951,-39.7866,3.96341
406.873,83.1728,40.5635,0,9.69743,0.898132,1.13763,-2.92683,-2.62195,-1.15854,-27.3655,-0.215552,27.605,-4.45122,-39.6341,4.54268
406.883,83.2083,40.7479,0,9.77886,0.902922,1.09452,-3.07927,-2.2561,-1.25,-27.3463,0.0814307,27.3751,-5.60976,-38.1707,5.97561
406.893,83.2453,40.9255,0,9.81719,0.878972,1.0562,-1.98171,-2.13415,-1.31098,-27.3463,-0.119751,27.3942,-7.40854,-37.1341,4.63415
406.903,83.2752,41.1224,0,9.89862,0.929268,0.898132,-0.945122,-1.18902,-1.21951,-26.8098,-0.100591,27.4805,-9.93902,-38.3841,7.0122
406.913,83.3037,41.3255,0,9.93215,0.919688,0.926873,-0.670732,-1.25,-1.31098,-26.8003,0.158071,27.8253,-11.372,-35.2439,6.4939
406.923,83.3362,41.5069,0,9.86748,0.907712,0.898132,-0.97561,-1.03659,-1.18902,-26.829,0.0526904,27.5379,-14.6646,-32.5,6.37195
406.933,83.3732,41.6807,0,9.81,0.890947,0.938848,-0.945122,-0.548781,-1.09756,-27.0398,0.148491,27.7583,-15.4268,-29.2073,6.09756
406.943,83.3908,41.8266,0,9.7597,0.936453,1.01549,-0.97561,-0.670732,-1.52439,-27.2026,-0.138911,27.423,-16.189,-26.9817,5.51829
406.953,83.4079,41.9594,0,9.77647,0.898132,1.02986,-0.731707,-0.0914634,-1.85976,-27.2889,-0.340093,27.3463,-16.4939,-24.2683,3.78049
406.963,83.4274,42.0843,0,9.85072,0.888552,1.0586,0,0.304878,-1.79878,-27.1547,-0.598755,27.1643,-16.2805,-20.5793,2.89634
406.973,83.435,42.2103,0,9.88185,0.941243,1.06099,0.213415,0.213415,-2.04268,-27.2601,-0.550855,27.4134,-16.189,-21.7378,2.71341
406.983,83.4395,42.3472,0,9.9537,0.967588,1.04902,0.579268,0.579268,-2.04268,-27.1356,-0.723296,27.6721,-15.5488,-21.2805,2.34756
406.993,83.4398,42.4776,0,9.9058,0.972378,1.03944,0.548781,1.52439,-2.2561,-27.1068,-0.876577,27.605,-15.7622,-23.8415,3.56707
407.003,83.4328,42.6043,0,9.91059,1.02746,1.07297,-0.396341,1.98171,-2.2561,-26.9631,-0.694556,27.4996,-15.3659,-22.8354,4.48171
407.013,83.4244,42.7314,0,9.87227,1.02746,1.04183,0.121951,2.80488,-2.34756,-26.9823,-0.627495,27.6529,-14.8476,-22.2866,3.87195
407.023,83.416,42.8434,0,9.84832,1.01549,1.09692,0.548781,2.80488,-2.46951,-26.9344,-0.819097,27.3559,-14.3902,-23.4451,4.96951
407.033,83.3996,42.9358,0,9.97765,1.11129,0.996328,0.731707,5.03049,-2.22561,-26.9919,-1.03944,27.0494,-13.7805,-23.4451,4.05488
407.043,83.4036,43.0342,0,10.1118,0.993933,0.974773,0.396341,5.57927,-1.98171,-26.9536,-0.723296,27.2505,-14.7561,-21.311,2.37805
407.053,83.3608,43.1098,0,9.58966,1.25499,1.18074,0.457317,4.32927,-2.22561,-27.1547,-0.790356,27.0014,-12.9878,-21.311,2.80488
407.063,83.322,43.2072,0,9.63756,1.22146,1.17835,-0.152439,3.56707,-2.59146,-27.1739,-0.435894,27.6146,-11.1585,-21.9817,2.22561
407.073,83.3089,43.3121,0,9.69504,1.1065,1.20469,-0.182927,1.61585,-1.79878,-27.011,-0.378413,27.7104,-11.0366,-25.0915,2.80488
407.083,83.3015,43.3963,0,9.7597,1.09692,1.19272,-1.06707,1.61585,-1.55488,-27.0781,-0.541274,27.3751,-10.3659,-25.4878,2.62195
407.093,83.2959,43.4715,0,9.77168,1.06339,1.27894,-1.28049,2.59146,-1.85976,-26.9823,-0.464634,27.1452,-11.0061,-24.6037,2.86585
407.103,83.2903,43.5476,0,9.7597,1.06578,1.28613,-1.37195,2.80488,-1.82927,-27.1068,-0.646655,27.3655,-10.7317,-24.3902,2.92683
407.113,83.2829,43.6303,0,9.72617,1.08494,1.32684,-1.15854,1.18902,-1.70732,-27.0206,-0.752036,27.5188,-11.0366,-23.2317,2.59146
407.123,83.2786,43.7221,0,9.7118,1.04183,1.28613,-0.701219,0.701219,-1.98171,-27.0685,-0.617915,27.8637,-10.6402,-23.628,3.56707
407.133,83.2828,43.814,0,9.70941,0.991538,1.19272,-1.06707,0.426829,-1.92073,-26.9536,-0.522114,27.8445,-9.57317,-22.9573,3.59756
407.143,83.2718,43.8932,0,9.94652,1.08015,1.16158,-1.46341,1.79878,-2.34756,-26.8577,-0.579595,27.5284,-8.44512,-21.7073,4.63415
407.153,83.2652,43.9676,0,9.81719,1.06339,1.22864,-1.21951,2.13415,-2.04268,-26.8098,-0.771196,27.4517,-7.04268,-18.872,4.17683
407.163,83.2745,44.0525,0,9.92975,0.960403,1.20709,-1.03659,1.43293,-2.04268,-26.7332,-0.675395,27.7008,-7.43902,-18.75,5.03049
407.173,83.2663,44.1331,0,9.82916,1.07297,1.22625,-0.579268,1.46341,-2.07317,-26.8386,-0.368833,27.787,-7.71341,-18.811,6.67683
407.183,83.2635,44.218,0,9.74773,1.03225,1.14961,-1.15854,0.457317,-2.04268,-26.647,-0.340093,27.7774,-6.89024,-17.8963,7.5
407.193,83.273,44.3054,0,9.69025,0.938848,1.1065,-1.89024,0.0304878,-2.10366,-26.6661,-0.0910107,27.9403,-7.56098,-17.4085,9.48171
407.203,83.2814,44.3818,0,9.8076,0.912502,1.16877,-1.43293,1.18902,-2.46951,-27.0206,-0.0143701,28.1223,-8.17073,-18.3537,7.89634
407.213,83.2881,44.4435,0,9.90101,0.948428,1.11847,-0.548781,1.89024,-2.28659,-27.4326,-0.129331,28.2564,-9.87805,-18.5671,8.68902
407.223,83.2912,44.5359,0,9.89383,0.986748,1.09931,-0.27439,1.55488,-2.16463,-26.7428,0.253872,28.3618,-10.0915,-19.0549,10.2134
407.233,83.2921,44.6128,0,9.91778,1.02986,1.1041,0.701219,0.945122,-1.89024,-26.9344,0.0143701,28.266,-10.1524,-19.2683,10.4268
407.243,83.2824,44.6893,0,9.82677,1.07057,1.10889,1.28049,0.823171,-2.19512,-26.7715,-0.129331,28.1606,-11.2805,-19.6341,8.81098
407.253,83.281,44.7746,0,9.74294,1.02267,1.08494,0.731707,1.15854,-2.0122,-26.6757,0.0910107,28.3522,-12.0427,-19.6951,7.65244
407.263,83.272,44.8502,0,9.68785,1.02507,1.19511,0.304878,1.37195,-2.53049,-26.5991,0.100591,28.1223,-12.6524,-18.1098,7.7439
407.273,83.2705,44.9196,0,9.77647,0.986748,1.27655,0.152439,1.28049,-2.43902,-26.532,-0.0335303,27.969,-13.9939,-18.4756,7.2561
407.283,83.2703,44.9948,0,9.77407,0.974773,1.26697,0.914634,4.39024,-2.46951,-26.4841,-0.483794,28.1319,-15.9146,-18.5366,6.46341
407.293,83.2753,45.0577,0,9.78844,0.955613,1.10171,1.52439,2.62195,-2.28659,-26.4266,-0.0239502,27.8541,-15.8537,-15.5488,7.10366
407.303,83.2656,45.1275,0,9.7621,1.05141,1.15679,1.85976,1.37195,-2.37805,-26.5224,-0.0143701,28.1894,-15.8841,-15.3049,5.2439
407.313,83.252,45.1994,0,9.78844,1.09452,1.21667,1.4939,0.884146,-2.2561,-26.2734,0.378413,28.0553,-17.8049,-12.9878,6.21951
407.323,83.2439,45.2888,0,9.69504,1.05381,1.26218,0.152439,0.121951,-2.19512,-26.0722,0.263452,28.3522,-17.3476,-11.7073,5.39634
407.333,83.2477,45.3735,0,9.68546,0.979563,1.37953,-0.243902,0.97561,-2.10366,-26.1392,0.273032,28.3906,-19.939,-12.5,5.91463
407.343,83.2342,45.4167,0,9.67109,1.05381,1.43941,0.0304878,1.61585,-2.62195,-26.4458,-0.0718506,27.787,-19.9085,-10.0305,6.43293
407.353,83.2201,45.4761,0,9.6663,1.06099,1.42264,-0.121951,1.79878,-2.62195,-26.2734,-0.100591,28.0457,-20.3354,-9.69512,6.18902
407.363,83.2069,45.5311,0,9.7118,1.06578,1.27176,0.548781,1.46341,-2.56098,-26.3308,-0.320933,28.0553,-19.6646,-9.60366,5.88415
407.373,83.19,45.5749,0,9.7621,1.13284,1.18793,0.853659,0.701219,-2.16463,-26.4458,-0.0814307,27.9595,-19.0549,-8.93293,4.39024
407.383,83.1684,45.6258,0,9.73096,1.15679,1.18314,0.27439,0,-2.28659,-26.3021,-0.0526904,28.0265,-20.3049,-8.65854,4.57317
407.393,83.1509,45.6925,0,9.73815,1.152,1.21906,0.213415,0.0609756,-2.0122,-26.2734,-0.00479004,28.4385,-18.9939,-8.90244,3.81098
407.403,83.1765,45.7684,0,10.0615,0.900527,1.26457,0.0609756,0.640244,-1.76829,-26.0339,0.110171,28.4768,-19.9085,-8.38415,4.26829
407.413,83.1539,45.835,0,9.64714,1.19511,1.37235,0.396341,-0.0914634,-1.64634,-26.0243,-0.0526904,28.3139,-19.4207,-7.95732,3.78049
407.423,83.1592,45.9062,0,9.69504,1.03704,1.38432,0.945122,0,-1.58537,-25.8423,-0.311353,28.3043,-19.9695,-5.64024,4.14634
407.433,83.1539,45.9788,0,9.8124,1.09452,1.2502,1.70732,-0.914634,-1.79878,-25.8135,-0.426313,28.3906,-18.9329,-3.65854,4.17683
407.443,83.1471,46.0293,0,9.84114,1.11847,1.13045,0.853659,-1.03659,-1.67683,-25.9285,-0.359253,28.0361,-19.1159,-3.65854,4.90854
407.453,83.1526,46.0785,0,9.83874,1.08255,1.08494,0.670732,-1.03659,-1.21951,-25.986,-0.387993,28.1223,-18.75,-1.95122,6.15854
407.463,83.1545,46.1108,0,9.80521,1.07536,1.19751,1.09756,-0.823171,-1.4939,-26.0722,-0.282612,27.8541,-18.2012,-0.609756,5.91463
407.473,83.1509,46.1643,0,9.73336,1.12326,1.28852,1.46341,-0.457317,-1.21951,-25.9381,-0.273032,28.266,-17.622,-0.365854,6.67683
407.483,83.1426,46.215,0,9.64953,1.14003,1.28852,1.15854,-0.731707,-1.21951,-25.8327,-0.445474,28.1415,-19.1768,0.945122,5.42683
407.493,83.1333,46.2576,0,9.67348,1.15679,1.3005,0.548781,-1.12805,-1.09756,-26.0434,-0.215552,28.2181,-18.628,0.884146,5.15244
407.503,83.134,46.2834,0,9.68306,1.11368,1.25739,0.823171,-0.396341,-1.0061,-26.2638,-0.445474,28.084,-18.3537,1.92073,5.60976
407.513,83.1413,46.3178,0,9.75252,1.11129,1.21427,1.21951,-0.792683,-0.701219,-26.0147,-0.340093,28.0553,-18.2317,1.7378,3.9939
407.523,83.1504,46.3568,0,9.81719,1.10171,1.20469,0.914634,-0.914634,-0.762195,-25.986,-0.531694,28.1798,-19.5122,3.53659,5
407.533,83.1501,46.3801,0,9.79803,1.13763,1.18793,0.548781,-1.64634,-0.853659,-26.0434,-0.493374,27.8924,-19.9695,3.5061,4.5122
407.543,83.1577,46.3991,0,9.77647,1.11129,1.24781,0.121951,-1.52439,-0.670732,-25.9764,-0.522114,27.7487,-19.1768,5.85366,5.33537
407.553,83.1602,46.4095,0,9.67827,1.12326,1.26457,-0.304878,-1.12805,-0.670732,-26.1297,-0.589175,27.72,-18.5366,6.40244,5.18293
407.563,83.1686,46.4253,0,9.66869,1.09692,1.22386,-0.426829,-0.762195,-0.670732,-26.0243,-0.502954,27.7583,-18.2317,7.62195,4.84756
407.573,83.1834,46.4421,0,9.75012,1.08734,1.2023,0.152439,-0.457317,-0.518293,-26.1297,-0.397573,27.9116,-17.8659,7.80488,4.08537
407.583,83.1909,46.4437,0,9.8124,1.13524,1.13524,-0.0609756,-0.396341,-0.27439,-26.3883,-0.541274,27.8349,-17.5915,9.45122,3.35366
407.593,83.1942,46.4453,0,9.77168,1.152,1.17835,-0.0914634,-0.701219,-0.121951,-26.4937,-0.493374,27.9499,-18.5061,9.39024,2.9878
407.603,83.2137,46.4518,0,9.85311,1.11129,1.17835,-0.243902,-0.792683,0.182927,-26.7619,-0.407153,28.3522,-18.2317,9.02439,4.32927
407.613,83.2426,46.4509,0,9.81719,1.05381,1.20469,-0.152439,-0.304878,-0.243902,-26.8098,-0.550855,28.2277,-18.6585,9.20732,5.45732
407.623,83.265,46.4528,0,9.81719,1.07776,1.18553,-0.335366,-0.213415,-0.182927,-26.8961,-0.301772,28.381,-19.5732,8.17073,4.60366
407.633,83.3002,46.424,0,9.88664,1.00112,1.24062,-0.243902,-0.396341,-0.426829,-27.0494,-0.282612,27.7774,-18.7805,7.16463,4.29878
407.643,83.3411,46.41,0,9.87227,0.972378,1.16637,-0.0609756,0.243902,-0.426829,-27.0206,-0.483794,28.0936,-17.7134,8.93293,5.18293
407.653,83.3815,46.3994,0,9.8603,0.950823,1.14721,0.335366,0.457317,-0.548781,-26.9919,-0.426313,28.1319,-17.7134,8.75,4.32927
407.663,83.4141,46.3729,0,9.87227,0.950823,1.10889,0.579268,-0.0304878,-0.762195,-27.0877,-0.445474,27.8349,-16.9817,9.87805,3.59756
407.673,83.4414,46.3537,0,9.83635,0.984353,1.08015,0.518293,-0.121951,-0.640244,-26.9727,-0.407153,27.8828,-16.8902,12.622,3.2622
407.683,83.4688,46.3184,0,9.78126,0.948428,1.11608,0.914634,-0.0914634,-0.884146,-26.8577,-0.522114,27.3559,-16.6159,13.0488,4.17683
407.693,83.4862,46.2931,0,9.73336,0.996328,1.16398,0.518293,-0.121951,-0.823171,-26.829,-0.0718506,27.5379,-16.5549,13.5366,3.29268
407.703,83.4999,46.2741,0,9.7597,1.0083,1.22146,0.640244,0.640244,-0.853659,-26.7045,0.0526904,27.5379,-16.9512,13.6585,3.10976
407.713,83.5336,46.2641,0,9.75731,0.958008,1.19511,1.52439,1.43293,-0.487805,-26.7428,-0.0431104,27.7774,-17.1037,13.1098,3.44512
407.723,83.5559,46.2395,0,9.78126,0.977168,1.17595,2.13415,1.37195,-0.701219,-26.7715,-0.0335303,27.4421,-18.8415,13.1402,1.7378
407.733,83.5769,46.2308,0,9.8076,0.986748,1.14721,2.28659,1.15854,-0.640244,-26.8386,-0.0910107,27.8732,-18.5366,13.2012,1.34146
407.743,83.5975,46.2176,0,9.81,1.0107,1.18314,2.04268,1.25,-0.365854,-27.0302,-0.330513,27.9499,-17.3476,12.1646,1.79878
407.753,83.6101,46.2015,0,9.80042,1.04183,1.12087,2.28659,1.28049,-0.304878,-27.0685,-0.407153,27.902,-18.4756,11.4024,-0.365854
407.763,83.6259,46.1841,0,9.80042,1.02507,1.20709,2.62195,1.31098,-0.335366,-27.0589,-0.531694,27.8349,-18.2012,9.93902,-0.0609756
407.773,83.6365,46.1566,0,9.76928,1.02746,1.16877,2.56098,1.25,-0.518293,-26.9823,-0.474214,27.49,-18.7195,9.05488,-0.365854
407.783,83.6525,46.1562,0,9.77647,1.0107,1.2526,2.53049,1.15854,-0.426829,-26.8577,-0.570015,27.9882,-19.6037,6.70732,-1.0061
407.793,83.6512,46.1415,0,9.72378,1.04902,1.28134,2.28659,0.853659,-0.853659,-26.7811,-0.483794,27.5475,-20.4268,4.87805,1.0061
407.803,83.643,46.1382,0,9.70701,1.06578,1.26697,2.34756,0.518293,-1.12805,-27.0206,-0.311353,28.0553,-23.0488,3.29268,1.03659
407.813,83.6337,46.1363,0,9.67348,1.08734,1.20469,2.56098,0.487805,-0.731707,-26.8194,0.0814307,27.8637,-25.3049,0.914634,3.53659
407.823,83.6053,46.1246,0,9.69983,1.17356,1.24781,2.31707,0.97561,-0.335366,-26.829,0.148491,27.6242,-25.7012,-1.06707,3.29268
407.833,83.5805,46.113,0,9.69743,1.16158,1.21188,2.10366,1.21951,-0.121951,-27.1452,0.234712,27.9307,-26.7683,-2.43902,2.53049
407.843,83.5717,46.0658,0,9.71899,1.13524,1.28373,2.13415,1.31098,0.304878,-27.423,0.273032,27.3272,-26.3415,-4.42073,0.0609756
407.853,83.5746,46.0071,0,9.67827,1.10889,1.32924,1.85976,1.4939,0.731707,-27.4996,-0.0239502,27.0781,-23.75,-5.45732,-0.121951
407.863,83.5862,45.9405,0,9.66869,1.07297,1.40109,1.43293,0.396341,0.853659,-27.902,-0.359253,27.2218,-23.5976,-6.25,-3.35366
407.873,83.6111,45.8823,0,9.66151,1.0083,1.37714,1.09756,0.0304878,0.579268,-27.8253,-0.675395,27.2793,-21.9207,-8.17073,-5.70122
407.883,83.652,45.814,0,9.65672,0.943638,1.36037,1.7378,-0.457317,0.487805,-27.9116,-0.732876,27.0494,-20.6402,-10.9451,-5.67073
407.893,83.6843,45.7533,0,9.69025,0.974773,1.38672,1.98171,-0.762195,0.304878,-27.7583,-0.828677,27.0014,-19.5122,-14.939,-5.73171
407.903,83.736,45.6945,0,9.6663,0.914897,1.36516,1.64634,-1.4939,0.121951,-27.8732,-0.876577,27.0877,-16.4939,-17.439,-5.88415
407.913,83.783,45.6405,0,9.59205,0.917292,1.30289,1.55488,-1.92073,-0.0914634,-27.9978,-0.589175,27.2601,-16.5244,-19.5732,-3.10976
407.923,83.8327,45.5677,0,9.52499,0.850232,1.33882,1.64634,-2.7439,-0.487805,-27.9882,-0.627495,26.7428,-14.7866,-21.5549,-1.28049
407.933,83.8678,45.4673,0,9.48667,0.843047,1.34361,1.61585,-3.62805,-0.884146,-28.678,-0.627495,26.6566,-10.7317,-25.122,2.10366
407.943,83.9126,45.3714,0,9.57529,0.809517,1.28613,2.22561,-3.59756,-0.792683,-28.563,-0.799937,26.5512,-10.4573,-27.2256,2.77439
407.953,83.9339,45.2767,0,9.61361,0.835862,1.23104,2.04268,-3.75,-1.37195,-28.4001,-0.493374,26.3213,-8.41463,-31.7378,2.04268
407.963,83.9492,45.1637,0,9.7142,0.792751,1.19032,2.53049,-3.84146,-2.04268,-28.678,-0.646655,26.053,-6.37195,-34.1463,0.518293
407.973,83.9607,45.068,0,9.83635,0.831072,1.152,3.17073,-3.93293,-1.95122,-28.4672,-0.838257,26.1488,-5.73171,-35.8537,1.12805
407.983,83.9611,44.9995,0,9.94173,0.924478,1.09452,3.04878,-3.35366,-1.82927,-28.6013,-0.914897,26.8003,-5.82317,-40.3049,-0.0609756
407.993,83.9647,44.9223,0,9.96089,0.866997,1.06818,3.44512,-2.19512,-2.19512,-28.927,-1.2502,26.8194,-5.82317,-43.2927,0.152439
408.003,83.9658,44.8418,0,9.98244,0.862207,1.0562,3.9939,-0.762195,-2.43902,-29.1857,-1.31726,26.8961,-3.96341,-46.311,0.487805
408.013,83.9597,44.7555,0,9.96089,0.926873,1.02267,4.20732,-1.0061,-2.31707,-29.6935,-1.45138,27.1164,-2.16463,-52.3171,1.37195
408.023,83.9525,44.6647,0,9.91059,0.905317,1.03465,4.35976,-0.121951,-2.62195,-29.4635,-1.55676,26.6853,-1.25,-59.4207,2.89634
408.033,83.953,44.5622,0,9.9058,0.833467,1.02028,5.12195,-0.0609756,-2.7439,-29.2911,-1.71962,26.1392,0.304878,-67.0732,2.5
408.043,83.9571,44.4648,0,9.81,0.797541,1.06818,6.34146,-0.518293,-2.77439,-29.8467,-1.66214,26.6087,1.55488,-77.5915,3.56707
408.053,83.9635,44.3776,0,9.78605,0.728086,1.08973,7.43902,-1.67683,-3.2622,-29.9521,-1.47054,26.8098,2.7439,-87.3171,3.96341
408.063,83.9683,44.2879,0,9.77168,0.665815,1.14961,8.23171,-2.71341,-4.02439,-29.9234,-1.47054,26.6087,4.90854,-94.4512,5.30488
408.073,83.9585,44.1623,0,9.81479,0.670605,1.29571,8.71951,-4.20732,-5.36585,-30.0096,-1.2023,25.7656,6.15854,-94.3598,7.0122
408.083,83.9259,44.1026,0,9.82677,0.752036,1.16877,8.07927,-6.7378,-6.7378,-29.4156,-1.18314,26.6566,6.4939,-95.4573,9.08537
408.093,83.888,44.0955,0,9.9082,0.754431,1.13763,6.76829,-8.62805,-7.37805,-29.7797,-1.21188,28.1606,7.7439,-106.128,9.63415
408.103,83.8499,44.0842,0,10.0567,0.708926,1.12326,7.16463,-9.2378,-8.14024,-30.1437,-1.09692,28.3522,11.0671,-113.628,9.45122
408.113,83.8004,44.0872,0,10.277,0.773591,1.13045,7.0122,-9.17683,-8.81098,-30.0862,-1.49928,28.6492,15.3354,-113.598,10.3049
408.123,83.7171,44.073,0,10.6674,0.986748,0.682581,1.34146,-9.11585,-10.3659,-29.6647,-1.03944,27.8445,19.5427,-109.268,11.1585
408.133,83.6103,44.1037,0,11.3811,1.05381,0,-9.66463,-9.29878,-12.9268,-29.3581,-1.08734,28.678,22.3171,-105.335,14.2683
408.143,83.4867,44.1061,0,11.7069,0.986748,-0.66342,-18.5976,-10.8232,-15.8232,-29.4156,-1.17356,28.0744,24.5732,-100.915,15.4573
408.153,83.3629,44.129,0,11.3979,0.673001,-0.249082,-22.439,-13.0793,-19.0244,-29.4348,-1.45138,28.6301,26.4634,-96.8293,15.6098
408.163,83.2002,44.18,0,10.7896,0.752036,0.754431,-21.5244,-20.5793,-22.0122,-29.7988,-2.46687,29.7318,29.0244,-96.9207,11.5549
408.173,82.9442,44.3006,0,11.3237,1.46336,0.929268,-28.5976,-12.622,-24.9695,-29.818,-2.59141,31.6286,36.3415,-108.78,6.64634
408.183,82.7165,44.4671,0,10.3776,1.02507,0.771196,-28.2012,-0.121951,-26.128,-30.2395,-2.86923,33.4393,46.4634,-126.829,5.03049
408.193,82.5147,44.6765,0,9.50104,0.443079,1.26457,-22.9268,11.5549,-30,-30.4599,-2.87881,35.1158,55.2439,-140.305,6.15854
408.203,82.298,44.9067,0,9.46991,0.289797,1.65496,-21.189,11.8293,-33.811,-29.7414,-2.29443,35.1445,61.1585,-147.226,10.4878
408.213,82.0583,45.1575,0,9.98484,0.304167,1.98308,-19.5122,3.93293,-36.6159,-28.5247,-1.66214,34.6272,62.1341,-145.579,16.6768
408.223,81.8024,45.4612,0,11.1368,0.541274,1.48252,-14.8476,-5.09146,-36.6463,-26.9152,-0.934058,34.608,56.189,-141.463,22.0122
408.233,81.5301,45.8036,0,11.5895,0.756826,1.08494,-12.0427,-5.2439,-36.8902,-25.5261,0.646655,34.4068,45.0915,-137.043,29.1768
408.243,81.2565,46.151,0,11.4889,0.718506,1.0107,-9.17683,-3.5061,-37.8963,-24.6064,1.73878,33.7554,32.1341,-135.213,31.4634
408.253,80.9121,46.4792,0,11.4793,1.30768,0.416733,-10.4573,11.4939,-39.7256,-24.4819,2.12199,33.4393,26.9817,-130.732,31.5854
408.263,80.5525,46.7899,0,10.9548,1.23583,0.469424,-11.6159,23.5671,-42.1037,-23.9167,1.94955,32.5962,25.9451,-119.695,26.9207
408.273,80.1922,47.0627,0,9.90341,0.996328,1.19751,-9.26829,21.9512,-44.3293,-23.7634,1.47054,31.7244,28.1707,-104.207,19.1463
408.283,79.8581,47.3503,0,9.55134,0.63468,1.346,-7.34756,16.128,-46.3415,-23.0545,0.713716,31.619,29.3293,-85.061,11.25
408.293,79.5082,47.6631,0,9.55613,0.64426,1.08734,-4.84756,14.7866,-48.5366,-22.882,0.416733,32.5196,29.939,-76.9817,3.38415
408.303,79.1149,47.9951,0,9.41961,1.09213,1.32684,-2.77439,7.53049,-48.0488,-22.3168,0.464634,32.692,24.2378,-74.2073,0.609756
408.313,78.7193,48.3639,0,9.79803,1.25739,1.06339,0.426829,2.10366,-47.6524,-21.56,0.570015,33.1231,21.4939,-74.2683,2.07317
408.323,78.3076,48.7203,0,9.58966,1.48731,1.11368,2.9878,1.06707,-47.0427,-21.2534,1.24062,32.7495,20.7317,-69.7866,7.68293
408.333,77.878,49.0708,0,9.11544,1.69328,0.989143,4.81707,-2.37805,-46.2195,-20.6211,1.87291,32.0885,20.6402,-60.4878,15.0305
408.343,77.4501,49.3888,0,9.20885,1.75555,0.965193,6.76829,0.0609756,-46.372,-21.081,2.30401,32.2705,25.3659,-51.5549,22.1341
408.353,76.9963,49.6898,0,9.1346,2.14354,1.1544,8.9939,-4.60366,-44.9695,-21.5025,2.32317,32.8261,27.2866,-43.4146,25.5488
408.363,76.5157,49.9797,0,9.23759,2.52914,1.1065,8.59756,-3.44512,-44.3293,-21.5121,2.62015,32.9219,25.6707,-35.0305,22.2561
408.373,76.0297,50.2416,0,9.60403,2.89318,0.747246,10.1829,-3.81098,-42.8963,-21.9815,2.96503,33.1519,24.4817,-28.0488,16.5244
408.383,75.5456,50.4636,0,9.59445,2.96503,0.843047,9.66463,-0.396341,-42.8659,-23.3802,3.11832,34.3111,21.189,-24.0854,13.0793
408.393,75.0274,50.6878,0,9.17292,3.20933,1.15679,9.20732,-3.01829,-43.0183,-23.8688,2.99377,35.4128,18.1098,-21.372,9.78659
408.403,74.5004,50.8536,0,8.96216,3.27639,1.6837,9.66463,-4.08537,-43.3537,-24.4244,2.80217,34.5985,14.6951,-18.9634,8.68902
408.413,74.0051,51.0062,0,9.74054,3.37458,1.5376,9.29878,-4.93902,-43.1707,-24.8651,2.71595,35.0104,11.0976,-18.5061,8.59756
408.423,73.5187,51.1603,0,9.92257,3.32429,1.40109,8.20122,-2.80488,-44.4817,-25.2962,2.48603,35.8534,8.90244,-20.8537,8.62805
408.433,73.016,51.3075,0,9.63037,3.32429,1.57353,8.44512,-4.90854,-46.0671,-25.3058,2.48603,35.8439,12.561,-19.9695,9.11585
408.443,72.5152,51.4695,0,9.57529,3.23567,1.13045,9.5122,-6.82927,-47.6524,-24.8938,2.81175,35.9876,15.061,-14.5732,10.3963
408.453,72.0153,51.6182,0,9.69743,3.27399,1.08973,12.1341,-5.39634,-48.628,-24.7597,2.96503,35.6139,14.6341,-6.55488,10.5488
408.463,71.4865,51.7943,0,9.75012,3.47038,1.16398,10.3354,-4.39024,-50.6707,-24.6543,3.14706,36.6294,11.2195,-1.7378,10.8232
408.473,70.9508,51.9944,0,9.63756,3.44164,1.26218,9.63415,-4.90854,-52.3476,-24.7118,3.09916,37.7886,7.43902,-5.82317,9.87805
408.483,70.3941,52.1942,0,10.1214,3.83203,1.11608,6.40244,-4.05488,-53.3537,-24.5969,2.79259,37.8461,3.78049,-12.3476,9.26829
408.493,69.8093,52.3792,0,9.96089,4.02842,1.27415,6.34146,-4.02439,-54.7561,-24.2328,2.62015,37.051,1.37195,-10.3049,9.32927
408.503,69.215,52.5656,0,9.94891,4.18649,1.18793,6.43293,-6.31098,-55.2744,-23.7155,2.48603,36.6199,0.0914634,-2.71341,9.7561
408.513,68.5946,52.7116,0,9.68067,4.30146,1.25499,5,-1.89024,-56.8293,-23.9454,1.90165,35.8822,-0.396341,6.18902,10.8232
408.523,67.979,52.859,0,9.49146,4.09788,1.05141,6.76829,1.89024,-58.8415,-23.8975,1.93997,36.0929,0.365854,11.189,12.9878
408.533,67.3777,52.9801,0,9.38608,3.88951,1.15679,10.1829,-2.53049,-60.3659,-24.0125,2.22737,35.5756,-0.182927,13.0488,14.5427
408.543,66.7533,53.1158,0,9.12023,3.95178,1.1999,10.9451,-7.19512,-62.0732,-23.9741,2.78301,36.1887,-0.0914634,14.1463,16.8598
408.553,66.144,53.2437,0,9.55134,3.98052,1.11608,10.122,-6.43293,-63.4451,-23.9646,3.10874,36.0929,0.396341,14.4817,17.8963
408.563,65.5418,53.3799,0,9.82916,4.08111,0.617915,9.93902,-8.59756,-64.1159,-23.6963,3.3195,36.1887,-1.09756,20.3049,17.439
408.573,64.9152,53.5289,0,9.51541,4.20326,0.593965,9.02439,-12.2256,-65.2134,-23.7251,3.37698,36.8977,-4.63415,23.5976,17.1037
408.583,64.2554,53.6424,0,9.50583,4.52898,0.505349,7.65244,-12.0732,-66.5244,-23.7442,3.32908,35.9205,-7.59146,28.3537,14.5122
408.593,63.5797,53.7371,0,9.29028,4.6631,0.852627,6.89024,-10.6098,-67.1037,-23.7346,3.28118,35.4702,-8.23171,35.7622,13.628
408.603,62.8744,53.8122,0,9.05796,4.84512,0.529299,6.58537,-12.1037,-68.4451,-24.0699,3.07042,35.4798,-9.69512,43.1098,12.2561
408.613,62.137,53.8641,0,8.50711,4.79004,0.522114,6.76829,-10.1829,-70.6402,-24.2424,3.08,35.087,-14.2683,47.7134,10.4878
408.623,61.3596,53.9148,0,8.14067,4.91219,0.64426,9.72561,-2.0122,-72.7134,-23.8209,3.50152,34.541,-21.8293,53.1707,10.7012
408.633,60.5689,53.953,0,7.97302,5.08463,0.696951,13.0793,-0.335366,-72.7439,-23.543,3.58774,33.8512,-21.9817,60.9146,11.0671
408.643,59.8141,53.9662,0,8.42807,5.30736,0.888552,13.0793,-6.76829,-71.3719,-23.6484,3.85598,33.2956,-23.9329,66.8598,12.6524
408.653,59.1203,53.9969,0,9.03641,5.45106,0.673001,13.4451,-10.061,-68.9329,-23.2652,3.63564,33.353,-26.2805,72.7439,12.5915
408.663,58.4434,54.0304,0,8.70111,5.36005,0.265847,15.2134,-7.7439,-67.5305,-23.361,3.38656,33.65,-30.2439,78.4756,11.0061
408.673,57.7912,54.017,0,8.99569,5.59956,-0.0119751,12.7744,-8.75,-65.8537,-23.2173,2.93629,32.0981,-30.4268,86.6768,8.32317
408.683,57.1412,54.0054,0,8.6101,5.52291,0.579595,12.9268,-9.32927,-65.3659,-23.3419,2.39981,32.3567,-30.8537,94.8171,5.06098
408.693,56.4832,53.9483,0,8.43526,5.55884,0.407153,12.9268,-6.85976,-66.0671,-23.7538,1.66214,31.5903,-29.939,99.8171,2.40854
408.703,55.7887,53.8626,0,8.00176,5.76002,0.450264,12.0732,-11.6768,-66.311,-23.2556,1.31726,30.0958,-30.6707,105.579,-1.82927
408.713,55.07,53.7746,0,7.6449,5.89893,0.617915,11.4329,-15.2439,-66.311,-24.137,0.981958,31.0921,-28.811,108.75,-3.75
408.723,54.3485,53.6755,0,7.49162,5.94923,0.493374,10.7012,-15.3659,-66.4329,-23.9837,0.953218,30.4982,-27.561,110.457,-3.47561
408.733,53.641,53.5709,0,7.51797,6.14562,0.431104,11.8902,-19.2988,-64.8171,-23.9837,1.14482,30.2587,-28.9024,113.78,-1.09756
408.743,52.946,53.4411,0,7.55868,6.29411,0.483794,11.4329,-20.0305,-63.9329,-23.6867,1.41306,29.1282,-29.7256,119.451,0.823171
408.753,52.2581,53.3182,0,7.37666,6.36596,0.455054,11.128,-15.7927,-62.561,-23.1886,1.76752,28.5917,-31.7073,124.756,2.95732
408.763,51.6118,53.2036,0,7.69041,6.51445,0.107776,9.5122,-13.628,-60.7927,-23.1503,2.20821,28.6492,-35.7927,128.445,3.81098
408.773,50.9875,53.0793,0,7.62335,6.52164,0.354463,5.57927,-10.3354,-59.2988,-23.0832,2.72553,28.2277,-40.2134,133.689,3.01829
408.783,50.3785,52.9569,0,7.28565,6.4426,0.56283,4.11585,-9.69512,-57.1037,-23.0353,2.86923,28.1223,-46.128,139.451,0.487805
408.793,49.8055,52.8504,0,7.12279,6.3013,0.387993,5.06098,-13.8415,-54.6341,-22.8533,3.37698,28.199,-52.2866,143.323,-2.83537
408.803,49.2662,52.7031,0,7.18506,6.28932,0.296982,4.11585,-17.9268,-52.9878,-22.6713,3.04167,26.8961,-56.6463,149.695,-7.95732
408.813,48.7237,52.5393,0,6.74198,6.14083,0.378413,2.65244,-20.7927,-52.1037,-22.6808,3.07042,26.4075,-56.8598,156.89,-14.0244
408.823,48.187,52.3713,0,6.57193,5.99473,0.239502,3.32317,-23.689,-52.5305,-22.7958,2.98419,26.3021,-60.061,159.024,-18.689
408.833,47.6686,52.1893,0,6.67971,6.04503,-0.00239502,4.84756,-25.5183,-52.2256,-22.8916,2.64889,25.9381,-64.939,160.457,-21.8598
408.843,47.1224,51.9731,0,6.43302,6.2031,0.170046,4.29878,-26.5244,-52.4085,-23.2173,2.27527,25.3537,-67.4085,159.543,-23.872
408.853,46.5747,51.7714,0,6.38273,6.26777,0.318538,3.84146,-28.9024,-52.622,-23.5335,1.87291,25.8327,-67.3476,158.689,-23.3537
408.863,46.031,51.5783,0,6.5408,6.4905,0.184417,3.20122,-29.8476,-52.7134,-23.6484,1.3939,25.9668,-69.4817,158.049,-23.628
408.873,45.5006,51.3717,0,6.62462,6.56714,0.0239502,2.80488,-27.8659,-52.5305,-23.8304,1.26936,25.6986,-70.4268,160.945,-23.6585
408.883,44.9715,51.1449,0,6.69647,6.76114,-0.0886157,0.670732,-26.2195,-52.4085,-23.8688,1.4418,25.1333,-73.689,168.841,-20.3049
408.893,44.4756,50.9092,0,6.76593,6.56954,0.0143701,0.609756,-26.8293,-52.378,-23.8496,1.28852,24.7501,-75.6402,175.396,-17.5305
408.903,43.9706,50.6545,0,6.85934,6.84976,-0.225132,0.457317,-25.8232,-52.6829,-23.7538,1.43222,24.0604,-77.2256,179.634,-14.6037
408.913,43.4974,50.3685,0,6.90245,6.75875,-0.253872,1.89024,-25.7317,-51.6159,-23.8688,1.03944,23.3323,-74.3902,185.335,-11.4634
408.923,43.0352,50.1214,0,6.93837,6.83299,-0.258662,2.86585,-25.7012,-51.128,-23.5526,1.00112,23.6197,-72.2256,192.5,-10.8232
408.933,42.5532,49.8604,0,6.64378,6.93358,-0.282612,1.58537,-24.5427,-50.7012,-23.6101,0.522114,23.2077,-72.0732,197.195,-10.4268
408.943,42.0688,49.6109,0,6.45218,6.9264,-0.138911,-1.85976,-25.122,-50.2744,-23.3323,0.761616,22.9778,-73.9939,202.439,-12.1037
408.953,41.6045,49.3661,0,6.19592,6.64857,-0.150886,-1.70732,-24.4817,-49.2378,-23.4664,0.809517,23.0161,-77.5305,205.457,-13.2622
408.963,41.1456,49.0941,0,6.18634,6.58391,-0.387993,-1.52439,-22.378,-50.122,-23.4664,0.809517,22.3072,-76.3415,212.652,-13.1402
408.973,40.7134,48.7827,0,6.32285,6.37794,-0.258662,0.213415,-21.6159,-51.4634,-24.0029,0.589175,21.8474,-77.0427,217.591,-16.1585
408.983,40.2764,48.4809,0,6.45937,6.32046,-0.244292,1.61585,-23.0183,-54.6037,-24.1178,0.675395,21.9048,-76.4939,219.543,-14.7866
408.993,39.855,48.0992,0,6.55996,5.92049,-0.217947,1.43293,-19.8171,-58.628,-24.798,0.502954,20.7648,-74.5732,221.738,-17.2866
409.003,39.4108,47.724,0,6.62702,5.95162,-0.122146,3.23171,-19.939,-62.1037,-24.913,0.589175,20.7169,-71.6768,226.677,-15.7622
409.013,38.9263,47.3559,0,6.60786,6.33962,-0.411943,4.7561,-17.7439,-63.2622,-24.9801,0.282612,20.6403,-69.2683,230.061,-12.6524
409.023,38.4118,46.9852,0,6.81862,6.8785,-0.58678,3.65854,-11.1585,-64.3902,-25.5165,0.00479004,20.7744,-67.8963,233.628,-9.7561
409.033,37.87,46.5884,0,6.7324,7.14913,-1.02507,3.04878,-1.0061,-65.2134,-25.9285,-0.407153,20.3625,-71.1585,237.774,-9.35976
409.043,37.2907,46.1797,0,6.55996,7.77902,-0.330513,3.23171,0.731707,-63.75,-26.0147,-0.464634,19.9409,-77.3781,243.354,-7.22561
409.053,36.7216,45.7421,0,6.34201,7.65927,-0.174836,3.07927,-0.731707,-62.8354,-26.6757,-0.320933,19.6344,-80.3049,247.561,-6.95122
409.063,36.1601,45.2606,0,6.33243,7.61377,-0.512534,5.39634,1.61585,-63.4756,-26.8961,0.119751,18.6955,-80.9146,246.372,-6.52439
409.073,35.6277,44.7625,0,6.30848,7.26409,-0.637075,7.89634,10.0915,-64.1463,-27.4805,0.0814307,18.4752,-76.3415,248.841,-5.33537
409.083,35.0282,44.2554,0,5.70015,7.55389,-0.5772,10.4573,16.372,-64.0549,-28.0361,-0.158071,18.3506,-72.2866,252.134,-5.30488
409.093,34.4628,43.7258,0,5.57561,7.76465,-0.0502954,14.3902,10.9146,-59.0244,-28.8887,-0.282612,18.1495,-68.9329,254.238,-7.59146
409.103,33.8697,43.1895,0,5.35047,8.37299,-0.117356,14.0854,6.46341,-56.6768,-29.1761,-0.608335,17.8429,-65.8537,255.549,-11.7073
409.113,33.2779,42.6229,0,5.26665,8.37299,-0.186812,9.90854,5,-56.9207,-29.6743,-1.2502,17.2394,-64.0244,257.104,-16.9512
409.123,32.6866,42.0676,0,5.09181,8.21731,-0.285007,8.78049,2.77439,-57.2866,-29.6168,-1.38432,17.0094,-62.8354,256.768,-20.0915
409.133,32.0796,41.5462,0,4.74453,8.12391,0.0766406,7.0122,0.0914634,-57.0427,-29.8659,-1.5376,17.3543,-63.6585,254.329,-24.1463
409.143,31.4776,41.0166,0,4.63436,8.13828,0.0670605,5.36585,-0.579268,-56.4939,-30.0862,-1.59508,16.9807,-64.939,255.884,-26.7988
409.153,30.8999,40.4696,0,4.63197,8.26282,-0.225132,0.640244,-2.71341,-54.4512,-29.933,-1.49928,16.243,-65.0915,259.543,-26.8598
409.163,30.336,39.9172,0,4.59125,8.20294,-0.0934058,-4.2378,-7.53049,-54.1463,-30,-1.25978,15.8407,-63.0793,265.64,-25.2439
409.173,29.7769,39.4058,0,4.53377,8.10235,-0.0766406,-4.14634,-12.2256,-54.7866,-30.0383,-1.08734,16.1951,-60.8537,268.323,-22.4085
409.183,29.2138,38.8591,0,4.43318,8.30593,-0.352068,-4.42073,-12.8354,-54.0244,-30.1916,-1.27894,15.3425,-57.9878,270.396,-18.7195
409.193,28.672,38.3305,0,4.42121,8.29395,-0.215552,-6.46341,-12.7439,-52.9268,-30.8431,-1.40348,15.6107,-57.5915,269.726,-16.8902
409.203,28.1434,37.7938,0,4.39486,8.40891,-0.270637,-5.06098,-14.4512,-51.7378,-31.9352,-2.08367,15.6491,-55.7927,268.262,-19.5122
409.213,27.6525,37.219,0,4.59844,8.58615,-0.423918,-3.32317,-18.811,-50.1524,-32.7687,-2.29443,15.0072,-53.1402,268.323,-23.2927
409.223,27.1769,36.6226,0,4.49306,8.74422,-0.522114,-1.06707,-23.4756,-47.5915,-32.8645,-2.10283,14.2887,-50.2134,270.854,-25.3659
409.233,26.7106,36.05,0,4.30385,8.69153,-0.570015,-0.0304878,-27.2561,-45.8841,-33.0752,-2.13157,14.3941,-47.4695,273.811,-26.9512
409.243,26.2546,35.474,0,4.12901,8.64602,-0.713716,-1.95122,-29.5427,-44.1159,-33.5638,-2.16031,14.145,-47.3476,272.317,-25.7317
409.253,25.8357,34.8781,0,4.23918,8.72027,-0.740061,-2.86585,-28.5976,-42.0732,-33.5542,-2.47645,13.4073,-47.1951,273.262,-25.1829
409.263,25.4312,34.2972,0,4.15536,8.76098,-0.910107,-2.59146,-24.2378,-40.3354,-34.2536,-2.06451,13.5319,-48.4146,272.683,-24.2378
409.273,25.0535,33.7229,0,4.23918,8.79691,-0.864602,-4.63415,-22.3476,-39.1463,-34.0428,-1.73878,13.1582,-48.1707,270.122,-20.7622
409.283,24.6916,33.1471,0,4.24876,8.75619,-0.65863,-5.85366,-21.9512,-38.628,-34.2631,-1.3939,12.8229,-45.2439,269.939,-15.5793
409.293,24.3481,32.5417,0,4.24637,8.7538,-0.622705,-4.17683,-19.2378,-37.4695,-34.2631,-1.4418,11.932,-42.5305,270.732,-9.87805
409.303,23.9902,31.9153,0,4.21284,8.78493,-0.728086,-4.08537,-15.122,-39.1159,-34.6464,-1.7292,11.3093,-40.8537,273.598,-8.53659
409.313,23.6162,31.3171,0,4.12422,8.81607,-0.692161,-2.56098,-12.6829,-40.3659,-35.0775,-2.15073,11.5105,-38.3537,274.604,-7.89634
409.323,23.2319,30.6937,0,4.06674,8.80409,-0.632285,-1.34146,-12.8963,-41.6159,-34.8188,-2.50519,10.6004,-34.3902,274.421,-9.32927
409.333,22.8339,30.1118,0,3.89191,8.79451,-0.481399,-1.06707,-15.3354,-41.9207,-34.8188,-2.83091,10.8782,-31.7073,272.927,-13.2622
409.343,22.4508,29.528,0,3.91107,8.68195,-0.423918,1.06707,-13.0183,-41.9817,-34.8954,-2.67763,10.4758,-29.2073,270.64,-16.7988
409.353,22.0612,28.9814,0,3.73384,8.74422,-0.565225,5.06098,-8.96341,-41.128,-35.1733,-2.65847,10.7824,-27.8659,266.311,-19.2988
409.363,21.6626,28.4138,0,3.59732,9.01964,-0.60115,7.0122,-6.7378,-40.0305,-35.1349,-2.24653,10.0447,-27.378,264.085,-19.0549
409.373,21.2502,27.8481,0,3.44643,9.30226,-0.392783,6.18902,-8.5061,-39.3598,-34.9817,-2.05493,9.65193,-24.2683,261.677,-17.8049
409.383,20.8223,27.2795,0,3.21412,9.4268,-0.373623,3.5061,-13.7195,-38.7195,-35.4702,-2.02619,9.35495,-21.4634,260.03,-13.3232
409.393,20.393,26.682,0,2.98659,9.64235,-0.699346,-2.34756,-16.9817,-36.4329,-35.5469,-1.7771,8.5119,-19.0854,257.683,-9.2378
409.403,19.9685,26.1059,0,2.73511,9.46991,-0.414338,-6.58537,-19.3902,-34.5732,-36.3229,-1.90165,8.6556,-17.6829,256.037,-5.51829
409.413,19.5763,25.5127,0,2.78301,9.16095,-0.189207,-5.79268,-19.939,-33.75,-36.6582,-2.34233,8.04248,-17.1341,252.561,-3.01829
409.423,19.1968,24.9343,0,2.69919,9.14179,-0.325723,-2.16463,-19.0854,-32.3476,-36.8402,-2.57225,7.92751,-15,249.909,-1.64634
409.433,18.8567,24.3566,0,2.90995,9.22562,-0.304167,0.335366,-19.6037,-31.25,-37.2138,-2.52435,7.61137,-11.6463,245.183,-0.945122
409.443,18.5143,23.8444,0,2.82373,9.21843,-0.426313,0.762195,-20.4878,-31.2195,-37.2138,-2.28485,8.3203,-7.9878,238.232,0.701219
409.453,18.1885,23.3219,0,2.85726,9.16574,-0.538879,-0.823171,-20.8537,-30.7927,-37.3958,-2.28485,7.82213,-5.4878,235.427,4.02439
409.463,17.8785,22.7855,0,2.81894,9.15137,-0.63468,-1.52439,-19.2073,-29.4512,-37.4629,-2.39023,7.22817,-3.47561,231.311,4.90854
409.473,17.5686,22.2522,0,2.60339,9.40524,-0.608335,-1.95122,-17.9268,-26.7073,-37.5587,-2.68721,6.93119,-1.12805,229.573,6.09756
409.483,17.2375,21.7234,0,2.25611,9.616,-0.500559,-3.01829,-20.4573,-24.878,-37.4629,-2.51477,6.61504,1.40244,225.488,7.07317
409.493,16.9155,21.1949,0,2.21539,9.44117,-0.57241,-3.14024,-26.6768,-24.6341,-37.6737,-2.51477,6.28932,1.70732,222.287,7.56098
409.503,16.5956,20.6751,0,2.15312,9.60642,-0.914897,-3.84146,-31.5549,-23.9024,-38.009,-2.70637,6.11688,3.14024,216.707,7.22561
409.513,16.2952,20.1705,0,2.21539,9.50104,-0.958008,-5.42683,-34.7256,-23.5671,-37.894,-2.64889,5.99234,5.18293,212.774,5.4878
409.523,16.0181,19.6591,0,2.31119,9.30944,-1.15679,-5.36585,-32.8049,-23.4756,-37.7982,-2.50519,5.50376,5.30488,207.988,2.9878
409.533,15.7477,19.1802,0,2.41178,9.15137,-1.02028,-4.45122,-28.9024,-25.0305,-38.2676,-2.10283,5.76242,5.21341,201.799,1.52439
409.543,15.4899,18.6933,0,2.51956,9.02443,-0.955613,-0.518293,-24.6646,-26.0061,-38.0856,-1.91123,5.24509,6.18902,193.171,1.95122
409.553,15.2384,18.2139,0,2.58662,9.11065,-1.04902,1.58537,-19.7866,-26.4024,-38.0281,-1.91123,5.01517,7.37805,186.89,1.79878
409.563,15.0166,17.7488,0,2.74948,9.16574,-1.03465,0.762195,-16.8293,-25.6098,-38.3443,-2.21779,4.95769,5.97561,181.555,3.04878
409.573,14.8278,17.2974,0,2.95066,9.12742,-0.740061,1.40244,-13.9024,-25.1829,-39.1298,-2.33275,4.94811,8.68902,172.896,2.65244
409.583,14.6575,16.8545,0,3.03928,9.17532,-0.526904,2.0122,-8.90244,-24.5122,-39.8483,-2.65847,4.85231,10.1524,167.683,1.25
409.593,14.515,16.4186,0,3.13987,9.3286,-0.459844,-0.0609756,-1.61585,-22.5915,-39.9154,-2.96503,4.64155,11.372,158.659,-0.762195
409.603,14.3997,15.9819,0,3.10395,9.19448,-0.335303,-0.548781,2.89634,-20.2134,-39.7334,-3.2237,4.2775,13.2927,152.378,-3.14024
409.613,14.3125,15.5541,0,3.09437,9.11544,-0.304167,1.21951,5.15244,-17.7744,-40.2507,-3.54942,4.15296,13.3841,143.963,-5
409.623,14.2579,15.1043,0,3.12311,8.85678,-0.0694556,4.78659,9.35976,-16.0061,-40.1453,-3.559,3.42488,15.6098,137.53,-6.67683
409.633,14.1799,14.6555,0,2.7878,9.14179,-0.380808,8.9939,11.7988,-13.4756,-40.0783,-3.9422,3.09916,19.2683,131.341,-6.67683
409.643,14.0812,14.1809,0,2.45729,9.44835,-0.682581,8.96341,10.6098,-10.8841,-40.1262,-4.02842,2.31359,21.7683,127.47,-6.76829
409.653,13.9657,13.7381,0,2.1651,9.63037,-0.823887,7.56098,7.59146,-8.90244,-40.1453,-4.12422,2.53393,24.1159,123.415,-5.60976
409.663,13.8264,13.2633,0,1.84417,9.77886,-1.09452,3.47561,5,-7.5,-39.9441,-3.74102,1.6334,26.189,120.152,-4.78659
409.673,13.673,12.7853,0,1.63819,9.67348,-1.07057,0.853659,0.365854,-7.04268,-40.0974,-3.52068,1.2502,27.5,119.665,-3.2622
409.683,13.5015,12.3189,0,1.49689,9.65911,-1.19272,0,-1.28049,-7.56098,-40.2124,-3.16622,1.11608,28.75,117.896,-2.40854
409.693,13.2856,11.8634,0,1.14482,9.68067,-1.11847,0.396341,-3.32317,-8.23171,-40.0208,-3.03209,0.972378,29.1768,116.22,-0.792683
409.703,13.0619,11.4195,0,1.11368,9.69743,-1.17835,1.37195,-4.96951,-9.08537,-40.4615,-2.57225,0.857417,28.2012,113.232,-1.43293
409.713,12.841,10.9889,0,1.1999,9.67827,-1.22864,2.22561,-5.4878,-10.3049,-40.4231,-2.43813,0.771196,27.5305,110.183,-3.2622
409.723,12.6127,10.5355,0,1.24541,9.74773,-1.26218,1.15854,-7.28659,-11.9512,-40.4423,-2.17947,0.0526904,25.5488,108.354,-4.39024
409.733,12.4053,10.0781,0,1.47054,9.64714,-1.0586,0.609756,-6.82927,-13.1098,-40.3369,-2.16989,-0.349673,24.7256,104.756,-4.45122
409.743,12.1899,9.639,0,1.50168,9.54415,-1.11368,2.62195,-7.0122,-14.9085,-40.1549,-1.97829,-0.359253,21.189,100.549,-8.47561
409.753,11.9687,9.21457,0,1.5879,9.60163,-1.152,3.78049,-7.40854,-16.8598,-40.4231,-1.99745,-0.416733,18.2622,98.6585,-12.6829
409.763,11.7572,8.83237,0,1.825,9.62798,-1.38193,3.38415,-6.79878,-19.0549,-40.701,-2.18905,0.0239502,14.7256,95.0915,-15.2134
409.773,11.5402,8.41404,0,2.01421,9.55613,-1.41067,3.59756,-3.9939,-22.439,-40.1836,-2.45729,-0.895737,11.9817,91.8293,-16.8902
409.783,11.3094,8.00612,0,1.86093,9.22083,-0.993933,6.92073,-0.243902,-23.2927,-40.5381,-2.39981,-1.02986,9.72561,87.1951,-20.7317
409.793,11.0708,7.62251,0,1.96631,9.35495,-1.05381,8.07927,5.27439,-25.4878,-40.6339,-2.73511,-0.905317,6.58537,81.7683,-20.7927
409.803,10.807,7.24786,0,1.85614,9.51062,-1.08255,8.75,7.71341,-26.8598,-40.5094,-2.64889,-1.02986,3.17073,77.1951,-20.4878
409.813,10.5295,6.86976,0,1.82021,9.53218,-1.08015,8.81098,7.07317,-28.3232,-40.5285,-2.45729,-1.37474,0.121951,72.1951,-19.9695
409.823,10.2655,6.50861,0,1.88488,9.53936,-1.14482,7.62195,7.2561,-28.2622,-40.0304,-2.47645,-1.33642,-1.31098,68.2927,-19.939
409.833,10.0176,6.14808,0,1.91362,9.57529,-1.04902,6.43293,6.21951,-27.4085,-40.222,-2.71595,-1.59508,-1.89024,65.6098,-19.1463
409.843,9.79338,5.80699,0,2.00942,9.49386,-0.883762,5.85366,6.18902,-26.8293,-40.6243,-2.82133,-1.52802,-3.10976,62.8659,-17.4085
409.853,9.58394,5.48193,0,1.95434,9.53218,-0.797541,5.06098,7.89634,-25.0305,-40.6818,-2.90755,-1.49928,-4.35976,58.811,-17.9573
409.863,9.41433,5.1348,0,2.07648,9.46991,-0.835862,3.32317,8.44512,-22.9878,-40.9309,-3.2237,-2.16031,-3.81098,53.1098,-16.7988
409.873,9.28298,4.8313,0,2.16749,9.4747,-0.972378,3.53659,8.75,-20.4878,-41.1895,-3.1758,-1.65256,-0.97561,46.8293,-16.4939
409.883,9.18663,4.50747,0,2.23455,9.5681,-0.946033,2.07317,7.19512,-17.7134,-41.3428,-3.34824,-2.27527,0.548781,39.6341,-16.6463
409.893,9.12074,4.21087,0,2.28006,9.63277,-0.967588,-0.0609756,5.60976,-15.1524,-41.7069,-3.78892,-2.04535,1.03659,35.3354,-15.1524
409.903,9.08515,3.92384,0,2.32077,9.52739,-0.960403,0.670732,6.06707,-12.9573,-41.9272,-3.87514,-2.12199,1.4939,28.2927,-13.9939
409.913,9.05494,3.63798,0,2.17468,9.60403,-1.06818,0.27439,7.16463,-10.5793,-41.7164,-3.91346,-2.31359,1.21951,24.2988,-13.1707
409.923,9.01697,3.36322,0,1.93039,9.63995,-0.991538,-0.762195,5.79268,-8.5061,-41.3811,-3.85598,-2.31359,0.731707,20.3049,-10.8537
409.933,8.99038,3.08978,0,1.85375,9.6184,-1.11608,-0.884146,3.47561,-6.58537,-41.1991,-3.78892,-2.49561,2.65244,15.2134,-9.63415
409.943,8.97239,2.79488,0,1.80345,9.59684,-1.09213,-1.52439,0.670732,-5.2439,-40.5381,-3.71228,-3.03209,2.65244,16.128,-7.31707
409.953,8.97603,2.50347,0,1.84656,9.63037,-1.152,-1.82927,-1.25,-3.65854,-40.0974,-3.77934,-3.14706,2.0122,15.3963,-5.51829
409.963,9.0003,2.20187,0,1.83458,9.59205,-1.10889,-2.46951,-3.41463,-2.16463,-39.7238,-3.59732,-3.50152,2.9878,15.2134,-5.4878
409.973,9.05394,1.9249,0,1.82261,9.62798,-1.20948,-3.14024,-4.63415,-0.853659,-39.1011,-3.4153,-3.23328,1.28049,13.1707,-3.44512
409.983,9.13217,1.65038,0,1.8274,9.58966,-1.18074,-3.90244,-6.64634,0.579268,-38.9191,-3.2716,-3.3674,2.04268,12.5915,-1.98171
409.993,9.22213,1.38624,0,1.95673,9.5705,-1.14482,-4.11585,-7.28659,1.12805,-38.8328,-3.14706,-3.37698,1.70732,10.061,-0.97561
410.003,9.31313,1.1254,0,2.02858,9.54894,-1.11847,-4.08537,-6.06707,1.79878,-38.5933,-3.01293,-3.48236,0.548781,9.05488,0.518293
410.013,9.40811,0.854117,0,2.07888,9.51062,-1.06818,-3.81098,-5.57927,2.34756,-38.4401,-2.83091,-3.82724,0.0914634,7.92683,3.71951
410.023,9.50994,0.597525,0,2.14833,9.52978,-1.02267,-2.9878,-5.06098,2.19512,-38.4784,-2.70637,-3.76976,-2.68293,6.06707,5.51829
410.033,9.60861,0.348577,0,2.13636,9.56092,-0.967588,-2.07317,-5.39634,1.82927,-38.7849,-2.54351,-3.83682,-6.06707,7.95732,7.10366
410.043,9.70782,0.123041,0,2.17707,9.58726,-0.979563,-2.04268,-5.03049,2.0122,-38.9286,-2.65847,-3.61648,-8.65854,7.92683,7.89634
410.053,9.81839,-0.114625,0,2.20581,9.54176,-1.0107,-1.79878,-3.71951,1.43293,-38.7754,-2.60099,-3.96136,-8.90244,9.17683,9.11585
410.063,9.93614,-0.328983,0,2.20821,9.5226,-1.02507,-0.97561,-1.67683,1.09756,-38.8903,-2.69679,-3.73144,-10.9756,9.5122,9.66463
410.073,10.0425,-0.5609,0,2.14833,9.56092,-0.996328,-1.03659,0.670732,0.884146,-38.6508,-2.75427,-4.15296,-12.4085,10.6402,10.1829
410.083,10.1537,-0.774035,0,2.08127,9.57768,-1.06339,-0.609756,3.29268,0.27439,-38.7754,-2.85965,-3.99968,-12.3476,10.8841,11.372
410.093,10.2479,-0.987379,0,1.99266,9.57768,-1.03944,-0.579268,3.87195,0,-38.7083,-2.97461,-4.14338,-12.5,10.4573,11.5854
410.103,10.3391,-1.17479,0,2.01182,9.52499,-0.986748,-0.304878,2.89634,0.213415,-38.9478,-3.02251,-3.86556,-12.622,10.5183,13.0793
410.113,10.4256,-1.36598,0,2.05493,9.53218,-0.969983,0.27439,2.07317,0.487805,-39.3119,-3.20454,-4.10506,-11.4329,8.35366,13.7805
410.123,10.508,-1.55317,0,2.09564,9.47709,-0.895737,0.884146,2.16463,1.0061,-39.7813,-3.20454,-4.22002,-10.6098,7.62195,14.2988
410.133,10.5577,-1.74143,0,1.98787,9.57529,-0.900527,0.97561,1.89024,1.58537,-39.8483,-3.4153,-4.38289,-8.9939,6.15854,14.2683
410.143,10.5876,-1.93663,0,1.87291,9.62558,-1.02267,0.609756,1.64634,1.85976,-39.8579,-3.04167,-4.64155,-9.29878,5.73171,14.0549
410.153,10.611,-2.13262,0,1.80584,9.60642,-1.14482,0.243902,0.762195,2.2561,-38.9765,-3.18538,-4.68945,-7.71341,5.12195,15.6098
410.163,10.6371,-2.33145,0,1.79626,9.58247,-1.10171,0.0304878,-0.853659,2.65244,-39.3406,-3.28118,-4.91937,-8.38415,5.27439,15.2744
410.173,10.6675,-2.49827,0,1.87051,9.60642,-1.11129,-0.243902,-2.04268,2.16463,-39.6663,-3.3674,-4.53617,-7.89634,4.05488,15.3354
410.183,10.6998,-2.65515,0,1.88488,9.55613,-1.1065,-0.548781,-2.10366,2.04268,-39.6951,-3.45362,-4.47869,-8.32317,4.57317,15.3963
410.193,10.7361,-2.79404,0,1.90644,9.5226,-1.05381,-0.884146,-2.56098,2.13415,-39.5609,-3.06083,-4.25834,-8.44512,3.81098,14.4817
410.203,10.773,-2.94135,0,1.92799,9.57289,-1.00112,-1.34146,-1.98171,2.13415,-39.2256,-2.99377,-4.45953,-8.17073,5.64024,14.7561
410.213,10.8053,-3.08381,0,1.88488,9.55852,-1.0586,-0.97561,-1.03659,2.37805,-39.0244,-2.87881,-4.44995,-9.05488,6.7378,14.0549
410.223,10.8341,-3.21631,0,1.88488,9.56571,-1.02507,-1.18902,-2.34756,2.07317,-38.6125,-2.84049,-4.32541,-9.81707,7.68293,14.4512
410.233,10.8688,-3.35389,0,1.90165,9.47949,-0.981958,-1.0061,-3.04878,2.28659,-38.67,-2.94587,-4.50743,-10.9756,8.5061,13.75
410.243,10.9149,-3.50185,0,1.99984,9.49865,-0.946033,-0.365854,-3.44512,2.07317,-38.8903,-2.76385,-4.80441,-10.7622,9.66463,14.5732
410.253,10.9523,-3.64606,0,1.97589,9.53697,-1.01788,-0.548781,-2.28659,1.46341,-38.8233,-2.55309,-4.82357,-10.8841,12.378,14.0854
410.263,10.9761,-3.78021,0,1.90404,9.49865,-0.974773,-0.243902,-1.18902,1.09756,-38.9957,-2.60099,-4.76609,-11.4024,13.2012,12.4085
410.273,10.9911,-3.90898,0,1.88728,9.52978,-1.07776,0.396341,-0.609756,0.518293,-39.1777,-2.58183,-4.78525,-11.5244,13.7805,12.8354
410.283,10.99,-4.01211,0,1.85614,9.55134,-1.01309,0.579268,-0.945122,-0.152439,-39.2256,-2.27527,-4.43079,-11.128,13.872,11.6463
410.293,11.0264,-4.1045,0,1.97589,9.51781,-1.02986,0.701219,-1.70732,-0.243902,-39.5226,-2.35191,-4.35415,-10.7622,11.8293,10.8232
410.303,11.0448,-4.19542,0,1.96871,9.55613,-1.02986,0.762195,-1.92073,-0.670732,-39.5226,-2.46687,-4.40205,-11.372,9.08537,11.8293
410.313,11.044,-4.28087,0,1.91123,9.57289,-0.950823,0.213415,-1.95122,-0.97561,-39.5609,-2.48603,-4.37331,-10.8537,9.08537,11.7683
410.323,11.0453,-4.35399,0,1.94476,9.52739,-0.989143,1.21951,-0.762195,-1.40244,-39.4268,-2.35191,-4.20086,-11.9817,9.17683,11.9817
410.333,11.0473,-4.42578,0,1.9256,9.55613,-0.943638,1.70732,-0.853659,-1.03659,-39.6376,-2.62015,-4.25834,-11.4634,7.07317,12.6829
410.343,11.0465,-4.50147,0,1.91602,9.57289,-0.965193,1.85976,-1.31098,-1.03659,-39.743,-2.57225,-4.39247,-11.128,6.12805,11.8293
410.353,11.0562,-4.58329,0,1.94715,9.59924,-1.04662,2.10366,-1.52439,-0.701219,-39.8771,-2.53393,-4.57449,-11.5244,4.78659,11.4939
410.363,11.0644,-4.65557,0,1.95434,9.63037,-1.02986,1.4939,-1.43293,-0.762195,-39.7909,-2.62015,-4.45953,-11.9817,2.77439,11.6463
410.373,11.0779,-4.73832,0,1.96871,9.59445,-0.914897,1.95122,-1.82927,-0.731707,-39.6663,-2.80217,-4.68945,-11.6463,0.579268,11.6463
410.383,11.0745,-4.82723,0,1.91362,9.63516,-1.03225,1.89024,-0.731707,-0.914634,-39.4364,-2.63931,-4.83315,-11.5854,-0.731707,12.1341
410.393,11.0636,-4.92173,0,1.88009,9.69264,-0.953218,0.97561,-0.609756,-0.762195,-39.3406,-2.74469,-4.98643,-11.6463,-2.0122,13.1098
410.404,11.0378,-5.00213,0,1.80345,9.6663,-0.984353,-0.0914634,-0.0304878,-0.731707,-39.3885,-2.81175,-4.81399,-10.8537,-3.23171,13.4756
410.413,11.007,-5.07431,0,1.77471,9.64474,-0.960403,-0.548781,0.518293,-1.15854,-39.3406,-2.64889,-4.71819,-10.4878,-2.83537,13.0793
410.423,10.977,-5.15663,0,1.76752,9.57768,-0.993933,-0.152439,-0.213415,-1.37195,-39.3598,-2.69679,-4.94811,-10.2439,-2.46951,14.6951
410.433,10.9527,-5.24105,0,1.79387,9.55134,-1.05141,-0.457317,-1.06707,-1.46341,-39.034,-2.61057,-5.00559,-9.90854,-3.87195,15.2439
410.443,10.9471,-5.29742,0,1.91362,9.49865,-1.07297,-0.487805,-1.82927,-1.79878,-39.3119,-2.70637,-4.60323,-10.5793,-2.83537,16.4024
410.453,10.9479,-5.35225,0,1.96631,9.51062,-1.1041,0,-2.34756,-1.89024,-39.1873,-2.53393,-4.60323,-9.32927,-3.59756,17.3171
410.463,10.9528,-5.3978,0,2.00224,9.51062,-1.03944,0.0914634,-2.43902,-1.98171,-39.3406,-2.62973,-4.49785,-7.0122,-3.9939,17.1037
410.473,10.9534,-5.46084,0,1.99745,9.54415,-1.11368,-0.0609756,-3.17073,-2.13415,-39.331,-2.67763,-4.83315,-6.95122,-3.20122,17.8659
410.483,10.9538,-5.52373,0,2.00703,9.52978,-0.993933,-0.304878,-3.71951,-2.28659,-39.0532,-2.53393,-4.83315,-6.7378,-1.25,17.2256
410.493,10.9549,-5.60154,0,1.98787,9.50344,-0.977168,1.06707,-4.35976,-2.10366,-38.9286,-2.56267,-5.12055,-7.13415,-0.97561,16.6159
410.503,10.9469,-5.66068,0,1.93997,9.5705,-1.02267,1.37195,-3.68902,-2.10366,-38.7275,-2.64889,-4.81399,-6.92073,1.89024,15.6098
410.513,10.9264,-5.7108,0,1.84896,9.61361,-1.09452,0.884146,-3.78049,-1.95122,-38.6412,-2.61057,-4.68945,-8.90244,1.37195,15.4878
410.523,10.9162,-5.75302,0,1.92081,9.57529,-1.02507,0.762195,-4.17683,-2.10366,-38.67,-2.77343,-4.58407,-8.5061,3.32317,14.0854
410.533,10.898,-5.78226,0,1.87051,9.55852,-1.09931,0.518293,-3.81098,-2.2561,-38.7275,-2.55309,-4.39247,-8.81098,4.17683,14.3902
410.543,10.8775,-5.80911,0,1.86812,9.53936,-1.10171,0.548781,-2.86585,-2.53049,-38.737,-2.66805,-4.37331,-9.20732,3.84146,14.878
410.553,10.8584,-5.84708,0,1.91841,9.5202,-1.14242,0.213415,-2.68293,-3.10976,-39.0723,-2.68721,-4.62239,-9.29878,4.2378,13.75
410.563,10.8389,-5.86985,0,1.93518,9.51302,-1.1999,-0.0304878,-1.95122,-3.38415,-39.149,-2.58183,-4.39247,-7.77439,4.08537,13.689
410.573,10.8171,-5.90382,0,1.94715,9.51541,-1.09452,-0.579268,-0.823171,-3.78049,-39.5418,-2.82133,-4.66071,-8.96341,1.09756,12.622
410.583,10.7941,-5.9236,0,1.95194,9.49146,-1.03704,-0.335366,0.457317,-4.05488,-39.6855,-3.01293,-4.44995,-9.45122,1.09756,11.128
410.593,10.7669,-5.94008,0,1.90165,9.56092,-1.08015,0.0304878,1.03659,-3.75,-39.5514,-2.86923,-4.39247,-9.78659,0.518293,9.84756
410.603,10.7323,-5.96712,0,1.89207,9.60163,-1.18553,-0.457317,2.04268,-4.32927,-39.034,-2.85965,-4.53617,-10.6098,-1.12805,9.14634
410.613,10.7048,-5.98756,0,1.94236,9.55613,-1.28134,-1.06707,2.40854,-4.39024,-39.7046,-2.91713,-4.50743,-12.3476,1.31098,8.41463
410.623,10.6739,-5.97244,0,1.94715,9.51541,-1.34361,-0.548781,2.68293,-4.93902,-39.9537,-2.64889,-3.92304,-14.0244,-0.426829,6.21951
410.633,10.6378,-5.97628,0,1.90404,9.46991,-1.42504,0.27439,3.59756,-5.12195,-39.9441,-2.55309,-4.25834,-15.2439,-3.20122,4.7561
410.643,10.5908,-5.96646,0,1.81303,9.4268,-1.31247,1.61585,4.26829,-5.30488,-39.7238,-2.74469,-3.99968,-16.189,-4.26829,5.09146
410.653,10.5368,-5.96236,0,1.76513,9.53218,-1.38911,2.10366,4.48171,-5.30488,-39.8483,-2.93629,-4.11464,-18.4756,-6.55488,3.81098
410.663,10.4802,-5.96045,0,1.7771,9.60163,-1.35558,1.55488,4.84756,-5.67073,-39.4747,-3.13748,-4.11464,-20.8232,-7.37805,2.16463
410.673,10.4228,-5.96296,0,1.79626,9.58726,-1.33882,0.640244,4.84756,-6.12805,-39.4364,-3.39614,-4.19128,-22.5,-8.68902,0.457317
410.683,10.3618,-5.98154,0,1.73399,9.5705,-1.28373,-0.0914634,4.7561,-5.91463,-39.4076,-3.59732,-4.47869,-23.8415,-10.4268,-1.76829
410.693,10.2934,-5.97794,0,1.67412,9.55852,-1.28613,-0.335366,4.29878,-6.09756,-39.3023,-3.42488,-4.09548,-25.1524,-11.7988,-4.20732
410.703,10.227,-5.99919,0,1.66214,9.56571,-1.28613,-0.97561,3.78049,-5.88415,-39.2831,-3.7506,-4.52659,-26.5549,-11.8598,-4.17683
410.713,10.1609,-6.01919,0,1.62861,9.53697,-1.31726,-1.31098,2.77439,-5.64024,-39.0723,-3.61648,-4.49785,-26.3415,-12.5915,-5.67073
410.723,10.0938,-6.00915,0,1.6334,9.53697,-1.42264,-1.12805,1.82927,-5.94512,-39.2352,-3.69312,-3.99968,-26.8598,-11.1585,-6.28049
410.733,10.029,-6.01961,0,1.64059,9.49865,-1.45378,-1.52439,1.4939,-6.0061,-39.331,-3.77934,-4.36373,-28.1707,-11.6463,-4.90854
410.743,9.96574,-6.02339,0,1.65496,9.46991,-1.41785,-1.46341,0.701219,-6.21951,-39.3214,-3.63564,-4.25834,-28.3537,-13.2927,-5.21341
410.753,9.91095,-6.03174,0,1.70525,9.50823,-1.3939,-1.52439,0.579268,-6.0061,-39.3598,-3.56858,-4.34457,-30.2134,-13.0488,-6.0061
410.763,9.87139,-6.02107,0,1.79626,9.55613,-1.43701,-1.7378,0.0304878,-5.54878,-39.3598,-3.80808,-4.01884,-33.2622,-13.6585,-5.82317
410.773,9.83808,-6.02576,0,1.85854,9.54176,-1.41546,-2.31707,0.121951,-5.7622,-39.149,-3.88472,-4.25834,-35.061,-13.811,-6.70732
410.783,9.81266,-6.04143,0,1.9256,9.52739,-1.3963,-2.28659,0.487805,-5.85366,-39.2831,-3.92304,-4.46911,-35.2134,-13.9634,-6.7378
410.793,9.79339,-6.05373,0,1.93278,9.50583,-1.4418,-1.79878,0.487805,-5.42683,-39.1107,-3.96136,-4.40205,-35.2134,-14.0854,-7.62195
410.803,9.78077,-6.03683,0,1.98068,9.49146,-1.33882,-1.61585,0.670732,-5.39634,-39.0149,-4.1338,-3.8943,-36.9512,-14.7561,-7.22561
410.813,9.77131,-6.0446,0,1.97589,9.41482,-1.37235,-1.37195,0.914634,-5.2439,-39.149,-4.00926,-4.32541,-36.8902,-14.5122,-6.70732
410.823,9.77735,-6.04967,0,2.04774,9.38848,-1.26697,0.0304878,1.4939,-4.66463,-39.3502,-4.1817,-4.30625,-37.3171,-14.6646,-5.57927
410.833,9.78057,-6.03756,0,2.00942,9.44356,-1.31247,0.518293,1.76829,-4.35976,-39.4172,-3.9901,-4.01884,-39.7561,-15.7012,-5.15244
410.843,9.78355,-6.00343,0,2.00703,9.54176,-1.29092,0.487805,2.37805,-4.11585,-39.6951,-3.92304,-3.6548,-42.8049,-17.1341,-4.81707
410.853,9.7859,-5.99342,0,2.00224,9.63277,-1.35798,0.213415,3.35366,-3.90244,-39.6376,-4.11464,-4.05716,-47.2561,-18.9024,-4.45122
410.863,9.79354,-5.9913,0,2.01421,9.67109,-1.35798,-0.426829,3.93293,-3.47561,-39.628,-4.10506,-4.19128,-48.5366,-19.7256,-3.35366
410.873,9.79395,-6.00642,0,1.95434,9.69504,-1.3939,-1.76829,5.09146,-3.41463,-39.5035,-4.05716,-4.47869,-48.4451,-19.2073,-2.40854
410.883,9.78867,-6.02509,0,1.86572,9.70701,-1.28852,-3.38415,6.03659,-2.95732,-39.216,-4.15296,-4.51701,-48.811,-18.7195,-1.43293
410.893,9.77805,-6.04591,0,1.79626,9.63516,-1.30289,-3.96341,6.43293,-2.83537,-39.2544,-4.39247,-4.57449,-49.2378,-19.4207,0.0609756
410.903,9.76947,-6.07123,0,1.77231,9.58487,-1.28613,-4.69512,6.64634,-2.53049,-38.9861,-4.20086,-4.63197,-50.3049,-18.2622,1.43293
410.913,9.7389,-6.10312,0,1.60227,9.55613,-1.33403,-5.42683,6.4939,-2.53049,-39.1011,-4.44037,-4.77567,-52.378,-17.561,0.945122
410.923,9.69379,-6.12029,0,1.51605,9.616,-1.35079,-5.94512,6.0061,-2.83537,-38.9095,-4.64155,-4.51701,-53.9939,-17.1951,1.31098
410.933,9.64321,-6.11457,0,1.45138,9.5681,-1.43701,-6.25,4.57317,-2.68293,-38.8041,-4.54575,-4.12422,-56.4939,-18.3841,1.76829
410.943,9.5881,-6.1132,0,1.4418,9.62558,-1.41067,-7.04268,3.56707,-3.14024,-38.8903,-4.68945,-4.21044,-58.4451,-20,1.89024
410.953,9.53891,-6.10835,0,1.47533,9.62798,-1.44899,-7.86585,1.79878,-3.07927,-38.8041,-4.75651,-4.14338,-59.3293,-21.0366,1.40244
410.963,9.49098,-6.12811,0,1.4897,9.65911,-1.40348,-9.35976,0.365854,-3.20122,-38.8328,-4.96727,-4.56491,-63.3232,-19.6341,1.95122
410.973,9.45938,-6.1574,0,1.60706,9.62558,-1.3005,-10.2134,-0.945122,-3.20122,-38.852,-4.57449,-4.73735,-61.7988,-17.0122,2.2561
410.983,9.4558,-6.21545,0,1.75315,9.60642,-1.27655,-10.5793,-1.25,-2.46951,-38.3347,-4.68945,-5.17803,-63.1707,-13.9634,6.70732
410.993,9.47137,-6.23079,0,1.86812,9.62319,-1.19751,-11.8293,-0.579268,-2.19512,-39.0723,-5.40795,-4.56491,-62.0732,-12.3171,5.82317
411.003,9.51901,-6.21577,0,1.93039,9.57768,-1.21667,-13.2012,1.25,-1.25,-39.7334,-5.57082,-4.12422,-61.0061,-15.061,5.06098
411.013,9.61008,-6.20865,0,1.99745,9.60163,-1.20469,-14.7866,3.75,-0.487805,-39.9825,-5.49417,-4.28709,-60.8537,-16.9817,3.71951
411.023,9.67243,-6.20735,0,1.92799,9.38608,-1.02507,-12.6829,5.91463,-1.06707,-39.4556,-5.51333,-4.33499,-57.8354,-19.0244,3.32317
411.033,9.72301,-6.19537,0,1.8777,9.46991,-1.35558,-9.87805,4.96951,-0.853659,-39.034,-5.36963,-4.10506,-58.0183,-19.939,3.17073
411.043,9.74081,-6.18941,0,1.80824,9.70222,-1.52323,-8.93293,5.88415,-0.97561,-38.4305,-5.42711,-4.1338,-56.4329,-19.1159,4.14634
411.053,9.71383,-6.19262,0,1.59987,9.78126,-1.6334,-9.45122,8.53659,-1.52439,-38.0473,-5.38879,-4.23918,-55.2744,-17.5915,4.11585
411.063,9.66531,-6.17616,0,1.47533,9.72617,-1.46815,-10.7927,9.69512,-2.37805,-38.0856,-5.19719,-3.90388,-55.6707,-15.3049,4.08537
411.073,9.61235,-6.16917,0,1.45138,9.52978,-1.3005,-11.189,9.35976,-3.17073,-38.2772,-5.18761,-4.06674,-56.189,-13.1098,4.93902
411.083,9.56987,-6.1935,0,1.51605,9.46272,-1.22864,-11.0976,8.29268,-3.20122,-38.0664,-4.45953,-4.56491,-55.3963,-11.0671,5.12195
411.093,9.53462,-6.23569,0,1.59269,9.44835,-1.14482,-10.8841,7.46951,-3.59756,-37.9706,-4.74693,-4.86189,-55.061,-7.62195,6.89024
411.103,9.50335,-6.24854,0,1.61664,9.4244,-1.04183,-11.4024,6.61585,-3.62805,-38.4305,-4.67987,-4.44037,-55.9146,-6.18902,4.87805
411.113,9.49126,-6.23849,0,1.73878,9.4747,-0.981958,-11.9512,6.28049,-3.23171,-39.1298,-4.78525,-4.1338,-55.7012,-7.22561,2.04268
411.123,9.49199,-6.21781,0,1.76752,9.52978,-0.986748,-12.7744,6.0061,-2.40854,-39.149,-4.68945,-3.95178,-57.622,-9.63415,0.792683
411.133,9.52176,-6.16746,0,1.84177,9.55613,-1.02028,-14.2988,5.91463,-1.37195,-39.264,-4.45953,-3.43446,-58.6585,-10.6707,-0.457317
411.143,9.56698,-6.12549,0,1.85135,9.59445,-1.06818,-15.4573,6.34146,-0.792683,-39.0053,-4.32541,-3.53026,-61.128,-12.8963,-1.64634
411.153,9.67569,-6.10125,0,1.95434,9.57768,-1.04902,-16.25,7.31707,-0.0914634,-38.7849,-4.54575,-3.78892,-60.1524,-13.3841,0.27439
411.163,9.77096,-6.03644,0,2.01421,9.60642,-0.888552,-17.2256,9.02439,0.579268,-38.5646,-4.48827,-3.05125,-61.5854,-11.9817,1.03659
411.173,9.86346,-6.01749,0,2.08367,9.59205,-0.689766,-17.7439,11.5854,1.09756,-38.4209,-4.41163,-3.76976,-61.6768,-9.26829,1.92073
411.183,9.9481,-5.99865,0,2.10283,9.54894,-0.677791,-18.2927,12.0122,1.98171,-38.2964,-4.35415,-3.74102,-61.25,-7.59146,3.07927
411.193,10.0437,-5.98248,0,2.22258,9.60163,-0.687371,-17.2561,12.1951,2.56098,-37.9898,-4.36373,-3.74102,-60.3963,-6.79878,4.78659
411.203,10.147,-6.00121,0,2.28245,9.58487,-0.651445,-15.1524,12.9878,3.17073,-37.7886,-4.1338,-4.29667,-58.3841,-6.31098,6.98171
411.213,10.2562,-5.99625,0,2.32317,9.62319,-0.593965,-13.8415,14.7866,3.90244,-38.0952,-4.20086,-3.9422,-55.8537,-6.52439,7.86585
411.223,10.385,-6.0076,0,2.46687,9.62079,-0.536484,-14.7256,15.7927,4.57317,-38.6508,-4.22002,-4.2775,-53.5366,-6.55488,9.81707
411.233,10.5396,-5.98949,0,2.56507,9.51062,-0.366438,-15.9756,15.9451,6.12805,-38.9382,-4.22002,-3.81766,-51.6768,-9.96951,9.29878
411.243,10.7318,-5.95419,0,2.73032,9.38848,-0.273032,-16.4939,16.2805,8.01829,-39.0436,-4.25834,-3.52068,-48.9634,-10.9756,7.89634
411.253,10.9625,-5.94496,0,2.90516,9.25675,-0.131726,-16.9512,17.0732,9.87805,-39.6472,-4.32541,-4.00926,-47.8049,-10.7927,7.46951
411.263,11.2271,-5.93376,0,3.06083,9.21125,-0.0191602,-16.7988,18.1098,11.8598,-39.81,-4.20086,-3.97094,-44.2683,-6.89024,5.7622
411.273,11.5289,-5.93963,0,3.23807,9.20166,-0.0431104,-17.0427,18.3841,14.1463,-39.4076,-3.53984,-4.21044,-41.2805,-3.32317,4.93902
411.283,11.871,-5.92372,0,3.4129,9.24238,0.0383203,-17.5915,18.7195,17.0732,-39.5609,-3.23328,-3.8464,-42.439,-3.10976,5.64024
411.293,12.2669,-5.90296,0,3.6548,9.18969,-0.0263452,-18.7805,19.6646,20.3659,-39.7717,-2.49561,-3.77934,-42.9573,-5.82317,8.5061
411.303,12.7211,-5.88465,0,3.83443,9.10107,0,-20.2439,20.6402,24.7561,-39.81,-2.18905,-3.81766,-43.689,-7.53049,11.8598
411.313,13.2438,-5.86336,0,4.03321,8.92384,0.124541,-20.4878,21.9817,29.6646,-39.5035,-1.49928,-3.73144,-41.5854,-9.87805,15.0305
411.323,13.8465,-5.82071,0,4.23439,8.72745,0.141306,-19.6646,23.2622,35.7012,-40.0878,-0.924478,-3.40572,-38.3232,-14.0854,17.6829
411.333,14.5288,-5.76121,0,4.4739,8.59093,0.213157,-17.3476,25.0305,41.7378,-40.3657,-0.981958,-3.11832,-35.5793,-20.061,19.6037
411.343,15.2892,-5.70261,0,4.74932,8.58615,0.237107,-13.8415,26.6768,48.1707,-40.5573,-0.684976,-3.11832,-33.7805,-23.2622,22.5305
411.353,16.1135,-5.67848,0,5.02475,8.65081,0.107776,-8.90244,28.1098,53.7805,-40.3465,-0.570015,-3.69312,-31.4634,-27.6524,25.0915
411.363,16.9881,-5.67084,0,5.32652,8.83523,0.0263452,-3.68902,28.6585,58.689,-40.6052,-0.732876,-4.00926,-30.5793,-30.9756,25.4268
411.373,17.8933,-5.68271,0,5.772,9.23759,-0.296982,1.40244,28.0183,61.7378,-40.6626,-0.780776,-4.37331,-27.9573,-33.9634,26.7683
411.383,18.8009,-5.74339,0,6.01389,9.53936,-0.673001,5.09146,27.8049,63.3537,-40.471,-0.435894,-5.25467,-24.4207,-36.8902,31.372
411.393,19.689,-5.82957,0,6.07377,9.73096,-1.00351,6.95122,29.9695,63.75,-39.8962,-0.158071,-5.68578,-18.2622,-38.628,35
411.403,20.5324,-5.92304,0,5.87738,9.79563,-1.12566,7.7439,36.128,63.0488,-39.9633,-0.0814307,-5.87738,-12.8659,-35.7012,39.7256
411.413,21.317,-6.04003,0,5.46543,9.77407,-0.797541,8.14024,43.4451,62.3476,-39.7909,-0.0814307,-6.33722,-5.33537,-34.6951,45.1524
411.423,22.0231,-6.18148,0,4.99841,9.72857,-0.335303,10.4268,48.9634,60.061,-39.2927,-0.00479004,-6.76833,2.9878,-32.622,50.3049
411.433,22.6473,-6.35488,0,4.05237,9.89143,0.150886,15.0915,51.128,63.1707,-39.1586,-0.244292,-7.40061,8.84146,-28.689,55.6707
411.443,23.2629,-6.55429,0,3.76976,10.0663,0.335303,19.2073,49.939,67.1341,-39.3214,-0.732876,-8.00416,16.128,-23.2622,58.5671
411.453,23.884,-6.75605,0,3.69073,10.0735,0.227527,22.5,47.9878,69.7866,-39.331,-1.11608,-8.1766,20.061,-19.1768,59.7866
411.463,24.4838,-6.96868,0,3.45601,9.98244,0.265847,25.7317,45.8841,70.9756,-39.6376,-0.962798,-8.57896,26.6463,-17.561,61.0366
411.473,25.0251,-7.14468,0,3.02251,9.92736,0.948428,28.2927,37.8354,70.6402,-40.0495,-0.435894,-8.15744,32.5305,-20.122,63.3841
411.483,25.4636,-7.30673,0,2.0214,10.3321,1.74597,30.7927,21.8902,73.2317,-40.2315,-0.186812,-8.0808,38.811,-24.2988,63.9634
411.493,25.8893,-7.43429,0,1.75555,10.404,1.55916,30.3659,11.1585,75.8537,-40.107,-0.474214,-7.55389,45.4878,-27.9878,64.8171
411.503,26.3311,-7.56297,0,1.8753,10.1046,0.811912,26.9817,10.4573,76.4634,-39.7142,-0.809517,-7.60179,51.4634,-30.7317,62.2866
411.513,26.7858,-7.64403,0,2.13396,9.64235,-0.0574805,23.4756,13.628,74.6646,-39.5418,-0.761616,-6.80665,54.8171,-31.7683,60.3049
411.523,27.2817,-7.76767,0,2.77104,9.17532,-0.404758,21.5854,14.3902,70.9756,-38.7275,-0.522114,-7.46767,58.0183,-29.878,58.872
411.533,27.8076,-7.88214,0,3.23567,9.01006,-0.476609,22.4695,10.5488,69.0244,-38.191,-0.407153,-7.28565,60.3963,-28.7195,60.1524
411.543,28.3844,-7.98193,0,3.76497,8.66518,-0.435894,22.4695,4.54268,67.6829,-37.9227,-0.167651,-7.06531,63.5061,-30.6402,60.6402
411.553,28.9919,-8.07396,0,4.16733,8.33467,-0.273032,25.3049,-2.83537,65.7012,-37.9611,0.196392,-7.01741,65.0305,-33.811,62.2866
411.563,29.5893,-8.1419,0,4.29906,8.14786,-0.371228,28.689,-5.88415,63.3537,-38.5646,0.435894,-6.78749,65.0915,-38.872,61.0061
411.573,30.1749,-8.20357,0,4.64155,8.0808,-0.689766,31.3415,-2.04268,59.1768,-38.8041,0.684976,-6.78749,67.1646,-44.939,58.6585
411.583,30.7514,-8.26028,0,4.85231,7.94667,-0.907712,33.2927,4.78659,56.311,-39.0244,1.07776,-6.79707,69.2378,-49.4512,57.7744
411.593,31.3098,-8.2905,0,5.02475,7.73591,-0.759221,35.4268,12.0732,52.378,-39.0436,0.895737,-6.38512,72.8354,-53.3841,53.9939
411.603,31.8523,-8.31949,0,5.31215,7.73352,-0.548459,37.8354,17.1951,48.872,-39.1203,0.924478,-6.40428,74.8476,-55.5488,49.3902
411.613,32.3927,-8.34566,0,5.60435,7.72633,-0.407153,40.5183,20.8232,46.7683,-38.6125,0.752036,-6.2989,76.8598,-57.5305,41.9207
411.623,32.927,-8.37196,0,5.79595,7.6952,-0.277822,41.9207,23.9329,45.1524,-38.0856,0.819097,-6.23184,77.2561,-57.1341,34.8476
411.633,33.4595,-8.40664,0,5.87738,7.55629,-0.177231,44.939,27.7744,44.2378,-37.233,1.11608,-6.251,75.6402,-57.1646,29.7561
411.643,33.9768,-8.46829,0,5.76242,7.48204,-0.215552,49.5732,31.0061,44.3293,-36.821,1.46096,-6.65336,73.2012,-56.372,25.5488
411.653,34.4817,-8.55748,0,5.6762,7.38624,-0.543669,50.2134,34.6646,44.2378,-36.6486,1.346,-7.11321,70.3659,-53.2622,22.622
411.663,34.9544,-8.66675,0,5.43909,7.18745,-0.474214,50.7317,33.1402,42.8659,-36.7731,1.2023,-7.53473,65.5488,-53.0488,19.5427
411.673,35.3634,-8.76329,0,5.13253,7.20661,-0.277822,50.3963,27.5915,40.7012,-37.0031,1.19272,-7.42935,61.9207,-50.122,16.311
411.683,35.7018,-8.85786,0,4.91219,7.36947,0.0143701,50.3049,20.7622,37.9573,-37.4629,0.962798,-7.55389,58.9939,-50.2439,13.0793
411.693,35.9512,-8.95303,0,4.57688,7.43893,0.0814307,49.3598,17.0122,33.811,-37.0222,1.25978,-7.53473,54.0549,-48.9939,9.93902
411.703,36.0948,-9.04207,0,4.21763,7.54431,0.215552,48.0488,15.7927,28.4146,-37.0605,1.08734,-7.49641,47.2866,-47.2256,6.09756
411.713,36.1251,-9.13726,0,3.78653,7.57066,0.0598755,43.4756,13.2622,22.5305,-36.9743,1.2023,-7.64011,40.7012,-46.2805,4.66463
411.723,36.1154,-9.21487,0,3.86317,7.43654,-0.217947,37.4085,10.4573,16.7073,-36.6103,1.64298,-7.33355,32.561,-46.4939,2.34756
411.733,36.0656,-9.26971,0,3.82485,7.05573,-0.265847,32.2561,4.69512,10.5488,-36.3612,2.39023,-6.96951,22.8354,-50.6707,1.58537
411.743,35.9604,-9.30671,0,3.92065,6.77791,-0.217947,28.3841,-0.609756,4.20732,-36.6007,2.62015,-6.76833,13.1707,-55.122,1.46341
411.753,35.8922,-9.37405,0,4.55533,6.47374,-0.160466,25.7012,-1.4939,-1.85976,-36.5336,3.10874,-7.29523,2.65244,-57.6829,1.52439
411.763,35.8347,-9.46375,0,5.0966,6.61025,-0.0790356,23.5671,-2.95732,-9.42073,-36.7923,3.48236,-7.76465,-8.71951,-56.0976,0.762195
411.773,35.7261,-9.56752,0,5.50854,6.76833,0.100591,21.0061,-6.52439,-17.8354,-36.9839,3.87514,-8.09996,-18.5976,-54.3598,-2.04268
411.783,35.6209,-9.70972,0,6.21268,6.85934,0.316143,17.7744,-8.07927,-23.872,-37.4533,4.0859,-8.92384,-27.8659,-49.1768,-4.78659
411.793,35.551,-9.85051,0,6.9719,6.76354,0.543669,15.1829,-6.89024,-28.0488,-37.9036,3.78892,-9.0867,-33.2622,-43.689,-8.81098
411.803,35.5125,-9.98879,0,7.61616,6.73,0.816702,13.75,-4.48171,-30.4268,-38.67,3.30034,-9.30705,-36.25,-38.3841,-11.9512
411.813,35.5613,-10.0994,0,8.37778,6.42105,0.893342,16.6768,-2.22561,-29.7561,-39.3693,2.94587,-9.05796,-36.9512,-35.3963,-16.8293
411.823,35.6717,-10.1858,0,8.74901,6.16239,0.641865,20.4573,1.12805,-28.0793,-39.8962,2.22737,-8.80888,-34.0854,-34.4512,-18.811
411.833,35.821,-10.2672,0,8.87834,6.11448,0.57241,26.8902,2.77439,-25.122,-39.8196,1.69088,-8.76098,-29.3902,-33.7195,-20.5488
411.843,35.9868,-10.3547,0,8.82325,6.31567,0.330513,32.9573,-0.0609756,-21.0061,-39.5705,1.04902,-8.87594,-26.311,-33.2622,-20.3963
411.853,36.1484,-10.4393,0,8.75619,6.58391,-0.136516,36.4634,-1.09756,-18.3537,-39.3598,0.627495,-8.83762,-19.6951,-32.9573,-20.5488
411.863,36.2817,-10.5053,0,8.69632,6.97909,-0.507744,34.0244,1.79878,-17.2256,-39.5609,0.273032,-8.6077,-18.5976,-34.2683,-20.5183
411.873,36.3891,-10.5569,0,8.7059,7.29283,-0.543669,27.8963,7.37805,-17.1341,-40.0783,0.368833,-8.50232,-18.7805,-34.3902,-19.5122
411.883,36.4881,-10.5949,0,8.75859,7.39822,-0.342488,21.9512,11.4024,-17.2866,-40.0399,0.981958,-8.28198,-22.7134,-34.4207,-18.3537
411.893,36.6017,-10.6613,0,8.53106,7.05812,-0.237107,22.8049,11.5549,-16.7988,-40.3657,2.05493,-8.8951,-29.878,-31.128,-16.372
411.903,36.7062,-10.7252,0,8.30832,7.14674,-0.129331,25.9451,10.0305,-15.2439,-40.3561,3.50152,-8.87594,-36.5244,-26.2195,-11.0061
411.913,36.7903,-10.8181,0,7.83171,7.20661,-0.0742456,28.4756,5.27439,-13.2012,-40.0495,5.07265,-9.36453,-43.1098,-18.1098,-4.78659
411.923,36.8172,-10.9537,0,7.49641,7.56587,-0.158071,27.561,-4.35976,-13.4756,-40.4806,6.5384,-10.313,-48.2927,-10.1524,0.396341
411.933,36.7576,-11.0174,0,7.26409,8.20534,-0.131726,23.2012,-15.8537,-15.6707,-41.3141,7.26649,-9.21125,-51.4634,-1.43293,3.04878
411.943,36.6087,-10.9954,0,7.17548,9.25675,-0.234712,15.8537,-26.0061,-17.2866,-43.7953,6.93119,-8.07122,-51.6159,4.02439,0.0304878
411.953,36.3541,-10.9261,0,7.17787,10.9381,0.0215552,9.69512,-34.1768,-19.1768,-46.9568,5.82948,-7.60179,-46.0671,10.1524,-8.14024
411.963,35.9819,-10.8719,0,6.5408,11.9799,0.265847,4.32927,-36.4329,-22.2256,-50.0607,2.94587,-8.32988,-37.1037,21.9817,-20.3049
411.973,35.5719,-10.7877,0,5.83666,12.0134,0.0838257,1.55488,-38.3841,-21.2805,-52.3503,-0.397573,-7.89877,-19.3293,33.4146,-33.689
411.983,35.2365,-10.669,0,5.71691,11.829,-0.517324,-2.34756,-41.1585,-14.2683,-53.931,-4.00926,-7.18027,8.84146,42.1646,-43.3232
411.993,35.0239,-10.5442,0,5.76721,11.5512,-0.833467,-9.29878,-49.6341,-3.90244,-54.228,-7.33355,-6.91203,37.4085,50.8841,-50.3659
412.003,34.8539,-10.4181,0,5.1924,11.235,-0.914897,-17.0122,-64.7561,3.59756,-52.609,-9.42201,-6.51924,61.8902,60.0305,-51.128
412.013,34.629,-10.274,0,3.86796,10.107,-1.22625,-17.8963,-65.7012,5.51829,-51.2774,-9.48907,-5.78158,72.2256,69.939,-50.0305
412.023,33.6059,-10.147,0,2.41657,8.72985,-2.4022,-10.6098,-49.9695,0.609756,-47.1388,-7.85087,-5.52291,74.0854,77.6524,-49.2378
412.033,32.988,-10.0049,0,1.08255,8.51429,-3.56618,-12.3171,-25.8537,-9.2378,-43.757,-4.68945,-4.69903,72.8354,86.6463,-42.2561
412.043,32.058,-9.74383,0,-0.457449,8.83523,-2.00224,-12.9878,-23.5671,-21.5244,-42.1955,-1.7292,-2.18905,72.9878,89.3598,-38.6585
412.053,31.0021,-9.24374,0,-0.864602,9.55373,-1.0083,-9.08537,-41.4329,-31.7683,-44.1977,0.387993,2.50519,62.8049,72.6524,-38.7805
412.063,30.0037,-8.55669,0,0.249082,10.4088,-2.11959,-7.83537,-60.3049,-41.4024,-49.1602,1.4418,7.19943,56.372,45.5488,-42.439
412.073,29.0816,-7.78981,0,1.5879,10.792,-3.77455,-10.3049,-64.2073,-49.939,-48.959,2.96503,9.44117,38.6585,21.4329,-48.1098
412.083,28.1593,-7.0471,0,2.08846,10.7369,-4.02842,-11.9207,-60.3049,-57.2256,-46.5831,2.91713,9.06754,27.3476,9.96951,-51.6768
412.093,27.2003,-6.30308,0,2.08606,10.4567,-3.1734,-14.1463,-58.2927,-63.4146,-46.5065,7.63053,9.60403,-14.6646,-14.7561,-49.4512
412.103,26.2566,-5.63801,0,2.41657,10.0711,-2.68242,-13.689,-54.6341,-68.3232,-40.6339,1.91123,7.51557,-16.4634,-2.59146,-46.6159
412.113,25.3165,-4.88439,0,2.50998,9.36932,-2.79499,-10.7622,-48.9939,-72.9573,-40.6052,3.01293,9.61361,-41.25,-14.6951,-36.9207
412.123,24.484,-4.20089,0,3.2692,8.88313,-2.89079,-8.96341,-37.0122,-74.5122,-37.5587,3.1758,8.18618,-58.8415,-16.1585,-26.6159
412.133,23.6365,-3.58968,0,2.90516,8.62926,-2.83091,-6.31098,-27.7439,-74.4817,-35.1349,2.61057,6.92161,-75.5183,-18.0183,-17.6524
412.143,22.7596,-3.0646,0,2.38544,8.43286,-2.77822,-3.2622,-26.311,-73.4756,-33.947,1.75794,5.71452,-85.3659,-23.1402,-12.4695
412.153,21.8567,-2.61271,0,1.90404,8.28437,-2.75906,-0.853659,-27.3476,-72.1037,-33.5638,0.560435,4.84273,-90.5488,-27.561,-12.8963
412.163,20.8737,-2.24584,0,1.13524,8.48555,-2.92432,0.243902,-29.8476,-71.25,-33.4967,-0.742456,3.81766,-89.8476,-30.2439,-16.0671
412.173,19.8884,-1.95623,0,0.886157,8.69632,-3.02251,-1.09756,-37.5,-69.8171,-34.2248,-2.96503,2.93629,-86.4329,-33.1098,-22.8963
412.183,18.9367,-1.71606,0,0.821492,8.87594,-3.21891,-2.86585,-43.7805,-67.3171,-34.7422,-5.25467,2.39981,-78.2012,-31.7683,-33.2317
412.193,18.0487,-1.53793,0,1.02267,9.05078,-3.29076,-4.17683,-48.4756,-65.1219,-35.02,-6.81623,1.61424,-70.2744,-28.9024,-44.6037
412.203,17.2361,-1.41463,0,1.37474,9.18969,-3.36021,-5.57927,-54.3293,-63.4451,-35.4128,-8.05206,0.895737,-60.3049,-25.6098,-52.7744
412.213,16.4889,-1.35182,0,1.78429,9.04599,-3.33626,-6.25,-59.6951,-63.8415,-35.8247,-8.78014,0.0431104,-51.2805,-20.7317,-57.5915
412.223,15.7367,-1.32608,0,1.65735,9.09868,-3.20693,-7.19512,-65.8537,-64.1768,-35.9205,-9.23999,-0.493374,-41.372,-17.1646,-61.0366
412.233,15.045,-1.33777,0,1.97589,9.09389,-2.99377,-7.10366,-68.5061,-63.4756,-35.9397,-9.62319,-1.0586,-33.2012,-13.3232,-60.8537
412.243,14.3787,-1.35916,0,2.019,9.1849,-2.62015,-7.9878,-73.1098,-62.5915,-35.4032,-9.23999,-1.19272,-26.6159,-10.4268,-60.5488
412.253,13.7633,-1.39911,0,2.23934,9.19927,-2.64171,-9.26829,-76.1281,-61.372,-34.6272,-8.52148,-1.46096,-20.7622,-9.69512,-58.75
412.263,13.2178,-1.4377,0,2.67763,9.11784,-2.68242,-11.4329,-77.6219,-60.9756,-34.2057,-7.44851,-1.4418,-16.2805,-8.10976,-56.5854
412.273,12.7458,-1.47013,0,3.26681,8.91666,-2.62734,-12.0427,-77.1341,-62.2561,-33.286,-6.56714,-1.33642,-10.6402,-8.59756,-51.5854
412.283,12.2805,-1.49586,0,3.35063,8.72027,-2.49561,-11.5244,-73.2927,-64.3598,-33.1806,-5.32173,-1.26936,-9.87805,-14.3293,-45.3049
412.293,11.8017,-1.53141,0,3.26202,8.67476,-2.33035,-12.1341,-67.6524,-65.8537,-33.6883,-4.36373,-1.47054,-7.7439,-21.372,-39.1768
412.303,11.3187,-1.53572,0,3.11832,8.48076,-2.25611,-12.9268,-61.7073,-66.4024,-34.3781,-3.97094,-1.06818,-6.7378,-28.2012,-31.7073
412.313,10.8598,-1.5336,0,3.06323,8.2221,-2.39741,-12.5305,-55.3963,-65.4268,-34.6847,-3.58774,-0.991538,-8.32317,-31.3415,-26.9207
412.323,10.4452,-1.56485,0,3.2213,8.09038,-2.59381,-12.2561,-48.75,-64.4512,-35.0583,-3.11832,-1.51844,-11.7988,-31.7683,-24.6341
412.333,10.0477,-1.58685,0,3.06083,7.99697,-2.81415,-11.7988,-41.9817,-61.9817,-35.0679,-2.46687,-1.38432,-16.5549,-28.3537,-22.622
412.343,9.64318,-1.67623,0,2.73272,8.10954,-2.83091,-11.25,-35.3354,-58.7805,-34.7134,-2.11241,-2.40939,-21.311,-25.5793,-18.8415
412.353,9.22464,-1.80696,0,2.58423,8.36101,-2.81415,-8.75,-29.4207,-58.0793,-33.8225,-2.28485,-3.01293,-28.0793,-22.8354,-13.628
412.363,8.77154,-1.95335,0,2.49082,8.72985,-2.83091,-5.91463,-26.25,-59.9085,-33.0848,-2.76385,-3.24286,-33.689,-19.0549,-10.4268
412.373,8.32177,-2.0949,0,2.68961,8.76577,-2.91953,-5.21341,-23.4146,-62.8049,-32.7974,-3.44404,-3.2237,-39.1159,-17.3171,-8.10976
412.383,7.90316,-2.24661,0,2.93869,8.50471,-2.97701,-6.12805,-20.2744,-64.6341,-32.5196,-4.51701,-3.42488,-42.561,-17.4085,-6.09756
412.393,7.51525,-2.43312,0,2.95545,8.37778,-2.85247,-7.83537,-17.622,-63.1098,-32.4908,-5.52291,-4.00926,-46.5854,-15.7622,-6.37195
412.403,7.1872,-2.61439,0,3.30752,8.56699,-2.73511,-9.02439,-14.8476,-61.2195,-32.9315,-6.43302,-4.0859,-48.628,-12.5305,-5.82317
412.413,6.86201,-2.86406,0,3.25004,8.69632,-2.73032,-7.80488,-14.0244,-60.3354,-32.9794,-6.92161,-5.19719,-50.2744,-7.34756,-4.2378
412.423,6.52187,-3.17059,0,3.09197,8.92624,-2.64889,-8.47561,-10.8232,-59.6951,-32.8549,-6.99825,-6.14562,-50.061,1.95122,-1.34146
412.433,6.18347,-3.53391,0,2.90755,8.83044,-2.29922,-9.17683,-3.62805,-58.4146,-32.8645,-6.66294,-7.16111,-47.8049,10.7012,5
412.443,5.81099,-3.94395,0,2.43334,8.61968,-2.01421,-7.53049,3.29268,-57.561,-32.6633,-6.18394,-8.01374,-43.6585,20.9146,13.2012
412.453,5.38717,-4.39118,0,1.88488,8.74182,-1.81542,-6.55488,8.14024,-56.2195,-32.3471,-5.60914,-8.72266,-40.8232,29.5427,22.5305
412.463,4.93656,-4.86974,0,1.55437,8.86876,-1.85375,-3.53659,6.34146,-55.2744,-32.0118,-5.13971,-9.35495,-36.8598,37.5915,32.7744
412.473,4.46796,-5.32679,0,1.24781,9.29028,-2.05972,-5.54878,1.31098,-53.3537,-32.7303,-4.98643,-9.50823,-33.7195,42.9573,40.5183
412.483,4.0074,-5.71624,0,1.16158,9.43877,-2.17228,-8.20122,-6.46341,-52.1951,-34.1386,-5.51333,-9.10586,-30.7317,45.7622,45.7622
