time,angle1,angle2,intgangle,accX1,accY1,accZ1,gyroX1,gyroY1,gyroZ1,accX2,accY2,accZ2,gyroX2,gyroY2,gyroZ2
473.121,88.3543,1.75815,0,9.82677,0.186812,-0.344883,-0.0609756,-0.0914634,-1.61585,-39.3502,-2.60099,1.24062,-16.8598,-4.72561,5.36585
473.131,88.3551,1.75196,0,9.82197,0.174836,-0.356858,-0.213415,0,-1.67683,-39.3119,-2.39023,1.08734,-16.7988,-3.5061,4.2378
473.141,88.3563,1.73742,0,9.79084,0.191602,-0.364043,0.243902,0.121951,-1.46341,-39.216,-2.38065,0.934058,-15.2134,-4.14634,5.2439
473.151,88.3576,1.73836,0,9.78605,0.179626,-0.371228,0.396341,0.335366,-1.58537,-39.1969,-2.45729,1.19272,-15.7317,-3.68902,4.45122
473.161,88.3609,1.74752,0,9.79803,0.184417,-0.337698,0.335366,0.304878,-1.40244,-39.3119,-2.30401,1.33642,-15.7317,-4.57317,4.7561
473.171,88.3535,1.75033,0,9.80521,0.213157,-0.426313,0.0304878,0.426829,-1.82927,-39.2544,-2.53393,1.23104,-15.3049,-4.48171,5.7622
473.181,88.3593,1.76803,0,9.84593,0.174836,-0.414338,-0.0914634,0.27439,-1.34146,-39.1969,-2.63931,1.4897,-15.4268,-4.20732,5
473.191,88.3633,1.77045,0,9.8579,0.184417,-0.390388,0.0609756,0.0304878,-1.34146,-39.3981,-2.43813,1.24062,-14.1768,-5.12195,4.78659
473.201,88.3662,1.77296,0,9.79803,0.210762,-0.335303,0.304878,0.0914634,-1.09756,-39.2352,-2.42855,1.24062,-14.7561,-4.60366,3.44512
473.211,88.3644,1.77301,0,9.80281,0.186812,-0.342488,0.0609756,-0.304878,-1.70732,-39.2735,-2.47645,1.2023,-15.6707,-4.17683,5.33537
473.221,88.3648,1.78892,0,9.79323,0.191602,-0.368833,0.0304878,-0.152439,-1.4939,-39.2831,-2.55309,1.48012,-15.7012,-3.44512,4.72561
473.231,88.3642,1.78797,0,9.79563,0.182021,-0.385598,-0.0609756,-0.243902,-1.67683,-39.2544,-2.62015,1.19272,-15.3963,-4.96951,6.28049
473.241,88.3659,1.7851,0,9.78844,0.186812,-0.385598,-0.182927,0.182927,-1.46341,-39.1107,-2.61057,1.1544,-14.5122,-5.03049,4.84756
473.251,88.3673,1.79311,0,9.78844,0.193997,-0.433499,0.0304878,0.152439,-1.40244,-39.1394,-2.56267,1.346,-15.5488,-3.59756,4.32927
473.261,88.3624,1.79052,0,9.80042,0.217947,-0.366438,-0.0609756,0.213415,-1.55488,-39.0915,-2.60099,1.16398,-16.0976,-4.48171,3.53659
473.271,88.3634,1.80433,0,9.80521,0.198787,-0.359253,0.0609756,0.0609756,-1.37195,-39.2256,-2.56267,1.45138,-15.7622,-4.08537,4.11585
473.281,88.3646,1.79873,0,9.79803,0.184417,-0.364043,-0.0304878,0.0914634,-1.52439,-39.3406,-2.46687,1.12566,-14.939,-4.84756,5.21341
473.291,88.3606,1.79413,0,9.81479,0.208367,-0.409548,0.0609756,-0.121951,-1.61585,-39.2352,-2.64889,1.13524,-14.939,-5.09146,4.66463
473.301,88.3604,1.80191,0,9.79563,0.210762,-0.376018,-0.0914634,-0.304878,-1.31098,-39.4843,-2.61057,1.35558,-14.7561,-4.87805,5.4878
473.311,88.3593,1.80409,0,9.81719,0.196392,-0.383203,0.152439,-0.701219,-1.55488,-39.446,-2.55309,1.25978,-14.5732,-5.60976,4.7561
473.321,88.3527,1.80342,0,9.82677,0.229922,-0.361648,-0.121951,-0.213415,-1.55488,-39.513,-2.63931,1.21188,-15.7012,-6.12805,5
473.331,88.3527,1.80542,0,9.84114,0.205972,-0.395178,-0.304878,-0.27439,-1.37195,-39.3598,-2.42855,1.2502,-15.1524,-7.04268,4.45122
473.341,88.356,1.81344,0,9.82437,0.184417,-0.356858,-0.213415,-0.0304878,-1.40244,-39.264,-2.41897,1.35558,-15.5183,-6.15854,4.26829
473.351,88.3603,1.80991,0,9.81,0.189207,-0.390388,-0.304878,-0.0914634,-1.28049,-39.1969,-2.51477,1.1544,-15.4573,-7.56098,4.54268
473.361,88.3635,1.79996,0,9.80042,0.184417,-0.409548,-0.0914634,-0.0304878,-1.40244,-38.9765,-2.45729,1.03944,-16.0366,-6.25,4.29878
473.371,88.363,1.80128,0,9.78126,0.184417,-0.368833,0.0304878,-0.457317,-1.64634,-39.0628,-2.54351,1.23104,-15.6402,-5.70122,5.36585
473.381,88.3618,1.79597,0,9.80521,0.193997,-0.318538,-0.365854,-0.304878,-1.58537,-39.0915,-2.43813,1.11608,-15.7012,-6.46341,4.90854
473.391,88.3627,1.79042,0,9.76689,0.189207,-0.354463,-0.335366,-0.27439,-1.4939,-39.3406,-2.46687,1.11608,-15.5488,-6.18902,5.15244
473.401,88.362,1.80159,0,9.79563,0.196392,-0.349673,-0.335366,-0.396341,-1.52439,-39.2927,-2.48603,1.40348,-14.2988,-5.42683,6.03659
473.411,88.3661,1.80753,0,9.80042,0.184417,-0.335303,-0.121951,-0.0914634,-1.34146,-39.3023,-2.39023,1.32684,-15.2744,-3.65854,4.84756
473.421,88.3696,1.82136,0,9.81958,0.193997,-0.390388,0.121951,0.27439,-1.25,-39.2065,-2.63931,1.46096,-16.0366,-4.57317,4.32927
473.431,88.3753,1.81837,0,9.82916,0.184417,-0.414338,-0.0609756,0.182927,-1.21951,-39.3214,-2.75427,1.18314,-15.4573,-4.5122,4.84756
473.441,88.3699,1.81608,0,9.79563,0.237107,-0.337698,0,0.0914634,-1.31098,-39.2735,-2.46687,1.19272,-14.939,-4.26829,4.54268
473.451,88.3649,1.82572,0,9.80042,0.222737,-0.383203,-0.0609756,-0.121951,-1.4939,-39.1586,-2.55309,1.3939,-15.7317,-4.20732,4.57317
473.461,88.3695,1.83433,0,9.81,0.189207,-0.364043,-0.152439,-0.304878,-1.25,-39.1873,-2.50519,1.38432,-14.8476,-4.02439,4.45122
473.471,88.3622,1.83762,0,9.80042,0.227527,-0.352068,0.27439,-0.121951,-1.61585,-39.1969,-2.51477,1.2981,-14.6646,-4.17683,5.2439
473.481,88.361,1.84503,0,9.83156,0.198787,-0.392783,0.182927,0.121951,-1.52439,-39.2544,-2.54351,1.37474,-14.7561,-3.84146,4.87805
473.491,88.3583,1.85188,0,9.79323,0.213157,-0.337698,0.182927,0.182927,-1.46341,-39.3502,-2.45729,1.37474,-15.6098,-3.44512,5.36585
473.501,88.3552,1.85987,0,9.8076,0.213157,-0.397573,0.0304878,0.396341,-1.4939,-39.216,-2.63931,1.3939,-14.9695,-3.65854,4.2378
473.511,88.3499,1.8647,0,9.82916,0.225132,-0.435894,-0.0609756,0.243902,-1.52439,-39.3023,-2.49561,1.346,-15.2744,-4.11585,5.09146
473.521,88.3534,1.85791,0,9.81,0.189207,-0.399968,-0.121951,0.365854,-1.34146,-39.3693,-2.51477,1.14482,-15.3963,-5.54878,5.30488
473.531,88.3485,1.86393,0,9.81719,0.220342,-0.397573,-0.0609756,0.396341,-1.55488,-39.3789,-2.50519,1.36516,-15.8841,-4.93902,4.2378
473.541,88.3483,1.87547,0,9.82677,0.213157,-0.380808,0.0609756,0.335366,-1.31098,-39.3023,-2.61057,1.46096,-15.5793,-5.36585,3.93293
473.551,88.3524,1.88531,0,9.81,0.191602,-0.387993,0,0.213415,-1.28049,-39.0915,-2.50519,1.43222,-15.3963,-5.18293,4.90854
473.561,88.3509,1.90503,0,9.81,0.186812,-0.395178,0.152439,-0.121951,-1.70732,-39.1298,-2.58183,1.61424,-15.7927,-4.2378,4.54268
473.571,88.3552,1.91707,0,9.81479,0.179626,-0.373623,0,-0.121951,-1.40244,-39.1969,-2.70637,1.49928,-15.1829,-3.78049,4.81707
473.581,88.356,1.92941,0,9.79323,0.198787,-0.359253,0.121951,-0.243902,-1.40244,-39.3023,-2.63931,1.51844,-15.5183,-3.23171,4.72561
473.591,88.3585,1.92144,0,9.79803,0.193997,-0.419128,-0.0609756,-0.27439,-1.34146,-39.3406,-2.43813,1.17356,-15.4573,-3.96341,3.81098
473.601,88.3592,1.92371,0,9.79323,0.201182,-0.395178,0.0609756,0.152439,-1.37195,-39.4364,-2.41897,1.346,-15.3963,-4.81707,3.78049
473.611,88.3612,1.93188,0,9.81958,0.172441,-0.349673,0.0304878,0.304878,-1.61585,-39.4651,-2.47645,1.45138,-15.7622,-4.84756,4.57317
473.621,88.3588,1.93365,0,9.82437,0.201182,-0.337698,0.121951,0.213415,-1.58537,-39.4364,-2.50519,1.346,-15.5488,-4.39024,4.2378
473.631,88.3613,1.92401,0,9.8579,0.205972,-0.354463,0.0304878,-0.243902,-1.18902,-39.2352,-2.44771,1.14482,-15.8232,-3.81098,5.12195
473.641,88.3631,1.93543,0,9.79563,0.167651,-0.299377,0.182927,-0.213415,-1.67683,-39.3406,-2.62015,1.50886,-15.6098,-3.23171,4.72561
473.651,88.3649,1.95243,0,9.83395,0.191602,-0.342488,-0.213415,-0.27439,-1.40244,-39.2831,-2.54351,1.60466,-14.6037,-5.18293,5.2439
473.661,88.3678,1.95533,0,9.83635,0.184417,-0.428708,-0.0914634,-0.0914634,-1.40244,-39.264,-2.58183,1.37474,-15.7622,-4.11585,5.03049
473.671,88.371,1.96569,0,9.78126,0.174836,-0.373623,0,0.121951,-1.4939,-39.1011,-2.63931,1.49928,-15.061,-4.26829,4.87805
473.681,88.3672,1.97808,0,9.81479,0.208367,-0.395178,-0.0914634,0.182927,-1.58537,-39.034,-2.53393,1.5376,-16.189,-4.60366,5.97561
473.691,88.3709,1.96959,0,9.81479,0.174836,-0.356858,0.0914634,0.0304878,-1.46341,-39.0723,-2.52435,1.19272,-15.4573,-3.04878,4.78659
473.701,88.3663,1.97118,0,9.81,0.213157,-0.414338,-0.0914634,0.121951,-1.58537,-39.4556,-2.56267,1.37474,-15.1829,-2.86585,4.08537
473.711,88.3641,1.96594,0,9.81719,0.196392,-0.340093,0.0304878,0.0609756,-1.61585,-39.2927,-2.67763,1.2502,-14.7866,-3.35366,4.2378
473.721,88.3593,1.98084,0,9.82677,0.203577,-0.395178,0,0,-1.7378,-39.3119,-2.48603,1.59508,-15.1829,-3.78049,4.14634
473.731,88.3537,1.97222,0,9.81719,0.237107,-0.337698,-0.0304878,-0.457317,-1.37195,-39.3885,-2.45729,1.2023,-15.2134,-2.9878,4.35976
473.741,88.3527,1.95719,0,9.79803,0.193997,-0.411943,0.121951,-0.121951,-1.58537,-39.0628,-2.38065,1.07776,-15.2439,-2.46951,4.66463
473.751,88.3524,1.95291,0,9.83874,0.184417,-0.399968,-0.182927,0.0609756,-1.64634,-39.264,-2.52435,1.25978,-15.6707,-2.28659,4.93902
473.761,88.3499,1.97188,0,9.80042,0.205972,-0.387993,0,0.182927,-1.55488,-39.149,-2.59141,1.65256,-14.8476,-3.01829,5.36585
473.771,88.353,1.97974,0,9.79803,0.186812,-0.395178,-0.182927,0.182927,-1.40244,-39.3214,-2.60099,1.48012,-15.3354,-2.95732,4.63415
473.781,88.3525,2.00175,0,9.77647,0.193997,-0.373623,-0.152439,0.0609756,-1.55488,-39.5322,-2.52435,1.73878,-14.6646,-3.41463,3.9939
473.791,88.3591,2.00797,0,9.80521,0.177231,-0.349673,-0.0914634,0.0304878,-1.28049,-39.2448,-2.62973,1.47054,-16.128,-2.62195,5.09146
473.801,88.3598,2.00602,0,9.83635,0.198787,-0.366438,0,-0.304878,-1.40244,-39.1298,-2.41897,1.32684,-15.8232,-3.35366,4.81707
473.811,88.3543,2.00622,0,9.81958,0.225132,-0.404758,0,-0.27439,-1.52439,-39.2544,-2.60099,1.36516,-14.5122,-3.90244,5.57927
473.821,88.3564,2.00055,0,9.83156,0.198787,-0.376018,-0.182927,-0.0609756,-1.31098,-39.264,-2.56267,1.26936,-15.3354,-2.28659,5.06098
473.831,88.3533,2.01855,0,9.83635,0.201182,-0.399968,-0.213415,0,-1.64634,-39.216,-2.39981,1.67172,-15.1829,-2.86585,5.18293
473.841,88.3536,2.0048,0,9.84114,0.193997,-0.399968,-0.152439,0.152439,-1.4939,-39.2065,-2.57225,1.13524,-14.7866,-2.59146,4.96951
473.851,88.3552,2.00723,0,9.82437,0.189207,-0.344883,-0.0609756,0.152439,-1.46341,-39.4268,-2.41897,1.41306,-14.1463,-2.7439,4.57317
473.861,88.3587,1.99652,0,9.79803,0.172441,-0.366438,-0.213415,0.0609756,-1.52439,-39.3502,-2.71595,1.18314,-14.6951,-2.95732,5.33537
473.871,88.3564,2.0065,0,9.80042,0.198787,-0.373623,0,-0.27439,-1.61585,-39.2544,-2.45729,1.52802,-14.6037,-3.90244,5.54878
473.881,88.3522,2.00169,0,9.79323,0.222737,-0.373623,-0.0914634,-0.182927,-1.46341,-39.264,-2.50519,1.27894,-14.2073,-3.93293,5.27439
473.891,88.353,2.00879,0,9.79084,0.172441,-0.368833,0.182927,-0.0304878,-1.70732,-39.2065,-2.66805,1.48012,-14.8476,-3.81098,4.72561
473.901,88.3557,2.01206,0,9.81,0.198787,-0.397573,0.182927,0.152439,-1.28049,-39.264,-2.45729,1.42264,-15.0915,-3.29268,5.21341
473.911,88.3548,2.01015,0,9.82197,0.208367,-0.378413,0.27439,-0.0609756,-1.40244,-39.331,-2.48603,1.33642,-15.6707,-3.59756,5.42683
473.921,88.3551,2.0047,0,9.81958,0.196392,-0.352068,0.0609756,0.182927,-1.46341,-39.1681,-2.74469,1.26936,-14.7561,-3.29268,4.69512
473.931,88.3546,2.00616,0,9.83874,0.198787,-0.421523,0.243902,0.182927,-1.4939,-39.0819,-2.49561,1.38432,-14.9085,-2.59146,4.35976
473.941,88.3571,1.98827,0,9.80521,0.191602,-0.402363,0.152439,0,-1.37195,-39.2352,-2.83091,1.0586,-15.2134,-1.82927,5.06098
473.951,88.3599,1.99612,0,9.83635,0.172441,-0.380808,0.0609756,0,-1.55488,-39.1777,-2.62973,1.4897,-15.7622,-1.79878,5.03049
473.961,88.3643,1.99516,0,9.81719,0.160466,-0.364043,0.0304878,0.243902,-1.58537,-39.1873,-2.59141,1.346,-14.878,-0.914634,4.17683
473.971,88.3657,1.99737,0,9.82197,0.177231,-0.423918,-0.121951,0.304878,-1.58537,-39.3502,-2.49561,1.40348,-14.7256,-1.70732,4.69512
473.981,88.3656,1.99485,0,9.80042,0.184417,-0.411943,-0.0304878,0.243902,-1.61585,-39.4364,-2.45729,1.32684,-15.4268,-1.34146,4.11585
473.991,88.3637,1.9994,0,9.80042,0.182021,-0.395178,-0.152439,0.518293,-1.76829,-39.2735,-2.52435,1.4418,-14.6646,-1.4939,4.39024
474.001,88.3621,1.99702,0,9.81479,0.222737,-0.356858,-0.0609756,0.0304878,-1.25,-39.1107,-2.52435,1.31726,-15.2439,-2.04268,3.53659
474.011,88.3605,1.99152,0,9.80521,0.196392,-0.359253,-0.0609756,0.121951,-1.58537,-39.149,-2.45729,1.25978,-15.5488,-3.04878,5.12195
474.021,88.3631,1.97541,0,9.81479,0.184417,-0.387993,0.0609756,0.213415,-1.43293,-39.1969,-2.51477,1.07776,-14.9695,-1.98171,4.11585
474.031,88.3704,1.98668,0,9.82677,0.177231,-0.376018,0.152439,0.243902,-1.21951,-39.3406,-2.35191,1.54718,-15.4573,-1.58537,4.81707
474.041,88.3669,1.98237,0,9.81958,0.205972,-0.433499,0.182927,0.335366,-1.58537,-39.2544,-2.52435,1.27894,-15.3659,-2.34756,4.45122
474.051,88.3645,1.9741,0,9.82916,0.217947,-0.392783,0.0304878,0.27439,-1.37195,-39.3502,-2.54351,1.21188,-14.8476,-1.95122,4.54268
474.061,88.3653,1.96173,0,9.80042,0.186812,-0.399968,0.0914634,0.0609756,-1.52439,-39.4172,-2.63931,1.13524,-15.122,-2.43902,4.29878
474.071,88.3589,1.96043,0,9.83395,0.215552,-0.366438,-0.0304878,0.152439,-1.70732,-39.4172,-2.49561,1.31726,-15.7927,-2.95732,4.81707
474.081,88.3575,1.9665,0,9.80281,0.210762,-0.373623,0.0914634,-0.152439,-1.40244,-39.1298,-2.75427,1.43222,-15.122,-3.56707,4.87805
474.091,88.3618,1.9576,0,9.81958,0.172441,-0.387993,0.0304878,0.182927,-1.46341,-39.3406,-2.52435,1.18314,-14.878,-3.87195,4.45122
474.101,88.3651,1.96384,0,9.80042,0.196392,-0.349673,0.304878,0.152439,-1.25,-39.2831,-2.47645,1.4418,-15.3659,-2.65244,4.69512
474.111,88.364,1.96983,0,9.81,0.213157,-0.332908,0.121951,0.152439,-1.34146,-39.3214,-2.66805,1.4418,-14.7866,-3.04878,6.43293
474.121,88.3678,1.96583,0,9.81479,0.179626,-0.342488,0.121951,-0.121951,-1.40244,-39.1873,-2.69679,1.26936,-14.7256,-2.77439,5.21341
474.131,88.3687,1.97015,0,9.79563,0.208367,-0.419128,0.0609756,-0.243902,-1.25,-39.2831,-2.56267,1.41306,-15.4573,-2.95732,5.67073
474.141,88.3646,1.97123,0,9.81,0.205972,-0.340093,0.121951,-0.243902,-1.64634,-39.0628,-2.56267,1.35558,-14.6037,-2.04268,6.79878
474.151,88.3681,1.96782,0,9.8124,0.184417,-0.311353,-0.0304878,-0.457317,-1.37195,-39.2735,-2.40939,1.28852,-15.1524,-1.18902,6.03659
474.161,88.3719,1.97669,0,9.79323,0.184417,-0.395178,-0.152439,-0.426829,-1.34146,-39.1777,-2.52435,1.4897,-13.8415,-2.86585,4.81707
474.171,88.3693,1.97794,0,9.80042,0.215552,-0.373623,-0.0609756,-0.182927,-1.40244,-39.1969,-2.36149,1.36516,-14.2683,-2.7439,4.48171
474.181,88.3707,1.97898,0,9.81,0.179626,-0.349673,0.0304878,-0.335366,-1.55488,-39.3693,-2.50519,1.36516,-14.4207,-3.65854,5.60976
474.191,88.3681,1.98671,0,9.82437,0.201182,-0.395178,-0.27439,-0.27439,-1.58537,-39.5322,-2.38065,1.4897,-14.2073,-3.29268,5.85366
474.201,88.3707,2.00443,0,9.81958,0.193997,-0.387993,0.27439,0.152439,-1.31098,-39.4939,-2.60099,1.66214,-13.6585,-4.90854,4.96951
474.211,88.3749,2.00773,0,9.81479,0.186812,-0.407153,0.0914634,-0.152439,-1.28049,-39.4076,-2.56267,1.42264,-14.8476,-4.05488,5.30488
474.221,88.382,2.01212,0,9.83635,0.170046,-0.392783,-0.0304878,-0.213415,-1.28049,-39.3885,-2.60099,1.4418,-14.4512,-4.5122,4.87805
474.231,88.3816,2.00942,0,9.8124,0.201182,-0.364043,-0.0609756,-0.365854,-1.40244,-39.3502,-2.39023,1.31726,-13.8415,-5.36585,4.7561
474.241,88.3804,2.00596,0,9.81719,0.208367,-0.383203,-0.121951,-0.0914634,-1.37195,-39.2831,-2.65847,1.2981,-14.6646,-5.97561,5.39634
474.251,88.3817,1.99488,0,9.81479,0.193997,-0.366438,0.0914634,-0.0914634,-1.37195,-39.3406,-2.37107,1.16398,-14.4817,-6.31098,5.21341
474.261,88.3869,1.98334,0,9.82437,0.179626,-0.435894,-0.0304878,0.426829,-1.28049,-39.3214,-2.56267,1.14482,-13.9329,-7.2561,4.81707
474.271,88.3912,1.97312,0,9.80521,0.170046,-0.397573,0.213415,0.640244,-1.43293,-39.1777,-2.56267,1.1544,-14.7561,-7.59146,4.66463
474.281,88.402,1.97526,0,9.79323,0.150886,-0.364043,0.335366,0.27439,-1.25,-39.2352,-2.48603,1.36516,-15.6402,-6.95122,5.33537
474.291,88.4058,1.97366,0,9.8124,0.184417,-0.356858,-0.0609756,0.365854,-1.28049,-39.2831,-2.56267,1.30768,-15.9451,-5.70122,4.69512
474.301,88.4089,1.95719,0,9.83635,0.165256,-0.328118,-0.121951,0.457317,-1.52439,-39.2544,-2.45729,1.04902,-15.1829,-5.42683,4.84756
474.311,88.4149,1.96586,0,9.83156,0.189207,-0.356858,0.182927,0.548781,-1.06707,-39.2831,-2.51477,1.48012,-15.3049,-3.71951,4.81707
474.321,88.4191,1.98418,0,9.83635,0.179626,-0.392783,0.304878,0.365854,-1.28049,-39.1586,-2.41897,1.64298,-15.5183,-5.2439,4.32927
474.331,88.4209,1.98692,0,9.83874,0.186812,-0.392783,0.121951,0.304878,-1.34146,-39.3406,-2.52435,1.3939,-16.189,-4.84756,3.90244
474.341,88.4241,1.9736,0,9.78126,0.184417,-0.356858,0.396341,0.27439,-1.28049,-39.2735,-2.32317,1.11608,-15.5793,-4.60366,2.92683
474.351,88.4307,1.96322,0,9.79803,0.165256,-0.332908,0.0609756,0.213415,-1.28049,-39.1586,-2.41897,1.1544,-15.3354,-4.63415,3.20122
474.361,88.4317,1.95288,0,9.80042,0.177231,-0.354463,0.213415,0.365854,-1.4939,-39.4364,-2.60099,1.1544,-15.3354,-5.12195,4.5122
474.371,88.433,1.95014,0,9.81,0.177231,-0.431104,0.457317,0.548781,-1.46341,-39.2448,-2.50519,1.26936,-15.2439,-6.31098,4.17683
474.381,88.4235,1.96105,0,9.83156,0.234712,-0.387993,0.213415,0.609756,-1.55488,-39.4556,-2.57225,1.50886,-15.5793,-7.16463,4.45122
474.391,88.4198,1.97641,0,9.82677,0.208367,-0.392783,0.304878,0.304878,-1.46341,-39.5609,-2.53393,1.59508,-15.8232,-8.07927,4.39024
474.401,88.4215,1.97498,0,9.81719,0.177231,-0.390388,0.27439,-0.121951,-1.46341,-39.446,-2.57225,1.30768,-16.4329,-8.41463,3.81098
474.411,88.4191,1.98112,0,9.8124,0.208367,-0.332908,0.518293,-0.27439,-1.37195,-39.5993,-2.61057,1.4418,-15.4878,-9.08537,3.75
474.421,88.4216,1.97825,0,9.82437,0.174836,-0.431104,0.152439,0.152439,-1.43293,-39.5514,-2.43813,1.28852,-16.9207,-8.59756,3.90244
474.431,88.4273,1.97345,0,9.8076,0.153281,-0.383203,0.304878,0.152439,-1.46341,-39.5801,-2.42855,1.2502,-16.0366,-9.69512,3.5061
474.441,88.4283,1.97299,0,9.82197,0.177231,-0.433499,0.304878,0.487805,-1.4939,-39.5993,-2.68721,1.32684,-16.311,-8.62805,3.68902
474.451,88.4298,1.95991,0,9.8124,0.179626,-0.440684,0.335366,0.396341,-1.43293,-39.331,-2.38065,1.09692,-15.7317,-9.11585,2.53049
474.461,88.4358,1.96085,0,9.80042,0.167651,-0.423918,0.396341,0.579268,-1.28049,-39.2256,-2.50519,1.32684,-17.1341,-9.35976,4.60366
474.471,88.4404,1.95474,0,9.84114,0.167651,-0.383203,0.609756,0.457317,-1.34146,-39.3023,-2.65847,1.2023,-16.311,-11.0061,3.75
474.481,88.4444,1.9482,0,9.83156,0.165256,-0.414338,0.548781,0.579268,-1.40244,-39.4172,-2.49561,1.19272,-14.6646,-11.372,3.47561
474.491,88.4536,1.95255,0,9.82677,0.155676,-0.335303,0.853659,0.457317,-1.18902,-39.5226,-2.61057,1.37474,-15.4878,-13.3232,4.29878
474.501,88.4552,1.96949,0,9.8555,0.184417,-0.344883,0.640244,0.518293,-1.31098,-39.4364,-2.66805,1.5855,-14.1768,-15.7622,4.48171
474.511,88.4654,1.98652,0,9.85072,0.138911,-0.304167,0.609756,0.335366,-1.28049,-39.6472,-2.57225,1.60466,-13.9939,-16.5244,4.26829
474.521,88.4658,1.97918,0,9.83156,0.160466,-0.361648,0.640244,0.457317,-1.64634,-39.7334,-2.74469,1.19272,-13.5366,-16.5549,5.15244
474.531,88.4701,1.97942,0,9.81958,0.167651,-0.376018,1.37195,0.670732,-1.31098,-39.5897,-2.75427,1.31726,-13.628,-16.0366,3.87195
474.541,88.4707,1.98567,0,9.82437,0.150886,-0.359253,1.12805,0.548781,-1.7378,-39.3981,-2.74469,1.41306,-13.5061,-16.8293,4.26829
474.551,88.4704,1.99886,0,9.84114,0.153281,-0.335303,1.12805,0.426829,-1.76829,-39.3789,-2.69679,1.5376,-12.9878,-16.7073,3.96341
474.561,88.4732,1.99643,0,9.80521,0.148491,-0.378413,0.945122,0.396341,-1.61585,-39.0819,-2.45729,1.26936,-12.7134,-15.5793,5.03049
474.571,88.4718,2.00551,0,9.86509,0.165256,-0.352068,0.97561,0.426829,-1.70732,-39.149,-2.65847,1.47054,-13.2622,-15.061,5.2439
474.581,88.4593,2.02012,0,9.81479,0.222737,-0.387993,0.823171,1.0061,-1.89024,-39.3023,-2.62973,1.57592,-13.0793,-15.7927,5.15244
474.591,88.4484,2.04262,0,9.80521,0.229922,-0.419128,0.97561,1.18902,-1.67683,-39.2927,-2.54351,1.71962,-14.0854,-16.6768,4.02439
474.601,88.445,2.05449,0,9.79084,0.179626,-0.373623,0.823171,1.21951,-1.7378,-39.2831,-2.50519,1.54718,-13.1402,-17.5305,3.10976
474.611,88.4388,2.06591,0,9.79084,0.201182,-0.356858,0.365854,1.03659,-1.70732,-39.2256,-2.54351,1.54718,-12.6524,-17.0122,3.65854
474.621,88.4392,2.09631,0,9.78126,0.198787,-0.304167,0.548781,0.823171,-1.25,-38.9286,-2.56267,1.87291,-11.8598,-15.9756,3.17073
474.631,88.4428,2.10591,0,9.81719,0.162861,-0.359253,0.97561,0.884146,-1.46341,-39.0149,-2.68721,1.5376,-12.9878,-16.5549,3.38415
474.641,88.4482,2.13044,0,9.80281,0.160466,-0.328118,1.25,0.884146,-1.37195,-38.967,-2.84049,1.79626,-11.6463,-17.378,3.93293
474.651,88.4515,2.13848,0,9.77407,0.182021,-0.359253,1.12805,0.518293,-1.25,-39.1011,-2.54351,1.5376,-13.2622,-16.4939,4.54268
474.661,88.4458,2.15672,0,9.79563,0.213157,-0.285007,0.701219,-0.0914634,-1.4939,-39.0053,-2.60099,1.71962,-13.7805,-15.061,3.47561
474.671,88.4402,2.17584,0,9.82437,0.198787,-0.330513,0.426829,-0.0304878,-1.67683,-39.2065,-2.50519,1.75794,-12.9268,-14.6037,5.64024
474.681,88.4406,2.20135,0,9.78366,0.182021,-0.256267,0.487805,0.365854,-1.46341,-39.3406,-2.57225,1.89207,-13.2012,-13.4451,4.11585
474.691,88.4329,2.23537,0,9.76928,0.210762,-0.361648,0.487805,0.457317,-1.70732,-39.1969,-2.49561,2.04535,-13.811,-14.8476,5.27439
474.701,88.4309,2.25694,0,9.78844,0.210762,-0.299377,0.579268,0.823171,-1.28049,-39.4172,-2.75427,1.86333,-13.811,-14.878,4.7561
474.711,88.4248,2.30099,0,9.79803,0.239502,-0.347278,0.335366,0.0304878,-1.18902,-39.4076,-2.59141,2.26569,-14.9085,-15.9146,5.4878
474.721,88.4156,2.3425,0,9.79803,0.253872,-0.299377,0.243902,-0.670732,-1.25,-39.3598,-2.50519,2.24653,-16.0061,-16.6768,4.72561
474.731,88.4154,2.34264,0,9.81958,0.210762,-0.277822,0.243902,-1.4939,-1.18902,-39.2256,-2.55309,1.55676,-13.0488,-14.8171,5.91463
474.741,88.4164,2.36146,0,9.75731,0.232317,-0.239502,-0.152439,-2.16463,-0.792683,-39.1873,-2.43813,1.88249,-12.5305,-13.628,6.09756
474.751,88.4207,2.36025,0,9.75731,0.227527,-0.268242,0.243902,-2.2561,-0.640244,-39.2544,-2.60099,1.54718,-11.9817,-14.939,5.54878
474.761,88.4212,2.38085,0,9.72857,0.241897,-0.335303,0.396341,-2.19512,-0.640244,-39.3406,-2.74469,1.93039,-10.5793,-14.3902,5.33537
474.771,88.4299,2.38135,0,9.7142,0.215552,-0.337698,0.213415,-1.98171,-0.548781,-39.2544,-2.77343,1.59508,-9.66463,-13.4451,4.11585
474.781,88.4352,2.3916,0,9.73815,0.249082,-0.361648,0.335366,-2.16463,-0.0914634,-39.4172,-2.68721,1.76752,-9.5122,-14.6646,2.43902
474.791,88.4301,2.37959,0,9.76689,0.292192,-0.364043,0.152439,-2.83537,0.27439,-39.3789,-2.60099,1.38432,-11.0366,-15.1829,3.23171
474.801,88.4235,2.38976,0,9.79323,0.325723,-0.371228,0.731707,-3.23171,0.701219,-39.4364,-2.51477,1.75794,-12.1037,-16.9817,3.71951
474.811,88.4357,2.43469,0,9.79323,0.277822,-0.390388,1.18902,-2.95732,1.40244,-39.6472,-2.52435,2.37107,-13.6585,-20.5488,3.07927
474.821,88.4533,2.48311,0,9.7597,0.275427,-0.395178,1.18902,-3.07927,1.95122,-39.925,-2.55309,2.46687,-15.122,-24.6341,2.0122
474.831,88.484,2.53775,0,9.76449,0.208367,-0.296982,0.304878,-3.53659,2.34756,-40.0304,-2.59141,2.60099,-16.25,-29.3598,2.89634
474.841,88.5203,2.57563,0,9.83874,0.198787,-0.220342,-0.335366,-4.78659,2.89634,-39.9633,-2.38065,2.33275,-17.1646,-31.0366,2.77439
474.851,88.5628,2.60109,0,9.93215,0.189207,-0.292192,-0.457317,-5.82317,3.5061,-39.7621,-2.36149,2.13157,-18.9634,-30.3049,5.06098
474.861,88.6134,2.5952,0,10.0567,0.131726,-0.354463,-0.853659,-5.51829,3.71951,-39.513,-2.51477,1.59508,-17.8659,-28.4146,6.76829
474.871,88.6702,2.57609,0,10.1214,0.100591,-0.368833,-1.37195,-4.29878,4.08537,-39.3214,-3.13748,1.35558,-14.5732,-27.9268,8.90244
474.881,88.744,2.5378,0,10.0854,-0.141306,-0.426313,-1.76829,-2.83537,2.77439,-39.216,-3.29076,1.0107,-11.0061,-26.7988,9.90854
474.891,88.875,2.49582,0,10.0711,-0.354463,-0.435894,-1.34146,-3.35366,0.487805,-39.331,-3.58774,0.924478,-7.56098,-26.5549,10.5793
474.901,88.9221,2.45459,0,9.86509,0.0359253,-0.435894,-1.46341,-4.69512,0.27439,-39.5609,-3.47278,0.905317,-4.69512,-28.9939,9.29878
474.911,88.9148,2.41373,0,9.8555,0.227527,-0.608335,-2.31707,-4.48171,0.396341,-39.9058,-3.24286,0.886157,-3.96341,-30.4573,7.83537
474.921,88.9599,2.41521,0,9.89622,0.0263452,-0.809517,-3.56707,-1.82927,0.365854,-40.0208,-2.76385,1.59508,-4.54268,-34.0854,5.18293
474.938,89.0311,2.4647,0,9.84832,-0.0718506,-0.802332,-2.9878,0.335366,0.335366,-40.3657,-1.89207,2.43813,-9.17683,-42.1341,3.65854
474.944,89.0547,2.53083,0,9.89143,0.0910107,-0.773591,-2.5,0.884146,0.762195,-40.3657,-1.52802,2.76385,-12.5,-43.9634,2.62195
474.951,89.1094,2.56298,0,10.0327,-0.0742456,-0.701741,-3.01829,2.22561,0.762195,-40.2411,-1.70046,2.18905,-14.2378,-46.25,2.28659
474.961,89.2106,2.59405,0,9.97047,-0.203577,-0.505349,-2.22561,2.83537,-0.121951,-40.1645,-1.49928,2.18905,-18.0488,-46.0671,2.46951
474.971,89.268,2.63333,0,9.83635,-0.129331,-0.423918,-1.64634,2.43902,-0.609756,-39.8771,-1.87291,2.34233,-18.1707,-45.3354,1.58537
474.981,89.3176,2.67733,0,9.8076,-0.153281,-0.457449,-2.19512,3.59756,-0.914634,-39.3789,-2.29443,2.42855,-20.3354,-43.5061,1.34146
474.991,89.3556,2.71714,0,9.84832,-0.138911,-0.555645,-1.58537,5.27439,-1.09756,-39.3885,-2.56267,2.39023,-20.8232,-42.439,0.762195
475.001,89.3665,2.75705,0,9.77886,-0.0622705,-0.651445,-1.37195,5.4878,-1.70732,-39.1298,-3.01293,2.40939,-20.7317,-40.6707,1.15854
475.011,89.3728,2.8206,0,9.81,-0.105381,-0.759221,-1.76829,5.45732,-2.37805,-39.0053,-2.99377,2.83091,-21.25,-42.622,-0.884146
475.021,89.3811,2.84736,0,9.81958,-0.246687,-0.60115,-2.2561,6.89024,-3.59756,-38.8712,-3.08958,2.22737,-19.9085,-43.811,-0.609756
475.031,89.3809,2.91262,0,9.9561,-0.292192,-0.342488,-2.13415,9.02439,-4.78659,-38.8999,-3.19496,2.90755,-20.5488,-44.5732,-0.792683
475.041,89.3643,3.0013,0,10.1357,-0.179626,-0.237107,-2.43902,12.0732,-5.06098,-39.0149,-3.35782,3.34824,-20.061,-49.878,-0.670732
475.051,89.3419,3.09386,0,10.1932,-0.148491,-0.354463,-0.579268,11.5854,-5.30488,-39.2065,-3.1279,3.48236,-20.1524,-53.1402,0.152439
475.061,89.3061,3.21514,0,10.0806,-0.0862207,-0.632285,2.10366,8.17073,-6.0061,-39.3023,-2.77343,4.04758,-18.9939,-55.8537,0.304878
475.071,89.2514,3.32008,0,9.70462,0.0167651,-0.692161,3.38415,4.63415,-6.79878,-39.5609,-3.08958,3.86556,-18.811,-57.4695,2.77439
475.081,89.1845,3.45145,0,9.3789,-0.0143701,-0.512534,2.68293,4.96951,-8.53659,-39.8004,-2.81175,4.42121,-17.2256,-60.3963,4.2378
475.091,89.1093,3.55707,0,9.27591,-0.0215552,-0.340093,1.85976,8.65854,-9.60366,-40.2315,-3.03209,4.10506,-15.2134,-59.0854,6.28049
475.101,89.0322,3.61163,0,9.39327,0.00718506,-0.342488,1.85976,12.5915,-9.60366,-40.1932,-2.82133,3.2716,-13.0793,-56.8902,6.28049
475.111,88.9481,3.67253,0,9.72378,0.0862207,-0.519719,2.7439,15.5793,-9.5122,-40.1836,-3.01293,3.42488,-12.2256,-56.128,6.06707
475.121,88.8489,3.77394,0,9.92736,0.273032,-0.689766,3.2622,16.8902,-9.05488,-40.4423,-2.93629,4.19128,-13.1098,-63.9634,4.57317
475.131,88.744,3.88233,0,9.92017,0.285007,-0.584385,3.10976,16.8598,-9.69512,-40.5285,-2.98419,4.37331,-14.4512,-71.189,2.59146
475.141,88.6286,3.984,0,9.86269,0.330513,-0.304167,3.2622,15.4268,-10.4268,-40.1166,-2.92671,4.25834,-15.4878,-78.9024,2.07317
475.151,88.4984,4.10244,0,9.64714,0.378413,-0.0167651,2.92683,13.811,-11.4939,-40.1262,-2.90755,4.62239,-13.811,-81.5244,1.46341
475.161,88.364,4.27291,0,9.51541,0.376018,0.146096,1.92073,13.2622,-12.1646,-40.6626,-2.76385,5.69536,-12.9268,-87.7134,2.71341
475.171,88.2352,4.39749,0,9.39087,0.356858,0.244292,2.10366,13.0183,-12.0427,-39.5705,-3.13748,4.85231,-10.3049,-86.4329,3.68902
475.181,88.1171,4.5016,0,9.44117,0.323328,0.328118,2.71341,12.9878,-11.6463,-38.7945,-3.42488,4.49785,-7.2561,-83.4756,5.18293
475.191,88.0057,4.63771,0,9.54415,0.380808,0.342488,3.62805,12.1951,-10.5488,-38.4496,-3.52068,5.07265,-5.18293,-85.4878,6.18902
475.201,87.9015,4.76793,0,9.63756,0.445474,0.316143,4.2378,8.96341,-9.29878,-38.737,-3.74102,5.09181,-1.95122,-88.4451,6.21951
475.211,87.8054,4.88216,0,9.75491,0.522114,0.433499,4.93902,4.90854,-7.83537,-38.7754,-3.7027,4.89063,-0.762195,-93.75,7.53049
475.221,87.7209,5.03172,0,9.8555,0.531694,0.519719,5.27439,1.46341,-6.79878,-38.8999,-3.28118,5.59956,2.10366,-94.4512,7.56098
475.231,87.6496,5.15811,0,9.89862,0.529299,0.421523,5.94512,-0.792683,-5.67073,-38.4113,-3.06083,5.23551,2.43902,-93.3232,7.77439
475.241,87.5869,5.28261,0,9.91778,0.526904,0.289797,6.18902,-1.92073,-4.96951,-38.4017,-2.84049,5.28341,3.90244,-94.6037,8.23171
475.251,87.5263,5.43289,0,9.84832,0.534089,0.0814307,6.09756,-2.2561,-4.7561,-38.5646,-2.62015,5.83906,5.7622,-94.5122,7.80488
475.261,87.4689,5.56038,0,9.74054,0.490979,-0.0694556,4.96951,-2.04268,-5,-38.4305,-2.36149,5.5325,6.82927,-92.9878,9.11585
475.271,87.4153,5.68708,0,9.67348,0.426313,-0.107776,3.2622,-2.19512,-5.4878,-38.5454,-2.23695,5.6283,10,-91.4024,9.66463
475.281,87.3615,5.84747,0,9.71659,0.479004,-0.136516,1.61585,-3.23171,-5,-38.7275,-2.39023,6.32764,8.9939,-92.5,12.0122
475.291,87.2987,6.02437,0,9.88904,0.608335,-0.0311353,0.0914634,-2.92683,-4.57317,-38.967,-2.33275,6.76833,8.68902,-93.1707,12.5305
475.301,87.2322,6.215,0,9.99681,0.716111,0.0814307,-1.52439,-1.58537,-3.84146,-38.7562,-2.40939,7.09405,8.20122,-94.0549,13.1098
475.311,87.1706,6.38433,0,9.94891,0.737666,0.0694556,-2.71341,-1.55488,-3.04878,-39.0436,-2.32317,6.89287,4.72561,-96.7683,13.3841
475.321,87.1238,6.48869,0,9.88185,0.665815,0.0526904,-3.75,-1.98171,-2.31707,-39.264,-3.74102,5.87738,5.45732,-102.317,14.2378
475.331,87.0929,6.63516,0,9.77886,0.560435,0.107776,-4.20732,-2.62195,-2.13415,-38.6891,-2.39023,6.57672,2.65244,-109.085,11.7378
475.344,87.0687,6.76858,0,9.73575,0.526904,0.189207,-5.21341,-2.77439,-1.98171,-39.3789,-2.61057,6.52882,2.10366,-119.329,12.5
475.351,87.0414,6.92873,0,9.68785,0.534089,0.241897,-6.18902,-2.7439,-2.22561,-39.6184,-2.73511,7.13237,3.35366,-122.713,12.1646
475.361,87.0197,7.09161,0,9.68785,0.512534,0.294587,-7.80488,-3.96341,-2.04268,-38.8233,-2.86923,7.15153,4.90854,-122.165,13.1402
475.371,87.0152,7.28305,0,9.76928,0.385598,0.225132,-7.40854,-5.94512,-2.2561,-38.9382,-2.74469,7.77423,7.83537,-128.262,14.0549
475.381,87.0192,7.46364,0,9.7118,0.289797,-0.00718506,-6.12805,-8.04878,-2.62195,-39.0915,-2.53393,7.73591,7.77439,-131.25,15.061
475.391,87.0244,7.62725,0,9.63516,0.237107,-0.102986,-5.15244,-9.81707,-3.04878,-39.0149,-2.37107,7.55389,8.5061,-128.811,15.1829
475.401,87.0226,7.78474,0,9.63995,0.268242,-0.184417,-4.96951,-9.39024,-3.2622,-38.6987,-2.21779,7.50599,9.78659,-126.768,17.3476
475.411,87.0163,7.96518,0,9.73336,0.251477,-0.165256,-5.39634,-7.71341,-3.84146,-38.8616,-2.10283,8.05206,11.4024,-128.354,20.7317
475.421,87.0097,8.12558,0,9.82197,0.239502,-0.126936,-5.06098,-7.13415,-4.02439,-38.5933,-2.16989,7.76465,11.7683,-129.329,21.6768
475.431,87.0059,8.2923,0,9.88904,0.153281,-0.184417,-3.5061,-7.13415,-4.7561,-38.7754,-2.22737,8.01374,13.2012,-133.11,24.4207
475.441,86.9944,8.475,0,9.9561,0.179626,-0.237107,-1.4939,-7.31707,-5.21341,-39.1203,-2.06451,8.47358,12.5305,-138.232,25.7012
475.451,86.9707,8.65519,0,10.083,0.241897,-0.263452,-0.945122,-6.09756,-5.7622,-39.1681,-2.20821,8.55022,14.2378,-143.659,26.9512
475.461,86.9334,8.82852,0,10.0663,0.306563,-0.289797,-1.4939,-4.39024,-6.43293,-38.9861,-2.00703,8.50232,15.3963,-147.378,27.6829
475.471,86.8842,8.9991,0,10.1261,0.411943,-0.205972,-2.9878,-3.68902,-6.52439,-38.8712,-2.03577,8.55022,16.6768,-147.622,27.9573
475.481,86.8284,9.19177,0,10.1836,0.495769,-0.129331,-4.78659,-3.29268,-6.37195,-38.7466,-1.93039,9.0388,17.1037,-148.201,28.1707
475.491,86.7747,9.3884,0,10.107,0.464634,-0.174836,-5.51829,-3.04878,-6.58537,-38.5933,-1.78668,9.20166,16.372,-150.854,29.3598
475.501,86.7306,9.60574,0,9.92975,0.392783,-0.308958,-4.32927,-2.31707,-6.46341,-38.2197,-1.59508,9.61361,14.4817,-153.11,28.1098
475.511,86.6833,9.83989,0,9.74533,0.404758,-0.474214,-3.78049,-1.61585,-6.64634,-38.2868,-1.97829,10.0735,12.5,-157.165,28.2317
475.521,86.6311,10.0928,0,9.64953,0.440684,-0.519719,-3.53659,-1.0061,-6.76829,-38.3538,-2.04535,10.5812,12.1951,-162.348,27.439
475.531,86.5781,10.3528,0,9.5202,0.416733,-0.364043,-4.11585,-0.731707,-7.16463,-38.3251,-2.15073,10.8782,14.878,-163.994,26.4634
475.541,86.5233,10.6251,0,9.69983,0.419128,-0.203577,-3.81098,-0.884146,-7.53049,-38.4113,-2.34233,11.3093,17.5305,-166.524,27.8659
475.551,86.4681,10.8995,0,9.74533,0.435894,-0.131726,-3.47561,-1.40244,-7.5,-38.1527,-2.65847,11.4626,17.8354,-167.805,28.0793
475.561,86.421,11.1455,0,9.85311,0.409548,-0.0766406,-2.9878,-3.23171,-7.16463,-38.1048,-2.62973,11.1177,16.6463,-171.006,26.8293
475.571,86.3606,11.3899,0,9.98723,0.507744,-0.141306,-3.38415,-4.14634,-7.53049,-37.8269,-2.59141,11.1752,17.6524,-173.445,25.4573
475.581,86.2967,11.6891,0,10.0926,0.565225,-0.316143,-4.5122,-3.29268,-7.40854,-37.5204,-2.00703,12.2577,17.6524,-172.713,23.2012
475.591,86.2357,12,0,10.0854,0.529299,-0.510139,-4.78659,-1.67683,-7.65244,-37.0126,-1.46096,12.5068,14.2683,-175.457,22.0732
475.601,86.1876,12.3103,0,9.93454,0.443079,-0.64905,-4.11585,0.365854,-7.37805,-36.4666,-1.0107,12.526,9.93902,-177.439,20.0305
475.611,86.1497,12.6459,0,9.79563,0.332908,-0.651445,-2.9878,1.7378,-7.68293,-36.2654,-0.474214,13.1295,5.33537,-178.415,18.5976
475.621,86.1134,12.969,0,9.67588,0.320933,-0.524509,-2.07317,1.89024,-7.68293,-36.2271,-0.474214,13.1391,4.02439,-176.128,16.9817
475.631,86.0696,13.3039,0,9.66869,0.385598,-0.347278,-1.15854,2.53049,-7.7439,-36.1408,-0.531694,13.551,1.52439,-176.098,16.2805
475.641,86.0149,13.6208,0,9.8124,0.510139,-0.323328,0.396341,3.75,-7.53049,-35.9684,-0.761616,13.4073,0.426829,-174.207,16.6463
475.651,85.951,13.9546,0,9.92975,0.632285,-0.347278,0.823171,4.90854,-7.22561,-35.9397,-0.953218,13.9342,2.37805,-173.445,18.3232
475.661,85.8836,14.3028,0,9.94412,0.65863,-0.285007,-0.0609756,5.15244,-7.40854,-36.1887,-1.51844,14.5378,2.89634,-174.268,19.4817
475.671,85.8192,14.6458,0,9.97765,0.6251,-0.268242,-1.15854,4.93902,-7.65244,-36.0546,-1.71962,14.6431,5.57927,-173.659,19.7256
475.681,85.763,14.9939,0,9.97286,0.534089,-0.203577,-1.43293,4.7561,-8.01829,-36.0259,-1.79626,14.988,8.56707,-171.037,20.7622
475.691,85.7014,15.3469,0,9.9537,0.531694,-0.182021,-1.34146,4.7561,-8.68902,-35.9684,-1.65256,15.3233,11.189,-168.659,22.439
475.701,85.6312,15.7361,0,9.82916,0.58678,-0.150886,-1.58537,3.84146,-8.96341,-35.5852,-1.4418,16.0897,13.7195,-170.579,24.3598
475.711,85.5466,16.1239,0,9.81958,0.66821,-0.186812,-1.28049,3.90244,-9.60366,-35.4032,-0.953218,16.2718,13.3841,-170.854,26.2195
475.721,85.4665,16.4959,0,9.79323,0.63468,-0.198787,-1.0061,4.14634,-9.69512,-35.3649,-0.799937,16.243,12.622,-171.555,27.1951
475.731,85.3838,16.8861,0,9.72378,0.696951,-0.184417,-0.0914634,4.02439,-9.32927,-34.5506,-0.684976,16.4921,11.0976,-167.957,27.3171
475.741,85.3058,17.3047,0,9.77647,0.701741,-0.280217,0.304878,3.75,-8.9939,-34.2919,-0.522114,17.1915,6.98171,-167.805,26.7073
475.751,85.2275,17.718,0,9.76449,0.732876,-0.249082,0.27439,3.20122,-8.81098,-33.8512,-0.531694,17.1819,5.12195,-167.835,24.1159
475.761,85.1612,18.1239,0,9.75252,0.66342,-0.246687,0.0609756,1.70732,-8.56707,-33.4967,-0.646655,17.1723,4.66463,-167.043,21.4939
475.771,85.0918,18.5476,0,9.70222,0.687371,-0.0958008,0.182927,1.25,-8.68902,-33.0656,-0.819097,17.5842,5.73171,-165.671,19.5122
475.781,85.0204,18.9838,0,9.76689,0.756826,-0.0407153,0.487805,2.07317,-8.2622,-32.6633,-0.876577,17.9291,7.04268,-161.707,19.9695
475.791,84.9571,19.4182,0,9.9082,0.766406,-0.131726,0.884146,2.89634,-7.59146,-32.4142,-1.0107,18.092,9.84756,-158.232,19.4512
475.801,84.8932,19.8732,0,9.84353,0.747246,-0.0598755,1.61585,3.47561,-7.95732,-32.5004,-1.2502,18.868,12.1341,-156.189,22.0732
475.811,84.8335,20.3428,0,9.82916,0.759221,-0.0742456,1.67683,2.95732,-7.5,-32.4238,-1.12566,19.4523,13.4451,-155.274,22.9268
475.821,84.7661,20.7888,0,9.81,0.819097,-0.0526904,1.70732,2.22561,-7.68293,-32.5004,-0.713716,19.414,14.7866,-152.378,24.5732
475.831,84.6849,21.2366,0,9.8579,0.941243,-0.0910107,1.70732,2.7439,-7.83537,-32.4813,-0.502954,19.7877,15.0915,-151.037,27.3171
475.841,84.6112,21.6858,0,9.9082,0.941243,-0.0981958,1.31098,3.29268,-7.28659,-32.6154,-0.292192,20.2571,12.8659,-148.628,27.5
475.851,84.5336,22.1298,0,9.86269,0.984353,-0.122146,1.25,4.35976,-7.28659,-32.6824,0.196392,20.5541,12.8963,-147.866,27.5305
475.861,84.4573,22.5586,0,9.63995,0.946033,-0.141306,0.182927,3.56707,-7.5,-32.4525,0.340093,20.4678,10.7012,-145.152,27.5
475.871,84.3886,22.9991,0,9.58008,0.912502,-0.0287402,-0.121951,2.83537,-7.22561,-32.0118,0.617915,20.7648,8.44512,-144.024,27.1037
475.881,84.3209,23.4554,0,9.58966,0.946033,0.0311353,-0.27439,1.7378,-6.85976,-31.7436,0.752036,21.263,7.07317,-142.683,24.6951
475.891,84.2566,23.92,0,9.72138,0.974773,-0.0790356,0.457317,2.13415,-6.46341,-31.3412,0.617915,21.5312,5.82317,-141.28,22.8049
475.901,84.1854,24.3779,0,9.68306,1.09692,-0.0742456,1.09756,1.79878,-5.79268,-31.1113,0.579595,21.627,5.12195,-136.951,20.4268
475.911,84.1132,24.833,0,9.69743,1.18793,-0.0622705,1.34146,0.853659,-4.93902,-30.8431,0.225132,21.7707,5,-131.89,16.9817
475.921,84.0578,25.2817,0,9.78605,1.11368,-0.0359253,0.701219,-0.0304878,-4.39024,-30.6898,0.320933,21.924,3.78049,-125.976,15.5793
475.931,84.001,25.713,0,9.78126,1.14961,0.00479004,-0.27439,-0.640244,-4.20732,-30.8047,0.253872,22.039,3.87195,-119.604,13.2012
475.941,83.9516,26.1274,0,9.80521,1.12326,0.136516,-1.43293,-0.457317,-3.90244,-30.7377,0.129331,22.0102,2.2561,-115.854,12.3476
475.951,83.9109,26.5352,0,9.79323,1.07776,0.0311353,-1.76829,0.762195,-3.65854,-30.9484,0.186812,22.3839,1.89024,-110.366,10.2744
475.961,83.8669,26.9252,0,9.74294,1.10889,0.0119751,-1.95122,0.579268,-3.62805,-30.7568,-0.00479004,22.221,1.21951,-108.445,8.84146
475.971,83.8286,27.3171,0,9.69025,1.08973,-0.00958008,-2.10366,0.396341,-3.29268,-30.4503,0.0910107,22.3743,0.884146,-103.78,7.62195
475.981,83.7902,27.7159,0,9.74054,1.11368,-0.0502954,-2.80488,0,-3.14024,-30.3066,0.0814307,22.7479,0.548781,-100.64,6.28049
475.991,83.7518,28.1056,0,9.60882,1.12805,0.0239502,-3.41463,-1.03659,-2.80488,-30.2204,0.244292,22.8245,-0.365854,-99.6037,4.45122
476.001,83.7261,28.5,0,9.69743,1.07536,0.00718506,-3.62805,-1.61585,-2.43902,-29.9042,0.0718506,23.0257,-2.56098,-95,4.11585
476.011,83.7076,28.8929,0,9.75491,1.04902,0.0718506,-4.26829,-1.58537,-2.22561,-29.3773,0.158071,22.9299,-3.2622,-90.4573,1.89024
476.021,83.6794,29.2817,0,9.6184,1.10171,0.102986,-5.51829,-2.31707,-2.28659,-29.406,0.378413,23.2077,-6.09756,-86.8598,1.89024
476.031,83.6617,29.6741,0,9.70941,1.07297,0.0359253,-5.54878,-1.4939,-1.85976,-29.2432,0.330513,23.4951,-7.86585,-83.3841,2.56098
476.041,83.642,30.0507,0,9.63277,1.09213,-0.0455054,-5.51829,-0.853659,-1.64634,-29.3198,0.570015,23.5526,-9.60366,-82.3476,2.5
476.051,83.6271,30.4003,0,9.57289,1.0586,0.0311353,-6.21951,-1.85976,-1.67683,-29.4827,0.617915,23.4281,-10.2134,-82.1951,2.68293
476.061,83.6186,30.7456,0,9.73815,1.06578,-0.0431104,-5.94512,-1.43293,-1.28049,-29.6935,0.627495,23.8017,-12.8659,-81.8598,3.41463
476.071,83.617,31.0829,0,9.72378,1.06099,-0.0910107,-5.79268,-2.04268,-0.792683,-29.6935,0.570015,23.9262,-12.9573,-81.5244,3.35366
476.081,83.6148,31.3709,0,9.69264,1.06818,-0.0526904,-6.4939,-2.83537,-0.640244,-29.8563,0.560435,23.294,-13.9024,-79.6646,2.13415
476.091,83.6237,31.6805,0,9.7142,1.03225,-0.0407153,-6.46341,-3.96341,-0.548781,-30,0.512534,24.1178,-15.8232,-79.2683,0.457317
476.101,83.6216,31.9613,0,9.76928,1.05141,-0.0335303,-6.92073,-2.86585,-1.03659,-30.0671,0.522114,23.8017,-14.939,-81.8598,0.579268
476.111,83.6338,32.2444,0,9.7118,1.00591,-0.0718506,-6.64634,-3.01829,-0.701219,-30.0862,0.522114,24.1083,-13.689,-81.7988,0.914634
476.121,83.654,32.5141,0,9.77407,0.998723,-0.0838257,-6.15854,-3.41463,-0.426829,-30.0767,0.320933,24.0604,-11.8293,-79.8171,1.40244
476.131,83.6863,32.7835,0,9.81,0.989143,-0.162861,-5.21341,-4.17683,-0.0609756,-30.0575,0.474214,24.2903,-9.45122,-76.0671,2.34756
476.141,83.7145,33.0309,0,9.82916,0.996328,-0.189207,-4.96951,-4.81707,0.243902,-30.2204,0.253872,24.1849,-10.5488,-72.9573,3.41463
476.151,83.7535,33.2949,0,9.85072,0.941243,-0.246687,-5.36585,-5.60976,0.579268,-29.9425,0.0718506,24.549,-9.66463,-70.7927,2.37805
476.161,83.836,33.5539,0,9.90341,0.819097,-0.153281,-5.91463,-5.70122,0.0304878,-29.6839,0.100591,24.4627,-10.5488,-68.9329,2.80488
476.171,83.8885,33.7954,0,9.8124,0.838257,-0.102986,-6.43293,-5.91463,-0.457317,-29.4731,-0.273032,24.1466,-7.0122,-65.8232,2.34756
476.181,83.9309,34.0442,0,9.84593,0.850232,-0.186812,-5.79268,-5.33537,-0.579268,-29.3102,-0.464634,24.3861,-7.34756,-64.0854,2.56098
476.191,83.9698,34.2832,0,9.79803,0.823887,-0.205972,-5.45732,-4.81707,-0.823171,-29.2336,-0.301772,24.3382,-6.0061,-61.0976,4.14634
476.201,83.9971,34.5195,0,9.87706,0.833467,-0.399968,-4.7561,-3.62805,-1.12805,-29.3773,-0.292192,24.616,-7.34756,-58.689,5.60976
476.211,84.0306,34.7304,0,9.8603,0.828677,-0.371228,-4.87805,-2.83537,-0.884146,-29.5114,-0.148491,24.3861,-8.44512,-55.6707,4.42073
476.221,84.0501,34.9195,0,9.81,0.816702,-0.258662,-4.90854,-3.44512,-1.52439,-29.3965,0.110171,24.0125,-8.5061,-53.0488,5.27439
476.231,84.0706,35.1199,0,9.84593,0.838257,-0.220342,-5.12195,-3.07927,-1.28049,-29.4348,0.225132,24.4627,-6.46341,-50.6098,4.84756
476.241,84.0835,35.3184,0,9.84114,0.831072,-0.191602,-5,-3.44512,-1.70732,-29.5689,0.148491,24.7118,-6.79878,-49.939,4.90854
476.251,84.0963,35.4887,0,9.82916,0.828677,-0.182021,-5.18293,-3.5061,-1.70732,-29.5977,0.0143701,24.2903,-8.07927,-48.9634,1.46341
476.261,84.0995,35.6578,0,9.88185,0.876577,-0.256267,-4.90854,-0.97561,-1.85976,-29.5402,0.0143701,24.3765,-7.59146,-46.25,-0.0609756
476.271,84.1061,35.8334,0,9.87946,0.821492,-0.347278,-4.57317,-0.487805,-2.16463,-29.3581,-0.273032,24.5298,-6.4939,-43.1402,-1.40244
476.281,84.1101,36.0168,0,9.81958,0.838257,-0.304167,-4.5122,-0.609756,-2.13415,-29.2049,-0.253872,24.731,-5.91463,-41.4634,-1.34146
476.291,84.109,36.1873,0,9.69504,0.871787,-0.378413,-4.5122,-2.07317,-2.07317,-29.2911,-0.253872,24.6927,-6.61585,-39.0244,-1.58537
476.301,84.1129,36.3506,0,9.83635,0.845442,-0.337698,-5.15244,-0.823171,-2.07317,-29.2144,-0.311353,24.616,-5.85366,-38.9939,-3.14024
476.311,84.1124,36.5214,0,9.92975,0.840652,-0.340093,-5.18293,0.365854,-2.5,-29.0516,-0.0239502,24.7885,-5.03049,-38.4756,-2.80488
476.321,84.1033,36.699,0,9.89383,0.900527,-0.273032,-5.54878,0.945122,-2.53049,-29.2623,-0.00479004,25.277,-5.4878,-37.7439,-1.25
476.331,84.0912,36.862,0,9.88185,0.924478,-0.318538,-5.18293,2.2561,-2.53049,-29.2815,0.186812,25.1238,-5.82317,-37.2866,-2.80488
476.341,84.0752,37.0186,0,9.95849,0.967588,-0.488584,-4.54268,3.20122,-2.46951,-29.3581,0.177231,25.1908,-6.34146,-37.2561,-3.78049
476.351,84.0621,37.1608,0,9.97526,0.960403,-0.380808,-4.63415,1.89024,-2.34756,-29.5019,0.138911,25.1333,-6.58537,-36.8598,-4.42073
476.361,84.0431,37.3046,0,9.93454,0.993933,-0.356858,-5.12195,1.82927,-2.46951,-29.3869,0.167651,25.2004,-6.4939,-35.9146,-4.26829
476.371,84.0294,37.4632,0,9.89862,0.948428,-0.253872,-5.64024,2.31707,-2.53049,-29.2432,0.100591,25.5357,-6.79878,-36.5549,-4.69512
476.381,84.0164,37.6253,0,9.80521,0.926873,-0.253872,-5.18293,2.0122,-2.65244,-29.3102,-0.110171,25.8231,-6.70732,-35.6707,-5.36585
476.391,84.0075,37.7872,0,9.84114,0.876577,-0.265847,-4.90854,2.2561,-2.92683,-29.1378,-0.138911,25.8135,-5.54878,-35.5183,-4.66463
476.401,83.9921,37.9417,0,9.74533,0.890947,-0.232317,-4.26829,2.0122,-3.2622,-29.1474,-0.119751,25.8039,-5.60976,-34.4817,-4.35976
476.411,83.9808,38.1143,0,9.79563,0.878972,-0.285007,-3.84146,1.34146,-3.10976,-28.927,-0.0143701,26.168,-6.58537,-33.5671,-3.53659
476.421,83.959,38.2702,0,9.86988,0.948428,-0.304167,-4.39024,0.914634,-3.38415,-28.6971,0.129331,25.7465,-6.64634,-31.189,-2.31707
476.431,83.9394,38.4342,0,9.88904,0.922083,-0.282612,-5,0.457317,-3.53659,-28.4193,0.359253,25.8327,-6.7378,-28.5366,-2.34756
476.441,83.9138,38.6117,0,9.75731,0.972378,-0.124541,-4.78659,1.31098,-3.41463,-28.3235,0.397573,26.2063,-8.07927,-28.1402,-1.82927
476.451,83.8963,38.7697,0,9.79084,0.912502,-0.234712,-4.72561,2.2561,-3.44512,-28.3714,0.617915,25.9668,-7.92683,-27.2561,-1.43293
476.461,83.8777,38.924,0,9.77407,0.919688,-0.237107,-3.9939,3.29268,-3.47561,-28.3235,0.704136,25.9955,-7.59146,-24.4512,-1.37195
476.471,83.8604,39.0645,0,9.79323,0.917292,-0.177231,-3.56707,2.2561,-3.44512,-28.3043,0.742456,25.8039,-7.89634,-23.5976,-2.19512
476.481,83.8424,39.2102,0,9.88664,0.958008,-0.229922,-3.2622,1.98171,-3.17073,-28.381,0.656235,26.1297,-8.75,-22.0427,-2.34756
476.491,83.8224,39.3514,0,9.8579,0.979563,-0.306563,-2.9878,1.79878,-3.10976,-28.2852,0.512534,26.0722,-7.43902,-21.8902,-3.01829
476.501,83.7971,39.4821,0,9.74054,1.00112,-0.261057,-2.65244,1.58537,-3.2622,-28.2181,0.138911,25.9093,-6.82927,-18.9329,-3.32317
476.511,83.7749,39.6369,0,9.82677,1.02028,-0.229922,-1.95122,1.92073,-2.89634,-27.8253,0.273032,26.2255,-6.09756,-17.439,-3.75
476.521,83.7539,39.7824,0,9.7621,1.02267,-0.179626,-1.92073,0.487805,-2.71341,-27.8541,0.340093,26.1871,-7.83537,-15.7317,-4.02439
476.531,83.735,39.9423,0,9.86269,1.03225,-0.229922,-2.7439,1.55488,-2.56098,-27.6625,0.589175,26.4841,-9.93902,-13.2927,-3.38415
476.541,83.7188,40.0981,0,9.75491,1.03465,-0.205972,-2.43902,1.28049,-2.19512,-27.6912,0.780776,26.5703,-12.6829,-12.1951,-2.19512
476.551,83.7093,40.249,0,9.73815,1.00112,-0.222737,-1.85976,0.518293,-2.04268,-27.6912,0.799937,26.6087,-13.5366,-10.2744,-1.25
476.561,83.6937,40.391,0,9.74054,1.03704,-0.208367,-1.61585,0.152439,-2.13415,-27.8445,0.809517,26.6949,-15.7927,-8.56707,-0.335366
476.571,83.6858,40.5215,0,9.77886,1.0107,-0.241897,-1.37195,0.0914634,-1.89024,-27.787,0.838257,26.5129,-16.5854,-6.4939,0.27439
476.581,83.6793,40.6426,0,9.8076,1.02507,-0.179626,-1.09756,-0.152439,-1.64634,-27.7104,0.570015,26.35,-15.7012,-4.32927,0.884146
476.591,83.676,40.7502,0,9.77407,1.01309,-0.213157,-0.823171,-0.670732,-1.52439,-27.8732,0.493374,26.3021,-14.8476,-4.20732,1.34146
476.601,83.668,40.8467,0,9.79084,1.01788,-0.184417,-0.335366,-1.0061,-1.85976,-27.902,0.378413,26.168,-13.3841,-4.84756,0.884146
476.611,83.6688,40.9553,0,9.78366,0.998723,-0.165256,0.396341,-1.15854,-1.43293,-27.7966,0.416733,26.4458,-12.561,-3.14024,1.76829
476.621,83.675,41.0715,0,9.79563,0.965193,-0.215552,0.518293,-0.670732,-1.46341,-27.49,0.445474,26.4458,-11.7683,0.243902,0.640244
476.631,83.6828,41.1824,0,9.87227,0.967588,-0.265847,0.884146,-0.518293,-1.37195,-27.4421,0.253872,26.3979,-13.75,3.59756,0.27439
476.641,83.6948,41.2956,0,9.83874,0.967588,-0.265847,1.40244,0.0609756,-1.09756,-27.3463,0.196392,26.4745,-14.6951,6.37195,1.76829
476.651,83.7077,41.4006,0,9.8076,0.977168,-0.239502,1.52439,-0.0304878,-0.914634,-27.3847,0.378413,26.4362,-15.5793,8.62805,2.10366
476.661,83.7194,41.4829,0,9.73815,0.979563,-0.217947,1.89024,-0.426829,-0.884146,-27.5092,0.359253,26.1297,-18.3537,9.84756,2.5
476.671,83.7317,41.5767,0,9.72138,0.984353,-0.203577,1.58537,-0.365854,-0.762195,-27.4996,0.407153,26.4745,-19.1463,12.2561,3.29268
476.681,83.7382,41.6397,0,9.65911,0.996328,-0.143701,1.52439,-0.304878,-0.853659,-27.8445,0.483794,26.1776,-20.8232,12.8049,4.45122
476.691,83.7458,41.6987,0,9.72138,1.00591,-0.191602,1.82927,0.335366,-0.701219,-27.8445,0.550855,26.1584,-21.0366,16.6463,4.08537
476.701,83.7448,41.7447,0,9.75252,1.04902,-0.146096,2.13415,0.609756,-0.609756,-27.9499,0.464634,26.0243,-21.4634,19.2988,3.90244
476.711,83.7495,41.7962,0,9.79803,1.05381,-0.172441,1.85976,0.213415,-0.152439,-27.9403,0.215552,26.1967,-22.2866,22.6829,2.65244
476.721,83.7553,41.8396,0,9.76928,1.02746,-0.182021,1.79878,-0.304878,-0.518293,-27.8924,0.0622705,26.0243,-20.5488,24.8171,1.89024
476.731,83.7705,41.8603,0,9.78366,1.02028,-0.234712,2.16463,-0.518293,-0.0914634,-28.1798,0.0143701,25.8231,-16.8902,28.1098,2.53049
476.741,83.7826,41.8657,0,9.83635,1.03704,-0.217947,2.13415,-0.365854,0.0304878,-28.2948,-0.138911,25.6028,-16.2805,29.2073,0.914634
476.751,83.8008,41.8873,0,9.87467,1.01788,-0.249082,2.28659,-0.213415,0.213415,-28.2181,-0.359253,25.9189,-15.4268,31.6463,1.82927
476.761,83.8243,41.9065,0,9.87227,0.996328,-0.141306,2.04268,-0.365854,0.152439,-28.3331,-0.579595,25.9955,-15.2134,33.0183,1.89024
476.771,83.853,41.9093,0,9.81719,0.974773,-0.191602,1.31098,-0.0609756,0.0609756,-28.2564,-0.502954,25.5836,-17.1341,36.372,1.0061
476.781,83.8706,41.9028,0,9.80281,0.984353,-0.210762,1.28049,0.548781,-0.27439,-28.6492,-0.349673,25.7273,-18.2622,36.311,2.34756
476.791,83.9062,41.892,0,9.80521,0.946033,-0.256267,1.64634,0.914634,0.0304878,-28.6875,0.110171,25.6602,-19.3598,36.6463,2.68293
476.801,83.9174,41.8832,0,9.79084,1.00591,-0.294587,0.914634,1.40244,-0.121951,-28.9462,0.225132,25.9285,-20.2134,36.9207,3.07927
476.811,83.9262,41.8618,0,9.80042,1.01549,-0.285007,0.609756,1.52439,-0.0609756,-28.9462,0.416733,25.6315,-22.7134,36.5854,3.44512
476.821,83.9479,41.8281,0,9.77886,0.977168,-0.210762,0.640244,1.82927,0,-29.1378,0.426313,25.4974,-23.1402,35.7012,4.45122
476.831,83.9802,41.8087,0,9.83874,0.936453,-0.170046,0.762195,1.64634,0.27439,-28.9749,0.186812,25.6507,-23.0183,36.3415,2.9878
476.841,84.0122,41.7725,0,9.89143,0.938848,-0.222737,1.31098,2.5,0.0914634,-29.042,0.129331,25.3154,-23.0793,37.1341,2.37805
476.851,84.0258,41.7276,0,9.91538,0.996328,-0.201182,1.85976,2.80488,0.0609756,-28.9749,-0.0526904,25.028,-24.1463,36.7988,1.52439
476.861,84.0366,41.6821,0,9.89862,1.00351,-0.241897,1.40244,3.07927,0.182927,-29.2049,-0.263452,25.1812,-25.1829,38.2927,-0.457317
476.871,84.0633,41.6336,0,9.89143,0.946033,-0.246687,1.4939,3.87195,0.121951,-29.0516,-0.273032,24.9417,-26.4329,38.2012,-1.18902
476.881,84.0813,41.5848,0,9.87227,0.969983,-0.213157,1.18902,4.7561,0.243902,-29.3581,-0.292192,25.1525,-27.561,37.7134,-0.914634
476.891,84.0976,41.5281,0,9.93454,0.986748,-0.215552,1.55488,5.30488,0.792683,-29.454,-0.330513,25.0184,-28.2927,39.0549,-0.213415
476.901,84.1096,41.4508,0,9.93933,1.01788,-0.191602,1.34146,6.43293,1.06707,-29.7701,-0.0718506,24.7693,-29.2073,37.2256,0.426829
476.911,84.1214,41.3646,0,9.92736,1.04183,-0.215552,1.52439,7.07317,1.4939,-29.7988,-0.00479004,24.5202,-30.8232,35.2439,1.15854
476.921,84.1366,41.2768,0,9.86748,1.02507,-0.146096,0.701219,7.34756,1.70732,-29.9809,0.234712,24.549,-32.0732,33.2317,1.58537
476.931,84.1546,41.1861,0,9.71659,0.989143,-0.0311353,0.457317,7.68293,1.70732,-30.0479,0.349673,24.4531,-33.1402,31.0061,1.28049
476.941,84.1713,41.0835,0,9.58487,0.950823,0.0598755,0.304878,6.76829,1.03659,-30.1725,0.512534,24.2041,-35.3049,28.2317,1.4939
476.951,84.1655,40.9764,0,9.54894,1.03225,0.105381,0.335366,6.82927,0.853659,-30.2108,0.292192,24.0316,-36.0976,24.939,1.15854
476.961,84.1565,40.8687,0,9.54415,1.06339,0.129331,0.304878,7.31707,1.06707,-30.3832,-0.225132,24.0508,-35.3659,21.6463,-0.823171
476.971,84.1531,40.7545,0,9.58008,1.08494,0.253872,0.579268,7.56098,1.55488,-30.297,0.158071,23.7251,-34.5427,16.2195,-1.52439
476.981,84.1447,40.6556,0,9.6184,1.14482,0.205972,0.548781,7.0122,1.79878,-30.3641,-0.253872,24.0029,-35.9451,13.872,-2.40854
476.991,84.1451,40.5697,0,9.63995,1.12087,0.268242,-0.365854,5.51829,2.07317,-30.7281,-0.244292,24.4627,-37.2256,7.56098,-1.98171
477.001,84.1518,40.4533,0,9.58247,1.07057,0.402363,-0.853659,3.56707,2.07317,-30.8335,-0.340093,23.7825,-39.2073,2.7439,-2.86585
477.011,84.1695,40.311,0,9.46272,1.04902,0.548459,0.457317,0.426829,2.92683,-31.0921,-0.579595,23.3035,-37.0732,-1.76829,-1.7378
477.021,84.1875,40.16,0,9.63516,1.18553,0.433499,1.31098,-1.79878,4.32927,-31.2837,-0.886157,23.1311,-34.9085,-3.96341,-0.0914634
477.031,84.1959,40.0133,0,9.64474,1.26936,0.261057,-0.853659,-1.58537,4.39024,-31.8585,-0.857417,23.5047,-34.7256,-6.95122,1.09756
477.041,84.2166,39.8443,0,9.64714,1.0562,0.344883,-3.29268,-2.53049,3.10976,-32.213,-0.732876,23.1407,-33.9634,-10.8232,1.46341
477.051,84.2376,39.6795,0,9.58487,1.00351,0.500559,-3.59756,-6.64634,2.62195,-32.2609,-0.752036,23.1024,-34.9695,-15.7622,2.16463
477.061,84.2638,39.5196,0,9.29268,0.934058,0.764011,-4.20732,-14.3598,2.62195,-32.5579,-0.761616,23.2461,-34.1463,-22.8659,3.84146
477.071,84.3106,39.3478,0,9.29028,0.792751,0.747246,-3.38415,-17.0427,2.65244,-32.7399,-0.981958,22.9491,-35.0915,-30.9756,4.20732
477.081,84.3605,39.1695,0,9.33818,0.768801,0.416733,-1.43293,-15.122,2.65244,-32.8453,-0.790356,22.7096,-33.4451,-37.378,5.09146
477.091,84.3915,38.9655,0,9.31423,0.900527,0.323328,-2.80488,-17.3476,2.89634,-33.1614,-1.2023,22.1923,-32.378,-45.8537,6.12805
477.101,84.4306,38.7261,0,9.32142,0.862207,0.423918,-4.69512,-22.9268,3.2622,-33.3435,-1.22146,21.3779,-29.4817,-51.6159,6.70732
477.111,84.4855,38.4844,0,9.4747,0.783171,0.479004,-4.5122,-26.9512,3.78049,-33.4201,-1.55676,21.1576,-23.811,-57.561,7.92683
477.121,84.5477,38.255,0,9.56331,0.740061,0.352068,-3.65854,-28.689,4.02439,-33.4201,-2.00703,21.1959,-16.372,-62.2256,11.7988
477.131,84.6149,38.0186,0,9.72617,0.682581,0.0958008,-3.44512,-28.0488,3.78049,-33.468,-2.61057,20.8702,-6.4939,-68.1098,12.8354
477.141,84.6821,37.7984,0,9.79323,0.632285,-0.184417,-3.5061,-25.7622,3.10976,-33.5351,-2.80217,21.0331,1.03659,-73.4146,14.5732
477.151,84.753,37.6016,0,9.89862,0.56283,-0.387993,-5.03049,-23.6585,2.16463,-33.4584,-2.32317,21.263,4.63415,-79.0549,17.8963
477.161,84.8235,37.4235,0,9.92496,0.57241,-0.613125,-6.85976,-21.2805,1.21951,-34.1194,-2.11241,21.8761,6.4939,-88.6585,20.2134
477.171,84.9368,37.2267,0,10.1405,0.426313,-0.780776,-9.57317,-20.8537,0.335366,-35.2307,-1.56634,21.9815,7.71341,-99.3902,19.5122
477.181,85.0393,37.0008,0,10.1788,0.433499,-0.890947,-10.1524,-19.7561,-0.27439,-35.4032,-0.502954,21.263,4.2378,-107.591,18.4451
477.191,85.1146,36.7669,0,9.86509,0.385598,-0.883762,-11.0671,-20.5183,-1.12805,-35.1254,0.493374,20.7169,-2.95732,-113.476,18.8415
477.201,85.1889,36.616,0,9.72857,0.253872,-1.05381,-10.6402,-18.4146,-1.76829,-35.6523,0.799937,22.5755,-10.3963,-124.299,19.2073
477.211,85.2533,36.4959,0,9.86509,0.117356,-1.25499,-9.93902,-12.2866,-2.77439,-36.342,0.522114,23.4951,-15.0305,-141.28,16.25
477.221,85.3188,36.3974,0,9.94891,-0.0167651,-1.1999,-9.45122,-8.59756,-3.62805,-36.4857,0.522114,23.9167,-19.7561,-154.268,14.6037
477.231,85.3733,36.3303,0,10.1764,-0.110171,-1.12326,-7.86585,-7.19512,-5.33537,-35.9397,0.416733,24.1657,-22.2256,-158.872,13.3232
477.241,85.4067,36.2807,0,10.289,-0.114961,-1.19751,-5.73171,-7.86585,-7.34756,-35.1254,0.292192,23.9358,-22.8049,-162.622,14.1768
477.251,85.4103,36.252,0,10.2291,-0.102986,-1.27894,-5.03049,-6.79878,-10.1829,-34.4356,-0.292192,23.8688,-18.1098,-167.744,16.2195
477.261,85.3949,36.1614,0,10.1908,-0.136516,-1.25739,-4.66463,-3.01829,-12.5,-33.7458,-0.340093,22.0294,-15.2439,-166.951,17.7439
477.271,85.3563,36.159,0,10.0926,-0.0934058,-1.14482,-3.41463,-0.609756,-14.4207,-33.1806,-0.895737,23.4856,-14.9695,-163.72,17.7439
477.281,85.3188,36.2617,0,10.2004,-0.131726,-1.1544,-1.4939,1.21951,-14.8171,-33.1902,-1.22146,25.8327,-12.5305,-173.506,18.2012
477.291,85.2604,36.3852,0,10.5022,-0.0694556,-1.41785,-2.31707,1.46341,-16.2805,-33.3722,-1.32684,26.5033,-8.81098,-186.768,17.2256
477.301,85.1423,36.5382,0,11.1991,0.165256,-2.23695,-10.7927,5.15244,-20,-33.0082,-1.46096,27.011,0.182927,-192.683,18.9024
477.311,84.9494,36.7691,0,12.2194,0.445474,-3.47278,-25.0915,10.7317,-25.3354,-32.2897,-0.838257,28.4864,5.21341,-191.799,21.7988
477.321,84.6989,37.0525,0,13.5534,0.560435,-4.14099,-38.6585,21.7683,-31.0366,-32.0885,-0.713716,29.8755,10.5488,-196.341,26.25
477.331,84.4095,37.3436,0,12.9355,0.440684,-2.5986,-45.8232,30.2744,-36.372,-32.0406,-1.61424,30.3257,12.5305,-197.835,27.1341
477.341,84.1617,37.6553,0,11.4889,-0.256267,0.100591,-43.2927,25.4878,-39.2988,-31.6669,-2.45729,30.8239,12.439,-199.421,25.4878
477.351,83.9005,38.0465,0,10.6291,-0.229922,0.687371,-37.5,31.4634,-41.0976,-31.14,-2.78301,32.8357,15.2439,-205.091,22.378
477.361,83.65,38.4985,0,10.1142,-0.435894,-0.471819,-31.0061,54.5427,-43.0488,-29.6743,-2.85007,33.4872,19.2378,-203.262,20.4878
477.371,83.3449,39.0091,0,8.96695,-0.100591,-0.742456,-26.4634,66.7988,-45.3963,-28.266,-2.17947,34.1865,21.2805,-197.622,20.3659
477.381,82.9791,39.5624,0,9.38848,0.524509,0.720901,-27.561,51.6159,-44.3902,-27.2122,-1.78668,34.8954,23.4756,-187.866,25.4878
477.391,82.6464,40.1484,0,10.1669,0.435894,1.81542,-24.939,13.9329,-43.2622,-26.0722,-1.02986,35.2116,22.9268,-177.317,27.8354
477.401,82.3197,40.7409,0,10.4447,0.359253,0.390388,-21.0671,7.07317,-44.3293,-25.3249,-0.426313,35.2212,19.9085,-167.165,29.4817
477.411,81.9672,41.3262,0,9.91299,0.457449,0.6251,-19.8476,13.2317,-46.25,-24.8364,0.780776,35.0966,16.4024,-162.774,30.4573
477.421,81.5793,41.8563,0,9.87706,0.735271,0.795146,-13.1707,8.41463,-47.2866,-24.3094,1.346,33.4297,17.7744,-148.963,31.9512
477.431,81.1435,42.3747,0,10.1932,1.03225,0.409548,-10.2744,12.2866,-49.8476,-23.8113,0.847837,33.1423,22.4085,-129.787,30.3963
477.441,80.7068,42.8937,0,9.8555,0.898132,0.462239,-9.11585,9.96951,-52.0122,-23.0449,-0.234712,32.8549,27.5915,-106.677,26.9207
477.451,80.272,43.4209,0,9.99921,0.878972,0.335303,-4.87805,-1.18902,-53.0793,-21.8857,-0.934058,32.1939,32.9573,-83.9939,23.2012
477.461,79.7791,43.956,0,9.74054,1.30768,0.241897,-3.65854,-2.95732,-54.5427,-21.2342,-1.09692,32.1939,35.3963,-68.9024,19.939
477.471,79.2463,44.4802,0,9.33818,1.72202,-0.117356,-0.701219,-3.87195,-53.9024,-21.0331,-0.502954,32.2705,35.8537,-58.0488,19.878
477.481,78.745,45.0057,0,9.9537,1.84177,-0.627495,2.2561,-1.0061,-51.7073,-20.9181,0.263452,32.8645,38.4146,-46.25,22.9573
477.491,78.2369,45.5408,0,9.84832,2.07648,-0.490979,1.0061,1.85976,-50.5183,-20.123,0.579595,32.6729,37.8963,-29.6951,28.4756
477.501,77.7453,46.0173,0,9.90341,2.00942,-0.368833,-1.03659,0.304878,-50.7622,-20.9564,1.73878,32.8836,34.2988,-16.2805,32.5915
477.511,77.2696,46.4596,0,9.83156,1.83458,-0.119751,2.46951,-1.95122,-51.9817,-22.2497,2.08367,34.4548,32.378,-8.07927,34.5732
477.521,76.7651,46.8501,0,9.89383,1.91841,-0.426313,4.45122,0.487805,-55.061,-23.0736,2.71595,34.6272,33.0793,0.121951,34.6341
477.531,76.2276,47.1823,0,10.1261,2.10522,-0.344883,7.59146,1.98171,-57.8963,-24.1657,2.95545,34.8954,38.3841,11.6463,33.6585
477.541,75.6371,47.4715,0,10.0471,2.4525,-0.352068,10,-1.55488,-60.3659,-25.3058,2.68721,35.6044,43.3537,22.5915,30.5793
477.551,75.0133,47.7362,0,10.0016,2.6441,-0.280217,10.8841,-0.853659,-62.7439,-26.4075,2.32317,36.7827,42.7134,33.9329,25.7927
477.561,74.4028,47.9706,0,11.0219,2.79738,-1.22625,10.9146,13.1402,-63.811,-26.8769,2.40939,36.7923,36.0671,39.8171,20.1524
477.571,73.6976,48.2134,0,10.2866,3.44164,-0.467029,10.4878,6.09756,-66.0366,-26.6757,2.38065,37.1563,32.1646,44.6951,17.0732
477.581,72.9982,48.4759,0,10.0232,3.39374,-0.292192,12.7134,-2.07317,-66.4634,-26.4937,2.55309,37.9227,28.3841,44.3902,18.7805
477.591,72.2645,48.7475,0,9.82437,3.76018,-0.438289,12.8963,0.243902,-66.8293,-25.8231,2.73511,37.6641,26.7378,46.4329,22.561
477.601,71.5017,48.9899,0,9.9082,4.0404,-0.196392,10.7622,-1.98171,-68.75,-25.9285,2.97461,37.2138,23.4146,53.872,25.2744
477.611,70.7206,49.1996,0,10.004,4.20326,0.227527,8.81098,-0.823171,-70.9451,-26.5033,3.03209,37.2521,19.5427,57.2866,26.8902
477.621,69.9131,49.3552,0,10.0208,4.39247,-0.0790356,10.5183,-4.20732,-73.4451,-27.423,3.09916,36.9456,14.6646,57.6829,25.7622
477.631,69.0642,49.4544,0,9.60882,4.51461,-0.107776,11.2195,-5.33537,-76.25,-28.1894,3.08958,36.275,11.2195,58.2317,22.5305
477.641,68.1684,49.5166,0,9.31902,4.80201,-0.0550855,10.7317,-8.17073,-78.5061,-28.1319,3.21412,35.1637,8.90244,63.628,19.1159
477.651,67.2416,49.5865,0,9.14179,5.0487,-0.00239502,9.90854,-9.14634,-80.1219,-28.2469,2.94587,35.681,7.2561,71.2805,14.5732
477.661,66.2934,49.6417,0,8.98851,5.30497,0.296982,9.5122,-9.72561,-80.8537,-28.084,2.80217,35.1349,4.96951,77.1341,10.7622
477.671,65.3585,49.6952,0,9.12023,5.3864,-0.107776,8.2622,-10.8537,-81.4024,-27.3559,2.50519,34.2823,6.92073,84.6951,8.9939
477.681,64.446,49.745,0,9.15137,5.47741,0.158071,7.5,-14.2683,-80.3354,-27.4996,2.81175,34.4548,3.32317,91.5549,7.2561
477.691,63.5505,49.7821,0,9.07952,5.41274,-0.00479004,4.84756,-11.0366,-80.6707,-27.2314,2.58183,33.8129,1.58537,95.2744,5.21341
477.701,62.6524,49.8066,0,8.96695,5.47501,-0.313748,2.10366,-4.35976,-81.5244,-26.7715,2.97461,32.9411,-1.46341,100.457,3.47561
477.711,61.7517,49.8215,0,8.74901,5.49896,-0.0958008,0.579268,-3.01829,-82.1037,-26.6661,2.85965,32.5771,-3.90244,104.116,4.35976
477.721,60.8338,49.8126,0,8.28677,5.48699,-0.182021,-3.32317,-5.45732,-82.9268,-26.3692,2.93629,31.5807,-6.55488,109.543,4.96951
477.731,59.9368,49.7938,0,8.13349,5.45106,0.100591,-1.82927,-10.5183,-82.0122,-26.3117,2.98419,31.2358,-11.6159,111.555,3.71951
477.741,59.0149,49.7636,0,7.99458,5.93007,-0.282612,-2.34756,-11.372,-80.7927,-25.9955,3.42488,30.5365,-16.4939,113.811,3.62805
477.751,58.1043,49.7278,0,7.68322,5.86301,-0.342488,-0.914634,-3.35366,-79.939,-25.9381,3.63564,30.297,-21.6159,115.457,1.61585
477.761,57.1978,49.6593,0,7.53234,6.18634,-0.114961,0.0609756,-5.51829,-77.1951,-25.8039,3.72186,29.2815,-22.9573,123.994,-1.55488
477.771,56.3745,49.5515,0,7.87961,6.13125,-0.136516,0.823171,-9.48171,-73.6281,-25.8327,4.01884,28.2852,-23.1402,133.171,-5.64024
477.781,55.59,49.4527,0,7.8868,6.19831,0.138911,1.46341,-15.1829,-70.7927,-26.1201,3.8464,28.7546,-23.3232,139.939,-7.31707
477.791,54.8928,49.3126,0,8.03529,5.71452,-0.479004,5.03049,-15.8841,-69.0854,-26.6949,3.53984,28.2564,-25.9146,143.872,-9.29878
477.801,54.1971,49.1219,0,7.93709,5.95402,-0.301772,2.46951,-17.0732,-67.3781,-26.0147,3.42488,26.2542,-28.2317,154.787,-11.5854
477.811,53.5669,48.9462,0,8.1766,5.69296,-0.785566,2.22561,-14.2683,-66.25,-25.7369,3.06083,26.1871,-27.2561,163.689,-11.1585
477.821,52.9461,48.7796,0,7.99458,5.79595,-0.65384,0.213415,-10.9451,-64.3598,-25.4303,2.81175,25.9572,-28.1402,171.372,-10.7622
477.831,52.3319,48.6019,0,7.72154,5.91091,-0.457449,-0.640244,-11.25,-61.8902,-24.6352,2.21779,24.7885,-30.2744,179.085,-12.7134
477.841,51.7234,48.4707,0,7.40061,6.08095,-0.265847,-0.914634,-16.311,-58.5366,-24.4148,2.09325,25.4495,-31.372,182.043,-12.8963
477.851,51.1321,48.3249,0,7.20182,6.17197,-0.423918,-0.27439,-17.7744,-55.6098,-24.1945,1.78668,24.798,-29.4207,185.213,-14.2073
477.861,50.5651,48.1849,0,7.06531,6.14083,-0.55804,0.487805,-22.2866,-53.5061,-24.2711,1.94955,24.9034,-28.5061,191.25,-13.811
477.871,50.0031,48.0119,0,6.85694,6.12406,-0.701741,0.731707,-24.5122,-52.5915,-24.731,2.13157,24.549,-32.0732,196.189,-14.6646
477.881,49.4345,47.7872,0,6.52882,5.97797,-0.570015,2.46951,-26.9207,-52.9573,-25.4591,2.50519,24.022,-37.4695,201.982,-16.6768
477.891,48.8921,47.5224,0,6.55756,5.84385,-0.5772,3.04878,-30.9146,-53.0183,-26.1584,2.82133,23.6388,-40.8537,202.53,-18.3537
477.901,48.3528,47.2189,0,6.6845,5.8175,-0.754431,3.35366,-31.7378,-55.1829,-26.5991,3.56858,23.0161,-44.7866,204.573,-19.0549
477.911,47.7924,46.87,0,6.80186,5.87498,-0.969983,2.59146,-30.5488,-58.872,-27.0014,3.8464,22.221,-47.3171,211.159,-18.1098
477.921,47.2131,46.549,0,6.79228,5.92528,-1.02746,2.86585,-27.4695,-61.372,-27.0302,3.76976,22.5467,-52.0122,215.732,-17.5
477.931,46.6171,46.2138,0,6.98148,6.27495,-1.07536,1.67683,-25.9756,-62.5305,-26.6087,3.76018,21.6749,-56.7683,218.171,-14.939
477.941,46.022,45.8911,0,7.01262,6.43542,-1.06818,0.792683,-25.8537,-62.439,-26.1776,3.35782,21.33,-62.6829,224.299,-12.6829
477.951,45.4308,45.5887,0,7.10363,6.55277,-0.926873,-0.823171,-23.689,-62.9573,-25.9668,3.08,21.3205,-68.75,228.994,-12.0122
477.961,44.8298,45.2861,0,7.13237,7.05333,-1.18553,-4.08537,-18.4146,-61.0976,-25.4878,2.55309,20.7169,-75.1219,233.659,-10.7927
477.971,44.2774,44.9681,0,7.21619,6.95753,-1.10889,-3.87195,-13.2317,-58.8415,-25.4878,2.05493,20.2283,-80.1219,239.177,-12.439
477.981,43.7161,44.6194,0,6.85215,6.73958,-0.833467,-2.9878,-9.14634,-59.7256,-25.8327,1.85375,19.7302,-83.9939,243.78,-15.7012
477.991,43.1533,44.2491,0,6.52882,6.22466,-0.852627,-2.59146,-7.0122,-62.8354,-26.4362,1.71004,19.5577,-87.8354,247.896,-18.5976
478.001,42.5852,43.8443,0,6.28214,5.74565,-0.886157,-2.46951,-7.89634,-66.9512,-26.8769,1.69088,19.0117,-90.3963,252.134,-22.622
478.011,41.9955,43.4162,0,6.25579,5.75523,-1.03704,0.396341,-9.02439,-69.9695,-27.4613,1.45138,18.7147,-92.6219,250.701,-25.2439
478.021,41.3156,42.9517,0,6.17197,6.40428,-1.19032,-1.06707,-6.92073,-73.3537,-27.6146,1.37474,17.8908,-93.9634,252.744,-26.4329
478.031,40.5968,42.4466,0,6.00192,6.59828,-0.890947,1.18902,-7.0122,-75.3354,-27.9595,0.972378,17.1148,-92.2256,257.53,-25.5793
478.041,39.8647,41.934,0,6.10969,6.95514,-0.828677,1.82927,-9.08537,-76.1281,-28.2756,0.579595,16.8561,-94.3293,262.409,-24.8476
478.051,39.1398,41.4344,0,6.26777,7.13237,-0.512534,5.09146,-11.0976,-76.9207,-28.5534,0.464634,16.904,-95.3963,264.39,-23.2927
478.061,38.4122,40.9116,0,6.30848,7.16111,-0.656235,6.21951,-9.2378,-78.811,-28.1798,0.158071,15.9748,-94.3902,266.098,-19.939
478.071,37.6915,40.3879,0,6.38033,7.13955,-1.12087,6.37195,-3.01829,-80.4268,-28.266,-0.320933,15.6874,-93.5976,271.159,-19.6341
478.081,36.9232,39.8777,0,6.22705,7.5515,-1.5855,3.75,-0.0914634,-82.1037,-28.3714,-0.483794,15.6395,-95.7317,275,-20.0305
478.091,36.1906,39.3434,0,6.3013,7.3096,-0.64905,2.95732,-1.58537,-82.5915,-28.1511,-0.474214,14.8252,-98.4756,280.396,-20.5488
478.101,35.3914,38.802,0,5.71452,7.87003,-0.766406,1.37195,-1.40244,-81.1281,-28.4097,-0.637075,14.5282,-98.5366,285.579,-19.878
478.111,34.603,38.2828,0,5.47501,7.97542,-1.32684,3.47561,6.15854,-78.5671,-28.3331,-0.981958,14.4994,-96.9512,284.634,-20
478.121,33.8381,37.7349,0,5.44867,8.14067,-0.869392,2.13415,9.69512,-76.4024,-28.5247,-1.12566,13.8193,-92.2256,283.323,-20
478.131,33.0859,37.1881,0,5.31215,7.95865,-0.256267,1.85976,15.122,-76.5244,-28.7546,-1.21188,13.6085,-86.0366,282.957,-21.8293
478.141,32.2851,36.6451,0,4.59365,7.82213,-0.423918,4.66463,18.1098,-76.2805,-28.9941,-1.27894,13.4552,-82.2561,286.159,-22.3171
478.151,31.497,36.1114,0,4.53377,7.96584,-0.876577,6.76829,13.9939,-75.0305,-29.1857,-1.24062,13.369,-79.1159,291.677,-21.128
478.161,30.7189,35.5286,0,4.5218,8.27958,-0.60594,6.76829,1.55488,-73.5671,-29.5881,-1.65256,12.4685,-73.3841,294.177,-20.7012
478.171,29.9808,34.9373,0,4.49785,7.86764,-0.481399,4.96951,-7.83537,-73.3537,-29.933,-2.07409,12.1332,-67.7439,296.89,-21.6463
478.181,29.1146,34.3523,0,3.43206,8.20294,-0.63947,1.0061,-15.8537,-73.5366,-31.0634,-2.31359,12.3152,-61.9512,294.97,-22.2256
478.191,28.308,33.7509,0,3.5566,8.53585,-0.546064,-2.0122,-16.0671,-69.0549,-30.6419,-2.62973,11.5392,-57.8963,297.043,-27.1037
478.201,27.546,33.1393,0,3.6045,8.44963,-0.680186,-2.83537,-16.8902,-67.1341,-30.8239,-2.68721,11.0794,-55.7317,296.098,-31.189
478.211,26.814,32.5616,0,3.63085,8.32748,-0.835862,-0.457317,-19.1768,-66.5549,-31.073,-2.11241,11.3093,-53.4756,292.652,-35.122
478.221,26.0702,31.9603,0,3.32429,8.44963,-0.910107,0.27439,-21.6463,-65,-32.031,-2.06451,10.9069,-49.1159,288.232,-35.8537
478.231,25.2959,31.3661,0,2.81415,8.92384,-0.852627,-1.92073,-25.5793,-61.5244,-32.4334,-1.81542,10.7632,-41.9512,283.75,-33.1707
478.241,24.6502,30.7885,0,3.28597,8.92384,-0.447869,-4.32927,-27.2256,-55.5183,-32.989,-2.13157,10.8207,-37.9268,278.445,-31.128
478.251,24.0807,30.2265,0,3.90867,9.34058,-0.670605,-5.39634,-29.4512,-54.1463,-33.4488,-2.22737,10.8399,-33.2317,274.543,-30.3963
478.261,23.5558,29.6569,0,4.14817,9.4723,-1.02986,-8.90244,-27.1951,-52.6829,-33.4872,-2.63931,10.3704,-29.5122,275.823,-28.8415
478.271,23.0638,29.0872,0,3.81048,9.02683,-0.696951,-11.25,-28.0793,-48.8415,-33.8225,-2.73511,10.1118,-26.8902,277.591,-29.7256
478.281,22.5939,28.4556,0,3.38416,8.6101,-0.507744,-11.189,-31.4939,-44.6646,-33.7362,-3.01293,8.74182,-22.2561,280.732,-31.311
478.291,22.1072,27.8572,0,2.90995,8.65081,-0.404758,-12.0732,-39.7256,-41.4939,-33.4009,-2.97461,8.78014,-17.8354,279.817,-31.6768
478.301,21.6702,27.273,0,3.03928,8.59812,-0.704136,-12.1951,-45.4268,-39.2073,-33.7746,-2.94587,8.71308,-13.7195,274.665,-32.7134
478.311,21.2645,26.6853,0,3.23328,8.71308,-0.986748,-9.69512,-43.1098,-38.7195,-33.8129,-2.57225,8.29156,-9.14634,272.134,-31.7988
478.321,20.9006,26.1138,0,3.55181,9.06515,-1.20948,-8.71951,-40.4878,-37.4085,-34.3111,-2.48603,8.30114,-2.59146,272.073,-28.6585
478.331,20.556,25.5487,0,3.68833,9.2304,-1.21188,-8.38415,-32.4085,-36.9512,-35.3649,-2.12199,8.28198,0.670732,270.396,-25.2439
478.341,20.1943,24.9851,0,3.54942,9.34537,-0.902922,-9.2378,-27.0427,-37.4085,-36.1025,-1.78668,8.09038,2.40854,265.579,-21.7073
478.351,19.8152,24.4261,0,3.21412,9.26154,-1.21906,-9.54268,-25.3049,-36.5244,-36.9647,-1.64298,7.96584,6.92073,260.671,-19.1159
478.361,19.4361,23.8629,0,3.16622,9.34058,-1.42983,-10.3049,-23.628,-36.4634,-37.6641,-1.31726,7.63053,7.95732,252.683,-15.0915
478.371,19.0566,23.3418,0,3.06562,9.20406,-1.26697,-10.8841,-23.5671,-36.6463,-38.0377,-1.08734,8.0329,10.122,246.433,-13.1098
478.381,18.668,22.8078,0,2.92671,9.12981,-1.06339,-7.89634,-23.0183,-37.0427,-37.7216,-1.18314,7.36229,9.35976,239.939,-11.2805
478.391,18.2822,22.2788,0,2.92432,9.10107,-1.01788,-3.96341,-19.3902,-37.622,-38.0569,-1.0586,7.13237,8.23171,235.305,-9.57317
478.401,17.8358,21.7428,0,2.29443,9.17532,-1.16877,-2.9878,-21.5854,-36.8902,-37.8461,-0.799937,6.5863,5.42683,228.323,-8.47561
478.411,17.3933,21.2266,0,2.21779,9.1825,-1.29092,-1.76829,-26.4024,-36.4634,-37.779,-0.924478,6.52882,3.35366,221.585,-6.18902
478.421,16.9625,20.7368,0,2.22018,9.17772,-1.37235,-1.18902,-30.2134,-36.2195,-38.076,-1.11608,6.64378,4.08537,210.03,-6.55488
478.431,16.5569,20.2682,0,2.32317,9.20646,-1.50168,-2.13415,-30.3659,-35.6707,-38.3251,-1.31726,6.6821,5.64024,199.482,-7.22561
478.441,16.1825,19.8014,0,2.46687,9.1849,-1.43462,-4.08537,-28.75,-35.0915,-38.6508,-1.41306,6.41386,5.82317,190.213,-6.89024
478.451,15.8424,19.3369,0,2.60339,9.08191,-1.30768,-3.10976,-25.3049,-34.3293,-38.5071,-1.57592,6.07856,5.42683,181.768,-5.03049
478.461,15.5159,18.8692,0,2.62255,9.08431,-1.26697,-2.40854,-22.8963,-33.8415,-38.3538,-1.98787,5.65704,4.35976,174.238,-5.09146
478.471,15.2153,18.4508,0,2.70398,8.95019,-1.09931,-0.457317,-20.2744,-33.3232,-38.5359,-2.08367,6.18394,4.35976,164.268,-3.41463
478.481,14.9259,18.0006,0,2.61297,9.05078,-1.14482,-1.12805,-16.7683,-31.3415,-38.2772,-2.14115,5.27383,1.85976,154.268,-4.39024
478.491,14.6775,17.5491,0,2.77822,9.14897,-1.07057,-0.945122,-13.2317,-29.3598,-38.4017,-2.33275,4.93853,0.152439,147.104,-3.2622
478.501,14.4355,17.1087,0,2.62015,9.05078,-0.946033,-0.0304878,-12.8354,-27.6829,-38.5071,-2.01661,4.79483,0.945122,135.762,-1.70732
478.511,14.1977,16.6692,0,2.65847,9.16095,-1.05141,0.670732,-12.0427,-27.8354,-39.2544,-1.81542,4.56491,1.31098,125.701,-0.457317
478.521,13.94,16.2134,0,2.48124,9.21364,-1.07536,1.31098,-6.06707,-28.0793,-39.925,-1.75794,4.01884,0,118.78,0.182927
478.531,13.6704,15.7529,0,2.33035,9.4244,-0.989143,1.61585,-3.84146,-27.4085,-40.0591,-1.54718,3.6069,-2.59146,113.201,0.518293
478.541,13.3966,15.2944,0,2.24892,9.49865,-0.929268,0.213415,-3.84146,-27.2256,-40.4806,-1.81542,3.34824,-3.01829,112.043,0.27439
478.551,13.1245,14.8101,0,2.12678,9.46033,-0.874182,-1.28049,-3.32317,-26.2805,-40.0495,-1.93039,2.53393,-5.12195,112.378,0.0914634
478.561,12.8668,14.3281,0,2.10522,9.51541,-0.890947,-1.21951,-3.17073,-24.9695,-39.81,-2.04535,2.21779,-5.15244,111.067,1.09756
478.571,12.6091,13.8706,0,2.02858,9.58487,-0.972378,-1.67683,-3.5061,-24.4207,-38.9191,-1.87291,2.25611,-5.27439,109.512,1.64634
478.581,12.4029,13.4159,0,2.36628,9.44356,-1.03944,-2.04268,-2.07317,-24.0244,-39.3693,-1.97829,2.00703,-5.30488,107.47,0.792683
478.591,12.2053,12.9749,0,2.36867,9.26394,-0.912502,-1.46341,0.762195,-24.1159,-39.034,-2.42855,1.91123,-5.97561,105.518,0.365854
478.601,11.9884,12.5458,0,2.15791,9.2831,-0.958008,-0.0304878,2.43902,-23.9329,-39.1107,-2.39023,1.80584,-4.32927,102.073,-0.518293
478.611,11.7512,12.1129,0,1.9232,9.36692,-1.10889,1.79878,2.86585,-23.4146,-39.2065,-2.16989,1.4418,-4.57317,99.3902,-2.31707
478.621,11.492,11.6924,0,1.71244,9.44356,-1.26218,2.46951,1.12805,-23.4451,-39.4651,-1.96871,1.35558,-3.17073,95.4878,-3.07927
478.631,11.2457,11.2864,0,1.77231,9.42201,-1.3963,1.89024,-2.2561,-23.4146,-39.4556,-2.10283,1.30768,-3.71951,92.7134,-4.26829
478.641,11.0079,10.9101,0,1.83458,9.38129,-1.41785,2.65244,-3.07927,-23.9024,-39.4843,-2.13157,1.5376,-4.17683,90.0305,-5.85366
478.651,10.77,10.5525,0,1.85375,9.33579,-1.42504,3.2622,-2.5,-24.7256,-39.4172,-1.95913,1.5855,-5.30488,85.8232,-7.07317
478.661,10.5324,10.1938,0,1.83219,9.331,-1.38432,3.93293,0.27439,-24.939,-39.1873,-2.15073,1.30768,-5.33537,84.2683,-8.71951
478.671,10.2977,9.82284,0,1.84417,9.38129,-1.47294,4.11585,2.86585,-25.1524,-39.4172,-2.35191,0.847837,-5.64024,81.7988,-8.04878
478.681,10.0537,9.44649,0,1.76513,9.4723,-1.57113,4.08537,1.89024,-25.4268,-39.216,-1.90165,0.493374,-6.89024,81.189,-8.17073
478.691,9.81518,9.05202,0,1.76992,9.40045,-1.60706,4.26829,0.823171,-25.5793,-38.9095,-1.52802,-0.0718506,-7.34756,82.6524,-6.46341
478.701,9.557,8.63008,0,1.57592,9.41722,-1.46575,4.02439,-0.365854,-25.7012,-39.0436,-1.40348,-0.809517,-7.53049,83.9024,-3.90244
478.711,9.31063,8.23589,0,1.61664,9.5202,-1.32205,3.35366,-0.243902,-25.3049,-39.6951,-1.43222,-0.627495,-8.93293,84.5427,-2.37805
478.721,9.07357,7.82056,0,1.61664,9.46512,-1.13524,3.20122,0.152439,-24.9695,-39.9441,-1.64298,-1.26936,-11.4634,87.3171,-2.68293
478.731,8.82687,7.40248,0,1.52084,9.56571,-1.00351,3.35366,0.640244,-25.0915,-39.8388,-1.59508,-1.60466,-11.4939,86.9817,-1.92073
478.741,8.56878,6.97504,0,1.37953,9.60642,-0.869392,3.20122,0.670732,-25,-40.0304,-1.55676,-2.06451,-10.122,88.7195,-2.77439
478.751,8.31119,6.57136,0,1.28134,9.6663,-0.850232,3.59756,-0.182927,-24.2073,-40.1741,-2.17947,-1.94955,-10.5183,89.0244,-2.37805
478.761,8.05536,6.20644,0,1.18074,9.83874,-0.890947,3.56707,-2.56098,-23.1098,-39.7525,-1.64298,-1.5376,-11.9817,86.6159,-2.2561
478.771,7.80715,5.84641,0,1.06818,9.91778,-0.890947,2.31707,-6.92073,-21.4329,-39.5514,-2.19863,-1.71004,-11.2805,82.7439,-1.31098
478.781,7.59099,5.4763,0,1.1544,9.87946,-0.991538,0.823171,-11.7378,-19.7256,-39.2735,-2.60099,-2.13157,-9.08537,79.4512,-1.76829
478.791,7.43011,5.14742,0,1.42743,9.69504,-1.09213,-1.0061,-15.8537,-18.0183,-39.7046,-2.70637,-1.70046,-6.98171,76.0061,-1.21951
478.801,7.32444,4.80832,0,1.65496,9.63037,-1.19751,-2.7439,-18.628,-15.5183,-39.9346,-2.96503,-2.13157,-2.31707,72.8049,-1.03659
478.811,7.27752,4.48609,0,1.9256,9.5226,-1.28852,-3.23171,-18.5061,-13.1707,-40.2028,-3.25244,-2.09325,2.53049,70.3659,-0.335366
478.821,7.27529,4.1731,0,2.12438,9.50104,-1.32205,-3.2622,-17.2256,-11.0976,-40.7393,-3.30992,-2.19863,4.29878,66.4024,0.823171
478.831,7.31613,3.89458,0,2.28245,9.46512,-1.32205,-2.86585,-16.189,-8.65854,-40.9117,-3.26202,-1.825,7.59146,61.8293,1.79878
478.841,7.38112,3.6338,0,2.31119,9.51541,-1.33642,-3.56707,-14.4817,-6.34146,-41.1225,-3.1758,-1.7292,8.93293,57.1646,2.77439
478.851,7.463,3.38661,0,2.27287,9.44596,-1.26457,-4.08537,-10.9451,-4.48171,-41.4674,-3.1279,-1.69088,9.45122,55.2134,2.92683
478.861,7.54746,3.11692,0,2.0669,9.4268,-1.09213,-3.59756,-7.7439,-2.77439,-41.2758,-2.97461,-2.28485,9.63415,51.6159,5.51829
478.871,7.66939,2.88321,0,1.90883,9.43877,-1.31008,-2.65244,-5.2439,-1.12805,-41.3524,-2.79259,-1.84417,8.9939,46.7378,9.05488
478.881,7.75815,2.6676,0,1.72441,9.67827,-1.54,-3.01829,-2.68293,-0.609756,-41.0363,-2.26569,-1.69088,7.40854,40.7927,12.0122
478.891,7.81582,2.44426,0,1.52802,9.70701,-1.58071,-2.7439,-0.670732,0.27439,-40.7584,-2.00703,-1.98787,4.14634,36.372,14.3293
478.901,7.8437,2.22335,0,1.43941,9.76928,-1.59269,-1.82927,0.853659,1.0061,-40.586,-1.66214,-2.11241,1.76829,31.311,16.3415
478.911,7.85324,2.00666,0,1.3484,9.73096,-1.61185,-1.64634,1.7378,0.823171,-40.4806,-1.67172,-2.20821,-0.609756,25.5183,17.8963
478.921,7.84698,1.76131,0,1.27894,9.60403,-1.57113,-1.67683,1.92073,0.548781,-40.471,-1.67172,-2.88839,-5.54878,21.5549,18.3537
478.931,7.82324,1.5227,0,1.24062,9.46512,-1.40827,-1.7378,1.4939,-0.27439,-40.3657,-1.45138,-2.94587,-8.38415,18.2012,17.6829
478.941,7.77637,1.29605,0,1.14961,9.46272,-1.30529,-1.28049,1.37195,-0.640244,-40.2794,-1.3939,-2.90755,-10.2439,14.5732,17.3476
478.951,7.70295,1.06299,0,1.02267,9.48667,-1.21906,-0.701219,2.19512,-0.884146,-40.2028,-1.31726,-3.19496,-14.3598,9.17683,17.2256
478.961,7.59593,0.852662,0,0.907712,9.55613,-1.14721,-0.457317,2.10366,-0.640244,-40.2124,-1.33642,-2.97461,-17.1341,3.59756,15.8232
478.971,7.47274,0.628843,0,0.773591,9.6663,-1.24062,-0.426829,1.70732,-0.823171,-39.9441,-1.46096,-3.34824,-20.6707,1.58537,14.4512
478.981,7.36306,0.417347,0,0.790356,9.72617,-1.2023,-0.914634,0.884146,-0.914634,-40.0112,-1.64298,-3.30992,-21.25,-3.44512,14.5122
478.991,7.26185,0.196875,0,0.799937,9.75252,-1.22146,-1.82927,-0.457317,-0.97561,-39.8196,-1.85375,-3.6069,-24.7561,-5.18293,14.5732
479.001,7.17798,-0.0151326,0,0.838257,9.77647,-1.23823,-2.34756,-0.365854,-1.28049,-39.8483,-2.08367,-3.62606,-25.2439,-8.59756,14.0854
479.011,7.09818,-0.23053,0,0.833467,9.75012,-1.26218,-2.71341,-0.518293,-1.4939,-39.8292,-2.55309,-3.83682,-26.311,-9.69512,13.1402
479.021,7.02338,-0.467919,0,0.833467,9.69504,-1.36516,-2.83537,-0.762195,-2.0122,-39.8388,-2.60099,-4.38289,-25.0915,-10.7012,13.3232
479.031,6.95501,-0.708611,0,0.864602,9.71899,-1.40109,-3.01829,-1.0061,-2.13415,-39.446,-2.89797,-4.56491,-26.4024,-11.1585,14.1768
479.041,6.89534,-0.935201,0,0.919688,9.58966,-1.31726,-2.28659,-1.52439,-2.59146,-39.7813,-3.1279,-4.51701,-23.9634,-9.57317,13.5976
479.051,6.85462,-1.1349,0,1.03465,9.61361,-1.4897,-2.34756,-1.92073,-2.31707,-39.9441,-3.3195,-4.22002,-24.5732,-10.6402,13.4756
479.061,6.8192,-1.33185,0,1.08015,9.65911,-1.48731,-2.59146,-2.80488,-2.5,-39.9346,-3.32908,-4.31582,-24.2073,-12.0732,12.4085
479.071,6.80489,-1.52279,0,1.22146,9.69025,-1.43701,-3.14024,-3.75,-2.34756,-39.7525,-3.26202,-4.33499,-23.4146,-14.1159,11.4024
479.081,6.82124,-1.69861,0,1.37235,9.67109,-1.45138,-3.23171,-5.03049,-1.76829,-39.2448,-3.24286,-4.15296,-22.8049,-15.7622,10.8232
479.091,6.86135,-1.87119,0,1.53281,9.66869,-1.50168,-3.90244,-5,-1.76829,-39.1873,-3.06083,-4.21044,-22.1037,-15.3354,12.439
479.101,6.91887,-2.04193,0,1.65496,9.60163,-1.51844,-4.63415,-5.06098,-1.85976,-38.7658,-2.97461,-4.25834,-21.311,-17.3476,12.0732
479.111,6.97671,-2.19152,0,1.69328,9.54176,-1.47294,-4.57317,-4.02439,-2.10366,-38.7849,-2.92671,-4.00926,-20.7622,-16.6463,10.5793
479.121,7.0451,-2.32095,0,1.7316,9.48188,-1.29571,-4.69512,-2.43902,-1.98171,-38.7466,-2.84049,-3.76018,-19.939,-16.7683,10.0915
479.131,7.10822,-2.43499,0,1.74836,9.46033,-1.33163,-4.02439,-0.152439,-2.22561,-38.67,-3.06083,-3.57816,-21.0976,-17.3476,8.62805
479.141,7.16852,-2.54825,0,1.70046,9.53697,-1.346,-3.62805,2.71341,-1.89024,-38.9286,-2.87881,-3.66438,-21.0671,-16.6159,7.22561
479.151,7.21538,-2.66157,0,1.64777,9.55373,-1.43941,-3.47561,5.03049,-2.0122,-39.1011,-2.53393,-3.76018,-22.8659,-16.8293,5.88415
479.161,7.25687,-2.76323,0,1.57592,9.51302,-1.5376,-3.29268,5.85366,-1.79878,-39.4747,-2.45729,-3.66438,-25.2744,-15.061,6.28049
479.171,7.28635,-2.84998,0,1.51844,9.52739,-1.56634,-2.92683,6.18902,-1.85976,-39.5897,-2.16989,-3.48236,-27.622,-14.7866,5.94512
479.181,7.31093,-2.93677,0,1.47533,9.52499,-1.59987,-2.80488,6.58537,-1.7378,-39.6663,-2.40939,-3.54942,-29.7866,-14.4512,6.4939
479.191,7.31592,-3.03554,0,1.42743,9.58726,-1.65017,-3.2622,7.19512,-2.31707,-38.9957,-2.62015,-3.76018,-34.7561,-15.5183,4.35976
479.201,7.3127,-3.0978,0,1.40109,9.60642,-1.64059,-4.35976,7.37805,-2.62195,-39.6951,-2.66805,-3.25244,-39.6341,-15.4268,2.86585
479.211,7.31002,-3.15878,0,1.40827,9.57529,-1.66933,-5.21341,7.46951,-2.71341,-39.7909,-2.71595,-3.29076,-42.1341,-18.2012,1.15854
479.221,7.29986,-3.23481,0,1.36277,9.58008,-1.61903,-5.85366,7.5,-2.83537,-39.3119,-2.88839,-3.559,-45.2439,-19.0244,-0.640244
479.231,7.28673,-3.31768,0,1.36756,9.54415,-1.59748,-5.67073,7.65244,-3.23171,-39.4747,-2.65847,-3.7506,-47.7744,-20.2439,-1.61585
479.241,7.2694,-3.37544,0,1.33642,9.53697,-1.59987,-5.21341,8.32317,-3.29268,-39.5609,-2.76385,-3.37698,-50.3659,-20.7622,-1.06707
479.251,7.25481,-3.43856,0,1.35798,9.53697,-1.66933,-4.87805,8.84146,-3.32317,-39.5226,-2.96503,-3.5111,-52.6524,-21.6768,-2.13415
479.261,7.23829,-3.4877,0,1.34121,9.54415,-1.66933,-4.60366,9.72561,-3.32317,-39.513,-3.1279,-3.30992,-55.6707,-21.9817,-1.95122
479.271,7.22697,-3.55376,0,1.36277,9.55852,-1.63819,-4.66463,10.9146,-3.10976,-39.4556,-3.14706,-3.63564,-56.4939,-21.9817,-2.2561
479.281,7.2262,-3.61619,0,1.42504,9.62558,-1.55916,-4.72561,11.25,-2.80488,-39.331,-3.10874,-3.6069,-59.6646,-22.1037,-1.67683
479.291,7.22525,-3.68582,0,1.43701,9.63516,-1.56874,-5.51829,11.9207,-2.92683,-39.3598,-3.20454,-3.77934,-60.1829,-22.2866,-1.95122
479.301,7.22544,-3.7432,0,1.43941,9.65193,-1.48252,-6.03659,11.5549,-2.83537,-39.2256,-3.33866,-3.59732,-60.7622,-21.189,-1.98171
479.311,7.23457,-3.80561,0,1.48731,9.64235,-1.3484,-6.4939,11.6768,-2.65244,-39.3502,-3.64522,-3.73144,-61.7683,-19.7866,-2.5
479.321,7.25662,-3.85948,0,1.55437,9.65911,-1.346,-7.04268,12.3476,-2.34756,-39.3598,-3.69312,-3.62606,-63.2622,-19.6951,-3.01829
479.331,7.29633,-3.91344,0,1.58311,9.60642,-1.30529,-7.83537,12.378,-1.7378,-39.331,-3.62606,-3.66438,-62.5915,-20.3659,-4.39024
479.341,7.33995,-3.95699,0,1.5855,9.57289,-1.26697,-7.80488,12.7439,-1.61585,-39.446,-3.76018,-3.53026,-62.7439,-20.3659,-6.21951
479.351,7.40654,-4.0187,0,1.61664,9.56331,-1.2981,-7.80488,13.1402,-1.06707,-39.2735,-3.88472,-3.86556,-63.9329,-21.4329,-6.92073
479.361,7.52411,-4.07271,0,1.65735,9.55373,-1.24541,-8.10976,13.1402,-0.335366,-39.2352,-3.90388,-3.76976,-64.2988,-21.3415,-6.28049
479.371,7.65643,-4.12286,0,1.6813,9.61121,-1.2502,-8.01829,13.2927,-0.0914634,-39.0053,-3.73144,-3.72186,-65.2439,-22.5305,-5.03049
479.381,7.74558,-4.17484,0,1.68849,9.59205,-1.27655,-8.47561,13.3537,1.03659,-39.1394,-3.67396,-3.7985,-68.3841,-21.7683,-3.93293
479.391,7.82919,-4.23406,0,1.73399,9.64474,-1.26218,-9.11585,13.2622,1.52439,-39.1298,-3.58774,-3.96136,-67.8659,-22.3171,-3.07927
479.401,7.91901,-4.30077,0,1.81303,9.62798,-1.26457,-10.1524,13.3232,2.2561,-38.7083,-3.7027,-4.0859,-68.2012,-21.6159,-2.07317
479.411,8.02269,-4.35291,0,1.93039,9.64714,-1.22386,-10.9146,13.5976,3.07927,-38.8807,-3.83682,-3.8943,-68.2317,-20.6098,-1.0061
479.421,8.1589,-4.38055,0,2.09325,9.58726,-1.19751,-11.2805,14.1463,5.03049,-39.264,-3.7985,-3.53984,-70.9146,-20.3659,-2.53049
479.431,8.33357,-4.40496,0,2.28245,9.53457,-1.2023,-12.1037,14.8476,6.98171,-39.4268,-3.7506,-3.52068,-72.3781,-21.4024,-1.79878
479.441,8.55161,-4.4291,0,2.50519,9.50344,-1.20469,-12.622,15.2439,9.11585,-39.1969,-3.86556,-3.5111,-74.0854,-21.0061,0.518293
479.451,8.81538,-4.45132,0,2.73511,9.44356,-1.1999,-12.7744,16.1585,11.4024,-38.8616,-3.69312,-3.4632,-74.5732,-20.7012,3.23171
479.461,9.12672,-4.46769,0,2.91953,9.32142,-1.1544,-13.2622,17.378,14.2683,-38.6508,-3.72186,-3.35782,-75.5488,-20.2744,4.96951
479.471,9.49323,-4.45654,0,3.15664,9.21603,-1.20709,-13.0793,18.872,17.439,-38.2964,-3.78892,-2.86923,-75.1524,-19.9085,7.04268
479.481,9.90931,-4.46536,0,3.32908,9.137,-1.14482,-12.378,20.4268,20.9756,-38.3634,-3.80808,-3.20454,-75.7317,-19.3293,7.9878
479.491,10.374,-4.47361,0,3.52547,9.05078,-1.14003,-11.3415,23.75,24.2073,-38.3251,-3.77934,-3.19496,-72.9573,-18.5366,8.65854
479.501,10.893,-4.4821,0,3.74342,8.96216,-1.06099,-10.5793,25.8232,27.8659,-38.1718,-3.73144,-3.18538,-72.8354,-16.5854,9.5122
479.511,11.4714,-4.47629,0,3.99489,8.88792,-0.895737,-9.90854,28.1098,31.8598,-37.9132,-3.49194,-2.92671,-70.0915,-15.9146,10.6402
479.521,12.1066,-4.45962,0,4.19128,8.83523,-0.857417,-10.4268,30.4573,36.4329,-38.1048,-3.29076,-2.75427,-67.9268,-15.9451,12.2256
479.531,12.8053,-4.44365,0,4.40444,8.67955,-0.790356,-10.7622,31.6768,41.0976,-37.7982,-3.01293,-2.73511,-65.0915,-16.6463,13.689
479.541,13.571,-4.4522,0,4.54814,8.50232,-0.797541,-10.3963,32.3476,46.8293,-37.7216,-2.64889,-3.1279,-63.2317,-16.311,14.9085
479.551,14.3996,-4.44929,0,4.73495,8.34904,-0.768801,-9.29878,33.6585,51.9207,-38.076,-2.19863,-2.96503,-58.1707,-14.939,16.2805
479.561,15.3061,-4.45265,0,5.01757,8.18618,-0.883762,-7.62195,35.1829,57.5915,-38.3826,-1.76752,-3.09916,-51.2805,-16.5854,18.5976
479.571,16.2744,-4.47284,0,5.19001,8.04966,-1.09931,-5,36.7988,63.0793,-38.2964,-1.07776,-3.38656,-43.9634,-18.3841,21.189
479.581,17.2958,-4.51323,0,5.36245,7.91075,-1.41067,-0.884146,40.3354,67.7744,-38.3443,-0.455054,-3.76018,-33.9634,-21.8293,24.7866
479.591,18.3546,-4.53853,0,5.45585,7.7886,-1.67172,4.14634,44.9695,71.8902,-39.4076,-0.158071,-3.64522,-24.1463,-26.7988,29.4207
479.601,19.4002,-4.58912,0,5.3864,8.00176,-1.80584,10.6707,47.3476,74.8781,-39.7717,0.0526904,-4.15296,-11.2195,-29.3293,31.3415
479.611,20.4355,-4.71172,0,5.53968,8.43526,-2.00224,18.4451,50.6402,77.2866,-39.925,-0.330513,-5.48459,-0.0609756,-27.6524,33.5671
479.621,21.4436,-4.86939,0,5.81511,9.15137,-2.15312,26.0671,56.0366,78.3841,-40.2411,-0.943638,-6.23184,12.9573,-22.1951,34.5122
479.631,22.4118,-5.09749,0,6.18873,9.98005,-2.43813,33.5976,64.5427,77.6524,-40.2507,-1.37474,-7.60179,24.0549,-13.2317,33.2927
479.641,23.2929,-5.34032,0,6.0594,11.0003,-2.51717,35.2439,75.1219,76.7683,-40.1645,-1.43222,-7.98499,31.0366,-2.92683,33.5976
479.651,24.1025,-5.56896,0,5.61872,11.4482,-1.97829,32.7744,84.2988,76.7988,-40.4136,-0.914897,-7.93709,37.1037,0.518293,33.8415
479.661,24.8073,-5.78513,0,4.77806,11.8553,-0.948428,33.0793,87.1951,76.311,-41.4003,-0.608335,-8.06164,43.0793,1.79878,36.5854
479.671,25.3251,-5.99582,0,2.92432,11.8673,1.17356,31.0366,69.1768,75.2134,-41.3237,-0.282612,-8.09996,46.9512,3.10976,40.3354
479.681,25.6992,-6.19366,0,1.76034,11.8146,2.40939,27.1341,43.3537,72.561,-41.6111,0.186812,-8.0808,47.4695,0.396341,45.0305
479.691,25.9879,-6.37198,0,0.265847,11.7811,2.04535,29.6037,33.7195,79.2683,-42.023,-0.0335303,-7.94667,48.3841,-2.37805,48.3232
479.701,26.2765,-6.54886,0,0.268242,11.7428,0.203577,25.3659,40.2439,79.8171,-41.7548,0.253872,-8.01374,46.4329,-5.18293,51.2195
479.711,26.5294,-6.68327,0,0.229922,10.7273,-0.761616,23.6585,39.7866,76.9207,-41.5057,0.531694,-7.31439,46.8293,-10.3354,56.372
479.721,26.7703,-6.7963,0,0.63947,9.94173,-1.16158,21.4329,25.3354,71.2195,-41.3428,0.723296,-7.00783,45.4268,-16.7988,61.4329
479.731,27.0584,-6.90098,0,1.47533,9.61361,-1.61424,19.2988,6.64634,66.2195,-41.2183,0.732876,-6.94077,44.8171,-23.9329,64.4512
479.741,27.42,-6.99832,0,2.44052,9.24717,-1.71483,17.378,-8.81098,61.9512,-41.0937,0.905317,-6.89287,46.4024,-32.9268,67.3781
479.751,27.8286,-7.05878,0,3.15664,8.91666,-1.35319,16.8293,-20.1829,57.8659,-40.7489,0.895737,-6.26058,47.7744,-42.3171,67.5305
479.761,28.2854,-7.10089,0,3.73384,8.97653,-1.16877,19.2378,-25.5488,57.3171,-40.0112,0.914897,-5.89654,51.6159,-52.7744,66.7988
479.771,28.7995,-7.12246,0,4.48827,8.86876,-1.20948,19.2378,-19.4817,55.3963,-39.034,0.742456,-5.44627,54.8476,-60.0915,63.628
479.781,29.3377,-7.13309,0,5.01278,8.47597,-0.843047,17.1646,-7.68293,51.25,-38.0569,0.713716,-5.15887,55.3659,-66.4634,59.939
479.791,29.905,-7.1282,0,5.41035,7.85806,-0.486189,17.6524,6.82927,47.2561,-37.1276,0.416733,-4.78525,55.122,-67.561,56.0061
479.801,30.4939,-7.14804,0,5.68817,7.37906,-0.385598,21.4329,21.0061,44.3293,-36.2654,0.435894,-5.07265,54.4512,-67.3781,52.3476
479.811,31.0961,-7.18379,0,5.94444,6.95753,-0.457449,26.6768,32.439,41.0061,-36.1025,0.723296,-5.32173,54.6341,-67.5915,49.1463
479.821,31.679,-7.22705,0,6.03545,6.76593,-0.696951,32.439,41.9512,37.7744,-36.4091,0.656235,-5.51333,50.7317,-67.6219,46.1585
479.831,32.2108,-7.25373,0,5.89893,6.93837,-0.840652,37.2561,49.7561,36.5244,-36.7061,0.962798,-5.31215,49.5122,-67.439,43.5366
479.841,32.6965,-7.29796,0,5.68099,7.05573,-0.864602,39.4817,52.7744,36.0366,-36.936,1.2981,-5.65704,46.8598,-68.0793,40.4268
479.851,33.15,-7.31837,0,5.51094,7.1156,-0.876577,41.0061,53.0183,35.9451,-37.6928,1.35558,-5.40795,43.872,-71.0366,37.1341
479.861,33.5691,-7.35229,0,5.31215,7.1659,-0.929268,41.4329,53.9024,35.8232,-37.9802,1.55676,-5.69536,40.2439,-71.3719,31.2195
479.871,33.8972,-7.40102,0,4.70142,7.1156,-0.814307,39.5427,49.8171,33.7195,-37.8269,1.64298,-5.94444,35.7012,-70.3049,25.5793
479.881,34.134,-7.47029,0,4.34696,7.24972,-0.742456,37.7439,43.0488,30.1829,-37.4533,1.96871,-6.26058,29.6951,-68.5976,19.8476
479.891,34.2427,-7.5898,0,3.81527,7.22338,-0.819097,33.7805,34.9695,23.9329,-36.8115,2.15073,-7.02699,24.1159,-64.4207,16.372
479.901,34.2204,-7.75693,0,3.20214,7.34073,-0.66342,29.5732,26.8293,19.5122,-36.275,2.28485,-7.78381,20.4268,-60.7622,12.5
479.911,34.14,-7.93634,0,3.14466,7.34552,-0.495769,25.9756,19.0244,14.3293,-35.9492,2.27527,-8.00416,17.1646,-53.4756,7.89634
479.921,33.9754,-8.13249,0,3.1758,7.53234,-0.452659,24.9085,9.57317,6.55488,-35.9492,2.24653,-8.37778,14.2073,-46.189,4.29878
479.931,33.0911,-8.31499,0,3.60929,7.50599,-0.522114,23.0488,0.213415,-0.701219,-36.2558,2.11241,-8.32988,10.7927,-40.061,-0.396341
479.941,32.9323,-8.49557,0,3.82724,7.08207,-0.361648,20.8537,-9.48171,-6.43293,-36.8498,1.71962,-8.54064,6.82927,-35.1524,-5.73171
479.951,32.8627,-8.64825,0,4.58407,6.63181,-0.292192,20.0915,-17.2256,-10.6098,-37.7599,1.50886,-8.37778,2.5,-32.0122,-9.81707
479.961,32.8626,-8.81284,0,5.26904,6.3947,-0.205972,21.7988,-22.3171,-13.5366,-38.4209,1.67172,-8.83762,-2.16463,-30.1829,-13.1402
479.971,32.9079,-8.97985,0,5.85343,6.27974,-0.213157,22.9878,-26.7683,-16.0366,-38.967,1.5855,-9.11544,-5,-27.4695,-14.878
479.981,33.0158,-9.132,0,6.50727,6.09772,-0.210762,23.4756,-29.6037,-17.4695,-39.3406,1.5855,-9.04838,-7.19512,-26.4329,-16.6463
479.991,33.166,-9.25279,0,6.96232,5.9612,-0.0910107,25.1524,-31.0976,-18.1707,-39.4843,2.01661,-8.62686,-10.5793,-28.811,-17.8049
480.001,33.3126,-9.36429,0,7.13955,6.10011,-0.0215552,27.378,-34.0244,-18.3537,-39.6567,2.21779,-8.58854,-10.8841,-30.6098,-18.1098
480.011,33.4567,-9.47,0,7.32157,6.32046,-0.143701,29.7256,-39.1768,-17.7134,-39.81,2.25611,-8.6077,-12.8963,-33.7195,-18.2622
480.021,33.6265,-9.5513,0,7.68801,6.40668,-0.246687,29.6341,-44.8476,-16.8293,-39.4843,2.19863,-8.1766,-13.5976,-35.7012,-18.2012
480.031,33.832,-9.65158,0,8.11672,6.43063,-0.215552,28.5366,-47.1341,-15.7317,-39.1586,2.05493,-8.50232,-16.5854,-33.628,-19.2988
480.041,34.0665,-9.75583,0,8.51669,6.55517,-0.397573,25.3049,-44.939,-13.9939,-38.6987,2.28485,-8.53106,-19.7561,-29.878,-21.7683
480.051,34.2927,-9.84805,0,8.8951,6.91442,-0.64426,20.4573,-38.811,-13.811,-38.258,2.36149,-8.28198,-26.8902,-26.2805,-22.9573
480.061,34.5259,-9.90366,0,9.20646,7.06531,-0.907712,19.6341,-29.6341,-13.3537,-38.1527,2.94587,-7.67843,-34.3902,-25.6098,-22.3171
480.071,34.757,-9.97064,0,9.31184,7.18985,-1.15919,21.4939,-18.6585,-12.7439,-38.1335,3.54942,-7.90835,-40.7012,-24.4512,-18.628
480.081,34.9695,-10.0346,0,9.2352,7.23535,-1.67651,23.4146,-6.55488,-13.3537,-38.488,4.50743,-7.96584,-49.2073,-21.9207,-13.628
480.091,35.1622,-10.1079,0,9.11065,7.27607,-1.93039,23.0488,4.02439,-13.8415,-39.0149,5.18761,-8.28198,-58.9329,-19.7866,-8.44512
480.101,35.3358,-10.2233,0,8.88073,7.22338,-1.83938,22.8659,10.7927,-14.3598,-39.3023,5.74326,-9.1346,-68.1098,-12.7134,-3.96341
480.111,35.5114,-10.3965,0,8.54782,6.93598,-1.8274,22.622,15.061,-13.9329,-39.6855,6.23184,-10.3417,-76.7988,-1.67683,-1.55488
480.121,35.6743,-10.6031,0,8.05685,6.58151,-1.9711,21.2805,16.6768,-14.4817,-39.6759,6.55756,-11.041,-87.1951,12.622,0.0914634
480.131,35.7601,-10.802,0,7.26888,6.4426,-1.65735,20.4878,17.6524,-17.3171,-39.8675,6.82581,-11.0506,-95.5793,26.8902,0.335366
480.141,35.6231,-10.7681,0,6.26298,7.32876,-1.57113,19.2073,23.0183,-23.689,-41.5153,6.61504,-7.18027,-98.0488,26.9512,0.609756
480.152,35.1377,-10.7439,0,5.27383,9.68067,-2.02619,18.3537,28.9634,-35.1524,-44.0444,6.04982,-7.81255,-89.3902,19.878,-1.15854
480.161,34.3531,-10.801,0,4.07153,11.5488,-2.33275,20.5793,25.6707,-47.9878,-45.8838,4.46911,-9.79563,-78.5671,27.5,-6.03659
480.171,33.394,-10.8692,0,2.85726,11.7404,-1.61185,15.0915,10,-55.6707,-47.9148,1.90165,-10.4279,-66.0366,49.2683,-11.189
480.181,32.4987,-10.7912,0,2.95785,11.2302,-0.0981958,-0.670732,-11.5854,-53.3232,-49.3901,-1.5855,-7.46767,-58.2317,60.9756,-18.2317
480.191,31.8068,-10.651,0,4.31343,11.6326,1.22625,-12.378,-30.3049,-45.7927,-50.6738,-5.07265,-6.18394,-41.2195,59.4207,-28.0793
480.201,31.3487,-10.4633,0,5.80313,11.5129,0.962798,-2.83537,-42.1646,-36.4329,-51.8713,-6.94077,-5.12055,-13.5061,54.9695,-39.2988
480.211,31.1236,-10.2437,0,7.44133,11.6087,-1.18314,4.84756,-45.6707,-25.6402,-52.3695,-9.01964,-4.26792,14.2683,52.622,-50.3963
480.221,31.1011,-10.0127,0,8.92384,11.1536,-2.64889,1.58537,-39.1159,-17.6829,-51.239,-9.83395,-3.71228,38.872,53.811,-59.5427
480.231,31.0765,-9.72942,0,8.06164,10.5836,-3.50152,-1.46341,-20.8537,-15.1524,-49.323,-8.98132,-2.19863,56.3415,61.7988,-64.6951
480.241,30.765,-9.40013,0,4.55293,10.6028,-3.19256,-9.57317,-10.7317,-15.7927,-48.0201,-6.1073,-0.914897,61.2195,65.1829,-61.7683
480.251,30.0885,-9.05293,0,0.998723,10.2315,-1.77231,-10.2439,-5.67073,-17.622,-44.4659,-5.43669,-0.167651,71.7988,84.1159,-52.561
480.261,29.0657,-8.69291,0,-1.75555,10.004,-0.546064,-6.92073,-3.01829,-22.6524,-42.4733,-3.47278,0.368833,69.6341,92.7439,-43.628
480.271,27.8134,-8.34769,0,-3.6548,9.97526,-0.912502,-9.93902,-19.6341,-27.4085,-39.446,-3.30992,0.340093,69.8171,94.8171,-31.4634
480.281,26.5227,-7.79898,0,-3.56858,9.49386,-2.22976,-14.8476,-50.6098,-32.8963,-40.9309,-0.292192,4.24876,61.9512,84.3598,-26.2805
480.291,25.3089,-7.0897,0,-2.15073,8.98372,-3.67635,-14.6341,-76.0671,-42.2561,-43.0289,2.13157,7.90835,53.0488,61.0366,-27.8354
480.301,24.2787,-6.3405,0,-0.205972,9.00048,-4.55293,-14.2073,-85.1524,-50.7927,-43.2588,3.43446,9.2304,39.2378,43.5366,-30.3049
480.311,23.4137,-5.57097,0,1.46815,9.52978,-4.99601,-16.8902,-80.9451,-56.5854,-42.799,3.80808,10.0543,24.1463,25.8841,-36.0671
480.321,22.6652,-4.85759,0,2.65368,9.73336,-4.2799,-17.1037,-68.811,-59.7256,-41.4482,3.95178,9.1825,-4.2378,9.69512,-41.6463
480.331,21.9725,-4.11931,0,3.27399,9.63037,-3.42248,-14.9695,-52.0732,-62.7439,-40.6052,4.20086,9.98723,-15.4573,6.52439,-45.8232
480.341,21.2893,-3.45679,0,3.42967,9.2328,-2.9794,-10.9146,-34.6646,-66.4634,-39.3502,3.49194,8.80888,-34.0549,1.43293,-45.8232
480.351,20.5692,-2.90922,0,3.13987,9.00288,-2.95785,-6.34146,-20.3963,-69.2683,-38.258,3.02251,6.99825,-49.878,-0.945122,-43.628
480.361,19.7918,-2.47363,0,2.60818,8.9454,-2.73511,-3.01829,-11.0976,-70.5183,-37.3479,1.825,5.30257,-61.8598,-1.95122,-40.8841
480.371,18.9125,-2.12331,0,1.6837,9.21843,-2.48364,-0.182927,-8.32317,-70.4573,-37.2905,0.196392,4.16254,-67.7439,-0.762195,-40.2134
480.381,17.976,-1.87034,0,1.06578,9.30226,-2.47885,0.0304878,-11.189,-70.3049,-36.8977,-1.56634,2.74469,-71.0366,-2.13415,-41.7378
480.391,17.0337,-1.66236,0,0.790356,9.35016,-2.54112,-1.64634,-17.2256,-69.3293,-36.8881,-3.3195,2.16989,-70.2134,-3.07927,-44.5122
480.401,16.0861,-1.52218,0,0.55325,9.35255,-2.50759,-3.93293,-23.689,-68.8415,-36.7923,-5.00559,1.19272,-64.8476,-4.20732,-48.5671
480.411,15.1447,-1.42739,0,0.340093,9.32142,-2.52435,-5.27439,-31.2195,-67.5,-36.3899,-6.3947,0.541274,-57.6524,-3.90244,-52.378
480.421,14.28,-1.36918,0,0.704136,9.05317,-2.60099,-5.64024,-36.0976,-66.4024,-36.1504,-7.60179,0.0143701,-47.1037,-3.9939,-53.5976
480.431,13.5131,-1.34602,0,1.22625,8.8496,-2.7399,-6.61585,-37.0732,-65.2134,-35.978,-8.43526,-0.502954,-34.2378,-3.32317,-56.0976
480.441,12.7038,-1.38414,0,0.651445,9.10347,-2.70398,-6.67683,-44.6037,-63.3537,-35.7002,-8.71308,-1.45138,-18.2927,-3.93293,-55.6707
480.451,11.9797,-1.44491,0,1.06339,9.0412,-2.6465,-7.19512,-50.8841,-61.6463,-35.6139,-8.76098,-1.825,-3.38415,-2.9878,-56.2195
480.461,11.3479,-1.49293,0,1.59508,9.02204,-2.5986,-7.62195,-57.5,-60.4878,-35.3936,-8.49274,-1.65256,9.05488,-3.17073,-54.9085
480.471,10.7508,-1.51581,0,1.59029,8.94061,-2.50759,-9.45122,-63.1402,-58.3537,-35.3649,-7.88919,-1.2981,21.8293,-6.37195,-57.5915
480.481,10.2357,-1.549,0,1.99266,8.88073,-2.24413,-10.3659,-65.9146,-56.4329,-35.6906,-7.35271,-1.50886,31.8293,-13.5061,-56.4024
480.491,9.7665,-1.57324,0,2.11001,8.8472,-2.38065,-9.20732,-68.8719,-54.3598,-35.9971,-6.96951,-1.41306,45.2744,-17.5305,-57.7134
480.501,9.36976,-1.5852,0,2.39981,8.8017,-2.62494,-10.7317,-70.8537,-51.6768,-36.0642,-6.0115,-1.2502,54.0854,-22.2561,-57.8354
480.511,9.05223,-1.61532,0,2.63213,8.5574,-2.66087,-11.8598,-70.7012,-48.1707,-36.1887,-5.55166,-1.56634,58.7805,-26.7988,-54.7866
480.521,8.79531,-1.63091,0,2.73032,8.45442,-2.68242,-12.8963,-68.4451,-44.2683,-36.3708,-5.05349,-1.37474,65.061,-31.4634,-52.622
480.531,8.59635,-1.62118,0,2.92671,8.50711,-2.62973,-12.8049,-65.9451,-41.0976,-36.1121,-4.66071,-0.972378,69.3598,-31.7378,-48.4451
480.541,8.44718,-1.60356,0,3.13987,8.60291,-2.77343,-12.0122,-62.378,-38.5976,-35.6618,-4.21044,-0.828677,67.7134,-31.311,-41.6463
480.551,8.33528,-1.58016,0,3.26202,8.57656,-2.86684,-12.0427,-56.6463,-36.6768,-35.7481,-3.95178,-0.732876,66.0061,-32.6829,-36.311
480.561,8.23979,-1.58643,0,3.23567,8.44484,-2.71595,-11.4634,-50.6707,-35.5183,-35.6139,-4.29667,-1.18314,63.2012,-33.1707,-31.2805
480.571,8.13305,-1.607,0,3.03928,8.5119,-2.83091,-9.72561,-44.939,-34.1768,-35.3553,-4.15296,-1.40348,56.0061,-33.811,-28.9024
480.581,8.01351,-1.64775,0,2.75667,8.56459,-2.79738,-10.061,-39.0854,-32.0122,-35.1541,-4.46911,-1.71962,50.6098,-33.2622,-26.0366
480.591,7.88124,-1.73449,0,2.76385,8.68434,-2.90995,-8.62805,-33.7195,-33.1707,-34.5601,-4.59365,-2.41897,43.689,-33.4451,-24.6646
480.601,7.70094,-1.86975,0,2.72793,8.92145,-3.05365,-6.06707,-28.689,-37.0122,-34.0907,-4.52659,-3.16622,37.622,-31.5244,-23.872
480.611,7.4905,-2.0353,0,2.7399,9.11305,-3.2213,-4.90854,-22.8049,-39.9085,-33.9566,-4.62239,-3.68354,32.0122,-28.4451,-21.4634
480.621,7.27401,-2.21375,0,2.76625,8.88313,-3.18059,-5.82317,-15.3354,-42.1037,-33.6692,-4.1338,-3.92304,25.0305,-21.0976,-18.628
480.631,7.04622,-2.41953,0,2.60099,8.59093,-3.03688,-6.34146,-7.65244,-42.7744,-33.2381,-3.80808,-4.36373,17.9268,-13.9939,-13.1402
480.641,6.77622,-2.6659,0,2.37586,8.62446,-2.85965,-5.09146,-2.07317,-44.6037,-33.1423,-3.56858,-5.05349,10.8537,-5.7622,-7.07317
480.651,6.45989,-2.92626,0,2.14833,8.78493,-2.79738,-3.56707,2.2561,-46.4939,-33.0273,-3.24286,-5.36963,3.56707,1.25,2.9878
480.661,6.10475,-3.23613,0,1.94476,8.9933,-2.62734,-3.93293,5.73171,-47.9573,-32.7782,-3.08958,-6.19352,-3.59756,10.3354,11.189
480.671,5.70539,-3.58902,0,1.55197,9.0412,-2.44292,-5.18293,5.60976,-48.1707,-32.8645,-3.07042,-7.02699,-9.45122,15.8537,20.7622
480.681,5.30826,-3.95986,0,1.51605,9.10586,-2.3088,-5.64024,4.05488,-48.1707,-33.0656,-3.3195,-7.54431,-13.2622,20.4268,29.2683
480.691,4.88703,-4.33454,0,1.26936,9.17053,-2.20342,-6.12805,1.85976,-48.2317,-33.0177,-3.48236,-7.80297,-15.6402,25.2134,37.3171
480.701,4.46109,-4.67667,0,1.18074,9.14418,-2.12917,-6.7378,-3.01829,-48.5061,-32.9698,-3.53026,-7.51557,-17.0732,26.8598,44.7256
480.711,4.07554,-4.99997,0,1.38193,9.16095,-2.27766,-7.19512,-8.71951,-47.7439,-33.4297,-4.038,-7.53473,-20.5793,28.1098,49.939
480.721,3.7419,-5.24734,0,1.6334,9.0867,-2.44531,-7.77439,-13.7805,-46.5244,-34.2823,-4.89063,-6.73,-22.1646,28.2927,50.7317
480.731,3.46699,-5.4051,0,1.98308,9.07233,-2.57704,-9.57317,-16.128,-45.5793,-35.6139,-5.36963,-5.70494,-27.1037,26.3415,49.878
480.741,3.21505,-5.51864,0,1.98787,8.92145,-2.51238,-11.0366,-18.5061,-44.2683,-36.9935,-5.65704,-5.30257,-34.3902,23.2927,45.3049
480.751,2.97741,-5.66519,0,1.99745,8.84481,-2.41897,-12.2256,-18.75,-43.6585,-37.894,-5.49417,-6.06898,-39.5122,24.3293,40.7012
480.761,2.73841,-5.79358,0,1.88488,8.78733,-2.36388,-12.4695,-17.622,-43.0183,-38.3538,-5.21635,-5.9157,-46.0976,28.0793,36.4024
480.771,2.49907,-5.91835,0,1.72441,8.64363,-2.34712,-12.0122,-14.878,-41.8598,-39.3119,-4.69903,-6.07856,-48.9024,31.25,37.378
480.781,2.26981,-6.03662,0,1.61664,8.78493,-2.70158,-10.9756,-8.5061,-39.5732,-40.5668,-4.59365,-6.23184,-51.9207,34.6341,38.872
480.791,2.09545,-6.13701,0,1.85135,8.91426,-3.00575,-9.93902,-2.7439,-37.1037,-42.1859,-4.79483,-6.23184,-55.0305,34.0549,37.5
480.801,1.8762,-6.23673,0,1.34121,9.41961,-3.02491,-8.62805,-3.90244,-34.6341,-43.5846,-5.11097,-6.50008,-56.4634,34.939,33.9939
480.811,1.6361,-6.39841,0,0.969983,9.81,-3.05844,-7.7439,-8.59756,-32.1951,-43.939,-5.36963,-7.86045,-56.2195,35.7317,26.128
480.821,1.43933,-6.59563,0,1.08015,10.0423,-3.27639,-8.53659,-8.5061,-29.2683,-44.3893,-5.54208,-8.78972,-51.2195,36.0061,19.4207
480.831,1.27065,-6.84941,0,1.0586,10.3273,-3.26202,-10.8232,-11.8598,-26.2195,-44.1402,-6.35638,-10.0351,-43.9634,39.6037,11.4329
480.841,1.12284,-7.21221,0,1.03704,10.883,-3.19735,-13.2927,-15.3354,-23.5976,-43.5175,-7.75507,-12.296,-35.3659,47.1037,2.83537
480.851,1.00514,-7.62819,0,1.07536,11.3524,-3.00096,-17.6829,-18.1707,-20.7622,-42.6361,-9.01006,-13.3594,-26.128,64.4512,-5.51829
480.861,0.942637,-7.99247,0,1.27415,11.4218,-3.00096,-22.0732,-20.2439,-17.3171,-43.0577,-10.6483,-12.7176,-16.7073,75.2134,-15.0915
480.871,0.968569,-8.25117,0,1.79866,11.1967,-3.08479,-25.061,-19.4512,-14.0549,-44.0732,-11.999,-11.0985,-7.5,78.9939,-23.5366
480.881,1.05602,-8.4185,0,2.11241,11.1752,-3.24765,-25.6707,-18.1707,-10.9451,-45.673,-12.8325,-9.78605,-0.335366,77.3781,-29.5427
480.891,1.23422,-8.56268,0,2.60818,11.1297,-3.50152,-26.128,-17.8963,-6.58537,-47.6848,-13.0529,-9.85311,4.96951,77.7134,-33.1098
480.901,1.54355,-8.70537,0,3.12071,11.0985,-3.53265,-26.7378,-18.3232,-0.792683,-48.7578,-12.2386,-10.1501,9.2378,82.1341,-32.1341
480.911,1.939,-8.81035,0,3.62127,11.0698,-3.62606,-27.1951,-19.6646,6.52439,-49.5913,-11.1943,-9.55613,12.3171,90.7927,-28.4756
480.921,2.4592,-8.86161,0,3.98771,10.8758,-3.52786,-28.9329,-22.8354,15.9451,-50.1086,-10.7632,-8.49274,18.9634,98.0488,-27.3171
480.931,3.16344,-8.83332,0,4.71579,10.5908,-3.28357,-31.7988,-25.4268,27.8963,-49.7541,-9.62319,-6.6821,34.5427,100.64,-23.5976
480.941,4.05779,-8.74061,0,5.44388,10.3896,-2.92192,-35.9451,-26.2195,41.2805,-49.0069,-7.58263,-5.13971,50.2744,102.012,-20.2744
480.951,5.13729,-8.50412,0,6.06898,10.3153,-2.30161,-41.0061,-26.9207,56.25,-49.2272,-5.45585,-1.94955,62.8049,101.159,-15.5183
480.961,6.40668,-8.09771,0,6.74438,10.2243,-1.75794,-47.4085,-28.1707,71.8293,-48.0201,-2.97461,1.83458,57.8963,86.7073,-10.122
480.971,7.82167,-7.59213,0,7.05333,9.71899,-1.06818,-56.189,-25.6402,84.0549,-46.3149,-1.1065,4.00926,40.3049,56.189,-4.39024
480.981,9.33994,-7.03279,0,6.75395,9.16813,-0.244292,-60.061,-13.5976,96.6463,-43.2301,-0.675395,5.10139,35.5488,39.9085,3.81098
480.991,10.9352,-6.43724,0,5.90372,8.38736,0.311353,-57.9268,3.65854,110.122,-41.5344,3.62606,5.9157,25.8232,20.122,9.42073
481.001,12.5752,-5.74157,0,4.58167,6.95514,-0.598755,-45.2439,21.4329,121.555,-40.0208,4.0859,7.91793,30.0915,12.3171,17.5915
481.011,14.1378,-5.28944,0,3.16861,6.14562,-1.37953,-28.628,37.3476,129.451,-37.2042,3.28118,3.66438,-3.44512,-10.2134,25.2134
481.021,15.5574,-4.71471,0,2.03816,6.44021,-1.34121,-9.90854,49.4817,137.866,-39.9633,0.0814307,6.48092,31.7378,-2.53049,18.5366
481.031,16.8981,-4.21349,0,1.43222,7.67125,-1.12805,3.81098,54.1768,146.982,-41.0458,-1.7771,5.73368,36.9207,2.0122,9.45122
481.041,18.1218,-3.77749,0,0.59157,8.82325,-0.313748,7.9878,45.1829,151.524,-40.2411,-2.96503,4.82357,30.9756,7.77439,-1.4939
481.051,19.1974,-3.41358,0,-0.6251,10.495,0.258662,5.7622,26.5854,153.689,-40.1549,-4.35415,3.82724,27.5915,6.55488,-12.561
481.061,20.259,-3.09923,0,-0.843047,12.193,-0.804727,8.87195,23.2317,155.579,-40.0783,-5.29299,3.1758,28.2927,1.25,-21.2195
481.071,21.3754,-2.82346,0,-0.423918,13.7426,-3.09437,12.4085,38.7805,158.872,-38.4017,-5.5804,2.58183,30.4573,-3.75,-24.0854
481.081,22.605,-2.597,0,1.43222,14.8755,-4.711,12.3476,53.7195,157.866,-37.0701,-5.22593,1.85375,35.2439,-6.55488,-17.2866
481.091,23.892,-2.3874,0,3.51349,15.2491,-4.76848,7.80488,49.6951,150.976,-36.16,-4.67029,1.66214,38.3232,-12.9268,-0.731707
481.101,25.1525,-2.25516,0,5.00559,15.012,-3.74102,3.87195,28.0488,139.756,-35.8534,-4.00926,0.541274,42.6829,-17.5915,19.0244
481.111,26.2825,-2.12913,0,4.82117,14.1019,-2.42136,3.9939,10.3049,128.11,-36.3803,-3.44404,0.522114,44.9085,-21.2805,41.8902
481.121,27.2723,-2.05068,0,3.66677,12.8205,-1.65975,9.05488,10.6707,122.073,-36.8306,-3.18538,-0.177231,47.5915,-25.7622,58.1707
481.131,28.1328,-2.03216,0,2.17468,11.8434,-1.33642,16.189,26.9512,122.226,-37.4342,-2.55309,-1.11608,48.75,-25.1829,70.5793
481.141,28.9739,-2.01926,0,1.9232,11.4314,-1.57353,24.1463,51.8598,123.75,-38.4305,-1.23104,-1.22146,49.8476,-23.0488,79.3598
481.151,29.7492,-2.09631,0,1.52084,11.429,-1.64059,30.3963,72.4695,122.774,-37.2042,-1.62382,-2.62973,49.6341,-15.8232,82.8354
481.161,30.3803,-2.1723,0,0.589175,11.4242,-1.64777,30.2744,83.5976,119.085,-36.9839,-0.838257,-2.64889,48.2012,-16.4634,81.6768
481.171,30.9919,-2.28441,0,1.01549,10.7057,-1.30289,27.1341,87.1646,113.354,-36.1696,-0.560435,-3.2237,49.3902,-18.1098,79.9085
481.181,31.5384,-2.40995,0,0.785566,10.21,-0.819097,27.1037,86.8902,110.03,-34.8859,-0.512534,-3.39614,49.5732,-21.372,75.9451
481.191,32.0503,-2.50552,0,0.991538,9.46272,-0.617915,28.2622,88.7805,104.39,-33.8608,-0.368833,-2.92671,48.3841,-23.5366,71.5549
481.201,32.49,-2.61343,0,0.917292,9.17292,-0.184417,33.0488,90.0305,98.6281,-33.3243,-0.311353,-3.1279,48.0488,-26.6463,66.5244
481.211,32.7763,-2.71666,0,-0.0239502,9.11305,-0.227527,34.4512,88.4146,95.8232,-32.7878,-0.0239502,-3.08,42.6524,-29.5427,63.9939
481.221,33.0586,-2.88228,0,0.170046,8.58375,-0.383203,30.8841,88.8719,93.3841,-32.4429,0.158071,-4.00926,40.0305,-29.4512,61.4939
481.231,33.2886,-3.07013,0,0.00958008,7.77423,-0.565225,28.9634,82.1951,90.7927,-32.5962,0.368833,-4.44995,35.4573,-29.878,59.6341
481.241,33.5042,-3.271,0,0.275427,7.24733,-0.785566,29.1159,70.6707,85.4878,-32.8836,0.732876,-4.78525,28.3537,-27.6524,58.75
481.251,33.6209,-3.54406,0,0.165256,7.16829,-1.2502,29.1463,54.8476,77.5915,-33.1327,1.22146,-6.0115,21.7378,-23.689,59.1768
481.261,33.5785,-3.84272,0,-0.105381,6.90963,-1.36277,28.3537,36.5549,66.0671,-33.5255,1.75794,-6.62462,15.061,-18.5061,62.1037
481.271,33.3208,-4.14686,0,-0.684976,6.89766,-1.45378,27.7744,20.7012,53.811,-33.832,2.05493,-6.94077,7.53049,-14.2988,62.8659
481.281,32.7966,-4.4705,0,-1.63101,6.9264,-1.48012,27.1951,5.91463,41.5549,-34.359,2.00703,-7.53473,-0.487805,-9.90854,62.1341
481.291,32.0852,-4.81774,0,-2.15791,6.61265,-1.35319,27.2561,-6.89024,31.2195,-34.5697,1.42264,-8.14786,-5.42683,-4.69512,56.128
481.301,31.2532,-5.19999,0,-2.32556,6.50487,-1.22864,28.5366,-22.378,20.7317,-34.426,0.866997,-8.88552,-10.2134,-0.365854,47.561
481.311,30.2888,-5.58555,0,-2.49322,6.37794,-0.977168,29.8476,-40.7012,9.29878,-33.9949,0.205972,-9.04838,-12.561,6.37195,34.7561
481.321,27.8149,-5.96299,0,-1.73399,6.53361,-0.720901,26.9817,-55.6402,-3.17073,-33.5063,-0.359253,-9.01964,-16.0366,10.1829,21.25
481.331,27.0449,-6.36038,0,-0.428708,6.31327,-0.143701,20.8232,-60.1524,-13.872,-32.7016,-0.962798,-9.33579,-20.8537,13.1402,7.22561
481.341,26.2796,-6.77665,0,0.0814307,6.14323,1.03704,16.2805,-61.8598,-24.4512,-32.0885,-0.876577,-9.68067,-21.0061,17.0427,-2.19512
481.351,25.5924,-7.19246,0,0.850232,6.36836,1.24062,15.2134,-80.2439,-32.0122,-31.8777,-0.665815,-9.85311,-25.2744,20.3963,-9.90854
481.361,25.2809,-7.58546,0,3.5566,6.83299,0.687371,16.0366,-96.4329,-35.6707,-32.2322,-0.474214,-9.86269,-28.6585,20.8537,-15.1829
481.371,25.2749,-7.91592,0,7.12039,6.8761,-0.0167651,18.4451,-88.0183,-42.8963,-33.0752,0.0526904,-9.37411,-33.3537,21.5244,-19.2073
481.381,25.2573,-8.15971,0,8.88313,7.43414,-1.04423,17.9573,-65.8232,-52.4085,-34.5793,0.732876,-8.6077,-39.2378,18.9939,-17.9878
481.391,25.2372,-8.30662,0,9.96568,8.14067,-2.38304,11.4329,-54.3293,-54.0854,-37.0701,1.91123,-7.74549,-45.9451,13.7195,-16.1585
481.401,25.2887,-8.39536,0,10.4614,7.91314,-3.27878,6.95122,-50.3049,-51.189,-39.6855,2.75427,-7.36229,-52.5,7.62195,-10.2744
481.411,25.4259,-8.42623,0,10.7584,7.61616,-3.82485,5.03049,-53.3537,-46.0366,-42.799,3.08,-6.91203,-57.2866,0.182927,-4.29878
481.421,25.6595,-8.43944,0,11.2542,7.5012,-3.81048,12.378,-60.9451,-39.2073,-45.5293,3.00335,-7.03657,-60.6402,-5.21341,1.21951
481.431,26.0035,-8.45624,0,12.1523,7.54192,-3.67396,21.8902,-62.0732,-31.25,-47.6848,2.69679,-7.45809,-63.2622,-5.15244,6.46341
481.441,26.4126,-8.53797,0,13.1271,7.9323,-3.35303,30.4268,-53.5061,-25.3049,-48.3363,1.73878,-8.98132,-67.6219,-1.21951,10.7317
481.451,26.9078,-8.70398,0,13.8887,7.84608,-3.14945,33.8415,-35.061,-19.1159,-47.11,0.608335,-10.6099,-71.0366,7.68293,11.0671
481.461,27.5077,-8.97005,0,14.0923,7.18506,-2.94108,33.9634,-13.5366,-12.4085,-44.7821,0.138911,-12.2577,-74.9695,23.2012,14.3598
481.471,28.153,-9.35768,0,13.0792,6.78509,-2.59381,34.0549,10.7927,-5.73171,-42.3008,0.167651,-14.2025,-78.3841,40.2744,17.1037
481.481,28.719,-9.8265,0,10.7536,7.04615,-2.53872,31.4939,36.0061,-1.55488,-40.5477,0.445474,-15.4862,-82.6524,59.2988,20.3049
481.491,29.1023,-10.1903,0,8.10475,7.55389,-2.16031,30.5488,60.1829,-1.61585,-40.0016,1.7292,-13.5127,-85.3659,70.3659,23.689
481.501,29.094,-10.331,0,5.67141,9.24238,-1.64777,34.1159,76.7683,-5.82317,-43.1822,2.32317,-10.3225,-85.7927,60.4268,26.6159
481.511,28.6927,-10.4941,0,3.71947,12.0805,-1.67172,38.5976,86.4634,-16.4939,-46.0466,2.00703,-11.6254,-79.6341,56.6463,29.2683
481.521,27.9578,-10.7054,0,1.51844,13.5869,-2.08127,36.6159,79.6646,-29.4512,-48.5087,0.675395,-13.4456,-67.1646,68.2317,30.2134
481.531,27.0911,-10.8126,0,0.735271,12.8708,-1.24062,18.0183,44.7866,-38.0488,-50.9612,-1.78668,-11.7691,-52.0732,82.5,29.6646
481.541,26.3823,-10.8743,0,2.46927,11.6494,-0.893342,-1.7378,18.9634,-41.4634,-51.7947,-3.9422,-10.9357,-34.939,90.7012,28.689
481.551,25.8729,-10.8915,0,4.82836,11.041,-1.87291,1.46341,28.811,-46.3415,-51.6989,-5.39837,-9.89143,-17.5915,96.1281,28.628
481.561,25.3373,-10.7776,0,5.56124,12.4493,-1.35079,-1.4939,49.3902,-50.9756,-51.1624,-6.32764,-6.75875,-5.97561,99.3598,21.9207
481.571,24.7573,-10.5168,0,4.20326,11.1752,0.514929,7.5,55.7317,-49.5427,-50.3194,-6.26058,-3.28118,-2.86585,92.7439,12.2561
481.581,24.0752,-10.0911,0,2.60339,10.2363,0.325723,18.0183,54.2988,-48.2012,-49.5146,-5.76242,0.522114,-5.60976,74.9695,2.89634
481.591,23.1409,-9.47583,0,0.332908,10.3393,-1.82261,15.3659,51.8902,-49.9695,-49.0644,-5.07265,4.86189,-6.06707,43.2317,-1.34146
481.601,21.9501,-8.70324,0,-1.81782,10.7704,-1.85614,5.88415,36.9512,-54.7256,-49.2943,-3.87514,8.74182,-13.4146,4.5122,-0.762195
481.611,20.5901,-7.91163,0,-3.35782,11.3668,-2.10283,4.39024,8.65854,-60.3963,-48.6716,-3.11832,9.62319,-30.7927,-20.7927,2.43902
481.621,19.2051,-7.16801,0,-3.42248,11.7811,-3.06323,-2.80488,-16.5549,-66.25,-46.9568,-2.53393,8.85678,-58.9329,-37.439,7.59146
481.631,17.8358,-6.3255,0,-2.95545,11.4697,-3.53265,-9.17683,-33.872,-71.0366,-46.7939,3.7027,11.5296,-89.7561,-53.7195,15.8537
481.641,16.541,-5.74815,0,-2.12438,11.0003,-3.78413,-12.7439,-44.0549,-73.4146,-41.6877,1.50886,5.92528,-94.3293,-33.2317,29.7561
481.651,15.3537,-5.19413,0,-0.955613,10.3944,-4.11464,-18.2317,-46.2805,-76.6768,-41.0554,1.76752,5.82948,-113.933,-32.5,41.7378
481.661,14.254,-4.72063,0,-0.0766406,9.50104,-4.03082,-20.4268,-50.3659,-79.939,-40.2794,1.64298,4.64155,-123.171,-38.2927,44.1159
481.671,13.3681,-4.35199,0,1.62382,8.80888,-4.24876,-19.3902,-42.3171,-82.6219,-40.2315,1.00112,3.07042,-128.323,-45.3049,39.7256
481.681,12.5442,-4.0685,0,1.9735,8.64123,-4.1817,-17.622,-36.4634,-83.0488,-40.471,0.244292,1.81542,-129.451,-48.1707,24.2073
481.691,11.8674,-3.81779,0,2.77822,8.34425,-3.91346,-14.7256,-25.4573,-81.0366,-40.0878,-0.828677,1.40348,-130.274,-52.0122,4.93902
481.701,11.1881,-3.67676,0,2.32556,8.24366,-3.11592,-11.7378,-26.6768,-77.2561,-38.9286,-1.91123,-0.349673,-131.707,-52.1646,-16.189
481.711,10.5668,-3.55656,0,2.51717,8.3682,-2.5483,-8.35366,-26.4024,-74.7256,-37.6641,-3.29076,-0.598755,-130.518,-54.4512,-33.9024
481.721,9.89146,-3.46837,0,1.99505,8.5119,-2.52914,-6.40244,-29.7561,-74.2683,-36.7444,-4.31582,-1.03944,-128.659,-58.7195,-50.4268
481.731,9.14082,-3.42617,0,1.2981,8.50711,-2.74948,-7.80488,-34.6646,-74.1159,-35.8343,-5.6283,-1.70046,-123.14,-63.5061,-60.0305
481.741,8.36746,-3.40783,0,0.881367,8.45202,-2.85726,-8.96341,-41.4329,-72.4085,-35.2882,-6.36596,-2.02619,-117.591,-65.2744,-66.6768
481.751,7.64333,-3.4178,0,1.0083,8.50711,-2.83331,-8.9939,-49.3598,-70.6098,-34.5697,-7.18027,-2.41897,-114.634,-69.3293,-69.3293
481.761,7.06291,-3.44277,0,2.01182,8.464,-2.77343,-7.68293,-51.5549,-70.9146,-34.3015,-6.84497,-2.63931,-110.061,-71.0366,-70.6402
481.771,6.60146,-3.49856,0,2.88121,8.42807,-2.7902,-6.64634,-49.8476,-71.189,-33.7937,-6.4426,-3.08,-106.738,-71.9207,-71.4329
481.781,6.19007,-3.54908,0,3.07521,8.30593,-2.53393,-7.46951,-46.5549,-69.9695,-32.8836,-6.24142,-2.96503,-103.659,-76.3719,-67.2561
481.791,5.82536,-3.63134,0,3.24286,8.22929,-2.213,-8.78049,-42.3171,-68.4756,-32.4334,-5.81032,-3.4153,-98.689,-77.7134,-63.0488
481.801,5.46357,-3.73514,0,3.13269,8.24845,-1.99266,-7.92683,-38.0488,-67.4695,-32.0406,-5.42711,-3.73144,-90.5183,-78.8719,-59.6951
481.811,5.10206,-3.84438,0,2.96743,8.34904,-2.13636,-6.03659,-34.6341,-65.6707,-32.146,-4.99601,-3.87514,-81.7988,-76.7683,-55.0305
481.821,4.70679,-3.99562,0,2.59141,8.38496,-2.23216,-5.12195,-29.3293,-64.9695,-32.5771,-4.84273,-4.59365,-73.6585,-73.2927,-52.1037
481.831,4.26214,-4.14635,0,2.09325,8.53106,-2.36867,-5.06098,-25.2439,-63.9024,-33.3339,-4.89063,-4.77567,-65.9451,-70.9451,-50.8841
481.841,3.79496,-4.31039,0,1.83938,8.76098,-2.39502,-4.60366,-23.628,-63.1707,-33.6021,-4.77567,-5.09181,-58.9329,-66.25,-48.7805
481.851,3.31634,-4.48115,0,1.68849,9.0412,-2.46448,-5.64024,-23.689,-62.6829,-33.6596,-4.99601,-5.28341,-54.878,-60.2134,-45.7622
481.861,2.86828,-4.67225,0,1.94715,9.29028,-2.56028,-7.0122,-22.1646,-63.1098,-33.3626,-4.84273,-5.6283,-52.4695,-54.3293,-40.8537
481.871,2.41873,-4.88172,0,1.99026,9.35016,-2.58662,-8.35366,-19.8476,-64.5427,-33.104,-5.17803,-5.95402,-51.372,-47.3171,-35.6707
481.881,1.96222,-5.12062,0,1.95913,9.1849,-2.49322,-10.1524,-17.7439,-66.2195,-32.8166,-5.32173,-6.45218,-52.7744,-42.1646,-29.7256
481.891,1.4887,-5.40987,0,1.93039,9.2807,-2.5004,-10.3049,-17.5915,-68.2927,-32.4717,-5.88696,-7.25691,-53.0183,-34.9085,-24.3902
481.901,1.05364,-5.72807,0,2.26808,9.00288,-2.53633,-9.60366,-18.3841,-70.2134,-32.6824,-5.8678,-7.89877,-55,-28.5976,-17.9573
481.911,0.607621,-6.01664,0,2.27527,8.78733,-2.51477,-8.10976,-15.5793,-72.9878,-33.0273,-6.40428,-7.70717,-54.9085,-24.2683,-12.7439
481.921,0.165351,-6.32993,0,2.0693,8.53345,-2.37346,-7.92683,-12.0732,-71.7073,-33.3626,-6.50966,-8.33946,-56.5549,-21.4939,-9.57317
481.931,-0.241801,-6.6376,0,2.019,8.55022,-2.38544,-7.92683,-9.45122,-68.3232,-33.3722,-6.60546,-8.43526,-55.8232,-17.3171,-5.7622
481.941,-0.606153,-6.96703,0,2.0669,8.61249,-2.43334,-8.32317,-6.7378,-65.2134,-33.4393,-6.6821,-8.97174,-55.2744,-12.5915,-2.34756
481.951,-0.948614,-7.3504,0,2.08606,8.79451,-2.4022,-8.68902,-2.46951,-63.4146,-32.9603,-6.66294,-9.86269,-51.372,-2.16463,1.0061
481.961,-1.2735,-7.79562,0,2.08367,8.8472,-2.39502,-8.90244,0.853659,-62.1341,-32.1364,-6.59588,-10.7824,-46.3415,9.26829,5.2439
481.971,-1.63245,-8.22404,0,1.62622,9.00288,-2.28964,-8.90244,-0.426829,-60.122,-31.7723,-6.21268,-10.6483,-40.061,17.378,11.128
481.981,-1.96977,-8.51938,0,1.57592,9.21364,-2.35909,-10.122,-4.20732,-57.561,-31.8777,-6.76833,-8.88552,-33.0183,21.6159,17.4695
481.991,-2.24754,-8.66079,0,1.81303,9.36453,-2.27287,-12.7134,-6.85976,-54.7256,-33.0561,-7.45809,-7.02699,-30.6402,18.0183,23.9634
482.001,-2.449,-8.68292,0,2.21539,9.24238,-2.61057,-12.0122,-9.72561,-52.6524,-35.1924,-7.85087,-5.6762,-32.1646,11.5854,25.6402
482.011,-2.61406,-8.69033,0,2.48364,9.54176,-2.97701,-13.4451,-11.0061,-51.6159,-37.0126,-7.92751,-5.75284,-35.061,7.10366,25.122
482.021,-2.76508,-8.6882,0,2.53393,9.81958,-2.85486,-14.9085,-8.29268,-50.2744,-38.3155,-7.17069,-5.79116,-38.1402,8.44512,26.25
482.031,-2.92549,-8.7259,0,2.42855,10.2291,-2.58183,-14.6646,-6.43293,-49.2683,-39.6855,-6.33722,-6.6821,-36.9817,16.6768,28.4451
482.041,-3.08032,-8.75723,0,2.32317,10.5022,-2.34233,-15.2744,-6.85976,-47.2256,-41.6207,-6.04024,-6.88329,-38.4756,25.5488,33.0793
482.051,-3.19176,-8.80011,0,2.45969,10.4351,-2.39502,-16.9207,-9.90854,-44.7256,-43.4217,-5.85822,-7.40061,-42.7439,33.872,35.4573
482.061,-3.23208,-8.91787,0,2.62734,10.2052,-2.86205,-18.6585,-11.9512,-40.0915,-44.9737,-6.1552,-9.19209,-49.4207,44.9695,30.9451
482.071,-3.18138,-9.1861,0,2.80457,9.87467,-3.29794,-21.4634,-13.0793,-33.7805,-44.1498,-6.62462,-12.1523,-52.8659,60.9451,21.4634
482.081,-3.03797,-9.59778,0,2.96503,9.66151,-3.66438,-24.4512,-11.4329,-26.6768,-42.684,-6.54798,-14.8539,-49.1159,79.6646,11.5244
482.091,-2.79642,-10.1031,0,3.16622,9.58966,-3.79132,-27.9878,-10.7622,-18.8415,-40.5189,-6.97909,-16.2622,-43.0488,98.9329,0.762195
482.101,-2.45322,-10.6446,0,3.40811,9.59924,-3.69073,-31.4939,-10.9756,-10.5793,-38.7945,-7.76465,-16.6262,-34.2073,116.982,-7.53049
482.111,-1.98069,-10.9099,0,3.72426,9.76928,-3.45841,-33.3841,-14.4207,-2.28659,-38.6891,-9.19209,-11.6446,-30.3659,120,-14.0854
482.121,-1.42857,-10.9334,0,4.0883,9.78366,-3.44643,-34.4817,-17.5305,5.94512,-40.3657,-10.5525,-7.85087,-29.939,100.549,-19.9695
482.131,-0.756406,-11.0764,0,4.5673,9.70462,-3.2237,-34.1768,-16.0061,14.2378,-42.4062,-12.2577,-10.6291,-27.0427,95.6098,-23.9329
482.141,0.0320587,-11.259,0,5.09181,9.87227,-3.05604,-33.9329,-14.5732,23.2317,-44.0061,-12.2577,-11.8937,-24.9085,113.659,-27.7439
482.151,0.973992,-11.3798,0,6.07377,10.6507,-2.34233,-37.9573,-16.5244,35.5793,-45.4335,-11.1943,-11.041,-17.378,131.28,-28.872
482.161,2.10003,-11.2606,0,7.04136,10.7872,-1.51605,-43.5366,-25.8841,49.2683,-47.5028,-9.07712,-6.42344,-7.77439,135.061,-28.3537
482.171,3.43746,-10.9391,0,8.21731,11.0291,-1.02746,-54.2988,-29.3902,65.8841,-49.5721,-6.80665,-2.19863,-1.4939,122.104,-25.7317
482.181,4.87075,-10.4599,0,7.88919,10.6794,-0.593965,-64.6037,-18.0793,78.8719,-52.0438,-2.89797,1.50886,-7.43902,100.823,-19.6037
482.191,6.35124,-9.86984,0,6.51685,9.41482,-0.910107,-59.7256,6.18902,90.2134,-54.6208,1.2502,4.58407,-19.7561,71.8598,-13.2317
482.201,7.79038,-9.17854,0,4.61999,8.21492,-1.09452,-44.4207,30.0305,99.9085,-57.8493,1.61424,7.94667,-18.3232,47.3476,5.54878
482.211,9.08427,-8.48821,0,2.47166,7.15871,-1.38193,-29.7256,44.6951,109.055,-56.5943,7.24733,8.29156,-32.622,16.372,16.6159
482.221,10.3691,-7.83752,0,1.57113,7.12518,-2.05493,-15.5793,51.4939,124.268,-53.2604,8.71308,7.46767,-27.5915,7.71341,19.4207
482.231,11.5785,-7.23806,0,0.632285,7.07728,-2.98419,-5.03049,58.0183,134.146,-49.2464,9.22083,6.37554,-22.4695,15.3963,12.622
482.241,12.633,-6.71613,0,-0.500559,7.47725,-2.79499,2.7439,57.5915,139.055,-47.6274,0.684976,5.00559,-10.8232,11.6463,-10.8537
482.251,13.6441,-6.12576,0,-1.24781,9.137,-2.1172,6.76829,50.7012,144.817,-43.8624,-2.02619,6.37554,-1.64634,15.7622,-37.6524
482.261,14.7754,-5.58775,0,-1.02986,11.3476,-1.9711,9.2378,45.0305,153.872,-40.0495,-5.25467,5.29299,5.70122,13.811,-62.378
482.271,16.126,-5.0821,0,0.534089,12.8517,-2.42136,9.81707,44.0244,163.11,-38.555,-7.40061,4.87147,12.5915,4.05488,-74.3293
482.281,17.6086,-4.69452,0,2.39262,14.3007,-2.68003,12.1951,46.0976,164.817,-37.7982,-8.83762,3.08958,21.5244,-6.55488,-76.0976
482.291,19.0649,-4.40534,0,3.35063,15.673,-3.05365,16.3415,44.1768,159.909,-37.9323,-8.91426,1.6813,24.9695,-14.1768,-66.6463
482.301,20.399,-4.24571,0,3.97334,16.5592,-3.58295,18.4451,35.3659,147.5,-38.0856,-8.35862,-0.311353,26.4329,-18.9939,-46.0671
482.311,21.5729,-4.16371,0,4.05237,16.2981,-3.51828,15.7927,29.1159,132.927,-38.2197,-7.01741,-1.51844,29.3902,-20.2439,-17.6829
482.321,22.5751,-4.1152,0,3.73384,15.1078,-2.38304,15.2134,28.8415,117.957,-38.3443,-6.06898,-2.04535,31.9207,-23.1402,11.8902
482.331,23.4254,-4.13095,0,2.70158,13.7666,-1.24062,18.0793,38.5366,110.183,-37.6641,-4.47869,-3.04167,41.0366,-21.0671,34.4512
482.341,24.208,-4.08247,0,2.02379,12.6337,-0.603545,22.7439,56.2805,109.085,-37.2042,-2.82133,-1.97829,36.128,-27.6524,59.2988
482.351,24.9534,-4.03861,0,1.15679,12.2026,-0.481399,27.7744,75.7927,114.421,-37.4725,-1.33642,-2.04535,34.0244,-30.2134,75.6707
482.361,25.6353,-4.01182,0,0.179626,11.9823,-0.459844,31.372,85.7012,118.75,-37.3288,0.502954,-2.28485,29.3293,-28.3841,85.4878
482.371,26.2891,-4.32099,0,0.129331,11.4554,-0.56762,31.6159,91.3415,117.713,-31.1784,-7.82213,-6.62462,21.4634,-35.6402,95.8841
482.381,26.8522,-4.78013,0,-0.0479004,10.9428,-0.304167,30.061,91.0976,111.616,-28.0936,-3.09916,-8.07122,17.2256,-22.9878,95
