time,angle1,angle2,intgangle,accX1,accY1,accZ1,gyroX1,gyroY1,gyroZ1,accX2,accY2,accZ2,gyroX2,gyroY2,gyroZ2
641.227,87.7359,-3.80058,0,9.8076,0.306563,0.673001,-0.0609756,0.304878,-1.70732,-39.3598,-2.25611,-2.90755,-16.6768,-3.53659,4.63415
641.237,87.7381,-3.81273,0,9.81719,0.304167,0.63947,-0.243902,-0.121951,-1.31098,-39.4651,-2.33275,-2.84049,-15.8841,-1.92073,3.9939
641.247,87.736,-3.81513,0,9.82677,0.316143,0.670605,-0.0914634,0.182927,-1.46341,-39.5609,-2.20821,-2.68721,-15.6402,-2.5,5.06098
641.257,87.735,-3.7959,0,9.84353,0.299377,0.66342,0.0304878,0.0304878,-1.58537,-39.2448,-2.12199,-2.29443,-15.2134,-3.35366,5.2439
641.267,87.7376,-3.80168,0,9.82677,0.299377,0.627495,0.0914634,-0.121951,-1.34146,-39.3981,-2.18905,-2.72553,-14.3902,-3.14024,5.33537
641.277,87.7392,-3.80126,0,9.82197,0.294587,0.60594,-0.213415,-0.182927,-1.46341,-39.3693,-1.99745,-2.62015,-14.878,-3.32317,5.27439
641.288,87.7407,-3.8072,0,9.84353,0.294587,0.65384,0.0304878,-0.121951,-1.46341,-39.4939,-2.01661,-2.73511,-14.7866,-2.07317,4.20732
641.297,87.7467,-3.81395,0,9.84353,0.273032,0.641865,0,-0.213415,-1.40244,-39.331,-2.09325,-2.74469,-15.1829,-2.89634,5.51829
641.307,87.7553,-3.80382,0,9.85311,0.244292,0.656235,-0.335366,-0.152439,-1.52439,-39.1298,-2.11241,-2.44771,-15.0915,-4.29878,5.2439
641.317,87.7542,-3.81715,0,9.85072,0.296982,0.608335,0.0304878,-0.121951,-1.58537,-39.3693,-2.07409,-2.85965,-16.1585,-2.83537,5.2439
641.327,87.7562,-3.8351,0,9.84832,0.275427,0.63947,-0.152439,-0.0304878,-1.61585,-39.1586,-2.19863,-2.93629,-14.2073,-3.59756,5.39634
641.337,87.757,-3.85387,0,9.82916,0.285007,0.682581,0.0914634,0.0304878,-1.58537,-39.216,-2.04535,-2.96503,-15.3049,-2.9878,5.18293
641.347,87.7613,-3.86599,0,9.81,0.249082,0.63947,-0.0609756,0.121951,-1.7378,-39.3119,-2.16031,-2.86923,-14.5427,-2.92683,5.82317
641.357,87.7617,-3.86167,0,9.82677,0.292192,0.64905,0.0304878,-0.0304878,-1.52439,-39.1969,-2.17947,-2.58183,-14.1463,-2.34756,5.82317
641.367,87.7676,-3.86322,0,9.85311,0.275427,0.641865,0.0609756,-0.0914634,-1.34146,-39.2065,-1.98787,-2.67763,-14.8171,-1.21951,5
641.377,87.7669,-3.8713,0,9.84114,0.289797,0.64905,0.0304878,-0.0304878,-1.61585,-39.2544,-1.99745,-2.80217,-15.3354,-3.23171,5.45732
641.387,87.7657,-3.8677,0,9.86988,0.285007,0.63947,0.0609756,0.121951,-1.70732,-39.2065,-2.05493,-2.60099,-16.25,-3.01829,5.54878
641.397,87.7736,-3.86564,0,9.84353,0.261057,0.627495,0.121951,0,-1.37195,-39.2352,-2.15073,-2.62973,-15.061,-3.81098,4.54268
641.407,87.7765,-3.86341,0,9.84832,0.282612,0.64905,-0.182927,-0.0304878,-1.43293,-39.3214,-2.28485,-2.62973,-15.8232,-3.41463,5.2439
641.417,87.7717,-3.84957,0,9.84832,0.306563,0.632285,0.0914634,-0.243902,-1.70732,-39.3598,-2.16031,-2.42855,-14.1768,-3.38415,5.18293
641.427,87.7641,-3.84623,0,9.85311,0.320933,0.656235,-0.121951,0.0609756,-1.76829,-39.3214,-2.15073,-2.60099,-15.2439,-3.87195,5.33537
641.437,87.7587,-3.85281,0,9.83874,0.294587,0.661025,-0.0304878,0,-1.92073,-39.513,-2.08367,-2.78301,-14.939,-3.35366,6.03659
641.447,87.7555,-3.85022,0,9.85072,0.301772,0.646655,-0.121951,0.0304878,-1.67683,-39.513,-2.05493,-2.62973,-15.7622,-4.05488,5.39634
641.457,87.7532,-3.84442,0,9.87467,0.296982,0.677791,-0.335366,0.182927,-1.67683,-39.3789,-2.11241,-2.56267,-13.872,-3.9939,5.33537
641.467,87.7467,-3.84383,0,9.83156,0.323328,0.627495,-0.152439,0.0609756,-1.67683,-39.4747,-2.03577,-2.65847,-15.2134,-4.69512,4.81707
641.477,87.7547,-3.83342,0,9.84832,0.263452,0.64905,-0.121951,0.426829,-1.37195,-39.3119,-2.09325,-2.47645,-14.4207,-4.78659,5.45732
641.487,87.7558,-3.81844,0,9.86748,0.296982,0.675395,-0.0609756,0.0914634,-1.43293,-39.2927,-2.14115,-2.39023,-15.5488,-5.21341,4.66463
641.497,87.7562,-3.81092,0,9.86269,0.287402,0.682581,0,0.0609756,-1.58537,-39.3789,-2.27527,-2.51477,-15.4573,-5.18293,4.96951
641.507,87.7576,-3.82347,0,9.8555,0.294587,0.687371,-0.0609756,-0.121951,-1.43293,-39.3789,-2.16989,-2.85965,-15.6707,-5.15244,6.06707
641.517,87.7586,-3.84004,0,9.84593,0.294587,0.64426,-0.121951,-0.0304878,-1.46341,-39.264,-2.19863,-2.92671,-15.4268,-4.2378,6.15854
641.527,87.7671,-3.84556,0,9.84353,0.249082,0.60594,0.0609756,-0.304878,-1.46341,-39.3885,-1.97829,-2.75427,-15.4268,-4.17683,6.43293
641.537,87.7618,-3.84958,0,9.83874,0.318538,0.665815,0.0914634,-0.121951,-1.61585,-39.2927,-2.13157,-2.72553,-15.122,-4.17683,5.4878
641.547,87.7608,-3.84061,0,9.83395,0.287402,0.632285,0.121951,-0.0609756,-1.67683,-39.4651,-2.13157,-2.51477,-14.939,-4.66463,4.57317
641.557,87.763,-3.8404,0,9.84593,0.273032,0.673001,0.0914634,-0.0914634,-1.61585,-39.3023,-2.13157,-2.64889,-15.061,-4.11585,6.52439
641.567,87.7547,-3.83471,0,9.81479,0.311353,0.632285,-0.0304878,0.0304878,-1.95122,-39.2448,-2.19863,-2.55309,-15.3049,-5.15244,5.70122
641.577,87.7522,-3.83968,0,9.83395,0.287402,0.66342,0.0304878,0.243902,-1.79878,-39.2735,-2.04535,-2.73511,-15.7317,-4.7561,5.64024
641.587,87.7527,-3.83668,0,9.82916,0.287402,0.63468,0.121951,0.121951,-1.58537,-39.3502,-2.16031,-2.60099,-14.939,-3.59756,5.36585
641.597,87.7505,-3.81921,0,9.85311,0.301772,0.622705,-0.182927,0.121951,-1.61585,-39.3789,-2.07409,-2.35191,-15.061,-4.54268,5.42683
641.607,87.7506,-3.83124,0,9.88904,0.280217,0.62989,-0.213415,-0.0304878,-1.70732,-39.2831,-2.13157,-2.85007,-15.8841,-5.36585,5.2439
641.617,87.7468,-3.83074,0,9.85311,0.306563,0.675395,-0.0609756,0.243902,-1.67683,-39.3693,-2.19863,-2.63931,-16.4634,-3.38415,5.70122
641.627,87.7473,-3.8261,0,9.83874,0.301772,0.632285,0.0304878,0.0914634,-1.43293,-39.2927,-2.06451,-2.56267,-15.1829,-3.62805,5.39634
641.637,87.748,-3.82212,0,9.86509,0.311353,0.64905,0.0609756,0.182927,-1.31098,-39.4556,-2.19863,-2.58183,-16.7988,-3.71951,5.12195
641.647,87.7528,-3.82596,0,9.82437,0.258662,0.637075,0.213415,0.152439,-1.61585,-39.331,-2.14115,-2.70637,-15.7927,-3.47561,5.54878
641.657,87.7467,-3.82504,0,9.84114,0.308958,0.6251,0.0304878,-0.213415,-1.82927,-39.5035,-1.99745,-2.63931,-17.0732,-3.9939,5.12195
641.667,87.7453,-3.81311,0,9.82916,0.292192,0.62989,-0.152439,0,-1.67683,-39.4076,-2.15073,-2.43813,-16.4329,-3.32317,5.4878
641.677,87.7422,-3.82226,0,9.83635,0.285007,0.617915,0.243902,0.304878,-1.89024,-39.3693,-1.93039,-2.79259,-15.9756,-2.65244,5.82317
641.687,87.7396,-3.8217,0,9.83635,0.308958,0.641865,-0.213415,0.0304878,-1.58537,-39.4747,-2.09325,-2.63931,-17.5915,-3.44512,5.42683
641.697,87.7349,-3.83239,0,9.86509,0.299377,0.680186,0.0609756,0.182927,-1.85976,-39.5226,-2.05493,-2.84049,-16.2805,-3.90244,6.37195
641.707,87.7305,-3.834,0,9.8579,0.308958,0.613125,0.121951,0.27439,-1.7378,-39.4747,-2.10283,-2.68721,-15.5793,-4.29878,5.94512
641.717,87.7349,-3.82962,0,9.84114,0.275427,0.62989,-0.152439,0.243902,-1.4939,-39.3693,-2.11241,-2.57225,-15.7317,-2.95732,5
641.727,87.7337,-3.84602,0,9.8579,0.304167,0.66821,0.152439,0,-1.55488,-39.1586,-2.09325,-2.91713,-16.4939,-3.35366,4.57317
641.737,87.7339,-3.85189,0,9.80281,0.289797,0.673001,-0.152439,0.0914634,-1.61585,-39.216,-2.10283,-2.75427,-16.5244,-4.72561,5.15244
641.747,87.7347,-3.85615,0,9.83395,0.296982,0.603545,-0.0609756,-0.0304878,-1.4939,-39.2831,-2.05493,-2.73511,-16.9512,-4.69512,5.79268
641.757,87.7298,-3.85975,0,9.8076,0.316143,0.66342,0.182927,-0.0914634,-1.67683,-39.3981,-1.99745,-2.73511,-16.5854,-4.90854,5.60976
641.767,87.731,-3.83993,0,9.87467,0.287402,0.63468,-0.0304878,-0.121951,-1.58537,-39.3981,-2.13157,-2.32317,-16.0366,-3.10976,5.60976
641.777,87.7281,-3.83317,0,9.84353,0.301772,0.6251,-0.0304878,-0.121951,-1.70732,-39.7238,-2.28485,-2.56267,-15.2134,-4.42073,6.34146
641.787,87.7236,-3.82574,0,9.85072,0.332908,0.661025,0.121951,-0.152439,-1.46341,-39.5705,-2.08367,-2.53393,-16.9207,-3.71951,6.12805
641.797,87.7231,-3.82737,0,9.8603,0.306563,0.65384,-0.152439,-0.182927,-1.4939,-39.4939,-2.19863,-2.68721,-16.4024,-5.15244,7.16463
641.807,87.7242,-3.81842,0,9.84832,0.299377,0.637075,0.121951,-0.0609756,-1.46341,-39.4076,-2.11241,-2.49561,-15.8232,-4.5122,5.06098
641.817,87.7244,-3.82857,0,9.84353,0.275427,0.656235,0,0.0609756,-1.79878,-39.4556,-2.15073,-2.83091,-15.6098,-5.91463,5.15244
641.827,87.7307,-3.82486,0,9.83874,0.256267,0.613125,-0.243902,0.304878,-1.58537,-39.2544,-2.13157,-2.58183,-16.6159,-5.67073,5.36585
641.837,87.7318,-3.82242,0,9.83395,0.282612,0.59157,0.0609756,0.243902,-1.64634,-39.1203,-1.99745,-2.59141,-16.7378,-5.39634,5.27439
641.847,87.734,-3.81796,0,9.84593,0.280217,0.675395,-0.213415,0.548781,-1.58537,-39.1681,-2.10283,-2.55309,-16.6463,-3.93293,5.51829
641.857,87.7355,-3.80792,0,9.81719,0.287402,0.673001,-0.0914634,0.121951,-1.55488,-39.2735,-2.10283,-2.45729,-14.878,-3.20122,6.06707
641.867,87.737,-3.81151,0,9.81719,0.289797,0.627495,-0.0304878,0.243902,-1.52439,-39.2831,-2.31359,-2.68721,-16.25,-2.95732,5.12195
641.877,87.7353,-3.81446,0,9.86269,0.282612,0.670605,-0.213415,-0.152439,-1.82927,-39.1681,-1.93997,-2.66805,-16.2195,-2.19512,6.12805
641.887,87.7349,-3.80969,0,9.85311,0.306563,0.670605,0,0.182927,-1.46341,-39.3885,-2.16031,-2.54351,-15.122,-0.182927,5.64024
641.897,87.7369,-3.81571,0,9.82437,0.292192,0.687371,0.152439,0.335366,-1.46341,-39.4364,-2.07409,-2.73511,-14.7561,-1.12805,5.51829
641.907,87.735,-3.81471,0,9.83156,0.294587,0.637075,-0.0609756,0.121951,-1.70732,-39.3693,-1.99745,-2.61057,-15.5183,-0.640244,4.93902
641.917,87.7335,-3.80668,0,9.82197,0.289797,0.651445,-0.152439,0.0914634,-1.7378,-39.331,-2.06451,-2.48603,-16.0366,-1.0061,5.18293
641.927,87.7302,-3.79497,0,9.83874,0.306563,0.632285,-0.0914634,0.396341,-1.67683,-39.4939,-2.29443,-2.42855,-15.0915,-1.55488,4.93902
641.937,87.7266,-3.79842,0,9.82916,0.306563,0.65384,0.152439,0.243902,-1.70732,-39.3598,-2.03577,-2.67763,-15.3963,-1.95122,5.4878
641.947,87.7236,-3.7938,0,9.81958,0.313748,0.622705,-0.243902,0.457317,-1.58537,-39.3502,-2.13157,-2.54351,-15.2439,-3.38415,4.90854
641.957,87.7242,-3.80285,0,9.84114,0.292192,0.682581,-0.0609756,0.396341,-1.58537,-39.4651,-1.93039,-2.78301,-16.0061,-2.28659,6.43293
641.967,87.722,-3.8128,0,9.84353,0.306563,0.646655,-0.0914634,0.0609756,-1.61585,-39.264,-2.04535,-2.79259,-14.9085,-2.86585,4.96951
641.977,87.7207,-3.79235,0,9.85072,0.313748,0.670605,-0.0304878,-0.243902,-1.46341,-39.4076,-2.20821,-2.27527,-15.8841,-1.61585,5.06098
641.987,87.7176,-3.78654,0,9.85311,0.323328,0.62989,-0.0304878,-0.0609756,-1.4939,-39.6184,-2.00703,-2.53393,-15.2744,-2.83537,5.54878
641.997,87.7176,-3.7866,0,9.86269,0.301772,0.6251,-0.182927,-0.365854,-1.52439,-39.4076,-2.09325,-2.62015,-15.8232,-3.17073,5.88415
642.007,87.7234,-3.77429,0,9.84114,0.289797,0.63947,-0.27439,-0.0609756,-1.28049,-39.446,-2.04535,-2.40939,-14.939,-3.96341,5.67073
642.017,87.7269,-3.77893,0,9.82677,0.304167,0.62989,0,0.0609756,-1.25,-39.4939,-1.97829,-2.69679,-14.5427,-2.9878,4.87805
642.027,87.7302,-3.78131,0,9.83395,0.296982,0.65384,0.0609756,0.0914634,-1.34146,-39.4076,-2.05493,-2.65847,-16.7683,-4.11585,4.29878
642.037,87.7283,-3.78948,0,9.82437,0.323328,0.665815,-0.0609756,0,-1.37195,-39.5035,-2.18905,-2.76385,-15.1829,-2.95732,5.27439
642.047,87.7326,-3.78934,0,9.84593,0.282612,0.632285,0.0304878,-0.0304878,-1.43293,-39.446,-2.16989,-2.62015,-14.8476,-2.86585,5.21341
642.057,87.7293,-3.79409,0,9.84353,0.304167,0.65863,-0.396341,-0.152439,-1.70732,-39.3119,-1.99745,-2.69679,-15.8841,-3.04878,4.42073
642.067,87.7246,-3.79905,0,9.84353,0.313748,0.622705,0.27439,0.0609756,-1.70732,-39.3406,-2.09325,-2.70637,-15.6402,-3.23171,4.57317
642.077,87.7272,-3.8117,0,9.86269,0.311353,0.66821,-0.121951,0.0914634,-1.21951,-39.4268,-2.03577,-2.85007,-14.5732,-3.23171,4.48171
642.087,87.736,-3.81608,0,9.83395,0.282612,0.66342,0.0304878,-0.0304878,-1.15854,-39.3023,-2.13157,-2.70637,-15.3659,-3.44512,5.12195
642.097,87.7382,-3.82931,0,9.83874,0.280217,0.680186,-0.0304878,-0.365854,-1.58537,-39.331,-1.98787,-2.86923,-15.061,-4.48171,5.03049
642.107,87.7405,-3.82954,0,9.82437,0.270637,0.66821,-0.0609756,-0.0914634,-1.67683,-39.331,-2.21779,-2.64889,-15.6402,-3.62805,4.84756
642.117,87.7399,-3.84561,0,9.82677,0.304167,0.65384,-0.0609756,-0.243902,-1.4939,-39.331,-2.00703,-2.92671,-15.122,-4.08537,5.2439
642.127,87.7424,-3.83931,0,9.82677,0.282612,0.6251,0.213415,0,-1.52439,-39.3214,-1.98787,-2.54351,-14.2378,-2.92683,4.29878
642.137,87.7479,-3.84892,0,9.84593,0.273032,0.692161,-0.0304878,-0.304878,-1.43293,-39.2256,-2.11241,-2.81175,-15.5488,-3.65854,5.2439
642.147,87.7505,-3.85205,0,9.85311,0.277822,0.632285,-0.27439,0.335366,-1.55488,-39.3214,-2.28485,-2.70637,-14.2988,-1.89024,4.96951
642.157,87.7491,-3.84131,0,9.82677,0.296982,0.680186,-0.152439,0.0304878,-1.61585,-39.4268,-2.04535,-2.47645,-14.3902,-2.68293,5
642.167,87.7469,-3.84783,0,9.8603,0.294587,0.670605,-0.0609756,0,-1.70732,-39.3214,-1.90165,-2.76385,-15.1829,-2.92683,4.57317
642.177,87.7442,-3.83804,0,9.82916,0.320933,0.673001,-0.0304878,0.365854,-1.43293,-39.3789,-2.10283,-2.48603,-14.0854,-2.40854,4.69512
642.187,87.7427,-3.84547,0,9.83395,0.306563,0.675395,0,0.457317,-1.52439,-39.5514,-2.14115,-2.79259,-14.7866,-2.62195,5.33537
642.197,87.7422,-3.86232,0,9.82916,0.287402,0.62989,-0.0304878,0.152439,-1.67683,-39.3789,-2.13157,-2.95545,-15.5793,-4.29878,5.12195
642.207,87.7399,-3.85603,0,9.8555,0.311353,0.677791,-0.0914634,0.152439,-1.52439,-39.3406,-2.30401,-2.56267,-15.122,-4.7561,4.7561
642.217,87.7399,-3.85542,0,9.83156,0.308958,0.63468,-0.0914634,-0.0304878,-1.40244,-39.3693,-2.15073,-2.65847,-15.0305,-4.54268,5
642.227,87.7431,-3.85919,0,9.84114,0.292192,0.699346,-0.243902,-0.0914634,-1.37195,-39.3693,-2.23695,-2.73511,-14.1159,-4.72561,4.26829
642.237,87.7409,-3.85842,0,9.8579,0.313748,0.65863,-0.182927,-0.0609756,-1.4939,-39.4843,-1.95913,-2.66805,-15.3659,-5.27439,5.06098
642.247,87.7422,-3.84346,0,9.86509,0.287402,0.60594,-0.152439,0.0609756,-1.55488,-39.4843,-2.20821,-2.41897,-14.6037,-5.06098,4.69512
642.257,87.7364,-3.83703,0,9.83874,0.330513,0.680186,-0.0914634,0.182927,-1.55488,-39.331,-2.08367,-2.54351,-15.061,-3.84146,4.05488
642.267,87.7312,-3.84075,0,9.84593,0.320933,0.646655,0.0609756,-0.304878,-1.64634,-39.2831,-2.23695,-2.71595,-14.9695,-4.84756,4.39024
642.277,87.7309,-3.83411,0,9.80042,0.306563,0.656235,-0.0304878,-0.0609756,-1.46341,-39.4843,-2.06451,-2.55309,-16.1585,-5.36585,3.71951
642.287,87.7332,-3.81955,0,9.86269,0.301772,0.680186,0.121951,0.27439,-1.34146,-39.3981,-1.98787,-2.39981,-13.9939,-3.93293,4.66463
642.297,87.7375,-3.80218,0,9.81479,0.289797,0.689766,-0.121951,-0.0609756,-1.34146,-39.3598,-2.06451,-2.34233,-15.3659,-4.96951,4.05488
642.307,87.7383,-3.80722,0,9.83635,0.280217,0.665815,0.213415,0.0609756,-1.67683,-39.3502,-2.27527,-2.71595,-16.0366,-3.81098,4.17683
642.317,87.7322,-3.80088,0,9.82197,0.332908,0.627495,-0.152439,-0.396341,-1.55488,-39.264,-2.08367,-2.51477,-13.6585,-3.56707,4.60366
642.327,87.7303,-3.82999,0,9.83156,0.289797,0.682581,-0.152439,-0.152439,-1.76829,-39.3023,-2.16031,-3.1279,-15.2744,-2.86585,4.78659
642.337,87.7271,-3.83622,0,9.81958,0.311353,0.622705,-0.152439,-0.243902,-1.61585,-39.216,-2.12199,-2.74469,-15.3963,-3.29268,4.45122
642.347,87.7268,-3.83641,0,9.84353,0.294587,0.66821,-0.182927,-0.152439,-1.61585,-39.2448,-2.29443,-2.64889,-15.6098,-4.11585,4.5122
642.357,87.7248,-3.84028,0,9.86509,0.296982,0.696951,-0.243902,-0.0304878,-1.70732,-39.3502,-2.19863,-2.71595,-13.9634,-2.89634,3.17073
642.367,87.727,-3.85317,0,9.88185,0.287402,0.656235,-0.518293,-0.213415,-1.52439,-39.3023,-2.13157,-2.86923,-14.8171,-1.95122,3.65854
642.377,87.7238,-3.87223,0,9.84353,0.296982,0.675395,-0.243902,0.0304878,-1.79878,-39.3406,-2.24653,-2.98419,-15.3963,-0.670732,3.71951
642.387,87.7304,-3.86596,0,9.84114,0.239502,0.661025,-0.365854,0.0914634,-1.7378,-39.3119,-2.22737,-2.55309,-15.4268,-0.365854,5.09146
642.397,87.7325,-3.86523,0,9.81719,0.258662,0.665815,-0.426829,-0.0609756,-1.82927,-39.2448,-2.13157,-2.63931,-15.3963,-0.0304878,5
642.407,87.7397,-3.85449,0,9.83635,0.227527,0.682581,-0.243902,-0.0914634,-1.79878,-39.3406,-1.98787,-2.46687,-15.061,1.21951,5.45732
642.417,87.7417,-3.85196,0,9.8076,0.263452,0.687371,-0.335366,-0.304878,-1.76829,-39.0819,-2.10283,-2.58183,-13.9634,2.22561,5.73171
642.427,87.737,-3.83466,0,9.85311,0.296982,0.632285,-0.518293,-0.640244,-1.89024,-39.0819,-2.00703,-2.31359,-13.75,5.4878,5.97561
642.437,87.7349,-3.84349,0,9.96807,0.301772,0.632285,-0.701219,-0.640244,-1.64634,-39.034,-2.22737,-2.74469,-13.5366,7.16463,6.25
642.447,87.7283,-3.86777,0,9.86748,0.320933,0.637075,-1.0061,-0.762195,-1.76829,-38.9382,-2.09325,-3.00335,-14.0244,9.29878,4.45122
642.457,87.7323,-3.8635,0,9.80521,0.246687,0.680186,-0.884146,-0.518293,-1.82927,-38.9095,-2.07409,-2.51477,-13.2317,12.561,5.91463
642.467,87.7354,-3.87082,0,9.79084,0.237107,0.670605,-0.884146,-1.12805,-1.98171,-38.7466,-1.90165,-2.68721,-12.4085,16.3415,4.26829
642.477,87.7375,-3.9008,0,9.77407,0.261057,0.682581,-0.426829,-1.21951,-1.79878,-38.5933,-2.08367,-3.05125,-11.0976,21.7378,5.39634
642.487,87.7321,-3.99056,0,9.8076,0.316143,0.699346,0.0914634,-1.25,-1.70732,-38.2964,-2.03577,-4.038,-9.2378,29.9695,4.78659
642.497,87.7261,-4.05041,0,9.8076,0.342488,0.613125,-0.335366,-1.25,-1.43293,-38.2101,-1.93997,-3.559,-7.86585,36.4939,5.09146
642.507,87.7286,-4.03369,0,9.76689,0.308958,0.656235,-0.609756,-1.15854,-1.25,-38.6029,-1.69088,-2.32317,-6.55488,37.1951,4.54268
642.517,87.737,-4.01377,0,9.73815,0.308958,0.689766,-0.518293,-0.731707,-0.884146,-38.5167,-1.71962,-2.25611,-6.46341,36.0671,4.66463
642.527,87.7583,-4.01245,0,9.7597,0.287402,0.701741,-0.121951,-0.701219,-0.487805,-38.5646,-1.81542,-2.55309,-8.47561,38.9329,3.2622
642.537,87.7783,-4.00847,0,9.80281,0.287402,0.821492,0.152439,-1.28049,-0.487805,-38.5742,-1.75794,-2.49561,-9.17683,42.4695,3.65854
642.547,87.7808,-4.02806,0,9.86509,0.356858,0.771196,0.182927,-2.0122,-0.426829,-38.3347,-1.99745,-2.85965,-9.17683,47.8963,4.14634
642.557,87.782,-4.03674,0,9.9058,0.364043,0.766406,0.213415,-2.40854,-0.396341,-38.2293,-2.16989,-2.67763,-9.72561,48.628,3.90244
642.567,87.769,-4.03441,0,9.94652,0.419128,0.701741,-0.0609756,-2.9878,-0.548781,-37.9706,-2.44771,-2.46687,-10.9146,52.6829,5.88415
642.577,87.7541,-4.0377,0,9.95131,0.431104,0.692161,-0.457317,-3.20122,-0.518293,-37.9802,-2.65847,-2.55309,-10.2134,54.9085,8.71951
642.587,87.7384,-4.06217,0,9.89143,0.428708,0.747246,-1.15854,-2.62195,-0.701219,-37.8557,-2.69679,-2.88839,-11.128,59.0854,10.2744
642.597,87.7209,-4.08277,0,9.84593,0.431104,0.725691,-1.25,-2.04268,-0.945122,-37.8365,-2.64889,-2.82133,-12.0732,64.2073,11.25
642.607,87.7011,-4.11819,0,9.83156,0.443079,0.756826,-1.98171,-2.07317,-0.97561,-37.8748,-2.30401,-3.07042,-13.628,69.2073,12.1951
642.617,87.6833,-4.16241,0,9.70941,0.428708,0.718506,-2.53049,-2.43902,-1.0061,-37.8078,-2.07409,-3.2237,-16.4329,73.0183,10.9756
642.627,87.6602,-4.20896,0,9.70941,0.459844,0.711321,-3.10976,-2.83537,-0.762195,-38.0281,-1.97829,-3.30034,-17.8659,76.311,11.7073
642.637,87.647,-4.26073,0,9.70462,0.421523,0.64905,-3.47561,-3.32317,-0.762195,-38.1718,-1.91123,-3.42488,-19.0549,78.689,9.90854
642.647,87.6285,-4.32046,0,9.74773,0.447869,0.63947,-3.87195,-4.35976,-0.823171,-38.2006,-1.93997,-3.58774,-20.5488,81.5244,10.2439
642.657,87.6297,-4.39199,0,9.81,0.383203,0.64426,-4.08537,-4.93902,-0.487805,-38.3538,-2.02619,-3.83682,-21.189,83.689,8.75
642.667,87.6237,-4.46787,0,9.82437,0.423918,0.64426,-4.39024,-5.79268,-0.0304878,-38.2101,-1.98787,-3.93262,-21.4329,87.2561,8.96341
642.677,87.6149,-4.5518,0,9.86988,0.435894,0.593965,-4.69512,-6.0061,-0.0304878,-38.4113,-2.03577,-4.12422,-22.4085,92.7134,8.9939
642.687,87.6285,-4.64269,0,9.86748,0.371228,0.6251,-5.06098,-6.15854,0.243902,-38.4305,-2.03577,-4.28709,-21.189,97.3476,9.39024
642.697,87.6441,-4.72825,0,9.89143,0.361648,0.59636,-5.33537,-5.33537,0.182927,-38.5263,-2.22737,-4.24876,-20.9451,103.018,9.11585
642.707,87.6579,-4.84058,0,9.92017,0.368833,0.534089,-5.57927,-4.7561,0.426829,-38.6891,-2.11241,-4.76609,-21.8598,109.512,9.90854
642.717,87.6726,-4.96495,0,9.86509,0.361648,0.529299,-5.7622,-4.42073,0.396341,-38.8041,-2.12199,-5.05349,-21.6159,113.415,9.32927
642.727,87.6813,-5.09878,0,9.82197,0.383203,0.514929,-5.54878,-4.32927,0.487805,-38.4975,-2.16031,-5.25467,-22.6524,115.579,9.05488
642.737,87.7,-5.20667,0,9.81,0.342488,0.431104,-5.57927,-4.90854,0.396341,-38.6221,-2.06451,-4.90979,-21.9817,116.89,9.7561
642.747,87.7503,-5.34378,0,9.78366,0.215552,0.438289,-5.51829,-5.42683,0.548781,-38.9095,-2.19863,-5.52291,-21.372,119.238,7.34756
642.757,87.8123,-5.49067,0,9.72857,0.203577,0.457449,-5.09146,-5.60976,0.121951,-38.7945,-1.62382,-5.76242,-21.8598,122.134,8.53659
642.767,87.8697,-5.66772,0,9.74054,0.210762,0.392783,-5.03049,-5.88415,0.0609756,-38.8328,-1.64298,-6.38512,-22.1646,126.098,9.69512
642.777,87.9011,-5.83818,0,9.81719,0.261057,0.431104,-4.63415,-6.21951,0.487805,-38.8233,-1.60466,-6.37554,-22.4085,130.61,8.96341
642.787,87.9287,-6.01499,0,9.92257,0.270637,0.354463,-4.11585,-6.76829,1.06707,-38.5646,-1.47054,-6.55756,-22.439,131.86,9.63415
642.797,87.9738,-6.21533,0,10.0687,0.162861,0.342488,-3.78049,-6.64634,1.18902,-38.9191,-1.92081,-7.15153,-22.1646,133.78,8.65854
642.807,87.9943,-6.43565,0,10.0495,0.287402,0.273032,-3.14024,-6.40244,0.670732,-39.0244,-1.87291,-7.65927,-20.9451,136.311,7.2561
642.817,88.0046,-6.65274,0,10.0471,0.397573,0.237107,-3.65854,-4.87805,1.7378,-38.9382,-1.64298,-7.73591,-18.5976,137.561,6.79878
642.827,88.037,-6.88161,0,9.96807,0.251477,0.227527,-4.39024,-3.59756,1.92073,-39.1777,-1.7292,-8.14786,-17.9573,138.171,4.35976
642.837,88.0823,-7.0554,0,9.98723,0.162861,0.249082,-4.78659,-2.80488,2.10366,-39.0723,-1.69088,-7.30481,-16.311,137.561,4.17683
642.847,88.153,-7.23788,0,9.96089,-0.0191602,0.299377,-3.87195,-2.77439,1.4939,-39.5705,-1.84417,-7.67843,-15.7012,137.774,2.89634
642.857,88.2189,-7.44348,0,9.88425,0.0359253,0.232317,-3.29268,-4.20732,0.914634,-39.7142,-1.76752,-8.25324,-16.9207,139.421,1.15854
642.867,88.2854,-7.69811,0,9.92736,0.00239502,0.347278,-2.83537,-5.18293,1.12805,-39.1969,-1.71962,-9.17292,-14.1159,141.86,-0.609756
642.877,88.3237,-7.97527,0,9.98244,0.148491,0.409548,-1.85976,-4.5122,1.52439,-38.9286,-1.88249,-9.69025,-15,145.213,-1.43293
642.887,88.3627,-8.2853,0,10.1908,0.138911,0.196392,-2.2561,-2.59146,1.70732,-38.3347,-2.17947,-10.3225,-13.9024,148.201,-1.82927
642.897,88.3958,-8.62913,0,10.4471,0.165256,-0.0550855,-2.92683,-1.43293,1.55488,-37.6066,-1.91123,-10.9548,-13.2317,146.921,-2.7439
642.907,88.3984,-8.96235,0,10.3944,0.399968,-0.0742456,-4.45122,-3.56707,1.7378,-38.2101,-1.7292,-11.1943,-12.7439,144.421,-3.2622
642.917,88.4022,-9.29326,0,10.1788,0.452659,-0.0359253,-5.39634,-6.4939,2.53049,-37.6737,-1.42264,-11.2614,-12.439,136.616,-6.95122
642.927,88.4113,-9.57275,0,9.96807,0.462239,0.153281,-3.75,-7.89634,3.23171,-38.2389,-1.2981,-10.7728,-13.3537,124.756,-7.22561
642.937,88.4211,-9.85479,0,9.87467,0.493374,0.162861,-2.10366,-4.69512,3.71951,-38.5454,-1.37474,-11.1464,-13.872,114.421,-10.5488
642.947,88.4344,-10.1309,0,9.80281,0.502954,0.299377,-1.46341,0.152439,4.20732,-39.2831,-1.40348,-11.4817,-11.0366,108.11,-14.5427
642.957,88.4625,-10.4109,0,9.9082,0.457449,0.366438,-1.4939,5.42683,5.09146,-39.4556,-1.346,-11.817,-11.5244,106.433,-15.5793
642.967,88.5118,-10.6557,0,10.0543,0.308958,0.325723,-1.64634,10.6098,5.4878,-40.9309,-1.825,-11.7979,-9.81707,104.238,-18.2622
642.977,88.5826,-10.8856,0,9.98723,0.129331,0.184417,-1.82927,12.6829,5.70122,-40.9788,-1.86333,-11.7212,-8.87195,100.732,-20.6098
642.987,88.6735,-11.1032,0,9.94173,-0.0407153,0.0455054,-0.823171,12.1037,5.88415,-41.362,-1.87291,-11.8074,-8.71951,90.5183,-21.4329
642.997,88.7678,-11.3497,0,9.90341,-0.0981958,0.172441,0.27439,10.5793,5.73171,-41.0937,-2.00703,-12.5164,-9.78659,78.4146,-23.4146
643.007,88.8544,-11.5851,0,9.69504,-0.107776,0.59157,1.06707,9.20732,4.96951,-40.5956,-2.07409,-12.3727,-9.29878,69.6951,-23.5061
643.017,88.9131,-11.8255,0,9.29507,0.00718506,0.996328,1.37195,7.71341,3.53659,-40.6147,-2.14115,-12.708,-12.0122,56.7378,-22.622
643.027,88.9887,-12.1136,0,8.95977,-0.124541,1.31247,1.79878,7.13415,2.37805,-39.9729,-2.34233,-13.6468,-12.1341,50.5793,-22.561
643.037,89.0781,-12.4022,0,8.94779,-0.126936,1.30768,2.22561,5.64024,1.37195,-39.6951,-2.16989,-13.8001,-12.2561,46.6159,-22.0122
643.047,89.1625,-12.622,0,9.331,-0.153281,0.941243,0.792683,6.28049,1.15854,-39.8292,-1.92081,-12.7655,-15.8841,36.7073,-22.1951
643.057,89.2351,-12.8536,0,9.63995,-0.136516,0.519719,-0.548781,6.61585,0.914634,-39.628,-1.81542,-13.1391,-18.2317,25.6098,-23.5976
643.067,89.3079,-13.0747,0,9.62558,-0.129331,0.500559,-0.243902,1.55488,0.731707,-39.7046,-1.88249,-13.187,-21.4634,13.1707,-23.872
643.077,89.3751,-13.2722,0,9.43877,-0.0407153,0.60115,-0.609756,-9.02439,0.121951,-39.1777,-2.18905,-12.7655,-24.939,2.71341,-25.7012
643.087,89.3756,-13.4614,0,9.39566,0.0862207,0.752036,-2.07317,-16.4634,-0.518293,-38.5742,-2.46687,-12.6026,-25.6402,-8.29268,-26.9817
643.097,89.3623,-13.6878,0,9.37411,0.0886157,0.874182,-3.65854,-15.8537,-1.64634,-38.4975,-3.03209,-13.4361,-25.2134,-12.439,-27.3476
643.107,89.3446,-13.9628,0,9.41482,0.0622705,0.859812,-5.12195,-9.05488,-2.46951,-38.2006,-2.75427,-14.4228,-22.9573,-10.7317,-26.1585
643.117,89.3415,-14.2739,0,9.38369,-0.0958008,0.696951,-5.70122,-1.58537,-3.17073,-37.6545,-2.77343,-15.103,-19.1159,-7.2561,-23.872
643.127,89.3323,-14.6076,0,9.36453,-0.0718506,0.713716,-5.42683,1.46341,-3.41463,-37.3479,-2.80217,-15.6491,-15.122,-6.85976,-19.5427
643.137,89.327,-14.8417,0,9.4747,-0.102986,0.716111,-4.7561,0.701219,-3.41463,-37.7695,-2.92671,-14.1833,-12.8659,-12.7439,-17.4085
643.147,89.3176,-15.0457,0,9.58487,-0.0455054,0.718506,-4.02439,-2.13415,-3.10976,-38.1718,-3.32908,-13.9725,-10.8841,-22.561,-15.3354
643.157,89.297,-15.2446,0,9.70701,0.0215552,0.58199,-3.59756,-5.57927,-3.32317,-38.3251,-3.78892,-14.1258,-10,-33.2622,-16.311
643.167,89.2705,-15.4273,0,9.74773,0.0598755,0.617915,-3.17073,-9.17683,-3.47561,-38.6221,-4.04758,-14.1067,-6.40244,-41.3415,-17.0732
643.177,89.2471,-15.6045,0,9.66869,-0.00958008,0.646655,-3.56707,-11.311,-4.05488,-38.5742,-4.1817,-14.1354,-4.57317,-45.4878,-15.7622
643.187,89.236,-15.7842,0,9.57529,-0.198787,0.670605,-4.93902,-12.5305,-5.15244,-38.3059,-4.1338,-14.2216,-0.97561,-45.1524,-11.1585
643.197,89.2387,-15.9514,0,9.48188,-0.359253,0.637075,-5.60976,-11.8293,-5.7622,-38.5742,-4.31582,-14.212,1.25,-44.5427,-8.62805
643.207,89.2422,-16.106,0,9.48907,-0.371228,0.555645,-6.28049,-11.5854,-5.82317,-38.5646,-4.40205,-14.0971,0.609756,-45.3963,-4.39024
643.217,89.2259,-16.2442,0,9.67348,-0.112566,0.455054,-6.55488,-12.0732,-4.63415,-38.9574,-4.55533,-14.0588,0.335366,-49.5732,-2.37805
643.227,89.2021,-16.3716,0,9.89622,0.114961,0.337698,-6.4939,-13.9939,-2.68293,-38.7945,-4.15296,-13.9246,-1.0061,-57.622,-0.396341
643.237,89.1678,-16.4877,0,10.1645,0.285007,0.246687,-6.28049,-15.7622,-0.579268,-38.6604,-3.67396,-13.7905,-0.97561,-66.189,0.121951
643.247,89.1503,-16.5867,0,10.3417,0.220342,0.102986,-6.18902,-17.0732,-0.335366,-38.7945,-3.4632,-13.6372,-0.823171,-76.7683,1.25
643.257,89.1614,-16.65,0,10.2818,0.0143701,-0.00958008,-5.60976,-15.7012,-1.09756,-38.8712,-3.20454,-13.0816,-0.853659,-83.811,1.0061
643.267,89.1665,-16.691,0,10.107,-0.112566,-0.0790356,-5.36585,-12.439,-2.77439,-38.6221,-3.11832,-12.6505,-3.41463,-90.9451,0.914634
643.277,89.1815,-16.6952,0,9.92975,-0.332908,-0.184417,-5.15244,-8.68902,-4.2378,-38.8137,-2.97461,-12.0661,-5.88415,-95.6707,0.762195
643.287,89.2075,-16.6796,0,9.86748,-0.471819,-0.287402,-5.33537,-5.2439,-4.72561,-38.9574,-2.81175,-11.7595,-7.65244,-100.091,2.10366
643.297,89.2361,-16.6413,0,9.98484,-0.502954,-0.285007,-5.45732,-4.11585,-4.69512,-39.3693,-2.93629,-11.4626,-9.54268,-105.152,4.39024
643.307,89.2355,-16.5984,0,10.083,-0.270637,-0.325723,-4.54268,-4.5122,-4.81707,-39.6184,-3.30034,-11.4434,-8.65854,-111.829,6.70732
643.317,89.1985,-16.5412,0,10.1405,0.0622705,-0.395178,-3.41463,-6.18902,-4.63415,-40.222,-3.66438,-11.338,-6.03659,-118.78,7.28659
643.327,89.1449,-16.484,0,10.2411,0.299377,-0.373623,-2.86585,-7.43902,-3.62805,-40.5381,-4.16254,-11.4147,-3.23171,-127.134,5.94512
643.337,89.079,-16.177,0,10.2243,0.373623,-0.390388,-2.59146,-6.79878,-4.14634,-43.9869,-4.66071,-7.33355,0.0914634,-148.415,3.35366
643.347,89.0117,-16.0861,0,10.1405,0.316143,-0.359253,-2.95732,-4.48171,-5.09146,-40.0016,-4.41163,-10.4471,1.79878,-152.287,0.335366
643.357,88.9551,-16.0009,0,10.0519,0.182021,-0.131726,-4.20732,-1.46341,-5.67073,-39.9441,-4.19128,-10.495,3.68902,-159.238,0.792683
643.367,88.9099,-15.8633,0,9.98963,0.0766406,-0.0981958,-3.71951,1.34146,-5.85366,-40.3369,-4.09548,-9.57529,4.84756,-167.104,2.46951
643.377,88.8801,-15.7024,0,9.96328,-0.0143701,-0.0526904,-3.75,3.41463,-5.45732,-39.8004,-3.67396,-8.95258,5.45732,-177.317,4.45122
643.387,88.847,-15.5553,0,10.0256,0.0263452,-0.0814307,-3.32317,4.66463,-5.36585,-38.9861,-3.35782,-8.93342,5.79268,-185.244,9.02439
643.397,88.8194,-15.3841,0,10.0136,0.0119751,-0.0215552,-2.56098,5.33537,-5.06098,-39.8004,-3.67396,-8.59812,4.08537,-193.841,13.689
643.407,88.7944,-15.1951,0,9.97286,-0.0167651,-0.0407153,-2.13415,5.70122,-5.18293,-40.222,-3.56858,-8.25324,5.21341,-198.933,15.7012
643.417,88.7699,-15.0489,0,9.9082,0.00718506,-0.0263452,-1.58537,5.33537,-4.90854,-39.628,-3.53026,-8.78014,4.81707,-199.756,16.7988
643.427,88.7361,-14.8905,0,9.86509,0.0407153,-0.00239502,-0.823171,4.60366,-5.4878,-40.2411,-3.4153,-8.58854,4.5122,-201.86,17.7134
643.437,88.6986,-14.732,0,9.89143,0.0479004,0.0670605,-0.457317,3.90244,-5.85366,-40.1932,-3.39614,-8.464,4.42073,-202.561,17.5915
643.447,88.6592,-14.5865,0,9.86988,0.0550855,0.0239502,0,4.14634,-6.03659,-40.3848,-3.33866,-8.62686,3.71951,-202.53,17.7134
643.457,88.6245,-14.4308,0,9.91299,-0.00239502,0.155676,0.0914634,3.90244,-6.31098,-40.4902,-3.07042,-8.35862,2.71341,-203.506,19.9695
643.467,88.5799,-14.2639,0,9.94173,0.0479004,0.105381,0.945122,3.62805,-6.79878,-40.5477,-3.19496,-8.06164,2.5,-208.11,21.0671
643.477,88.5313,-14.076,0,10.0184,0.0862207,0.0502954,1.37195,3.71951,-6.85976,-40.6818,-3.24286,-7.60179,0.97561,-214.97,23.9024
643.487,88.4722,-13.8898,0,9.96328,0.150886,-0.0598755,0.0304878,4.45122,-7.2561,-40.7968,-3.40572,-7.54431,-0.152439,-222.896,23.9329
643.497,88.4125,-13.6807,0,9.92017,0.162861,0.0526904,-1.25,5.21341,-7.28659,-41.0267,-3.48236,-7.05573,1.15854,-232.47,26.25
643.507,88.3554,-13.4891,0,9.82916,0.162861,0.203577,-1.85976,5.2439,-7.13415,-41.0363,-3.77934,-7.25691,1.64634,-239.207,26.4634
643.517,88.2937,-13.3108,0,9.81479,0.203577,0.273032,-1.40244,5.06098,-7.22561,-41.0554,-3.56858,-7.38145,3.2622,-243.75,28.2927
643.527,88.2332,-13.095,0,9.84114,0.186812,0.265847,-0.548781,4.5122,-7.43902,-41.4003,-3.54942,-6.61504,5.12195,-245.854,29.3902
643.537,88.157,-12.8464,0,9.87706,0.296982,0.119751,-0.152439,5.73171,-7.86585,-41.6111,-3.14706,-5.88696,6.58537,-249.421,31.7378
643.547,88.0747,-12.5779,0,9.84593,0.325723,0.198787,-0.884146,6.64634,-8.29268,-41.8985,-3.24286,-5.37921,7.07317,-252.805,35.122
643.557,87.9854,-12.2557,0,9.82916,0.368833,0.328118,-1.7378,6.21951,-8.65854,-42.3583,-3.09916,-4.24876,7.56098,-259.695,36.6159
643.567,87.903,-11.9114,0,9.82437,0.342488,0.423918,-2.22561,4.84756,-8.44512,-42.5403,-3.05125,-3.64522,7.43902,-270.03,38.5671
643.577,87.8159,-11.544,0,9.94173,0.376018,0.328118,-2.40854,3.23171,-8.75,-42.8373,-2.89797,-3.01293,6.40244,-280.64,40
643.587,87.725,-11.1627,0,10.095,0.488584,0.172441,-3.17073,2.53049,-8.07927,-43.0672,-2.73511,-2.52435,5.67073,-290.854,39.7866
643.597,87.6382,-10.7689,0,10.119,0.476609,0.143701,-3.81098,2.9878,-7.9878,-42.914,-2.67763,-2.02619,4.2378,-300.305,38.872
643.607,87.5678,-10.3484,0,10.1118,0.395178,0.172441,-3.41463,4.39024,-7.43902,-42.6266,-2.67763,-1.24062,3.62805,-306.189,39.2073
643.617,87.4993,-9.93745,0,10.1669,0.366438,0.0718506,-2.92683,6.28049,-7.7439,-42.2913,-2.52435,-1.11608,3.65854,-311.494,36.8293
643.627,87.4229,-9.48747,0,10.1501,0.445474,0.148491,-3.78049,7.7439,-7.77439,-42.0134,-2.44771,-0.100591,2.83537,-315.762,35.4573
643.637,87.3517,-9.0451,0,10.1237,0.392783,0.280217,-4.39024,8.14024,-7.9878,-41.8123,-2.30401,0.0718506,1.18902,-320.213,33.1098
643.647,87.2701,-8.58507,0,9.91538,0.378413,0.404758,-4.26829,8.07927,-9.26829,-40.8926,-2.43813,0.684976,-2.43902,-325.762,32.2866
643.657,87.1969,-8.10589,0,9.68546,0.292192,0.584385,-4.87805,7.5,-9.5122,-40.4806,-1.94955,1.33642,-7.43902,-328.201,31.0671
643.667,87.1239,-7.63817,0,9.53457,0.263452,0.637075,-4.7561,6.55488,-9.93902,-40.3465,-1.825,1.45138,-8.44512,-332.378,28.2622
643.677,87.0589,-7.18935,0,9.53218,0.186812,0.526904,-4.26829,5.45732,-10.2134,-39.5993,-1.17356,1.43222,-9.02439,-328.171,27.5
643.688,86.9849,-6.72979,0,9.64714,0.213157,0.354463,-4.60366,5.4878,-10.9756,-38.5933,-1.55676,1.91123,-7.2561,-319.36,26.7988
643.697,86.9067,-6.20183,0,9.66869,0.263452,0.294587,-4.32927,4.72561,-10.9451,-38.191,-1.28852,3.3674,-10.6402,-315.884,26.0671
643.707,86.8234,-5.61203,0,9.69983,0.359253,0.368833,-4.14634,1.03659,-10.4878,-38.0473,-0.809517,4.75651,-12.7439,-316.433,26.7683
643.717,86.7364,-5.00157,0,9.73575,0.392783,0.402363,-5.12195,-2.95732,-10.6402,-37.9706,-0.732876,5.49417,-17.5305,-317.287,27.8049
643.727,86.6582,-4.45519,0,9.73575,0.285007,0.318538,-6.03659,-4.2378,-11.2195,-37.6641,-0.502954,4.78525,-19.5732,-314.238,27.2866
643.737,86.5781,-3.89052,0,9.72857,0.261057,0.332908,-4.69512,-3.56707,-11.8598,-37.5108,-0.608335,5.45585,-21.7073,-308.841,26.7073
643.747,86.491,-3.29471,0,9.7118,0.292192,0.361648,-2.65244,-3.87195,-12.3476,-37.5108,-0.723296,6.37554,-23.4451,-304.909,25.8841
643.757,86.4112,-2.70557,0,9.46033,0.246687,0.481399,-0.731707,-9.48171,-12.2561,-36.7923,-1.28852,6.54798,-25.3963,-301.28,25
643.767,86.3106,-2.11674,0,9.96807,0.486189,0.189207,0.97561,-9.7561,-11.8902,-36.5049,-1.54718,6.89287,-22.1037,-297.226,23.5671
643.777,86.2036,-1.50961,0,9.91538,0.56762,0.141306,2.53049,-8.5061,-11.7683,-36.16,-1.83458,7.53473,-20.7622,-291.799,22.8049
643.787,86.0984,-0.860313,0,9.8603,0.613125,0.191602,2.68293,-4.66463,-11.2195,-35.9301,-2.18905,8.59812,-19.3598,-288.72,22.8354
643.797,85.9865,-0.18767,0,9.7142,0.661025,0.261057,2.40854,-1.79878,-11.4329,-35.6523,-2.33275,9.35495,-17.9268,-287.5,21.0976
643.807,85.8727,0.517875,0,9.80042,0.754431,0.364043,2.28659,0.0914634,-10.8232,-35.7097,-2.11241,10.38,-18.3537,-287.134,19.1159
643.817,85.7687,1.21842,0,9.84114,0.797541,0.502954,2.40854,0.152439,-9.57317,-35.4128,-2.09325,10.6866,-18.5976,-286.098,20.2744
643.827,85.6597,1.79295,0,9.9537,0.926873,0.464634,2.95732,0.304878,-8.90244,-28.7354,-3.32908,7.36229,-11.8902,-273.994,20.9756
643.837,85.5549,2.32208,0,9.9561,0.977168,0.392783,3.41463,0.884146,-8.10976,-31.8106,-1.64298,7.85087,-19.7866,-260.884,21.8902
643.847,85.4481,2.97912,0,9.88185,1.03704,0.354463,2.34756,2.2561,-7.7439,-34.0332,-1.79626,10.8207,-16.6159,-257.866,23.5366
643.857,85.3585,3.7149,0,9.78126,0.962798,0.426313,1.4939,2.10366,-6.95122,-34.1194,-1.55676,12.6218,-17.9573,-254.268,25.1524
643.867,85.2867,4.42124,0,9.74773,0.878972,0.447869,1.7378,1.52439,-6.28049,-34.4164,-1.6334,12.7271,-16.4634,-254.055,26.0366
643.877,85.229,5.12375,0,9.69504,0.761616,0.423918,2.43902,0.396341,-6.34146,-34.4356,-1.67172,13.1678,-15,-249.543,25.4878
643.887,85.165,5.84513,0,9.51302,0.809517,0.469424,1.58537,-0.792683,-6.34146,-34.2536,-1.89207,13.9246,-15.9146,-246.037,26.4939
643.897,85.0965,6.57954,0,9.43159,0.850232,0.299377,0.853659,-0.97561,-6.34146,-34.608,-1.69088,14.8252,-16.311,-242.805,25.4878
643.907,85.0255,7.28297,0,9.48428,0.855022,0.275427,0.701219,-1.34146,-6.7378,-34.7134,-1.71004,14.8443,-16.6463,-240.488,25.6707
643.917,84.9605,7.98438,0,9.68785,0.900527,0.277822,0.945122,-2.07317,-5.94512,-34.1099,-1.7771,15.0743,-17.1646,-232.957,24.2683
643.927,84.9022,8.70443,0,9.78605,0.917292,0.273032,1.12805,-3.90244,-5.30488,-34.1961,-1.70046,15.9652,-16.7378,-230.549,24.2378
643.937,84.8369,9.41626,0,9.87706,1.04902,0.328118,0.579268,-4.17683,-4.66463,-33.9183,-1.74836,16.2239,-17.5915,-225.701,23.4756
643.947,84.781,10.1248,0,9.97526,1.05141,0.325723,0.182927,-4.17683,-3.90244,-33.6596,-1.61424,16.5783,-18.6585,-219.543,22.439
643.957,84.735,10.8001,0,9.89622,0.981958,0.292192,-0.853659,-3.29268,-3.75,-33.5159,-1.76752,16.425,-18.9329,-216.494,22.2561
643.967,84.689,11.473,0,9.80042,0.979563,0.316143,-1.58537,-2.53049,-3.75,-33.286,-1.80584,16.7795,-18.5671,-209.878,21.128
643.977,84.6536,12.1351,0,9.80042,0.919688,0.313748,-1.85976,-1.92073,-3.5061,-32.7687,-2.03577,16.8274,-19.4207,-204.268,20.4878
643.987,84.6288,12.8108,0,9.82677,0.864602,0.174836,-1.64634,-1.4939,-3.23171,-32.5004,-2.23695,17.431,-18.5671,-200.64,19.6951
643.997,84.6062,13.4871,0,9.8124,0.845442,0.220342,-2.0122,-1.40244,-3.29268,-32.5579,-2.38065,17.977,-14.5122,-198.384,18.3232
644.007,84.5819,14.1487,0,9.82197,0.850232,0.186812,-2.13415,-2.46951,-3.44512,-31.8873,-2.21779,17.8525,-12.439,-192.287,18.872
644.017,84.5523,14.8048,0,9.8603,0.881367,0.227527,-2.2561,-2.13415,-3.68902,-31.5999,-2.24653,18.1016,-11.9512,-183.994,20.122
644.027,84.5209,15.432,0,9.82437,0.900527,0.275427,-2.04268,-0.97561,-3.65854,-31.7148,-2.05493,18.1399,-11.0061,-177.012,20.2744
644.037,84.4913,16.0663,0,9.88185,0.934058,0.213157,-1.31098,0.853659,-3.20122,-31.5711,-2.03577,18.6764,-9.54268,-170.366,20.4268
644.047,84.4672,16.6928,0,9.8579,0.924478,0.203577,-2.34756,0.762195,-2.80488,-31.4945,-1.94955,18.9733,-8.38415,-165.457,21.8293
644.057,84.4431,17.3198,0,9.7597,0.900527,0.205972,-2.65244,0.365854,-3.04878,-31.7053,-1.98787,19.5961,-6.61585,-163.14,21.9512
644.067,84.4337,17.9197,0,9.80042,0.814307,0.165256,-2.28659,0.335366,-2.80488,-31.7915,-1.74836,19.6248,-6.64634,-157.896,19.4207
644.077,84.4278,18.5021,0,9.75731,0.792751,0.117356,-2.65244,0.0304878,-2.7439,-31.8585,-1.64298,19.8068,-6.7378,-153.232,18.5671
644.087,84.4213,19.0615,0,9.70941,0.766406,0.229922,-2.28659,-0.365854,-3.04878,-31.8873,-1.30768,19.8451,-5.82317,-147.805,17.2866
644.097,84.4113,19.642,0,9.79084,0.799937,0.150886,-1.34146,0.152439,-3.04878,-31.6957,-0.943638,20.5828,-5.67073,-145.64,17.622
644.107,84.402,20.2157,0,9.89383,0.828677,0.0598755,-1.89024,0.762195,-2.77439,-31.3125,-0.809517,20.669,-3.65854,-142.073,19.2683
644.117,84.3995,20.771,0,9.91538,0.754431,-0.00479004,-1.12805,0.518293,-3.01829,-31.37,-1.19272,20.8127,-4.42073,-136.311,19.6341
644.127,84.3911,21.3245,0,9.93454,0.795146,0.126936,-0.670732,-0.609756,-3.10976,-31.3029,-1.19272,21.1959,-4.72561,-130.152,18.1402
644.137,84.3858,21.8508,0,9.87946,0.783171,0.184417,-0.579268,-0.853659,-2.95732,-31.3029,-1.42264,21.1097,-5.94512,-125.518,17.6829
644.147,84.3765,22.3824,0,9.83635,0.795146,0.227527,0.152439,0.121951,-3.14024,-31.0826,-1.23104,21.5025,-5.97561,-121.372,16.8902
644.157,84.3731,22.9031,0,9.82916,0.764011,0.213157,0.365854,1.12805,-2.9878,-31.073,-1.35558,21.7132,-7.2561,-118.14,16.189
644.167,84.3635,23.4071,0,9.86509,0.804727,0.208367,0.670732,1.89024,-3.10976,-31.1496,-1.07776,21.8569,-7.19512,-116.189,15.7317
644.177,84.3537,23.9047,0,9.87946,0.795146,0.191602,0.762195,2.34756,-3.2622,-31.0538,-1.09692,22.0773,-6.98171,-113.476,16.9207
644.187,84.3406,24.3951,0,9.86269,0.809517,0.174836,0.701219,2.19512,-3.41463,-31.2742,-0.857417,22.4988,-7.43902,-112.561,16.5854
644.197,84.3221,24.8908,0,9.8555,0.864602,0.153281,0.792683,2.40854,-3.29268,-31.0347,-0.962798,22.8533,-8.23171,-110.274,17.3171
644.207,84.2989,25.3575,0,9.84353,0.900527,0.153281,0.914634,2.62195,-3.35366,-30.8814,-0.914897,22.5563,-10.122,-107.226,18.1098
644.217,84.2727,25.8116,0,9.71659,0.924478,0.148491,0.548781,2.5,-3.2622,-30.8526,-1.02028,22.6713,-11.7378,-104.299,18.2622
644.227,84.2576,26.2376,0,10.0088,0.910107,0.201182,1.06707,0.762195,-2.7439,-30.6898,-0.924478,22.3551,-11.9207,-100.884,17.3476
644.237,84.2386,26.6775,0,9.92017,0.943638,0.162861,1.03659,1.43293,-2.65244,-30.3928,-0.895737,22.7862,-11.25,-98.2927,17.6524
644.247,84.2196,27.1138,0,9.80042,0.953218,0.330513,0.518293,0.365854,-2.43902,-30.0862,-0.780776,22.8533,-9.35976,-95.9451,16.7378
644.257,84.2055,27.5387,0,9.79803,0.917292,0.344883,0.121951,-0.640244,-2.46951,-30.0479,-0.857417,22.9682,-8.59756,-90.8537,17.2866
644.267,84.1982,27.9469,0,9.78605,0.852627,0.340093,0.27439,-0.0609756,-2.65244,-30.2012,-1.02986,23.1024,-8.32317,-87.3781,17.378
644.277,84.1917,28.3425,0,9.7597,0.847837,0.337698,0.701219,0.335366,-2.62195,-30.4024,-1.25978,23.3514,-8.35366,-82.9878,17.0732
644.287,84.1836,28.7371,0,9.73575,0.876577,0.383203,1.12805,-0.426829,-2.43902,-30.1246,-1.30768,23.4568,-7.65244,-80.9451,17.2256
644.297,84.172,29.1281,0,9.8124,0.878972,0.323328,1.18902,-0.701219,-2.77439,-30,-1.1065,23.6293,-7.2561,-77.4695,17.0122
644.307,84.1557,29.5303,0,9.8124,0.907712,0.105381,0.365854,1.58537,-2.89634,-29.7893,-1.00112,24.0412,-3.59756,-77.0122,16.7683
644.317,84.1327,29.8997,0,9.86988,0.953218,0.0431104,-1.09756,4.20732,-3.07927,-29.7893,-0.387993,23.6963,-3.62805,-71.9817,16.2195
644.327,84.1081,30.2708,0,9.92496,0.938848,0.182021,-1.4939,5.09146,-3.5061,-29.7605,-0.435894,24.0508,-4.90854,-66.4329,17.9573
644.337,84.0868,30.6276,0,9.92975,0.926873,0.270637,-1.40244,3.81098,-3.38415,-30.1054,-0.570015,24.3573,-6.15854,-61.8598,16.8902
644.347,84.0748,30.9755,0,9.81479,0.847837,0.385598,-1.34146,1.70732,-3.35366,-30.0767,-0.320933,24.4627,-8.62805,-58.4756,13.4146
644.357,84.0628,31.3107,0,9.72857,0.819097,0.474214,-0.823171,0.640244,-3.62805,-29.8659,-0.426313,24.3286,-8.10976,-55.3659,13.2317
644.367,84.0459,31.626,0,9.73336,0.898132,0.411943,-0.487805,0.304878,-3.20122,-29.7318,-0.196392,24.0891,-9.2378,-51.9207,12.1646
644.377,84.0297,31.9629,0,9.73575,0.898132,0.285007,-0.548781,-0.0609756,-3.17073,-29.3581,-0.148491,24.5394,-10.061,-49.2378,12.561
644.387,84.0131,32.3042,0,9.74054,0.941243,0.217947,-0.670732,-2.10366,-2.7439,-29.1091,-0.158071,24.731,-13.4756,-46.6159,11.6463
644.397,83.9975,32.6295,0,9.69983,0.919688,0.244292,-0.97561,-2.65244,-2.89634,-28.9175,-0.301772,24.5298,-14.9695,-42.5915,11.9207
644.407,83.9863,32.944,0,9.69983,0.862207,0.261057,-1.03659,-2.10366,-3.20122,-28.8121,-0.320933,24.501,-15.6098,-39.2683,12.1037
644.417,83.9777,33.2449,0,9.78844,0.888552,0.239502,-0.335366,-1.4939,-2.77439,-28.5822,-0.215552,24.3094,-16.0976,-32.8354,10.8841
644.427,83.964,33.5354,0,9.81958,0.955613,0.234712,0,-1.34146,-2.5,-28.5438,-0.158071,24.3382,-16.0366,-25.7622,10.122
644.437,83.9568,33.8347,0,9.8555,0.936453,0.189207,-0.0609756,-0.487805,-2.22561,-28.381,-0.205972,24.6543,-17.561,-22.439,10.3659
644.447,83.952,34.1196,0,9.79323,0.905317,0.177231,-0.0609756,-0.182927,-2.34756,-28.6205,-0.445474,24.8268,-16.8902,-18.1402,9.14634
644.457,83.9456,34.3917,0,9.73096,0.934058,0.210762,-1.12805,0.0304878,-2.10366,-28.5343,-0.244292,24.7406,-18.2927,-13.2012,8.5061
644.467,83.9417,34.6422,0,9.72617,0.910107,0.155676,-1.52439,-0.304878,-2.19512,-28.4576,-0.464634,24.4531,-19.8171,-9.08537,8.65854
644.477,83.9404,34.886,0,9.73575,0.910107,0.301772,-1.0061,0.213415,-2.0122,-28.4768,-0.368833,24.5585,-18.5671,-4.60366,9.45122
644.487,83.9383,35.0968,0,9.80281,0.902922,0.304167,-0.396341,0.457317,-2.19512,-28.7929,-0.598755,24.3382,-17.622,-0.670732,9.2378
644.497,83.9337,35.3067,0,9.85311,0.960403,0.155676,0.304878,1.12805,-1.79878,-28.9079,-0.522114,24.616,-18.2012,3.5061,8.87195
644.507,83.9247,35.523,0,9.9058,1.01788,0.102986,0.0609756,1.46341,-1.4939,-29.0228,-0.550855,25.0471,-18.628,5.51829,9.7561
644.517,83.9269,35.7123,0,9.94652,0.962798,0.210762,0.792683,1.37195,-1.37195,-29.0228,-0.359253,24.6543,-18.6585,8.78049,8.93293
644.527,83.9295,35.8921,0,9.92257,0.984353,0.196392,1.52439,0.396341,-1.06707,-29.2623,-0.435894,24.8268,-19.4207,11.9512,8.47561
644.537,83.9278,36.0714,0,9.93454,1.0083,0.186812,2.43902,0.426829,-1.06707,-29.157,-0.340093,24.8938,-19.0549,14.1159,7.89634
644.547,83.9191,36.2262,0,9.84593,1.05381,0.129331,2.04268,0.945122,-0.762195,-29.2432,-0.234712,24.5873,-18.9939,15.7012,7.19512
644.557,83.9199,36.3887,0,9.7597,0.993933,0.265847,1.15854,0.731707,-0.914634,-29.157,-0.378413,24.8364,-19.5427,18.9939,5
644.567,83.9307,36.5289,0,9.72378,0.943638,0.234712,1.21951,1.4939,-0.914634,-29.3965,-0.397573,24.6927,-21.0061,20.4878,4.72561
644.577,83.9544,36.6461,0,9.75252,0.934058,0.153281,2.13415,1.95122,-0.426829,-29.5114,-0.407153,24.4148,-20.6098,22.5,4.26829
644.587,83.9671,36.7441,0,9.78605,0.977168,0.229922,2.77439,1.98171,-0.365854,-29.6456,-0.301772,24.2136,-22.9878,24.3902,4.08537
644.597,83.9775,36.8297,0,9.78366,0.986748,0.174836,2.43902,3.01829,-0.304878,-29.7222,-0.435894,24.0987,-24.2988,25.9756,3.78049
644.607,83.9826,36.8861,0,9.77168,0.989143,0.220342,2.2561,2.77439,-0.548781,-29.9138,-0.0814307,23.6963,-24.7866,26.7683,4.5122
644.617,83.9963,36.9523,0,9.81479,0.943638,0.311353,2.83537,2.19512,-0.701219,-29.9617,-0.215552,23.9933,-25.7317,26.1585,4.63415
644.627,84.0229,36.9976,0,9.81719,0.919688,0.325723,3.35366,1.92073,-0.365854,-30.2683,-0.225132,23.8304,-25.2744,23.7805,4.57317
644.637,84.0469,37.0359,0,9.82437,0.936453,0.340093,3.96341,2.34756,-0.243902,-30.4982,-0.493374,23.8975,-27.3476,23.3537,4.35976
644.647,84.06,37.0553,0,9.79084,0.977168,0.435894,3.84146,3.59756,-0.0914634,-30.661,-0.435894,23.6388,-28.9634,21.4329,3.5061
644.657,84.0681,37.0651,0,9.63277,0.986748,0.58199,4.2378,3.65854,0.365854,-30.8335,-0.435894,23.5814,-27.5915,21.0671,5.15244
644.667,84.0984,37.0351,0,9.63277,0.905317,0.555645,5.45732,2.71341,1.09756,-31.1209,-0.704136,22.9491,-27.3476,20.2744,4.7561
644.677,84.129,37.0021,0,9.57768,0.895737,0.64426,7.71341,2.28659,0.945122,-31.3316,-0.857417,23.0161,-28.628,20.061,3.17073
644.687,84.1531,36.9363,0,9.53697,0.914897,0.711321,9.29878,0.792683,0.823171,-31.5232,-0.953218,22.4318,-29.2988,19.0854,2.2561
644.697,84.154,36.8572,0,9.51302,0.981958,0.716111,8.9939,-0.701219,0.365854,-31.9544,-0.962798,22.3934,-31.7683,16.7988,0.487805
644.707,84.1725,36.7597,0,9.63516,0.862207,0.488584,7.7439,-1.03659,-0.945122,-32.5579,-1.04902,22.336,-34.2378,11.6159,-0.548781
644.717,84.1787,36.6463,0,9.41003,0.881367,0.517324,8.87195,-0.609756,-1.18902,-32.9794,-0.742456,22.1827,-35.0915,5.85366,-1.21951
644.727,84.1906,36.5105,0,9.16334,0.749641,0.778381,6.34146,-6.09756,-2.13415,-33.2572,-0.790356,21.7707,-34.7256,-1.4939,-1.95122
644.737,84.2213,36.3554,0,9.27831,0.64905,0.737666,5.73171,-7.19512,-2.07317,-33.4967,-0.445474,21.3875,-35.0305,-7.59146,-0.884146
644.747,84.2236,36.1568,0,9.49146,0.819097,0.546064,4.17683,-7.19512,-2.07317,-34.0332,-0.301772,20.669,-35.9451,-13.75,0.304878
644.757,84.2167,35.95,0,9.72857,0.869392,0.531694,0.945122,-5.12195,-2.34756,-34.1865,-0.158071,20.4104,-36.128,-19.5732,1.79878
644.767,84.2188,35.7338,0,9.90341,0.807122,0.749641,-2.83537,-1.92073,-2.43902,-34.541,-0.273032,20.2379,-35.2744,-25.0915,0.670732
644.777,84.2481,35.5104,0,10.0327,0.64905,0.718506,-2.68293,-1.34146,-2.07317,-34.905,-0.570015,20.0942,-35.8232,-32.7439,1.58537
644.787,84.3011,35.2896,0,10.0878,0.61073,0.373623,-0.27439,-3.65854,-1.25,-34.9625,-0.895737,19.9697,-34.6646,-40.7927,-0.884146
644.797,84.3631,35.0822,0,10.0016,0.680186,0.0646655,1.12805,-5.15244,-0.609756,-35.2786,-1.17356,20.2092,-33.2317,-49.6646,-0.701219
644.807,84.4018,34.8596,0,9.78366,0.747246,0.153281,1.28049,-4.96951,-0.853659,-35.6139,-1.74836,19.8835,-33.2317,-57.6524,-1.79878
644.817,84.418,34.628,0,9.63516,0.799937,0.289797,-0.914634,-4.35976,-1.25,-35.6714,-2.36149,19.5194,-30.0305,-65.5183,-2.28659
644.827,84.4185,34.4057,0,9.65193,0.831072,0.58678,-5.21341,-3.71951,-1.79878,-35.4223,-2.91713,19.3565,-26.9207,-72.561,-1.82927
644.837,84.3878,34.1752,0,9.94891,1.07297,1.13284,-10.9451,-3.14024,-1.61585,-35.5277,-3.33866,19.0308,-21.4024,-82.7744,0.304878
644.847,84.3633,33.9713,0,10.1405,1.09692,1.35079,-13.689,-3.75,-0.243902,-35.6618,-3.56858,19.414,-16.4024,-93.2622,-0.182927
644.857,84.352,33.7789,0,10.119,1.10171,0.965193,-13.2012,-5.94512,0.762195,-35.8247,-3.33866,19.529,-11.4024,-104.634,-0.884146
644.867,84.339,33.6573,0,9.94652,1.09692,0.395178,-12.1341,-9.14634,0.884146,-35.7002,-3.03209,20.7073,-6.34146,-119.909,0.792683
644.877,84.3548,33.5347,0,9.7597,0.922083,-0.00239502,-13.3841,-11.4024,0.0914634,-35.4319,-2.95545,20.372,1.03659,-134.268,0.426829
644.887,84.3998,33.4251,0,9.63995,0.706531,-0.0311353,-14.2683,-12.0122,-0.97561,-35.1541,-2.77343,20.3433,8.2622,-143.232,0.884146
644.899,84.4447,33.3673,0,9.31423,0.510139,0.0790356,-13.7195,-9.32927,-2.22561,-34.7517,-2.49561,21.0522,15,-152.988,0.762195
644.907,84.5165,33.3103,0,9.46033,0.301772,-0.00239502,-12.561,-4.7561,-2.34756,-34.3685,-2.33275,20.7648,19.5427,-159.268,2.59146
644.917,84.5526,33.2385,0,9.84114,0.445474,0.0431104,-13.1707,-1.34146,-2.86585,-34.4835,-2.31359,20.4391,24.6646,-170.305,3.32317
644.927,84.5733,33.221,0,9.96089,0.440684,0.143701,-14.9085,-0.609756,-4.02439,-34.129,-2.08367,21.2342,29.5427,-182.988,4.60366
644.937,84.5896,33.2371,0,10.1357,0.387993,0.201182,-14.6037,-2.80488,-5,-33.6117,-1.5376,21.5312,35.0915,-198.933,6.0061
644.947,84.5932,33.2851,0,9.96568,0.395178,0.306563,-13.0793,-5.60976,-6.06707,-33.104,-0.981958,21.8282,37.561,-211.89,7.07317
644.957,84.5812,33.4256,0,10.083,0.445474,0.0934058,-10.9146,-5.45732,-7.10366,-32.7112,-0.713716,23.5335,39.3902,-222.409,6.67683
644.967,84.5601,33.5869,0,10.1884,0.428708,-0.258662,-11.311,1.0061,-8.29268,-32.1747,-0.426313,23.6963,36.6159,-228.11,6.4939
644.977,84.5442,33.7638,0,10.4495,0.289797,-0.479004,-12.439,7.92683,-9.48171,-31.7053,-0.598755,23.8209,33.5366,-229.482,5
644.987,84.5052,33.9821,0,10.8973,0.368833,-0.852627,-20.4573,12.5915,-11.1585,-30.5748,-0.148491,24.0125,31.4329,-228.659,4.11585
644.997,84.4655,34.2579,0,11.817,0.100591,-1.84417,-31.311,14.7561,-14.2683,-29.2049,0.215552,24.3286,30.122,-232.5,7.16463
645.007,84.3859,34.5817,0,11.8098,0.0981958,-2.50998,-37.6524,21.2805,-18.4451,-28.9079,0.0239502,25.3728,28.9024,-234.512,8.84146
645.017,84.2985,34.9093,0,11.3428,-0.0958008,-1.02986,-38.9634,27.6829,-21.372,-29.8755,-0.493374,26.5991,28.628,-237.226,11.25
645.027,84.1897,35.241,0,10.8231,-0.0574805,0.426313,-37.378,24.6646,-23.3537,-30.9197,-0.914897,27.9307,32.439,-241.25,12.1037
645.037,84.0807,35.584,0,10.4327,-0.0981958,1.24781,-35.1524,23.9329,-24.0854,-32.1364,-1.00112,29.636,36.9817,-246.555,10.9146
645.047,83.9397,35.9745,0,9.61361,0.153281,0.958008,-30.7927,25.0305,-24.6037,-32.5579,-0.531694,31.6478,43.0488,-254.177,10.6098
645.057,83.8292,36.39,0,9.96807,-0.0766406,-0.474214,-27.0122,33.628,-24.5427,-33.4967,-0.273032,33.6788,47.0732,-264.726,11.25
645.067,83.6848,36.8428,0,10.1573,0.196392,-0.201182,-25.4573,29.7561,-25.061,-32.7591,0.474214,34.5122,44.7561,-269.146,14.4512
645.077,83.5568,37.3389,0,10.495,0.170046,0.495769,-24.6341,11.372,-24.0549,-32.6058,1.31726,36.2271,39.0244,-274.268,19.3598
645.087,83.4625,37.8614,0,10.3082,-0.371228,0.656235,-20.1829,0.152439,-26.9817,-31.6765,1.83458,36.6677,30.4573,-274.146,24.6341
645.097,83.3425,38.4139,0,9.97047,-0.282612,0.692161,-13.8415,-6.58537,-28.9024,-30.9963,1.00112,37.5491,22.1037,-273.293,24.878
645.107,83.165,39.0091,0,9.88904,0.0119751,0.0431104,-12.622,-5.27439,-31.5549,-28.9462,0.234712,37.2426,13.6585,-262.561,19.6037
645.117,82.952,39.6271,0,9.65193,0.172441,0.64905,-10.122,-14.2378,-33.5976,-27.49,-0.177231,36.9935,12.0427,-249.055,8.84146
645.127,82.7258,40.3046,0,9.92257,0.196392,0.512534,-8.5061,-22.1646,-35.1524,-24.3573,-0.0910107,35.5469,12.561,-233.476,1.79878
645.137,82.4686,40.9634,0,10.1094,0.342488,0.174836,-4.90854,-23.4146,-37.1341,-22.9012,-0.570015,33.765,20.4268,-219.848,-2.71341
645.147,82.1767,41.634,0,10.21,0.593965,-0.00479004,-1.52439,-21.9207,-38.3537,-21.7037,-1.17356,33.286,27.3476,-202.683,-4.45122
645.157,81.8532,42.3202,0,10.7488,0.917292,-0.0263452,-0.121951,-21.5854,-39.0244,-20.7265,-1.73878,33.2189,34.3902,-186.524,-5.30488
645.167,81.5006,42.9615,0,10.8902,1.16398,0.0598755,1.85976,-16.311,-40.1524,-20.784,-1.67172,32.8261,35.7927,-172.927,-4.69512
645.177,81.13,43.59,0,10.7153,1.2023,0.134121,2.0122,-14.2683,-42.1037,-20.1613,-1.28852,32.3567,36.4024,-153.445,-0.914634
645.187,80.7206,44.2026,0,10.3776,1.43222,0.208367,1.21951,-10.8232,-43.8415,-19.7014,-0.186812,31.9831,33.4451,-139.787,4.45122
645.197,80.2664,44.816,0,10.0399,1.77471,-0.0239502,0.0304878,-8.87195,-44.8171,-18.935,0.617915,31.5903,30.7622,-127.348,10.3659
645.207,79.7952,45.4317,0,9.75012,1.84896,0.134121,-0.213415,-7.92683,-46.0366,-19.347,1.94955,33.1998,28.0183,-120.213,16.8902
645.217,79.3052,46.0061,0,9.75252,1.93518,0.172441,1.70732,-4.5122,-47.9268,-19.0883,2.71595,32.2801,28.7805,-108.14,22.2256
645.227,78.7759,46.5204,0,9.69983,2.28485,0.186812,3.01829,-7.37805,-48.7805,-20.0272,2.97461,32.7208,27.0427,-93.2317,22.5305
645.237,78.2535,47.0499,0,9.81479,2.18426,0.191602,5.03049,-7.68293,-50.6098,-20.7744,2.88839,35.2212,21.7988,-85.8232,20.1829
645.247,77.7184,47.5333,0,9.69264,2.20821,-0.172441,4.90854,-4.29878,-52.378,-21.7803,2.45729,35.978,20.122,-90.3049,16.8293
645.257,77.1866,48.0255,0,9.92496,2.22258,0.237107,5.64024,-5.57927,-53.5671,-21.2534,2.32317,36.1121,20.3049,-89.4512,15.6402
645.267,76.6243,48.541,0,9.96568,2.48124,0.0766406,7.2561,-5.60976,-55,-20.5253,1.51844,36.4282,23.1707,-89.2073,16.0366
645.277,76.0323,49.0288,0,9.63277,2.66087,0.349673,8.07927,-8.2622,-56.189,-20.1038,1.2502,35.4415,24.6646,-85.2744,14.3902
645.287,75.4237,49.4851,0,9.75491,2.94587,0.193997,10.6402,-11.189,-56.311,-19.6631,0.819097,34.3111,24.8171,-74.4207,14.6646
645.297,74.7809,49.9694,0,9.73336,3.4129,-0.107776,9.08537,-10.0915,-55.9146,-19.1362,0.426313,35.0775,25.4573,-66.5854,15.2744
645.307,74.1289,50.4555,0,9.72378,3.61408,0.296982,3.47561,-10.0305,-55.9756,-19.2416,0.253872,36.0738,27.1951,-64.3902,14.6037
645.317,73.5144,50.9353,0,10.0064,3.47517,0.00958008,5.57927,-8.41463,-56.0061,-19.1649,0.732876,36.4474,28.4451,-62.3171,16.6768
645.327,72.8656,51.4089,0,9.76928,3.76258,0.222737,7.16463,-7.22561,-56.8598,-19.5577,1.27894,37.712,27.6829,-61.7378,21.1585
645.337,72.1922,51.8747,0,9.68067,3.86796,-0.148491,5.88415,-0.121951,-59.2378,-19.5386,1.79626,38.1718,24.8476,-56.128,24.878
645.347,71.5099,52.3432,0,9.63037,3.93741,-0.0479004,6.76829,-2.22561,-60.5793,-19.6919,2.50519,39.3789,21.25,-55.5488,29.5122
645.357,70.803,52.7807,0,9.60403,4.16015,-0.184417,7.68293,-7.46951,-62.0732,-20.4199,3.02251,40.2315,15.0305,-61.0366,30.3354
645.367,70.0738,53.1343,0,9.17292,4.1817,0.316143,7.19512,-12.6829,-63.5671,-20.9947,3.57816,38.5263,11.7988,-59.9695,26.7073
645.377,69.3255,53.4536,0,9.2352,4.38289,0.148491,7.2561,-14.6951,-65.2134,-20.9181,3.73144,37.6258,8.93293,-54.2683,23.75
645.387,68.5912,53.7631,0,9.4723,4.4715,-0.0167651,7.28659,-12.9878,-65.5488,-20.7648,3.56858,37.4821,5.79268,-51.9207,20.6707
645.397,67.8567,54.0821,0,9.44117,4.58407,0.205972,7.04268,-9.48171,-65.7927,-20.3529,3.3674,37.5683,2.07317,-53.6585,17.1037
645.407,67.1116,54.4194,0,9.31902,4.74693,0.00718506,6.61585,-7.16463,-66.1281,-19.8835,3.29076,37.894,1.18902,-57.5,14.1159
645.417,66.37,54.7924,0,9.37411,4.88105,-0.0910107,4.54268,-8.5061,-66.25,-19.3278,3.1758,38.8616,1.95122,-57.0122,14.5427
645.427,65.6128,55.1657,0,9.3286,5.03194,-0.110171,2.62195,-8.96341,-67.6524,-19.3949,3.10874,39.6855,0.365854,-53.5976,16.0366
645.437,64.8447,55.5126,0,9.16813,4.93853,-0.210762,1.25,-8.10976,-70.3659,-19.3182,3.37698,39.0915,-5.09146,-44.939,16.4024
645.447,64.0678,55.8378,0,9.02683,4.96967,0.174836,2.07317,-12.2866,-71.7683,-19.3661,3.52068,38.9095,-7.07317,-37.7439,17.8049
645.457,63.2771,56.129,0,8.93103,4.96248,0.160466,3.84146,-13.5671,-74.2988,-19.529,3.3195,38.3443,-9.7561,-36.372,19.4207
645.467,62.468,56.4002,0,8.81367,5.02715,-0.122146,5.12195,-10.9146,-76.4939,-19.4907,3.2237,37.9132,-8.93293,-37.622,19.2988
645.477,61.641,56.6497,0,8.78014,5.28102,-0.210762,5.12195,-6.15854,-77.2561,-19.1841,3.04167,36.8881,-8.01829,-35.6098,20.3659
645.487,60.8181,56.8941,0,8.66518,5.24509,0.129331,4.32927,-5.06098,-78.2012,-18.9254,3.08958,36.6103,-7.7439,-32.3476,22.0732
645.497,60.0162,57.1654,0,8.81607,5.26665,0.359253,5.70122,-7.62195,-78.4146,-17.0956,3.37698,34.4835,-8.32317,-23.0488,23.5976
645.507,59.2276,57.4152,0,8.81846,5.37442,0.0479004,6.4939,-12.2561,-77.6524,-18.1686,3.00335,36.2558,-7.9878,-18.0793,25.5183
645.517,58.4484,57.6547,0,8.72266,5.384,-0.0766406,6.15854,-16.0366,-77.6524,-17.9962,3.19496,35.9397,-7.40854,-12.8659,27.561
645.527,57.6808,57.9046,0,8.56459,5.3361,0.0670605,6.76829,-18.4451,-77.561,-17.7184,3.28118,36.2271,-7.04268,-5.4878,30
645.537,56.9228,58.1368,0,8.73703,5.43909,-0.419128,6.12805,-14.0549,-78.2012,-17.2777,3.76976,35.087,-7.92683,3.17073,32.2256
645.547,56.1489,58.3326,0,8.19815,5.35526,-0.347278,3.84146,-15.3963,-78.811,-17.3543,3.85598,34.2536,-8.32317,10.1829,34.5122
645.557,55.3658,58.5103,0,8.00895,5.47501,-0.440684,1.95122,-18.9939,-78.8719,-17.316,3.58774,33.8225,-11.0976,13.689,34.7866
645.567,54.5761,58.6737,0,7.75986,5.49896,-0.608335,0.853659,-21.5549,-79.1768,-16.9807,3.1758,32.9411,-13.0793,18.811,34.7561
645.577,53.7665,58.8532,0,7.54671,5.76242,-0.158071,0.243902,-21.6463,-78.6585,-16.6837,3.10874,33.1998,-11.7683,22.7439,34.4207
645.587,52.957,59.0418,0,7.31678,5.88456,-0.294587,0.457317,-21.7378,-77.3476,-16.2909,3.35782,33.0465,-11.4024,28.811,34.939
645.597,52.1886,59.2175,0,7.51797,6.02826,-0.728086,1.21951,-18.628,-74.9695,-16.1568,3.23328,32.6633,-13.0183,40.7622,34.6037
645.607,51.4333,59.3961,0,7.41738,6.27256,-0.490979,0.670732,-20.2439,-72.1646,-15.8981,3.35782,32.5675,-16.0061,51.0671,34.7256
645.617,50.7231,59.5338,0,7.44851,6.22705,-0.419128,-0.457317,-20,-69.7561,-16.1664,3.4632,31.9639,-20.2744,60.3963,32.7744
645.627,50.0362,59.6357,0,7.44612,6.3492,-0.526904,-0.243902,-16.9817,-67.6829,-16.4825,3.4632,31.619,-22.8659,72.7439,30.8232
645.637,49.3819,59.712,0,7.36229,6.34201,-0.409548,-1.31098,-14.6951,-65.1829,-16.8945,3.21412,31.7148,-28.1402,79.2073,25.7927
645.647,48.7567,59.7743,0,7.31199,6.33243,-0.548459,-1.43293,-13.9939,-63.2317,-16.9711,2.89797,31.5041,-29.1768,81.6159,19.6037
645.657,48.1562,59.8014,0,7.23775,6.31567,-0.613125,-3.53659,-11.4024,-61.5549,-17.0094,2.85007,30.5557,-25.0915,88.5671,15.7012
645.667,47.5873,59.8355,0,7.22338,6.251,-0.455054,-3.65854,-12.8963,-60.0305,-16.6166,3.03209,30.1629,-23.3841,98.5671,13.872
645.677,47.0429,59.8702,0,7.31439,6.251,-0.670605,-3.96341,-10.7622,-59.4207,-16.722,2.68721,30.479,-21.128,108.72,13.5366
645.687,46.4984,59.9032,0,7.19464,6.32525,-0.603545,-4.57317,-8.17073,-58.9024,-16.9519,2.42855,30.9293,-22.1646,115.061,13.9634
645.697,45.9409,59.922,0,6.98867,6.36596,-0.919688,-5.42683,-2.7439,-59.2683,-17.2968,2.42855,31.1592,-23.2317,118.232,14.878
645.707,45.3717,59.8849,0,6.70366,6.41386,-0.807122,-5.33537,0.914634,-58.75,-17.9387,2.50519,30.5557,-25.7012,121.067,14.0854
645.717,44.8043,59.8539,0,6.66534,6.71803,-0.60594,-3.9939,-4.54268,-56.6768,-17.8429,2.95545,30.5557,-25.9451,124.573,14.1159
645.727,44.2662,59.785,0,6.74677,6.88568,-0.603545,-1.70732,-7.19512,-54.1159,-18.0058,2.93629,29.6839,-22.4085,130.396,15.2134
645.737,43.7473,59.6964,0,6.82581,7.08686,-0.589175,0.27439,-8.14024,-52.2561,-18.4656,2.92671,29.818,-20.122,137.805,16.7378
645.747,43.2534,59.5945,0,6.82102,7.21619,-0.910107,-0.0609756,-7.0122,-49.6646,-19.1458,2.72553,30.4407,-20.4878,143.201,17.2256
645.757,42.7938,59.4743,0,6.90724,7.24733,-0.859812,-1.18902,-3.5061,-47.6524,-19.3278,2.39981,30.1054,-22.8354,149.695,16.2805
645.767,42.3469,59.3364,0,6.76114,7.20661,-0.852627,-1.82927,-3.32317,-46.372,-19.6535,2.20821,29.9904,-26.5549,155.305,15.122
645.777,41.91,59.213,0,6.58151,7.15871,-0.888552,-3.10976,-2.89634,-45.0915,-19.6823,2.31359,30.3162,-30.1829,158.963,11.9512
645.787,41.473,59.0656,0,6.46176,7.14434,-0.936453,-3.44512,-2.62195,-45.0305,-20.0367,2.52435,30.0383,-31.5244,162.744,9.72561
645.797,41.0311,58.9131,0,6.29172,7.15632,-0.934058,-3.90244,-2.16463,-44.7866,-20.3146,3.08958,30.1533,-31.128,164.817,8.96341
645.807,40.5799,58.7449,0,6.05221,7.1635,-0.840652,-3.01829,-2.19512,-44.3293,-20.2188,3.24286,29.4348,-30.0915,171.677,10
645.817,40.131,58.556,0,6.02108,7.30481,-0.991538,-1.95122,-1.64634,-43.5976,-20.7457,3.1758,29.4635,-28.6585,177.012,9.48171
645.828,39.6859,58.3559,0,5.99952,7.49641,-0.785566,-2.16463,-0.396341,-42.439,-21.1576,2.58183,29.5593,-28.872,182.5,7.43902
645.837,39.2455,58.1608,0,5.93007,7.69759,-0.651445,-2.28659,0.823171,-40.7012,-21.0714,2.10283,29.3869,-31.2805,187.713,2.92683
645.847,38.8295,57.9256,0,5.84864,7.66167,-0.63468,-1.40244,0.0914634,-38.5976,-21.3109,1.81542,28.4576,-33.689,192.226,-2.28659
645.857,38.426,57.6977,0,5.90612,7.87243,-0.696951,-0.365854,-0.27439,-37.1951,-21.3684,1.98787,28.5151,-33.1402,198.11,-3.53659
645.867,38.0453,57.4683,0,5.91809,7.78381,-0.924478,-0.0914634,-0.213415,-36.4329,-21.6079,1.92081,28.5726,-32.2866,201.402,-3.87195
645.877,37.6873,57.2111,0,6.0115,7.58503,-1.1065,0.670732,4.32927,-37.2561,-22.3647,2.15073,28.6109,-33.8415,204.939,0.182927
645.887,37.3119,56.9082,0,5.74326,7.41977,-1.02267,2.53049,4.63415,-38.4146,-22.4222,1.6813,27.2984,-34.9695,209.817,0.792683
645.897,36.9466,56.5615,0,5.78637,7.34552,-1.07536,4.45122,4.87805,-39.1463,-22.5276,1.45138,26.1297,-33.8415,218.476,0.670732
645.907,36.5842,56.2371,0,5.82708,7.25451,-0.977168,5.57927,3.10976,-40.7012,-22.9587,1.2023,26.8386,-34.4817,219.299,0.548781
645.917,36.2323,55.9036,0,5.96599,7.14674,-0.943638,6.92073,1.37195,-42.5915,-22.8245,1.46096,26.1584,-36.189,217.591,-1.03659
645.927,35.8652,55.6005,0,5.89175,7.3575,-0.948428,8.81098,0.548781,-42.4695,-23.0353,1.99745,26.8003,-38.4756,216.707,-1.55488
645.937,35.5062,55.2469,0,5.83666,7.41977,-0.917292,9.02439,1.34146,-41.372,-23.3131,2.30401,25.6794,-41.8902,220.579,-3.5061
645.947,35.1087,54.8942,0,5.33371,7.52755,-0.761616,8.59756,-0.914634,-40.1829,-23.8017,2.62015,25.9381,-47.9878,226.433,-5.70122
645.957,34.765,54.5179,0,5.58998,7.27846,-0.814307,9.02439,-1.67683,-40,-23.8496,3.02251,25.1717,-53.2012,232.927,-10.0915
645.967,34.3538,54.1662,0,4.99841,8.04727,-0.883762,9.81707,-3.81098,-36.0061,-24.0125,2.99377,25.5549,-57.5305,231.433,-11.8293
645.977,33.9393,53.7744,0,4.78764,7.99937,-0.850232,7.31707,-6.52439,-35.2439,-24.434,2.67763,24.7885,-58.9634,230.579,-15.4878
645.987,33.5242,53.3974,0,4.66071,7.73591,-0.950823,5.4878,-10.3659,-36.4939,-24.6735,2.17947,25.028,-64.6037,233.293,-18.5366
645.997,33.0893,53.0247,0,4.35415,7.41019,-0.718506,6.52439,-17.5305,-38.0793,-24.5202,2.05493,24.6543,-73.5061,236.037,-19.8171
646.007,32.6899,52.6354,0,4.44516,6.57912,-0.857417,6.06707,-23.4146,-42.7134,-24.2711,1.79626,23.7538,-76.2805,240.64,-20.6098
646.017,32.2356,52.2337,0,4.50982,6.28932,-0.946033,6.85976,-22.6524,-52.378,-23.7442,1.98787,22.7,-78.8719,246.159,-19.7561
646.027,31.7239,51.8281,0,4.80441,6.50727,-0.811912,2.31707,-25.122,-60.7927,-25.9381,1.4418,24.3382,-81.0061,240,-19.2988
646.037,31.1825,51.4002,0,5.3361,6.89766,-0.708926,-1.4939,-28.9329,-67.5,-24.9226,1.22146,22.6138,-79.8476,241.646,-19.6037
646.047,30.6051,51.0029,0,5.6762,7.62574,-0.490979,-5.03049,-26.2195,-70.0915,-25.095,0.876577,23.064,-81.4329,246.28,-18.8415
646.057,29.9588,50.5878,0,5.42711,8.28437,-0.531694,-7.28659,-23.75,-71.311,-25.7081,0.234712,22.9587,-81.0671,251.677,-19.6951
646.067,29.2905,50.1259,0,5.31215,8.81128,-0.735271,-6.40244,-23.0488,-70.4878,-25.8902,-0.0526904,21.8761,-76.7073,257.012,-19.4207
646.077,28.6109,49.6484,0,5.02954,9.22801,-1.1999,-5.03049,-22.8963,-67.9268,-26.532,-0.541274,21.7611,-73.75,260.549,-19.0854
646.087,27.9573,49.1518,0,4.80441,9.50104,-1.33403,-4.57317,-19.2683,-63.0488,-27.7104,-0.914897,21.9623,-72.2256,261.159,-19.2073
646.098,27.2999,48.621,0,4.5697,9.7142,-1.42504,-1.09756,-7.77439,-61.4329,-28.0744,-1.23104,21.2055,-70.7927,265.823,-21.9817
646.107,26.6478,48.0303,0,4.24397,9.63037,-1.29092,-3.32317,-4.42073,-59.3598,-28.5055,-0.934058,19.9984,-65.7317,272.287,-22.9573
646.117,26.1082,47.4644,0,4.50024,8.74661,-0.996328,-1.09756,-8.44512,-56.25,-28.8983,-0.886157,20.3241,-59.8476,278.628,-25.7012
646.127,25.5876,46.8701,0,4.33738,8.89271,-0.965193,0.426829,-9.63415,-52.8963,-29.5881,-0.598755,19.8451,-56.311,281.494,-27.5915
646.137,25.0289,46.2768,0,3.93023,9.2304,-0.783171,-5.18293,-15.7317,-51.8598,-29.9234,-0.828677,19.6439,-53.811,282.256,-29.5732
646.147,24.4344,45.7201,0,3.41769,9.02443,-0.529299,-9.54268,-23.2927,-51.9207,-30.1437,-0.560435,20.0272,-51.2195,278.902,-30.9756
646.157,23.9152,45.139,0,3.54223,8.12391,-0.474214,-6.43293,-24.7866,-51.189,-30.2012,-0.407153,19.1841,-47.3171,278.75,-31.3415
646.167,23.4786,44.5588,0,4.0859,7.94188,-0.934058,-4.35976,-21.2805,-51.311,-30.2012,-0.0143701,18.7913,-46.1585,283.232,-30.061
646.177,23.0214,43.9684,0,4.12662,8.47597,-1.38672,-6.85976,-16.4024,-51.7073,-30.0958,0.205972,18.1399,-44.8171,288.445,-28.1707
646.187,22.553,43.3767,0,3.99968,8.72745,-1.33163,-7.43902,-9.7561,-51.0671,-30.2204,0.541274,17.7854,-44.4207,293.323,-26.0671
646.197,22.0452,42.8151,0,3.64522,8.92384,-1.04662,-9.29878,-8.96341,-51.128,-29.7893,0.857417,17.6609,-45.8841,296.677,-23.3537
646.207,21.5162,42.2218,0,3.42009,8.943,-0.890947,-10.7622,-10.3659,-51.7073,-30.0575,0.435894,16.8753,-45.0915,298.415,-21.8293
646.217,21.0051,41.6161,0,3.4153,8.73943,-0.711321,-11.189,-11.3415,-51.7988,-30.2395,0.0431104,16.3676,-44.8476,302.988,-22.4695
646.227,20.519,41.0608,0,3.44404,8.63884,-0.883762,-9.84756,-13.9024,-51.0976,-29.8946,0.617915,16.6358,-47.1951,303.232,-23.4146
646.237,20.0376,40.5138,0,3.52786,9.05078,-1.15679,-8.9939,-12.2866,-50.7012,-30.4694,0.627495,16.7124,-50.1524,302.47,-23.5671
646.247,19.5495,39.8878,0,3.37937,9.25675,-0.972378,-7.68293,-10.3354,-49.8476,-31.2837,0.282612,15.4,-50.9451,303.811,-24.1159
646.257,19.0526,39.2667,0,3.15185,9.2352,-0.696951,-3.71951,-11.6463,-49.2683,-32.3184,0.637075,15.5628,-49.1463,305.305,-23.9024
646.267,18.5592,38.6393,0,3.16861,9.44835,-0.823887,-3.84146,-13.3537,-49.2988,-33.1902,0.311353,15.4191,-47.0427,302.134,-23.5366
646.277,18.0321,38.0032,0,2.8381,9.60163,-0.775986,-6.34146,-13.2927,-49.5122,-33.8799,0.167651,15.1317,-44.1463,301.22,-23.4146
646.287,17.4582,37.3192,0,2.17707,9.46512,-0.775986,-8.35366,-14.939,-48.2012,-34.4068,0.100591,14.0588,-45.6707,301.89,-23.4146
646.297,16.8889,36.6315,0,2.08127,9.3789,-1.11368,-8.23171,-17.1341,-47.9878,-34.6272,-0.570015,13.5989,-44.2378,300.64,-23.7195
646.307,16.3576,35.9651,0,2.27048,9.54894,-1.32924,-7.86585,-19.2988,-47.0427,-34.3398,-0.704136,13.369,-44.2378,296.402,-23.5671
646.317,15.8737,35.2832,0,2.47406,9.5705,-1.26218,-7.10366,-17.7134,-45.5793,-34.6751,-1.27894,12.7559,-39.4207,293.476,-23.4451
646.327,15.41,34.6432,0,2.58183,9.55134,-1.07776,-6.31098,-16.6463,-45.7927,-34.1386,-1.57592,12.8038,-36.8598,290.244,-23.9939
646.337,14.9122,33.9917,0,2.01182,9.331,-0.828677,-8.20122,-19.0854,-44.1768,-34.1194,-1.51844,12.1715,-35.8537,291.25,-25.6402
646.347,14.4918,33.3474,0,2.32796,9.12502,-0.680186,-9.72561,-20.3963,-41.6768,-33.8704,-1.1544,11.7595,-36.5854,287.927,-25.6098
646.357,14.1389,32.7047,0,2.62494,8.88313,-0.735271,-9.84756,-15.4878,-40.0305,-34.4452,-1.26936,11.5392,-34.3598,283.567,-23.9634
646.367,13.7969,32.0771,0,2.62734,8.7993,-0.60115,-5.73171,-12.622,-39.9695,-34.3015,-1.19272,11.2997,-32.439,278.323,-23.4146
646.377,13.4603,31.4468,0,2.65129,8.91905,-0.725691,-1.95122,-12.2561,-39.9695,-34.8188,-1.14482,10.9836,-29.6341,271.921,-22.0732
646.387,13.123,30.8417,0,2.57704,9.14179,-0.761616,0.121951,-12.8354,-39.0854,-35.0487,-1.08734,11.041,-27.4085,266.585,-21.6768
646.397,12.8009,30.2671,0,2.49322,9.13939,-0.699346,1.52439,-12.9878,-37.2256,-35.0391,-0.962798,11.1368,-27.5915,263.171,-20.0915
646.407,12.5074,29.6525,0,2.52435,9.17532,-0.749641,0.518293,-12.1646,-35.2134,-35.1541,-0.972378,10.1022,-24.8476,259.421,-18.3841
646.417,12.2653,29.0557,0,2.62734,9.08431,-0.850232,-1.03659,-12.0732,-32.1037,-35.2499,-1.33642,10.0064,-22.9268,256.189,-17.4085
646.427,11.9692,28.4939,0,1.99984,9.32621,-0.823887,-4.60366,-13.872,-29.878,-35.3457,-0.876577,10.2076,-22.378,250.183,-17.2256
646.437,11.6944,27.9467,0,2.05493,9.24957,-0.58199,-5.7622,-15.2439,-29.1768,-35.2307,-1.14482,10.0064,-23.3232,238.567,-18.1098
646.447,11.4338,27.4021,0,2.07648,9.34537,-0.62989,-6.92073,-14.6646,-28.2927,-35.6523,-1.1544,9.77647,-24.4817,230.518,-18.0793
646.457,11.2065,26.8808,0,2.12678,9.29747,-0.502954,-6.21951,-13.2012,-26.1585,-36.7827,-1.04902,10.0735,-22.3171,217.744,-15.7012
646.467,11.008,26.3314,0,2.29203,9.67588,-0.431104,-5,-14.0549,-24.5732,-38.3347,-1.19272,9.59445,-21.5854,210.762,-14.3598
646.477,10.8408,25.7916,0,2.29922,9.76449,-0.6251,-4.84756,-14.4512,-21.6463,-38.6221,-1.28852,9.43159,-20.0915,206.738,-11.4939
646.487,10.7007,25.2073,0,2.2609,9.7142,-0.797541,-4.87805,-13.7805,-18.9024,-38.9382,-1.60466,8.30114,-22.3476,201.585,-9.39024
646.497,10.5793,24.5896,0,2.16989,9.65672,-0.804727,-4.66463,-13.689,-16.4024,-39.3598,-1.54718,7.35271,-21.2805,196.585,-8.96341
646.507,10.4819,24.0341,0,2.0669,9.36213,-0.716111,-3.04878,-12.1951,-13.75,-39.4843,-1.50886,8.04248,-22.1341,192.043,-6.25
646.517,10.3794,23.4527,0,1.86812,9.44835,-0.711321,-1.58537,-11.189,-11.8902,-40.289,-1.346,7.30481,-19.1159,186.616,-2.86585
646.527,10.2624,22.8585,0,1.67412,9.52978,-0.802332,-1.76829,-10.4573,-11.0976,-40.7584,-1.41306,6.70126,-18.689,179.878,-0.701219
646.537,10.1427,22.2389,0,1.65017,9.52978,-0.807122,-3.01829,-8.65854,-11.311,-40.9309,-1.2023,5.81032,-19.1768,175.091,-0.731707
646.547,10.006,21.6341,0,1.42504,9.43159,-0.744851,-3.32317,-7.40854,-10.7927,-41.5919,-1.61424,5.69536,-16.8902,168.171,-0.823171
646.557,9.87178,21.0328,0,1.34361,9.5202,-0.696951,-2.53049,-7.59146,-9.66463,-40.471,-1.66214,5.14929,-15.5793,161.738,-2.5
646.567,9.7687,20.4773,0,1.4897,9.56092,-0.61552,-1.09756,-7.31707,-8.44512,-40.0591,-1.825,5.47501,-15.8841,156.86,-5.27439
646.577,9.67038,19.9554,0,1.3963,9.616,-0.694556,0,-6.70732,-6.95122,-39.7142,-1.76752,5.60914,-15.0915,150.183,-7.59146
646.587,9.57847,19.4537,0,1.36756,9.59205,-0.665815,0.487805,-6.06707,-6.18902,-39.5514,-2.07409,5.56124,-15.1524,144.909,-10.7317
646.597,9.49625,18.9227,0,1.38193,9.64474,-0.673001,0.701219,-6.0061,-5.45732,-38.8712,-1.96871,4.59365,-13.628,140.091,-11.311
646.607,9.40443,18.3813,0,1.23823,9.6639,-0.785566,0.152439,-8.38415,-4.81707,-38.2676,-2.13157,3.96136,-13.9939,133.384,-12.439
646.617,9.31472,17.8752,0,1.22146,9.66151,-0.955613,0.0304878,-8.44512,-4.57317,-38.9574,-2.25611,4.25834,-11.7378,128.78,-12.4695
646.627,9.21483,17.3615,0,1.16158,9.69743,-1.07297,0.152439,-7.59146,-5.06098,-39.1298,-2.39023,3.77934,-8.90244,123.72,-12.8659
646.637,9.11307,16.8237,0,1.17835,9.62558,-1.01309,0.792683,-7.40854,-5.79268,-39.0053,-2.34233,2.98419,-5.94512,120.305,-12.8049
646.647,8.99487,16.3096,0,1.07536,9.77886,-1.09452,0.731707,-7.89634,-6.25,-38.8424,-2.52435,3.00335,-2.80488,117.134,-11.8293
646.657,8.89406,15.7981,0,1.25739,9.75012,-1.03704,0.396341,-9.26829,-6.92073,-39.446,-2.59141,2.72553,-0.487805,113.323,-10.2744
646.667,8.78983,15.2968,0,1.2502,9.69983,-1.05381,0.0304878,-8.14024,-7.46951,-39.513,-2.28485,2.54351,1.06707,109.939,-8.14024
646.677,8.68519,14.776,0,1.27176,9.59924,-0.862207,-0.914634,-6.09756,-8.14024,-39.1777,-2.38065,1.83458,0.27439,108.11,-4.96951
646.687,8.59021,14.2669,0,1.36516,9.46272,-0.934058,-0.426829,-4.35976,-8.71951,-39.3885,-2.26569,1.67172,1.34146,103.049,-3.41463
646.697,8.50431,13.7817,0,1.47773,9.50583,-0.926873,0.487805,-3.32317,-9.26829,-39.8483,-2.00703,1.74836,2.59146,100.366,1.37195
646.707,8.42479,13.3387,0,1.57832,9.64474,-1.10889,2.13415,-1.12805,-9.72561,-39.8771,-2.11241,2.14115,0.182927,96.7988,3.56707
646.717,8.33253,12.863,0,1.49928,9.69983,-1.03944,2.46951,-2.07317,-10.1524,-39.7813,-2.10283,1.24062,-0.731707,93.3232,5.21341
646.727,8.23667,12.3823,0,1.52084,9.67588,-1.00351,2.9878,-3.2622,-11.0061,-40.2986,-1.96871,0.828677,1.25,91.5854,6.64634
646.737,8.13049,11.9393,0,1.48252,9.7118,-0.977168,3.93293,-4.81707,-11.7378,-40.586,-1.47054,1.1544,-0.518293,87.439,5.45732
646.747,8.02437,11.5007,0,1.51126,9.77886,-0.977168,4.42073,-5.21341,-12.1646,-40.5956,-1.59508,0.905317,-1.61585,83.6281,5.54878
646.757,7.91202,11.0806,0,1.50168,9.78366,-0.943638,3.90244,-4.63415,-12.8963,-40.6626,-1.69088,0.914897,-3.81098,80.1524,4.78659
646.767,7.8055,10.694,0,1.5855,9.70462,-0.941243,4.14634,-3.32317,-13.6585,-41.3045,-1.50886,1.22146,-4.63415,75.9451,3.2622
646.777,7.70452,10.3418,0,1.65975,9.70701,-0.979563,4.11585,-2.56098,-14.1768,-41.7931,-1.76752,1.56634,-6.98171,70.3354,1.89024
646.787,7.6117,9.94478,0,1.70525,9.69025,-1.01549,4.90854,-1.40244,-14.1159,-41.3237,-1.81542,0.474214,-9.20732,68.75,1.95122
646.797,7.50623,9.54114,0,1.60227,9.72138,-1.0586,2.68293,1.79878,-14.3293,-41.6398,-1.346,0.0622705,-11.9207,67.439,2.16463
646.807,7.40278,9.13133,0,1.56634,9.63277,-1.00112,1.92073,2.40854,-14.0854,-40.9596,-1.49928,-0.330513,-13.0488,69.7561,3.68902
646.817,7.30415,8.72994,0,1.52084,9.63516,-1.07057,1.79878,1.95122,-13.2622,-40.883,-1.70046,-0.474214,-15.2744,68.75,4.2378
646.827,7.20504,8.34901,0,1.45857,9.63516,-1.07536,0.97561,1.64634,-12.7744,-40.7393,-1.84417,-0.397573,-15.6707,66.7683,2.65244
646.837,7.10508,7.9611,0,1.3939,9.58726,-1.14961,1.06707,1.7378,-12.378,-40.7105,-1.96871,-0.799937,-17.622,64.8476,1.64634
646.847,7.01524,7.59699,0,1.41306,9.62798,-1.16158,1.09756,1.40244,-11.7073,-40.4423,-2.12199,-0.646655,-19.5122,64.1463,0.792683
646.857,6.93038,7.2416,0,1.38193,9.61361,-1.152,0.945122,0.213415,-11.0366,-39.9441,-2.24653,-0.752036,-18.6585,60.4268,0.914634
646.867,6.84121,6.89758,0,1.29092,9.56571,-1.14242,0.518293,-0.914634,-10.6402,-39.9441,-2.35191,-0.809517,-18.6585,57.5305,0.335366
646.877,6.7546,6.57691,0,1.27176,9.58247,-1.1544,1.03659,-1.92073,-10.3049,-39.7909,-2.62973,-0.646655,-15.8537,54.3293,0.762195
646.887,6.68087,6.24596,0,1.34361,9.59924,-1.09213,1.03659,-2.95732,-10,-39.5418,-2.67763,-1.0586,-18.1098,49.9085,0.853659
646.897,6.62397,5.92991,0,1.43462,9.63756,-1.04423,0.243902,-3.2622,-9.45122,-39.2735,-2.77343,-1.02986,-15.5488,47.0732,0.304878
646.907,6.58838,5.58964,0,1.50168,9.58247,-0.989143,-0.609756,-2.0122,-8.29268,-39.2544,-2.91713,-1.67172,-13.5061,45.2744,0.914634
646.917,6.56268,5.26992,0,1.54239,9.60163,-1.13045,-0.152439,-0.213415,-7.80488,-39.2544,-3.07042,-1.55676,-10.5793,43.0488,-0.335366
646.927,6.54134,4.91711,0,1.51365,9.68546,-1.16877,0.213415,0.97561,-6.92073,-38.9095,-3.24286,-2.33275,-7.71341,42.1341,-1.85976
646.937,6.52433,4.61487,0,1.4921,9.68306,-1.1065,-0.365854,1.70732,-6.28049,-39.6855,-3.2716,-1.73878,-6.18902,41.6768,-2.80488
646.947,6.50832,4.30923,0,1.50886,9.62079,-1.07776,-0.548781,2.37805,-6.52439,-40.0495,-3.06083,-2.03577,-4.84756,39.1159,-4.7561
646.957,6.48036,4.01935,0,1.38193,9.59445,-1.04183,-0.182927,4.72561,-6.31098,-40.4327,-3.24286,-1.99745,-0.182927,36.8902,-5.7622
646.967,6.44585,3.73299,0,1.2981,9.53697,-0.993933,1.64634,7.5,-6.12805,-40.5764,-3.13748,-2.16031,2.31707,33.2317,-7.0122
646.977,6.39016,3.45714,0,1.12326,9.63756,-1.09692,2.28659,8.90244,-6.09756,-40.5956,-3.07042,-2.18905,4.63415,29.5732,-7.22561
646.987,6.32656,3.2059,0,1.03465,9.6663,-1.12805,2.07317,7.95732,-5.91463,-41.0363,-3.06083,-1.97829,6.61585,25.7317,-7.37805
646.997,6.27838,2.96655,0,1.14003,9.64953,-1.18314,1.43293,6.67683,-5.7622,-41.1033,-2.94587,-1.95913,8.04878,22.0732,-7.83537
647.007,6.24557,2.75158,0,1.22864,9.62798,-1.17356,0.701219,5.51829,-5.39634,-41.2374,-2.76385,-1.71004,8.14024,17.6829,-8.35366
647.017,6.20737,2.53277,0,1.2023,9.68306,-1.07536,-0.640244,5.57927,-5.60976,-41.065,-2.55309,-1.93997,6.64634,13.9634,-9.17683
647.027,6.17334,2.34166,0,1.19511,9.64235,-1.04183,-0.0304878,5.45732,-5.2439,-40.95,-2.56267,-1.60466,7.86585,9.93902,-6.34146
647.037,6.12735,2.13045,0,1.07297,9.75491,-1.30289,-0.182927,5.88415,-4.90854,-40.471,-2.20821,-2.09325,5.39634,6.31098,-5.45732
647.047,6.06752,1.94264,0,0.941243,9.76689,-1.32684,-0.701219,4.81707,-4.81707,-40.4423,-2.35191,-1.83458,2.53049,2.9878,-4.14634
647.057,6.00073,1.74769,0,0.862207,9.73815,-1.26697,-1.40244,3.2622,-4.72561,-40.6339,-2.53393,-2.11241,0.914634,0.914634,-2.46951
647.067,5.9387,1.5516,0,0.883762,9.74054,-1.38193,-2.71341,1.43293,-4.63415,-40.2507,-2.70637,-2.25611,-0.640244,-0.823171,-1.34146
647.077,5.87502,1.34214,0,0.862207,9.74773,-1.35558,-3.47561,0.609756,-4.66463,-40.222,-2.79259,-2.62973,0,-0.579268,-1.31098
647.087,5.8053,1.14503,0,0.823887,9.67588,-1.26457,-3.23171,-0.579268,-5.03049,-40.1932,-3.14706,-2.56267,-2.22561,-2.62195,-0.426829
647.097,5.72739,0.953179,0,0.766406,9.65911,-1.13524,-3.10976,-2.28659,-5.33537,-39.9441,-3.08958,-2.60099,-3.5061,-5.21341,-0.792683
647.107,5.64601,0.762645,0,0.713716,9.68546,-1.19751,-2.83537,-3.29268,-5.18293,-39.3693,-3.1758,-2.67763,-1.76829,-6.58537,0.0304878
647.117,5.56966,0.586301,0,0.708926,9.7597,-1.23583,-3.35366,-4.54268,-4.69512,-39.4268,-3.10874,-2.57225,-2.53049,-8.53659,1.28049
647.127,5.50542,0.416727,0,0.766406,9.79084,-1.25499,-4.60366,-5.7622,-4.26829,-39.1586,-3.44404,-2.56267,-3.56707,-9.78659,1.70732
647.137,5.4596,0.245673,0,0.864602,9.71899,-1.28613,-5.85366,-7.07317,-3.78049,-38.8807,-3.43446,-2.68721,-3.81098,-10.2744,1.92073
647.147,5.43972,0.0642608,0,1.01309,9.65911,-1.19751,-6.18902,-8.20122,-3.20122,-38.9382,-3.6548,-2.98419,-3.90244,-9.5122,4.29878
647.157,5.45385,-0.109348,0,1.19032,9.60882,-1.18553,-6.43293,-9.02439,-2.46951,-38.9382,-3.71228,-2.96503,-4.48171,-7.0122,5.03049
647.167,5.48159,-0.283539,0,1.24781,9.63037,-1.18553,-6.7378,-9.72561,-2.10366,-38.5454,-3.61648,-3.06083,-3.87195,-6.4939,6.98171
647.177,5.52487,-0.474097,0,1.35558,9.62558,-1.29331,-7.62195,-10.6098,-2.07317,-38.6029,-3.9422,-3.45362,-3.78049,-3.38415,9.17683
647.187,5.593,-0.623278,0,1.42983,9.62319,-1.26457,-8.41463,-10.8841,-1.55488,-39.6472,-4.10506,-2.95545,-3.65854,-4.42073,7.56098
647.197,5.66498,-0.778018,0,1.48252,9.65672,-1.2502,-9.72561,-10.6402,-1.58537,-39.6663,-4.04758,-3.16622,-6.67683,-6.64634,8.78049
647.207,5.72134,-0.92876,0,1.48012,9.59445,-1.22625,-10.6098,-9.57317,-2.13415,-39.6951,-3.62606,-3.21412,-8.96341,-8.9939,8.78049
647.217,5.77305,-1.0521,0,1.50647,9.57768,-1.10171,-11.128,-8.07927,-2.46951,-39.81,-3.58774,-2.85007,-9.81707,-10.4268,7.62195
647.227,5.80048,-1.19284,0,1.41785,9.54655,-1.08015,-10.6098,-5.88415,-3.17073,-39.3885,-3.53984,-3.21412,-12.5305,-11.8598,8.38415
647.237,5.82127,-1.35424,0,1.40348,9.63756,-1.12087,-10.7927,-4.90854,-3.32317,-39.3502,-3.47278,-3.66438,-15.9146,-10.4268,9.96951
647.247,5.83912,-1.48537,0,1.3484,9.71899,-1.30529,-12.0427,-3.53659,-2.86585,-39.4747,-3.26202,-3.25244,-19.0244,-9.02439,9.63415
647.257,5.86733,-1.63383,0,1.36756,9.8124,-1.33642,-13.689,-2.53049,-2.19512,-39.1394,-3.33866,-3.61648,-23.4451,-9.02439,10.1524
647.267,5.93537,-1.75779,0,1.47773,9.83156,-1.3939,-14.7561,-2.19512,-1.18902,-38.8807,-3.54942,-3.2716,-25.4573,-9.2378,10.1829
647.277,6.1294,-1.87787,0,1.70765,9.78844,-1.38911,-15.4268,-1.67683,-0.0914634,-38.4592,-3.559,-3.25244,-29.2988,-8.84146,8.90244
647.287,6.32858,-1.97339,0,1.95434,9.64474,-1.36995,-15.0915,-0.426829,0.792683,-38.9478,-3.82724,-2.95545,-31.0366,-10,7.71341
647.298,6.51087,-2.04228,0,2.15073,9.57289,-1.36516,-14.2073,1.15854,1.79878,-38.9957,-3.64522,-2.57225,-35.7012,-12.2866,7.2561
647.307,6.71769,-2.0759,0,2.39262,9.4747,-1.37953,-13.872,2.95732,2.19512,-39.1203,-3.74102,-2.02619,-39.6951,-14.878,7.9878
647.317,6.94012,-2.10975,0,2.64171,9.45075,-1.37953,-13.5976,4.93902,3.20122,-39.0723,-3.74102,-2.05493,-44.3598,-16.128,8.29268
647.327,7.18596,-2.1436,0,2.85007,9.39806,-1.43222,-13.9024,7.5,4.35976,-38.4975,-3.81766,-2.04535,-49.8171,-15.4878,9.5122
647.337,7.46809,-2.14169,0,3.07281,9.35734,-1.43941,-14.4207,9.5122,6.28049,-38.4305,-3.8464,-1.45138,-54.3598,-13.628,11.5549
647.347,7.79529,-2.13691,0,3.26681,9.21364,-1.38672,-14.1159,11.5854,8.78049,-38.1335,-4.00926,-1.38432,-58.628,-11.7683,12.1037
647.357,8.16099,-2.13351,0,3.42248,9.21603,-1.46336,-13.5671,15.2134,11.6463,-38.1527,-3.90388,-1.40348,-61.3415,-11.2195,12.1951
647.367,8.5752,-2.12928,0,3.59732,9.20646,-1.4921,-12.3476,18.9634,15.3659,-38.258,-4.15296,-1.38432,-64.2988,-9.20732,12.561
647.377,9.0361,-2.14149,0,3.73863,9.09628,-1.43462,-11.2195,23.1098,18.9329,-38.1143,-4.19128,-1.64298,-63.7805,-6.21951,13.5366
647.387,9.54865,-2.13258,0,3.92544,9.01964,-1.36995,-9.32927,27.2866,22.7439,-38.076,-4.37331,-1.28852,-63.0183,-4.35976,15.9451
647.397,10.1179,-2.12664,0,4.05956,8.88073,-1.36756,-7.5,31.7988,27.439,-38.0664,-4.33499,-1.32684,-61.2805,-2.77439,16.372
647.407,10.7591,-2.07858,0,4.28948,8.74901,-1.27894,-6.55488,36.0366,32.7744,-38.2197,-4.44995,-0.627495,-58.8415,-5.57927,18.7805
647.417,11.4673,-2.05871,0,4.44037,8.6077,-1.26218,-5.30488,38.9024,38.5366,-38.2868,-4.41163,-1.07776,-54.1768,-7.19512,20.5793
647.427,12.2519,-2.04844,0,4.53617,8.47597,-1.3005,-4.63415,40.7927,46.0061,-38.3443,-4.32541,-1.23104,-48.3841,-7.95732,21.5854
647.437,13.1343,-2.05009,0,4.79722,8.27719,-1.26218,-2.83537,43.2317,53.628,-38.4017,-4.33499,-1.43222,-40.3963,-9.26829,21.2805
647.447,14.0967,-2.05524,0,4.95769,8.15025,-1.24781,0.0609756,45.4878,61.0976,-38.67,-3.92304,-1.50886,-32.7134,-10.9756,21.372
647.457,15.1331,-2.07217,0,5.17085,8.08798,-1.36756,3.71951,48.5061,68.0183,-39.1107,-3.61648,-1.73878,-21.8902,-12.7134,20.061
647.467,16.2114,-2.11082,0,5.41993,8.38975,-1.59508,8.14024,51.7378,73.8415,-39.7046,-3.29076,-2.16989,-12.1341,-16.1585,19.3598
647.477,17.3212,-2.15997,0,5.6259,8.68913,-1.92081,12.8659,55.6098,79.1463,-40.586,-3.03209,-2.43813,-0.97561,-17.3171,19.1768
647.487,18.4648,-2.2294,0,5.88696,9.00288,-2.15312,18.3537,58.2012,84.3293,-41.065,-2.51477,-2.87881,8.90244,-19.5732,19.3293
647.497,19.6288,-2.36435,0,6.12885,9.35255,-2.41418,25.3049,61.0366,88.6281,-41.1321,-2.01661,-4.12422,20.6707,-17.8963,23.4146
647.507,20.8119,-2.53234,0,6.60307,9.8076,-2.66805,29.8476,65.7622,91.4939,-41.0075,-1.38432,-4.81399,32.7439,-17.9878,29.3598
647.517,21.9698,-2.75964,0,6.85215,10.4231,-2.89318,32.0427,75.2439,92.6219,-40.4902,-1.1065,-5.94444,44.0549,-16.128,35.3963
647.527,23.0331,-3.02513,0,6.47613,11.1488,-2.73272,27.9573,84.4817,91.7988,-40.1262,-0.340093,-6.73958,53.1707,-14.2073,43.1098
647.537,23.9697,-3.29696,0,5.50854,11.5655,-2.03337,21.3415,88.9329,90.6098,-39.992,-0.0335303,-7.01741,60,-12.7134,47.0122
647.547,24.8124,-3.54087,0,4.50982,11.3811,-1.12087,22.378,96.1585,90.7927,-39.9441,0.435894,-6.70126,64.1463,-13.5671,47.5305
647.557,25.5227,-3.77408,0,3.33147,11.1105,0.783171,30.4268,88.9939,89.0549,-40.1645,1.04902,-6.74917,58.5061,-22.0122,46.4939
647.567,25.9783,-4.00652,0,0.0646655,12.3799,3.18777,32.1646,54.1159,97.9573,-40.2507,1.61424,-6.93119,57.378,-25.6098,43.3537
647.577,26.3066,-4.27185,0,-1.88009,12.3344,4.41402,28.9939,12.5305,104.207,-40.3465,2.20821,-7.71675,54.1768,-24.4207,40.9146
647.587,26.5839,-4.52829,0,-2.12199,11.8074,2.86205,26.25,-1.79878,102.774,-40.5094,2.22737,-7.76465,52.3171,-20.8232,37.7439
647.597,26.8631,-4.79388,0,-2.12199,12.0422,0.371228,24.0854,6.12805,103.14,-40.6626,2.23695,-8.1287,48.0183,-14.0549,34.5732
647.607,27.1548,-5.00627,0,-1.66693,11.6182,-1.32445,19.2988,11.0061,101.25,-41.4386,2.15073,-7.46767,45.1829,-11.7988,33.1402
647.617,27.508,-5.14581,0,-0.392783,10.5189,-1.68849,14.3293,1.06707,95.8232,-41.8506,1.84417,-6.32764,46.128,-13.689,32.9268
647.627,27.8644,-5.26237,0,0.56762,9.47949,-1.42264,10.8232,-22.5,85.5183,-41.6494,1.71962,-5.99234,48.2622,-19.7866,37.8354
647.637,28.2838,-5.35518,0,1.90644,9.46033,-1.02507,7.40854,-48.3537,76.4024,-41.3141,1.31726,-5.60914,52.439,-25.3963,42.0122
647.647,28.7306,-5.40004,0,2.78541,9.09389,-0.747246,5.09146,-68.75,68.5671,-40.6722,0.608335,-4.73735,54.878,-31.4329,46.372
647.657,29.2678,-5.45951,0,3.54702,7.8868,-0.862207,7.46951,-73.5061,64.0244,-39.1969,0.138911,-4.87147,59.0244,-36.9207,49.6951
647.667,29.8228,-5.51577,0,4.17931,7.77423,-1.0562,8.44512,-59.3293,58.689,-37.9515,-0.407153,-4.71819,63.2622,-41.7378,48.7195
647.677,30.3563,-5.53717,0,4.59125,7.82213,-1.05141,7.86585,-35.7622,53.2317,-37.0031,-0.608335,-4.07632,67.8659,-46.5244,44.6951
647.687,30.8883,-5.59311,0,4.94572,7.47486,-0.811912,6.92073,-13.811,47.8963,-36.1792,-0.723296,-4.56491,71.4939,-48.811,40.3049
647.697,31.4419,-5.64995,0,5.39837,7.09884,-0.476609,9.66463,3.44512,43.5061,-36.1025,-0.445474,-4.61281,72.1037,-51.0671,34.5732
647.707,31.9996,-5.70938,0,5.52771,6.57193,-0.452659,15.7622,14.4512,39.2988,-35.796,-0.225132,-4.65113,72.2561,-51.0061,30.6402
647.717,32.5168,-5.79673,0,5.57561,6.40907,-0.65384,21.3415,23.1402,34.3598,-35.7481,0.234712,-5.13013,72.2256,-50.8232,24.7866
647.727,32.9624,-5.89774,0,5.41274,6.33004,-0.831072,25.4268,29.0854,29.1159,-36.0642,0.512534,-5.44627,70.1829,-48.5061,20.2744
647.737,33.3206,-5.99636,0,5.19719,6.57193,-0.953218,29.4512,34.1159,25.5793,-36.7156,1.40348,-5.56124,70.0305,-45.4268,17.0732
647.747,33.6193,-6.11418,0,5.16606,6.80904,-1.2502,32.439,35.7622,22.5915,-36.9839,2.03577,-5.97318,65.9451,-40.9756,12.9573
647.757,33.8345,-6.23761,0,4.67747,6.71084,-1.36995,34.2073,33.628,19.3902,-37.5683,2.78301,-6.23184,61.9817,-37.8963,10.5183
647.767,33.962,-6.38193,0,4.39007,6.80425,-1.44899,35.5183,26.4024,15.061,-37.4821,3.21412,-6.64378,56.8598,-34.2073,8.53659
647.777,34.0413,-6.54151,0,4.42839,6.77791,-1.56395,35.3354,20.4878,9.72561,-37.597,3.45362,-7.00783,50.061,-29.6037,5.12195
647.787,34.0129,-6.69264,0,4.31343,6.7348,-1.53521,34.3598,16.25,2.5,-37.5491,3.72186,-6.95035,41.0671,-26.0671,1.0061
647.797,33.9249,-6.84442,0,4.24158,6.79707,-1.47773,32.6829,13.5061,-4.05488,-37.6928,3.58774,-7.08447,33.811,-24.0549,-0.792683
647.807,33.7595,-6.97873,0,3.93023,6.88568,-1.12087,30.3659,9.35976,-8.2622,-37.9419,3.71228,-6.93119,25.9756,-23.5366,-5.57927
647.817,33.5398,-7.10452,0,4.12183,7.06531,-0.728086,28.5976,4.20732,-15.2744,-38.1143,3.83682,-6.91203,16.372,-24.9695,-9.48171
647.827,33.2998,-7.20835,0,4.36852,6.93837,-0.359253,30.0305,0.304878,-21.7378,-38.009,4.05716,-6.60546,7.22561,-26.7683,-11.25
647.837,33.103,-7.31574,0,5.18282,6.99346,-0.225132,31.9817,1.18902,-26.7073,-38.1143,3.77934,-6.75875,-2.31707,-27.3171,-12.7439
647.847,32.9547,-7.4109,0,5.84385,6.72521,-0.0766406,34.4207,5.09146,-31.2195,-38.4592,3.4632,-6.6821,-12.9573,-27.8659,-14.878
647.857,32.8523,-7.50401,0,6.50487,6.40428,0.0287402,37.622,8.41463,-35.9451,-38.6029,3.33866,-6.73958,-20.3049,-28.4756,-16.4939
647.867,32.7592,-7.59931,0,6.60546,6.02826,-0.0958008,39.6341,7.59146,-39.6341,-38.6508,3.34824,-6.85455,-26.5854,-29.5427,-16.8293
647.877,32.6606,-7.66983,0,6.66055,6.16239,-0.431104,40.4268,-0.396341,-39.5732,-38.8903,3.15664,-6.5384,-32.5,-32.9878,-16.7988
647.887,32.6212,-7.73914,0,6.99585,6.1552,-0.598755,38.5061,-14.7256,-36.6768,-38.8137,2.79259,-6.56714,-35.8537,-37.0122,-15.7927
647.897,32.6378,-7.79833,0,7.66646,6.33004,-0.380808,38.9024,-26.5244,-34.6951,-38.9286,2.30401,-6.46176,-39.9695,-38.5366,-15.6098
647.907,32.7033,-7.86691,0,8.53106,6.7803,-0.404758,37.439,-37.0122,-31.8598,-39.3119,2.13157,-6.73,-44.6341,-37.2866,-17.8354
647.917,32.7715,-7.94246,0,9.09628,7.50599,-0.407153,32.8354,-42.378,-29.2988,-39.4747,1.45138,-6.92161,-50.3354,-34.4512,-17.5
647.927,32.8498,-8.03899,0,9.53936,8.07361,-0.313748,25.6402,-41.7073,-26.6768,-39.5514,1.43222,-7.35271,-57.0732,-30.5488,-17.6829
647.937,32.955,-8.17012,0,9.72138,8.28677,-0.184417,19.7866,-35.7622,-23.3537,-39.5897,1.59508,-8.04248,-65.2134,-26.8293,-15.2744
647.947,33.1127,-8.33181,0,9.88904,8.17181,-0.390388,16.128,-27.378,-19.5732,-39.6567,1.97829,-8.7035,-69.0244,-25.3354,-10.4268
647.957,33.3286,-8.47082,0,9.91299,7.92033,-0.617915,15.3963,-18.0488,-15.2439,-39.7909,3.04167,-8.43526,-73.1707,-25.6098,-4.84756
647.967,33.5864,-8.60099,0,9.56571,7.53473,-0.809517,18.5976,-10.5793,-11.3415,-39.4651,4.01884,-8.31072,-76.2805,-27.0427,3.41463
647.977,33.8218,-8.66135,0,8.97414,7.41019,-1.27894,22.2561,-4.08537,-10.3963,-40.5285,4.71819,-7.35271,-75.9451,-31.7988,10.3354
647.987,33.9499,-8.62809,0,8.20294,7.82932,-1.90165,23.0793,0.121951,-12.4695,-41.5153,5.31215,-5.84864,-73.1707,-39.9085,16.5244
647.997,33.9212,-8.54792,0,7.70238,9.04359,-2.49801,20.122,2.5,-16.128,-42.8373,5.29299,-5.13013,-68.6281,-45.5793,21.6159
648.007,33.7415,-8.54234,0,7.10123,10.0399,-2.92911,17.0732,6.15854,-21.0976,-44.7917,4.50743,-6.78749,-59.2073,-42.378,26.372
648.017,33.4387,-8.58737,0,6.14083,10.2435,-2.73511,17.6829,8.84146,-25.1829,-46.3724,3.26202,-8.02332,-44.878,-27.622,24.4512
648.027,33.077,-8.62533,0,5.57082,10.3106,-1.75315,17.0427,12.1646,-26.5854,-47.8477,1.54718,-8.07122,-32.6829,-5.82317,20.7927
648.037,32.7547,-8.59921,0,5.95402,10.9069,-1.26218,9.5122,10,-23.811,-49.0644,0.00479004,-6.82581,-19.9085,9.2378,16.5244
648.047,32.5788,-8.53821,0,7.41738,11.0099,-0.898132,6.09756,3.87195,-20.4268,-49.9936,-1.6334,-6.12646,-4.72561,14.6037,12.3171
648.057,32.5589,-8.53989,0,8.93582,10.2435,-2.07648,18.4756,23.628,-19.4207,-49.8212,-2.61057,-7.41019,9.14634,24.3902,6.92073
648.067,32.5505,-8.55069,0,9.04359,10.7105,-3.60929,17.1646,65.8841,-16.4024,-49.3039,-3.62606,-7.46767,25.5183,40.3963,2.19512
648.077,32.3984,-8.60656,0,6.41147,11.326,-1.93997,-6.15854,80.2134,-9.32927,-47.7423,-4.24876,-8.1287,37.6829,60.3659,-0.27439
648.087,31.9273,-8.61383,0,2.17707,10.3297,0.953218,-16.0061,55.2439,-6.15854,-45.606,-3.62606,-6.71084,39.5122,84.7256,1.82927
648.097,31.0728,-8.57492,0,-0.852627,8.7059,1.38911,-9.93902,25.4573,-10.6098,-43.2109,-2.44771,-5.38879,32.7744,105.61,1.06707
648.107,29.8459,-8.41236,0,-2.84289,7.60898,0.239502,3.01829,12.0732,-19.9695,-42.5595,-0.914897,-2.89797,22.8354,116.037,-3.35366
648.117,28.3787,-8.1376,0,-4.23439,7.88201,-0.874182,9.57317,-4.42073,-31.1585,-43.7953,0.474214,-0.704136,12.7134,111.707,-9.7561
648.127,26.9867,-7.73702,0,-3.48954,9.03641,-2.17947,6.89024,-37.7439,-41.0366,-45.2515,1.71962,1.93997,10.5183,96.311,-20.7317
648.137,25.8024,-7.24446,0,-1.38911,10.5668,-3.99729,-5.39634,-61.4329,-50.4878,-46.4586,1.6813,4.15296,8.41463,82.1951,-34.2988
648.147,24.7256,-6.60117,0,0.294587,11.7356,-4.5673,-9.54268,-71.7988,-60.1524,-46.9184,1.40348,7.71675,3.41463,68.6585,-46.311
648.157,23.66,-5.91533,0,0.950823,12.4445,-4.51222,-10.0305,-70.9756,-67.1951,-46.2382,0.273032,8.97174,-7.31707,53.0793,-57.1341
648.167,22.6213,-5.14788,0,1.47533,12.1787,-3.81766,-15.3049,-63.75,-71.7988,-45.4144,0.177231,11.0315,-24.1159,38.0488,-62.1341
648.177,21.6016,-4.45349,0,1.66933,10.9261,-2.80457,-17.7744,-53.689,-75.6098,-42.1188,-0.742456,9.30705,-48.1098,14.8171,-59.5427
648.187,20.6211,-3.79369,0,1.84417,9.7621,-2.58423,-15.2134,-44.6037,-77.8049,-39.6855,-0.177231,8.68434,-48.75,27.3476,-51.6159
648.197,19.6203,-3.11069,0,1.53281,9.00288,-2.88839,-12.8354,-40.061,-79.7561,-37.9706,0.138911,9.15376,-62.0732,20.2439,-36.9817
648.207,18.653,-2.48187,0,1.57592,8.39215,-3.13029,-11.25,-36.5854,-80.3659,-35.6044,0.378413,8.1287,-77.7439,18.5366,-25.4573
648.217,17.7522,-1.96335,0,1.85614,8.11193,-3.23567,-9.32927,-36.7378,-80.1524,-34.4164,0.397573,6.50008,-89.7866,16.8293,-15.1524
648.228,16.8916,-1.54962,0,2.02858,8.20294,-3.42248,-7.80488,-37.1341,-79.939,-34.2344,0.292192,5.14929,-95.8537,14.0549,-13.0793
648.237,16.0044,-1.20615,0,1.81542,8.44005,-3.24286,-6.37195,-33.9329,-80.8232,-34.6559,-0.148491,4.36373,-98.5366,10.6707,-13.1707
648.247,15.0694,-0.93489,0,1.37235,8.54303,-3.26441,-3.47561,-31.25,-81.3719,-35.6523,-1.70046,3.53984,-99.4207,5.30488,-19.7561
648.257,14.0846,-0.714323,0,0.862207,8.943,-3.30273,-3.44512,-32.3476,-80.9756,-36.3995,-3.07042,2.95545,-97.5,1.40244,-31.1585
648.267,13.0589,-0.556429,0,0.296982,9.26873,-3.08958,-5.06098,-35.8841,-79.6646,-36.8594,-4.59365,2.10283,-93.9939,-1.55488,-41.3415
648.277,12.1038,-0.441582,0,0.517324,9.46751,-2.82612,-8.20122,-38.8415,-77.1951,-36.8402,-5.71452,1.49928,-89.8476,-2.68293,-54.2683
648.287,11.3051,-0.36455,0,1.36516,9.38369,-2.62015,-10.0305,-41.4939,-73.689,-36.4666,-6.73958,0.953218,-82.8659,-1.28049,-62.8659
648.297,10.6346,-0.336615,0,2.07888,9.17532,-2.47885,-10.9756,-42.9268,-71.4024,-36.4091,-7.45809,0.215552,-74.6037,-0.335366,-68.7195
648.307,9.94082,-0.317871,0,1.74118,8.93821,-2.05253,-10.1524,-45.2439,-71.5854,-35.863,-7.38145,0.0814307,-66.0976,-1.34146,-69.1463
648.317,9.24172,-0.331209,0,1.4897,8.87834,-1.90644,-8.87195,-49.5122,-70.4878,-35.7193,-7.12279,-0.416733,-57.5,-2.77439,-66.4939
648.327,8.59499,-0.315703,0,1.55197,8.73943,-2.19623,-8.65854,-56.8902,-67.6829,-35.6618,-6.74917,0.0143701,-50.1829,-7.53049,-63.7805
648.337,7.98812,-0.333964,0,1.55197,8.77775,-2.48843,-9.78659,-61.1585,-64.8476,-35.5948,-6.5384,-0.522114,-42.7744,-12.8354,-60.7317
648.347,7.44139,-0.367693,0,1.85854,8.95498,-2.7423,-10.3659,-62.2866,-63.4146,-35.4702,-6.04982,-0.780776,-35.9451,-15.2134,-59.9085
648.357,6.9553,-0.419763,0,2.07169,8.87834,-2.83091,-10.2134,-60.8537,-61.2195,-34.8475,-5.64746,-1.07776,-28.9939,-17.9573,-55.7927
648.367,6.52331,-0.478636,0,2.14833,8.74661,-2.62015,-10.7012,-56.9817,-58.0488,-34.5027,-5.34089,-1.21188,-20.0915,-21.25,-53.0488
648.377,6.11323,-0.523743,0,1.88488,8.57177,-2.49801,-10,-56.311,-53.8415,-34.5697,-4.99601,-1.04902,-16.311,-24.3293,-48.5671
648.387,5.73838,-0.538856,0,2.07169,9.07712,-2.45969,-8.56707,-55.2744,-52.0122,-34.7613,-4.90979,-0.637075,-14.0854,-29.2073,-42.8354
648.397,5.38557,-0.546798,0,2.09085,9.03401,-2.70877,-10.1829,-55.7622,-50.8841,-34.8859,-5.11097,-0.550855,-10.9756,-33.3841,-40.0915
648.407,5.08816,-0.604168,0,2.37346,8.88552,-2.88121,-13.3537,-53.0488,-49.878,-34.9146,-5.24509,-1.31726,-11.4329,-33.3537,-38.628
648.417,4.837,-0.62174,0,2.43573,8.79691,-2.86444,-17.1341,-48.628,-46.8293,-35.566,-5.18761,-0.752036,-13.5671,-33.0183,-37.8659
648.427,4.6097,-0.694623,0,2.61057,8.90229,-2.63692,-16.9207,-41.7378,-46.6768,-35.5756,-4.73735,-1.62382,-12.3476,-30.5488,-34.5427
648.437,4.3584,-0.833794,0,2.46687,9.00527,-2.50998,-13.75,-35.9756,-47.5,-35.0487,-4.45953,-2.65847,-14.4207,-25.9756,-28.3232
648.447,4.08465,-1.01326,0,2.28964,9.0388,-2.38065,-10.7927,-29.4512,-48.0488,-34.2057,-4.75651,-3.2716,-15.7317,-19.7561,-22.8049
648.457,3.79785,-1.26473,0,2.13636,8.93103,-2.14354,-9.81707,-22.0122,-48.3841,-33.4967,-5.07265,-4.37331,-17.7439,-15.0915,-19.0549
648.467,3.4823,-1.50172,0,1.81303,8.81367,-1.84177,-9.11585,-15.7927,-48.1707,-33.3818,-5.00559,-4.2775,-18.4146,-10.6707,-16.3415
648.477,3.12587,-1.7758,0,1.45617,8.78254,-1.89686,-6.67683,-13.8415,-48.4756,-32.9698,-5.20677,-4.90021,-20.5488,-6.21951,-13.3537
648.487,2.72597,-2.08497,0,1.1999,9.04599,-2.22258,-4.78659,-16.0061,-49.8476,-32.9986,-4.81399,-5.5804,-21.5549,-3.10976,-8.59756
648.498,2.29842,-2.42491,0,1.09931,9.3789,-2.48364,-6.31098,-18.3537,-51.7073,-33.4967,-4.02842,-6.30848,-23.3537,0.731707,-1.7378
648.507,1.90713,-2.75183,0,1.30289,9.4723,-2.72553,-8.32317,-18.2622,-51.2195,-33.8512,-3.76018,-6.37554,-23.9024,2.86585,8.38415
648.517,1.56292,-3.11614,0,1.51844,9.3789,-2.8381,-9.08537,-15,-50,-33.8895,-3.44404,-7.15153,-25.0305,7.19512,18.9939
648.527,1.25225,-3.49866,0,1.70046,9.2831,-2.85007,-8.5061,-10,-49.6951,-33.8512,-3.48236,-7.64011,-25.5488,11.6159,28.1707
648.537,0.930319,-3.9106,0,1.59269,9.25915,-2.67763,-7.83537,-4.63415,-50.2134,-34.0907,-3.97094,-8.38736,-24.0244,16.0061,37.0427
648.547,0.61612,-4.35203,0,1.56874,9.0867,-2.53872,-6.03659,-1.12805,-50.1524,-34.0907,-4.62239,-9.10586,-25.1829,20.7622,44.1463
648.557,0.304325,-4.79864,0,1.3939,8.97893,-2.34233,-5.39634,-1.64634,-48.5671,-33.6021,-5.35047,-9.31663,-18.2012,26.9512,48.9634
648.567,0.0500361,-5.18167,0,1.54479,8.98132,-2.36867,-5.21341,-3.78049,-45.2439,-33.6979,-6.23184,-8.59812,-11.7988,31.7683,52.7134
648.577,-0.139913,-5.43441,0,1.7795,8.98851,-2.40699,-6.06707,-6.92073,-42.1341,-34.9146,-7.45809,-7.03657,-6.03659,34.2683,51.311
648.587,-0.246137,-5.59261,0,2.19384,8.93821,-2.51238,-6.76829,-8.9939,-39.2683,-36.3229,-8.29156,-5.92528,-4.81707,33.1707,45.8537
648.597,-0.30326,-5.72704,0,2.43813,9.00288,-2.67763,-8.07927,-10.3354,-37.2561,-37.4725,-8.2245,-5.8199,-4.78659,32.1951,40.061
648.607,-0.351979,-5.8376,0,2.45729,9.11784,-2.70158,-7.83537,-10.6402,-36.372,-38.6508,-7.45809,-5.6762,-4.11585,33.1707,36.9512
648.617,-0.417425,-5.87469,0,2.25371,9.15856,-2.65129,-7.31707,-10.0305,-35.6098,-40.8447,-6.71084,-4.73735,-4.42073,31.9817,35.7622
648.627,-0.514298,-5.9385,0,1.92799,9.31423,-2.56028,-6.06707,-10.4268,-34.6037,-42.3775,-6.17436,-5.44627,-2.53049,32.8659,37.3171
648.637,-0.636486,-6.02509,0,1.55676,9.64714,-2.50759,-5.21341,-11.0976,-32.2256,-44.236,-5.81032,-6.18394,-6.61585,33.7805,35.9756
648.647,-0.777554,-6.18425,0,1.22864,10.2794,-2.74469,-6.06707,-10.7927,-29.6037,-45.376,-5.10139,-7.87003,-10.061,41.3415,34.0854
648.657,-0.928155,-6.45682,0,0.869392,11.0219,-2.88121,-8.93293,-12.2561,-26.1585,-46.1041,-4.73735,-10.4662,-11.9817,56.0061,28.4451
648.667,-1.06598,-6.8304,0,0.63947,11.4721,-3.04167,-14.4207,-17.622,-22.4695,-45.8071,-4.56491,-12.7271,-10.2134,73.3841,25.061
648.677,-1.15213,-7.22448,0,0.730481,11.5464,-3.20693,-21.7378,-24.4817,-18.3537,-44.9449,-5.03433,-13.187,-3.35366,86.9207,20.1829
648.687,-1.15348,-7.49788,0,1.00112,11.3859,-3.36979,-28.3232,-33.3537,-12.7439,-44.1402,-6.43302,-10.7536,3.75,88.1707,15.1829
648.697,-1.04014,-7.58613,0,1.48491,10.9093,-3.51828,-31.5549,-39.878,-6.61585,-44.0732,-7.30481,-7.27607,5.09146,71.1281,10.8841
648.707,-0.76196,-7.67812,0,1.69328,10.6626,-3.65001,-30.6402,-40.9451,-0.0609756,-45.606,-9.04838,-7.70717,4.29878,64.0549,9.45122
648.717,-0.48404,-7.79336,0,1.87291,10.5381,-3.9422,-28.2317,-37.6524,6.21951,-48.2501,-10.8207,-8.72266,1.82927,68.9024,0.0304878
648.727,-0.0969807,-7.88837,0,2.31119,10.6842,-4.00447,-26.7683,-33.5366,13.5976,-50.9612,-10.9836,-8.7993,4.02439,80,-9.35976
648.737,0.436771,-7.8755,0,3.01293,10.871,-3.97573,-27.8049,-32.0732,22.6524,-51.3444,-10.1501,-6.38512,6.98171,95.9146,-17.0122
648.747,1.17137,-7.84286,0,4.10027,10.8063,-3.89191,-30.4878,-32.378,33.4451,-51.0187,-9.32621,-5.84864,15.122,103.323,-21.372
648.757,2.14944,-7.86468,0,5.49657,10.5309,-3.58295,-33.0183,-30.5488,45.9451,-49.5913,-8.25324,-6.79707,29.6646,119.085,-18.75
648.767,3.35047,-7.76736,0,6.70845,10.3321,-3.07281,-37.5,-29.2073,59.6037,-48.2405,-5.50376,-4.01884,40.2744,130.305,-13.0488
648.777,4.73184,-7.50771,0,7.66646,10.0974,-2.22018,-43.5061,-26.4634,71.8598,-47.1292,-3.8943,-0.493374,40.4268,123.415,-7.2561
648.787,6.25022,-7.16648,0,8.0329,9.81958,-1.23104,-48.4146,-19.3293,84.4207,-44.533,-4.51701,1.24062,35.122,98.3232,0.487805
648.797,7.85436,-6.65903,0,7.64251,9.3789,-0.323328,-51.189,-5.88415,96.4939,-45.0695,1.71962,4.71819,25.9756,66.3415,1.70732
648.807,9.55333,-6.09957,0,6.77551,8.35143,0.414338,-48.2622,13.5671,109.695,-43.7474,2.27527,5.90612,25.6707,44.4512,4.78659
648.817,11.2877,-5.46284,0,5.51094,6.66294,-0.220342,-34.7561,36.6768,115.671,-42.4541,4.12422,7.59221,27.1646,32.2866,10.7622
648.827,12.8046,-4.75372,0,3.80808,6.80186,-1.31726,-16.6159,55.8537,118.14,-41.3716,3.7506,9.21125,27.3171,21.7683,18.5061
648.837,14.2324,-4.03175,0,2.69919,6.38991,-1.82021,-1.03659,74.4817,125.091,-42.9235,1.5855,10.2842,20.9451,-0.853659,20.4573
648.847,15.4693,-3.52587,0,1.43222,6.89526,-2.0693,12.3476,89.1463,131.311,-40.1262,0.359253,6.251,34.2683,22.5305,12.2256
648.857,16.5578,-3.0051,0,0.217947,7.8365,-1.46096,21.9207,90.4573,139.39,-41.7164,-1.84417,7.13237,32.1646,15.6402,-1.64634
648.867,17.5053,-2.50686,0,-1.3005,9.50583,-0.732876,19.6037,72.5915,146.372,-41.6973,-3.72186,7.06531,28.5366,8.14024,-19.8476
648.877,18.4299,-2.1289,0,-2.41897,11.5991,-0.502954,15.3049,51.2195,154.116,-41.0267,-4.84273,5.06307,27.2866,-0.457317,-35.9756
648.887,19.4483,-1.78648,0,-2.36867,13.4073,-1.72441,13.3537,43.9024,161.982,-40.0304,-4.67029,4.54575,27.1951,-7.9878,-45.9146
648.897,20.5938,-1.51675,0,-1.43462,14.9689,-3.28836,11.2805,44.6037,167.744,-38.9191,-4.21044,3.37698,27.622,-13.2927,-43.4756
648.907,21.8435,-1.29474,0,0.960403,16.1065,-4.68226,11.4634,36.5549,162.591,-37.2905,-3.53026,2.60099,31.0976,-20.1524,-31.9207
648.917,23.0724,-1.14827,0,3.15424,16.7172,-5.41274,10.8841,14.7561,148.171,-36.2558,-2.94587,1.45138,34.1768,-22.5305,-12.2561
648.927,24.2244,-1.02295,0,4.00447,15.5269,-4.83794,4.42073,-7.16463,135.122,-36.1121,-2.44771,1.19272,36.189,-25.2134,10.6707
648.937,25.2698,-0.936711,0,3.66677,13.6229,-3.18538,3.20122,-17.8049,125.366,-36.4953,-2.04535,0.646655,36.2805,-28.2012,31.25
648.947,26.2321,-0.886558,0,2.8381,12.2194,-1.93039,9.2378,-9.87805,123.079,-36.9935,-1.40348,0.129331,36.128,-26.1585,46.6768
648.957,27.0934,-0.88234,0,1.75315,11.1225,-1.34361,18.2927,10.2134,123.14,-37.1563,-0.866997,-0.579595,32.0427,-22.9573,56.2805
648.967,27.8306,-0.936644,0,0.900527,10.7033,-1.04902,27.561,35.5793,120.701,-37.2234,0.0335303,-1.52802,26.8293,-19.6037,62.5305
648.977,28.4778,-0.996385,0,0.395178,10.8902,-1.22146,34.2073,56.9207,118.598,-37.0414,0.512534,-1.64298,23.5976,-19.0854,62.5
648.987,29.1134,-1.09403,0,0.792751,10.8566,-1.41785,38.4451,75.4573,114.451,-36.5719,0.934058,-2.27527,20.9451,-19.7866,63.0183
648.997,29.7103,-1.16961,0,1.03225,10.4231,-1.35319,39.5427,86.7683,108.78,-35.9684,1.02028,-1.95913,18.9024,-23.2317,59.0244
649.007,30.2725,-1.26513,0,1.38672,9.88664,-1.0586,40.0305,92.1951,101.707,-35.1541,1.08734,-2.28485,17.622,-27.6829,54.6951
649.017,30.796,-1.34556,0,1.60466,9.4723,-0.613125,41.6768,102.744,95.5793,-34.6368,0.742456,-2.08367,15.3354,-29.6037,48.0488
649.027,31.2595,-1.42527,0,1.43462,8.75619,-0.277822,45.7927,109.36,91.1585,-34.0428,0.799937,-2.09325,12.7439,-32.3171,42.9268
649.037,31.6426,-1.55198,0,1.41785,8.29395,-0.112566,50.7927,112.652,83.0793,-33.7458,0.886157,-2.83091,11.0976,-34.4207,39.8171
649.047,31.8613,-1.72343,0,0.869392,7.99937,-0.232317,51.372,112.561,74.2378,-33.2189,1.16398,-3.52068,7.28659,-34.0244,39.3293
649.057,32.0169,-1.91535,0,0.807122,7.71915,-0.716111,51.6463,105.793,68.7195,-33.2668,1.36516,-3.93262,2.53049,-34.7561,41.25
649.067,32.0513,-2.12875,0,0.273032,7.7431,-1.39869,49.3293,91.8293,64.7256,-33.765,1.59508,-4.44037,1.06707,-37.8963,45.6707
649.077,32.016,-2.39091,0,0.0335303,7.77902,-1.71723,46.9817,77.561,61.311,-33.9183,1.47054,-5.33131,-0.945122,-37.1341,49.9695
649.087,31.841,-2.62737,0,-0.411943,7.3551,-1.78908,43.9024,64.5732,54.0244,-34.3685,1.66214,-5.16845,-7.31707,-38.3841,51.0061
649.097,31.4133,-2.90354,0,-1.33163,7.07968,-1.54,41.8598,51.9207,43.0793,-35.1541,1.32684,-6.06898,-13.1098,-39.1463,50.7012
649.107,30.766,-3.23871,0,-2.32077,7.38385,-1.346,40.6402,38.9329,33.6585,-35.3744,0.857417,-7.22817,-18.1098,-36.5549,46.8598
649.117,30.016,-3.58925,0,-2.70158,7.61377,-1.35079,36.9512,27.2561,26.128,-34.9625,0.493374,-7.59221,-20.3963,-32.5305,38.75
649.127,29.0886,-4.00459,0,-3.27878,7.42696,-1.152,34.9085,7.71341,15.2439,-34.3111,-0.186812,-8.68434,-23.5366,-25.4573,26.25
649.137,27.6958,-4.46941,0,-3.1758,7.41019,-1.0586,34.1463,-14.939,3.38415,-33.6596,-0.828677,-9.53697,-22.8049,-15.5183,13.4451
649.147,26.6243,-4.92864,0,-2.8381,7.24014,-0.61073,28.9634,-29.6646,-8.93293,-33.1135,-1.59508,-9.56571,-23.1402,-9.45122,-2.04268
649.157,25.672,-5.37326,0,-1.41306,6.8785,0.713716,21.372,-33.7195,-19.1463,-32.4813,-2.24653,-9.42201,-19.9695,-3.96341,-14.6951
649.167,24.8281,-5.80034,0,-0.395178,6.9719,1.48012,16.0366,-39.7866,-27.1037,-32.2513,-2.90755,-9.34537,-14.9695,-0.335366,-24.3902
649.177,24.0766,-6.21754,0,0.62989,7.32876,1.36756,16.8902,-64.1463,-36.0366,-32.2992,-2.64889,-9.46033,-11.7378,2.13415,-31.7073
649.187,23.5309,-6.59254,0,2.63692,7.24254,0.979563,18.75,-85.8537,-47.378,-32.4813,-2.11241,-9.10586,-10.5488,5.39634,-36.1585
649.197,23.2259,-6.94337,0,4.84512,7.52755,0.711321,17.6829,-87.7744,-49.9695,-33.7075,-1.19272,-9.29747,-14.939,6.37195,-35.9451
649.207,23.0805,-7.24081,0,7.02459,7.87722,-0.479004,16.2805,-85.2744,-52.5915,-35.4798,0.359253,-9.11544,-16.9512,9.26829,-31.25
649.217,22.9479,-7.42563,0,8.02571,8.63405,-2.33993,9.60366,-98.2927,-53.9939,-38.191,1.59508,-8.02332,-22.6829,8.78049,-22.5305
649.227,22.9058,-7.54035,0,8.95737,8.3658,-3.39853,7.28659,-115.945,-53.2927,-41.2853,2.47645,-7.49641,-29.3293,6.34146,-13.4756
649.237,23.0235,-7.60587,0,9.79803,8.15504,-3.93502,5.2439,-128.841,-43.75,-43.9486,2.95545,-7.08447,-35.1524,7.59146,-5.67073
649.247,23.2883,-7.65978,0,10.7608,7.81495,-3.86796,8.71951,-127.927,-36.2195,-45.8071,2.32317,-7.18027,-40.3963,11.8293,-1.64634
649.257,23.6514,-7.70804,0,12.2649,7.92991,-4.12422,19.0854,-115.579,-31.9817,-46.7364,1.73878,-7.23775,-41.7073,15.2439,-0.823171
649.267,24.0867,-7.79739,0,13.4217,8.05685,-4.33259,24.1768,-93.2317,-27.7744,-45.8646,0.416733,-7.97542,-41.7683,20.1524,-2.56098
649.277,24.6199,-7.93239,0,14.3007,7.87961,-4.32301,22.9268,-63.1707,-21.2195,-43.6037,-0.455054,-8.53106,-39.6646,27.561,-2.43902
649.287,25.2504,-8.13457,0,13.9845,7.19464,-3.71707,23.4451,-32.3476,-13.5366,-41.3045,-1.2502,-9.43159,-40.4878,35.4573,-0.121951
649.297,25.921,-8.44488,0,12.9906,6.60307,-3.62127,23.4146,-1.95122,-8.71951,-38.9191,-0.828677,-10.9644,-42.0122,47.8659,2.83537
649.307,26.5065,-8.80752,0,11.2853,6.71563,-3.50152,22.1951,28.5671,-8.2622,-37.8653,0.186812,-11.7883,-46.3415,62.5915,7.5
649.317,26.8468,-9.04431,0,8.8951,7.75986,-3.14466,22.3476,55.5793,-10.9756,-39.2065,1.22146,-10.083,-50.5183,73.6281,13.1707
649.327,26.7982,-9.18961,0,6.62941,10.4016,-2.13875,23.5366,82.3171,-16.5244,-42.8565,2.10283,-9.38369,-55.3049,73.3841,19.1159
649.337,26.3294,-9.40608,0,3.95657,13.0888,-2.63452,24.4817,105.61,-27.4695,-46.6214,2.15073,-11.8362,-54.9085,83.0183,27.3171
649.347,25.5107,-9.59464,0,1.16877,13.4983,-2.17707,19.4817,97.2256,-39.9085,-49.8308,0.790356,-12.1044,-51.5854,103.902,31.311
649.357,24.639,-9.6487,0,0.61552,12.5475,-0.900527,5.94512,64.2073,-42.622,-52.2833,-0.972378,-9.59445,-46.7683,113.415,30.9146
649.367,24.0534,-9.63482,0,2.92432,12.0038,-0.416733,-7.28659,39.2378,-37.4085,-53.27,-2.62973,-8.18618,-37.0427,113.445,32.5
649.377,23.7109,-9.60529,0,5.34808,11.9919,-1.69567,1.12805,49.3293,-34.9085,-54.228,-4.04758,-7.92751,-26.9817,115.579,37.6829
649.387,23.3651,-9.51167,0,5.54447,12.3559,-1.38432,-0.121951,64.6037,-36.2195,-54.0748,-5.18761,-6.30848,-16.7988,118.628,37.5915
649.397,22.9146,-9.32305,0,3.64761,10.6363,-0.673001,6.37195,61.6768,-36.9207,-52.312,-4.85231,-3.82724,-10.061,113.963,35.3659
649.407,22.2508,-8.9662,0,1.39869,9.93933,-1.01309,8.01829,44.2073,-37.3171,-49.3039,-4.50743,0.158071,-9.11585,100.091,32.622
649.417,21.2545,-8.44684,0,-1.24302,9.92257,-1.64777,2.53049,30.3049,-41.6768,-46.5831,-3.80808,3.67396,-13.0488,72.8354,30.061
649.427,19.9995,-7.76179,0,-3.38895,9.92736,-1.07536,0.762195,15.9451,-46.2195,-45.1174,-3.07042,7.18027,-21.8598,38.4451,26.0976
649.437,18.649,-7.00524,0,-4.43797,10.4279,-1.72202,-0.579268,-5.73171,-49.939,-44.4085,-3.04167,8.943,-38.9024,8.68902,15.3659
649.447,17.3186,-6.24281,0,-4.31104,10.8662,-2.84528,-12.2256,-32.8659,-53.5366,-43.5558,-2.06451,9.40285,-57.9573,-13.3537,6.31098
649.457,16.0298,-5.52373,0,-3.43925,10.5261,-3.29315,-19.1159,-52.1341,-59.2378,-42.3487,-1.04902,8.82804,-78.0183,-28.3841,1.40244
649.467,14.7976,-4.67095,0,-2.68961,10.7177,-3.8464,-21.189,-63.2012,-64.2683,-41.7452,1.87291,11.7979,-110.152,-46.4329,5.91463
649.477,13.7353,-4.10971,0,-0.993933,10.2124,-4.53617,-27.439,-63.7195,-66.8598,-41.0363,2.07409,6.72042,-115.152,-40.6707,16.8293
649.487,12.9891,-3.68239,0,1.6837,9.27112,-4.76609,-30,-52.7439,-69.1159,-38.7849,2.58183,4.42121,-130.823,-35.9451,29.1159
649.497,12.2653,-3.32236,0,2.17468,9.3789,-4.68226,-27.5,-38.75,-73.9939,-38.9286,1.97829,3.56858,-138.811,-34.6951,32.9878
649.507,11.6499,-3.04046,0,2.72553,8.52866,-4.12662,-22.1037,-31.7988,-73.9329,-39.3693,1.11608,2.49561,-146.159,-34.1463,29.2988
649.517,11.1345,-2.87159,0,3.28597,8.19815,-3.79132,-15.3659,-23.628,-73.3841,-39.3119,-0.263452,0.723296,-149.909,-34.3598,15.4268
649.527,10.667,-2.8062,0,3.5566,8.0329,-3.20454,-9.29878,-8.04878,-73.7195,-38.7945,-1.88249,-0.943638,-148.445,-34.9695,-2.86585
649.537,10.1544,-2.83582,0,3.08239,7.95146,-2.77822,-2.37805,1.70732,-73.7805,-37.894,-3.61648,-2.46687,-143.811,-34.4207,-21.9512
649.547,9.57361,-2.88314,0,2.67763,8.31551,-2.58902,-0.182927,8.59756,-74.9695,-37.3863,-5.07265,-2.74469,-137.348,-33.9634,-38.2317
649.557,8.82358,-2.94021,0,1.35558,8.49992,-2.29682,-1.21951,6.95122,-75.4878,-37.1084,-6.77791,-2.92671,-130.884,-37.439,-54.2378
649.567,7.99343,-3.00716,0,0.58678,8.66997,-2.22737,-1.43293,0,-74.6037,-36.7923,-8.14786,-3.10874,-121.89,-40.122,-64.5427
649.577,7.1681,-3.0929,0,0.397573,9.03162,-2.24653,-0.27439,-8.9939,-73.0488,-36.7252,-9.0388,-3.44404,-112.713,-37.4085,-75.3049
649.587,6.42559,-3.18939,0,0.881367,9.26633,-2.35909,-0.97561,-17.4695,-72.2256,-35.9588,-9.02922,-3.6069,-106.494,-40.0915,-81.189
649.597,5.76195,-3.31369,0,1.30529,9.15856,-2.46927,-3.87195,-22.9268,-71.1585,-35.7002,-8.71308,-4.09548,-101.22,-43.6585,-81.6463
649.607,5.14366,-3.44541,0,1.41306,9.04599,-2.2609,-6.4939,-28.1402,-69.4512,-34.838,-8.2245,-4.20086,-92.8049,-47.622,-78.6585
649.617,4.53071,-3.61458,0,1.26218,8.80888,-2.19623,-7.43902,-33.2012,-68.689,-33.7171,-7.10363,-4.71819,-83.3841,-50.2439,-71.6159
649.627,3.9363,-3.77118,0,1.10889,8.78014,-2.16989,-6.85976,-37.4695,-66.0976,-33.4776,-6.2989,-4.60323,-71.25,-52.5305,-59.8476
649.637,3.37069,-3.93249,0,1.02267,8.86636,-2.24653,-6.82927,-40.4573,-63.1098,-33.3722,-6.17436,-4.75651,-63.1098,-53.9329,-50.9756
649.647,2.8316,-4.07079,0,0.998723,8.94779,-2.39023,-8.32317,-43.2317,-61.128,-33.1231,-5.68578,-4.47869,-54.6341,-55.6707,-44.1768
649.657,2.32651,-4.21843,0,1.13763,8.94779,-2.37825,-10.3049,-45.5793,-60.5488,-33.0848,-5.61872,-4.69903,-48.4451,-57.5,-39.3598
649.667,1.83774,-4.37484,0,1.20709,8.9909,-2.27766,-11.9512,-47.5,-60.7317,-33.1902,-5.42711,-4.93853,-41.0671,-59.6341,-35.3963
649.677,1.34807,-4.5502,0,1.11847,8.88792,-2.28485,-14.0244,-47.8963,-60.8537,-33.3147,-5.21635,-5.33131,-35,-58.3232,-34.3902
649.687,0.894811,-4.74384,0,1.45617,9.01485,-2.22976,-15.5183,-46.0366,-62.2256,-32.9411,-4.31582,-5.64746,-29.8476,-58.2317,-30
649.697,0.422749,-4.9509,0,1.26697,9.00767,-2.44292,-14.6341,-45.8232,-62.6829,-32.7495,-4.14338,-5.9157,-26.7073,-53.8415,-25.4573
649.707,-0.076415,-5.19765,0,1.30289,9.32142,-2.49082,-14.3598,-44.0244,-66.311,-32.1651,-3.76976,-6.50008,-24.939,-49.0549,-20.7622
649.717,-0.570309,-5.47342,0,1.61664,9.53936,-2.70637,-12.8963,-42.561,-70.1829,-31.8777,-3.559,-6.98867,-26.4329,-41.2195,-14.6646
649.727,-1.0623,-5.77201,0,1.43941,8.91187,-2.54591,-13.628,-38.5366,-70.0915,-31.8969,-3.4632,-7.47725,-28.9329,-36.2805,-6.37195
649.737,-1.51019,-6.10056,0,2.05972,9.2328,-2.48843,-15.9146,-34.1768,-73.5366,-32.213,-3.71228,-8.15744,-32.0427,-28.628,-1.92073
649.747,-1.96001,-6.41397,0,1.80345,8.4616,-1.99026,-17.9268,-30.3659,-73.5366,-32.8932,-4.70861,-8.28198,-37.2256,-23.7195,0.609756
649.757,-2.31655,-6.76364,0,2.22497,8.29156,-1.96392,-16.0976,-26.8293,-71.0366,-33.0848,-4.74693,-9.07712,-39.939,-19.8171,3.84146
649.767,-2.63344,-7.1099,0,2.27287,8.37538,-2.11241,-13.2012,-21.4329,-68.0488,-33.4872,-5.40795,-9.34537,-40.7012,-17.2866,9.05488
649.777,-2.92855,-7.43607,0,2.24413,8.49992,-2.35191,-11.2805,-14.0549,-65.6707,-34.1578,-6.07856,-9.43159,-38.0793,-18.0488,11.4634
649.787,-3.19166,-7.74132,0,2.33993,8.69392,-2.46687,-10.122,-7.56098,-63.5671,-34.3398,-6.70126,-9.35495,-35.122,-19.0549,15.9146
649.797,-3.42257,-8.05394,0,2.32317,8.93582,-2.51956,-9.96951,-3.93293,-59.8171,-34.4356,-6.87371,-9.70941,-32.2256,-22.3171,20.8841
649.807,-3.6083,-8.36038,0,2.38065,8.99569,-2.77583,-10.2439,-3.01829,-56.189,-34.426,-7.21859,-9.81479,-25.2439,-24.3598,30.7317
649.817,-3.77488,-8.6272,0,2.2609,9.06994,-2.92671,-10.3963,-4.39024,-52.9268,-34.2152,-7.32397,-9.30705,-16.0061,-23.9939,40.4268
649.827,-3.93508,-8.77653,0,2.14833,9.21843,-2.84768,-10.0305,-6.58537,-50.8232,-34.9338,-7.91793,-7.75507,-10.6402,-23.9024,48.628
649.837,-4.05683,-8.82913,0,2.32317,9.29747,-2.87163,-8.04878,-6.64634,-49.0854,-36.2845,-8.56938,-6.54798,-9.5122,-25.2134,53.3232
649.847,-4.13652,-8.81949,0,2.56986,9.3789,-3.08239,-7.77439,-5.64024,-47.6829,-37.7982,-8.83762,-5.78158,-9.78659,-22.378,51.9207
649.857,-4.19532,-8.80219,0,2.55549,9.4268,-3.03928,-9.08537,-3.81098,-45.3963,-39.5609,-8.71308,-5.89654,-9.20732,-19.1463,45.3659
649.867,-4.24559,-8.81109,0,2.37586,9.48907,-2.91953,-10.0305,-2.62195,-42.378,-40.8734,-7.95625,-6.5384,-4.02439,-12.439,42.2256
649.877,-4.29973,-8.81774,0,2.09564,9.81719,-2.81894,-11.2195,-3.07927,-38.7805,-41.9081,-6.95993,-6.6342,2.46951,-3.35366,39.7256
649.887,-4.35054,-8.86082,0,1.71004,10.1669,-2.73032,-12.561,-6.15854,-33.4451,-43.8432,-6.31806,-7.62095,4.81707,9.08537,38.0793
649.897,-4.36117,-9.06336,0,1.64059,10.6315,-2.89318,-15.3354,-9.08537,-27.8659,-44.6192,-6.0594,-10.9836,4.54268,29.5427,33.4451
649.907,-4.31869,-9.37947,0,1.54718,10.7896,-3.2213,-19.1159,-13.2927,-21.2195,-44.1498,-6.31806,-13.3019,6.61585,56.3415,24.1768
649.917,-4.21218,-9.81125,0,1.53521,10.7632,-3.48475,-23.75,-19.4207,-14.5122,-42.7798,-6.56714,-15.4766,11.5854,79.6646,15.0305
649.927,-4.02123,-10.2577,0,1.70765,10.8087,-3.80329,-29.6341,-27.2561,-7.43902,-41.2662,-7.34313,-15.5149,18.5671,97.1341,7.16463
649.937,-3.6484,-10.3317,0,2.07648,10.7153,-3.92544,-35.9756,-35.8841,0.365854,-42.9235,-8.6077,-8.87594,21.5244,89.3293,-0.182927
649.947,-3.23085,-10.2471,0,2.47885,10.3441,-4.04998,-38.4756,-42.5915,7.65244,-45.5868,-9.92017,-6.31806,16.2195,61.4634,-5.57927
649.957,-2.63681,-10.3092,0,3.44404,9.86748,-4.16015,-37.4085,-39.6341,14.7561,-46.3149,-11.2422,-9.44117,9.87805,59.7561,-8.23171
649.967,-1.99904,-10.4019,0,3.4129,10.3369,-4.09069,-33.5671,-38.5061,22.4085,-47.1963,-10.1597,-10.2459,5.12195,81.0366,-9.14634
649.977,-1.2208,-10.4253,0,4.10506,10.5525,-3.87754,-33.1707,-35.5793,31.9512,-47.9339,-7.91793,-8.87594,5.2439,101.22,-7.22561
649.987,-0.25355,-10.3651,0,5.3385,10.7512,-3.53505,-33.7805,-33.4146,42.3171,-48.4512,-6.24142,-7.11321,8.44512,111.921,-6.43293
649.997,0.935288,-10.2019,0,7.0198,11.1823,-3.23088,-36.6768,-25.8841,55.2439,-48.3746,-3.83682,-4.82357,13.5976,111.067,-4.20732
650.007,2.34597,-9.91827,0,8.43047,10.4471,-2.58183,-42.1341,-15.9146,66.4634,-48.2884,-1.27894,-2.12199,13.3537,105.671,-0.487805
650.017,3.91515,-9.52805,0,9.09868,9.72857,-1.35558,-49.5122,-5.70122,76.9817,-47.1484,-0.579595,0.320933,7.56098,91.7988,6.31098
650.027,5.54316,-9.01796,0,8.20294,9.35016,0.419128,-52.7439,5.45732,89.9085,-48.5662,1.35558,3.1279,-3.44512,67.0732,9.45122
650.037,7.19564,-8.40194,0,6.62702,8.55501,1.19751,-49.5122,22.8049,102.866,-48.7386,2.20821,5.78158,-10.4573,45.8537,7.95732
650.047,8.75616,-7.72976,0,4.07872,7.77663,1.07057,-38.75,36.372,117.439,-47.5699,3.07042,7.27607,-17.1341,25.0305,3.29268
650.057,10.1627,-7.00817,0,1.9711,6.8282,-0.330513,-23.2927,48.4756,128.537,-45.9125,3.80808,8.53106,-18.9329,6.89024,1.21951
650.067,11.4018,-6.28391,0,0.759221,6.27974,-1.74357,-7.34756,66.7988,133.11,-44.6767,2.58183,8.87594,-15.3354,-8.9939,-3.35366
650.077,12.3553,-5.80257,0,-0.821492,6.57672,-3.02491,7.53049,82.1341,135.091,-39.9537,-1.87291,4.06674,-11.128,-11.9817,-17.1037
650.087,13.1151,-5.20002,0,-2.52196,7.83171,-3.40811,15.1829,84.2378,139.177,-42.1859,-1.31726,6.95993,2.86585,-9.08537,-33.7805
650.097,13.9016,-4.60833,0,-3.36979,9.91299,-2.96503,17.1341,70.6707,145.335,-41.5536,-3.37698,7.08447,9.45122,-13.4146,-52.1951
650.107,14.7607,-4.11841,0,-3.73384,11.9871,-2.55788,12.1341,48.3232,151.341,-40.0591,-4.038,5.38879,13.1402,-20.5488,-64.2988
650.117,15.7864,-3.74329,0,-2.80457,14.1953,-2.45969,8.84146,23.9634,157.591,-39.1777,-4.21044,3.58774,18.1707,-24.6646,-64.7866
650.127,17.0235,-3.44891,0,-0.129331,15.7496,-3.25723,3.75,9.81707,159.421,-38.8137,-3.85598,2.41897,20.3963,-25.122,-55.9146
650.137,18.3093,-3.22834,0,2.53872,16.9256,-3.37698,8.87195,-2.62195,148.537,-38.9861,-3.3195,1.36516,20.5183,-23.3537,-37.8659
650.147,19.5011,-3.08951,0,3.71468,16.3963,-4.05237,16.8293,-12.378,132.927,-39.1969,-2.85965,0.110171,21.6463,-23.5366,-15.9451
650.157,20.5376,-2.9929,0,3.365,14.6958,-3.63803,19.4512,-14.3293,119.238,-39.4651,-2.42855,-0.522114,20.2134,-21.8293,4.66463
650.167,21.4779,-2.9305,0,2.92432,12.9786,-2.33754,21.7988,-6.76829,111.951,-39.6184,-1.71004,-1.0586,19.0549,-22.9268,24.4817
650.177,22.324,-2.92588,0,2.10522,11.6877,-1.17835,25.5793,6.15854,109.329,-39.0819,-1.46096,-1.99745,14.1159,-22.5915,39.939
650.187,23.1618,-2.95244,0,1.97829,11.1009,-0.55804,29.0854,28.2622,110.427,-38.9191,-0.646655,-2.52435,11.0671,-23.1402,47.2256
650.197,23.958,-3.04839,0,1.59269,10.8063,-0.170046,34.0244,52.7744,111.402,-37.9706,-0.435894,-3.63564,11.5549,-18.9939,50.9756
650.207,24.6245,-3.13059,0,0.845442,10.7273,-0.0910107,38.9024,68.811,107.713,-37.4821,0.665815,-3.4153,9.02439,-16.5854,50.6707
650.217,25.2589,-3.24295,0,1.40588,10.9141,-0.399968,41.7988,87.0122,100,-36.7444,1.07776,-3.88472,9.66463,-13.5366,48.9024
650.227,25.7889,-3.35457,0,1.28373,10.7728,-0.670605,43.9939,96.7073,91.7683,-36.0834,1.6334,-3.86556,11.128,-10.7317,46.7073
650.237,26.2186,-3.44109,0,1.16877,10.1573,-0.56762,42.9878,105.061,83.0793,-35.796,1.69088,-3.50152,10.1829,-9.57317,45.5183
650.247,26.5184,-3.47845,0,0.641865,9.15376,-0.0981958,44.8476,109.726,75.9146,-35.8151,1.45138,-2.78301,3.5061,-11.8598,42.9878
650.257,26.7547,-3.51792,0,0.732876,8.62446,0.198787,50.4268,115.457,68.3232,-35.384,0.895737,-2.81175,-3.56707,-13.7805,38.1402
650.267,26.9658,-3.55505,0,0.778381,8.57417,0.0838257,56.0671,123.354,65.5488,-34.7134,0.809517,-2.75427,-11.5854,-16.372,34.5732
650.277,27.197,-3.617,0,1.29092,8.69871,-0.0311353,59.7561,129.604,61.4024,-33.9278,1.27894,-3.09916,-17.2561,-20.1524,33.1707
650.287,27.3862,-3.7008,0,1.37235,8.07361,-0.332908,61.3415,127.47,55.122,-33.468,1.70046,-3.42488,-22.8963,-22.1646,35.3354
650.297,27.4782,-3.80305,0,0.938848,7.72154,-0.684976,62.4695,117.439,51.128,-33.2572,2.04535,-3.73144,-25.3049,-24.0244,38.689
650.307,27.5187,-3.9346,0,0.670605,7.64011,-1.54479,64.0854,99.8781,49.9695,-33.3147,2.20821,-4.23918,-28.9939,-25.6098,45.7927
650.317,27.463,-4.06405,0,0.165256,7.94188,-2.23695,57.4085,79.0549,48.0488,-33.4201,1.83458,-4.29667,-31.25,-24.7866,51.5854
650.327,27.2774,-4.22167,0,-0.5772,8.15983,-2.30401,46.25,59.4512,45.3659,-33.765,0.761616,-4.84273,-31.1585,-23.75,51.9817
650.337,26.9362,-4.41822,0,-1.33163,8.04727,-1.87051,38.1402,45.2134,40.0305,-33.8608,0.617915,-5.5325,-31.2195,-19.0549,47.4085
650.347,26.4498,-4.65534,0,-1.83698,7.96823,-1.47294,31.5244,29.7256,31.8293,-33.8129,-0.263452,-6.251,-30.9756,-13.75,41.4939
650.357,25.8789,-4.9312,0,-2.04056,7.95386,-1.23583,24.6341,9.17683,25.0915,-33.9374,-0.522114,-6.99825,-29.8476,-6.09756,33.1707
650.367,25.3034,-5.20186,0,-1.87051,7.62335,-0.907712,19.7866,-11.0976,22.2256,-34.0524,-1.1065,-7.09405,-25.7012,-0.396341,22.8659
650.377,24.743,-5.50374,0,-1.65735,7.30241,-0.60115,17.2561,-29.8171,20.5488,-33.832,-1.41306,-7.68801,-21.2195,4.57317,14.4817
650.387,24.1671,-5.7966,0,-1.57832,7.64251,-0.543669,14.3598,-54.2378,15.5488,-33.9278,-1.71004,-7.74549,-14.6951,7.92683,7.89634
650.397,23.5581,-6.08469,0,-1.52563,7.7407,-0.282612,13.3537,-79.3293,9.96951,-34.0428,-2.16031,-7.87003,-10.5793,11.0671,1.37195
650.407,22.5842,-6.369,0,-1.20948,7.31439,0.00718506,13.2622,-95.4878,3.71951,-34.8763,-2.88839,-8.1766,-6.25,14.0854,-5.88415
650.417,21.3247,-6.66409,0,0.795146,7.10602,0.452659,13.7195,-94.0549,2.2561,-35.4415,-2.96503,-8.66518,-3.07927,16.5549,-14.6037
650.427,20.9208,-6.94759,0,1.87051,7.09884,0.55804,18.2317,-88.9024,-2.5,-35.6618,-2.89797,-8.71308,-2.59146,18.8415,-22.1341
650.437,20.9581,-7.20792,0,3.69312,7.09405,0.308958,22.2561,-78.75,-9.63415,-36.0929,-2.16989,-8.61728,-3.81098,18.9024,-27.3476
650.447,21.0421,-7.49438,0,5.21156,8.01134,0.107776,22.4695,-65.2134,-16.0976,-36.2654,-0.924478,-9.27831,-5.39634,18.3537,-31.311
650.457,21.1157,-7.732,0,6.0594,8.23887,-0.845442,17.439,-68.9939,-23.689,-36.5049,0.512534,-8.7035,-11.372,17.1341,-32.1951
650.467,21.1791,-7.94954,0,6.42823,8.16702,-1.9232,12.5305,-90.7927,-28.4146,-36.4761,2.50519,-8.52148,-16.7988,15.3049,-29.5122
