time,angle1,angle2,intgangle,accX1,accY1,accZ1,gyroX1,gyroY1,gyroZ1,accX2,accY2,accZ2,gyroX2,gyroY2,gyroZ2
607.768,87.5618,4.49674,0,9.81479,0.347278,-0.55325,-0.0609756,0.609756,-1.7378,-38.9382,-1.7771,3.4632,-15.3659,-1.21951,5.39634
607.778,87.5562,4.50889,0,9.78844,0.344883,-0.598755,-0.365854,0.823171,-1.7378,-39.0819,-2.08367,3.28118,-14.5427,-0.884146,4.5122
607.788,87.5515,4.49615,0,9.78366,0.335303,-0.565225,-0.335366,0.518293,-1.79878,-39.0532,-2.22737,2.85965,-15.2439,0.152439,5.57927
607.798,87.5473,4.48668,0,9.76449,0.335303,-0.63947,-0.304878,0.457317,-1.76829,-38.9861,-2.14115,2.89797,-15.2744,-1.18902,5.18293
607.808,87.5452,4.48523,0,9.77647,0.330513,-0.560435,-0.243902,0.640244,-1.67683,-39.3693,-1.94955,3.06083,-15.122,-0.884146,4.81707
607.818,87.5386,4.48928,0,9.79084,0.364043,-0.534089,-0.27439,0.182927,-1.61585,-39.2735,-1.96871,3.14706,-15.3659,-1.21951,6.03659
607.828,87.5373,4.5044,0,9.78605,0.335303,-0.56283,-0.426829,0.27439,-1.58537,-39.0819,-2.20821,3.32908,-14.4512,-0.487805,5.60976
607.838,87.5352,4.49535,0,9.77407,0.344883,-0.555645,-0.182927,0,-1.52439,-39.1969,-2.05493,2.92671,-15.3049,-1.12805,5.4878
607.848,87.5266,4.50621,0,9.78844,0.364043,-0.5772,0.0304878,0.27439,-1.79878,-39.1873,-1.85375,3.26202,-15.7622,-2.2561,5.36585
607.858,87.5241,4.51194,0,9.79084,0.352068,-0.55804,-0.213415,0.27439,-1.4939,-39.0532,-2.00703,3.1758,-15.2744,-0.396341,5.85366
607.868,87.5254,4.49534,0,9.78126,0.337698,-0.526904,0,0.27439,-1.40244,-38.967,-1.91123,2.78301,-15.7012,-1.52439,5.88415
607.878,87.5213,4.49434,0,9.78605,0.356858,-0.560435,0.0609756,0.0609756,-1.55488,-39.1107,-1.93039,3.05125,-13.9634,-1.82927,6.40244
607.888,87.5133,4.49915,0,9.75731,0.366438,-0.548459,-0.0609756,0.121951,-1.7378,-39.1681,-2.06451,3.15664,-14.5427,-1.67683,5.91463
607.898,87.5141,4.49699,0,9.77647,0.340093,-0.517324,-0.0304878,0.152439,-1.43293,-39.0723,-1.93039,3.03209,-14.3293,-1.46341,5.12195
607.908,87.5158,4.48517,0,9.78605,0.349673,-0.543669,-0.121951,0.0304878,-1.25,-39.2256,-1.825,2.86923,-15.3659,-2.9878,4.39024
607.918,87.5153,4.47951,0,9.76449,0.347278,-0.560435,0.213415,-0.304878,-1.43293,-39.2544,-1.96871,2.97461,-15.0915,-1.79878,4.60366
607.928,87.5161,4.47593,0,9.8076,0.344883,-0.517324,-0.0914634,-0.365854,-1.37195,-39.3981,-1.86333,3.01293,-15.2744,-3.20122,5.06098
607.938,87.5261,4.46616,0,9.81479,0.318538,-0.548459,0.0914634,-0.487805,-1.09756,-39.3502,-2.06451,2.89797,-15.5488,-3.5061,4.90854
607.948,87.5264,4.45275,0,9.81,0.330513,-0.56283,0.0914634,-0.396341,-1.55488,-39.2735,-2.08367,2.82133,-16.0366,-3.75,3.81098
607.958,87.5305,4.44691,0,9.78366,0.320933,-0.55325,0.213415,-0.548781,-1.40244,-39.0244,-1.99745,2.92671,-15.5183,-3.29268,4.90854
607.968,87.5378,4.43614,0,9.77647,0.313748,-0.608335,0.243902,-0.457317,-1.28049,-39.0532,-2.03577,2.84049,-15.2134,-3.01829,4.02439
607.978,87.5428,4.42853,0,9.77647,0.282612,-0.565225,-0.27439,-0.396341,-1.7378,-39.0436,-2.02619,2.88839,-15.7012,-2.62195,4.14634
607.988,87.5458,4.42595,0,9.80521,0.311353,-0.541274,-0.304878,-0.335366,-1.55488,-38.9286,-1.96871,2.96503,-16.1585,-1.58537,3.32317
607.998,87.5538,4.41408,0,9.77168,0.289797,-0.512534,-0.213415,-0.548781,-1.46341,-39.0436,-2.04535,2.81175,-15.1524,-1.40244,3.38415
608.008,87.5623,4.40344,0,9.80281,0.273032,-0.531694,-0.0914634,-0.548781,-1.58537,-39.264,-2.00703,2.84049,-14.8476,-1.58537,3.90244
608.018,87.5653,4.38713,0,9.76689,0.296982,-0.56283,0,-0.426829,-1.67683,-39.1107,-1.99745,2.72553,-15.3963,-1.03659,4.87805
608.028,87.5668,4.38075,0,9.77647,0.318538,-0.613125,0.335366,-0.426829,-1.52439,-39.2831,-1.86333,2.89797,-14.6646,-1.37195,4.35976
608.038,87.5758,4.36829,0,9.79323,0.304167,-0.565225,0.426829,-0.0609756,-1.21951,-39.216,-1.94955,2.78301,-15.2744,-1.40244,3.68902
608.048,87.5731,4.36468,0,9.80281,0.340093,-0.550855,0.182927,-0.304878,-1.55488,-39.3119,-2.13157,2.93629,-15.0305,-1.09756,3.44512
608.058,87.5754,4.34938,0,9.78844,0.320933,-0.58199,0,-0.518293,-1.43293,-39.3885,-2.01661,2.73511,-15.9756,-1.25,4.02439
608.068,87.5687,4.34442,0,9.78126,0.344883,-0.574805,-0.243902,-0.518293,-1.79878,-39.2927,-2.08367,2.89797,-16.4634,-1.18902,4.81707
608.078,87.5673,4.34036,0,9.75731,0.332908,-0.55804,-0.0304878,-0.792683,-1.55488,-39.264,-2.09325,2.90755,-15.5488,-1.37195,3.38415
608.088,87.5676,4.33775,0,9.78126,0.323328,-0.574805,-0.121951,-0.853659,-1.55488,-39.3598,-2.18905,2.93629,-14.7561,-1.64634,4.2378
608.098,87.5674,4.32627,0,9.78605,0.325723,-0.60594,-0.304878,-0.518293,-1.55488,-39.1011,-2.13157,2.76385,-15.0915,-0.914634,4.81707
608.108,87.5662,4.33485,0,9.78366,0.344883,-0.555645,-0.304878,-0.609756,-1.40244,-39.1777,-1.94955,3.10874,-14.8171,-1.25,4.87805
608.118,87.5601,4.33903,0,9.78844,0.364043,-0.61552,-0.365854,-0.457317,-1.52439,-39.1873,-2.29443,3.03209,-14.9695,-3.20122,4.11585
608.128,87.5583,4.35232,0,9.80281,0.347278,-0.58678,-0.27439,-0.27439,-1.43293,-39.0723,-2.22737,3.18538,-15.2134,-2.83537,4.5122
608.138,87.5596,4.34964,0,9.78366,0.318538,-0.617915,-0.213415,-0.518293,-1.55488,-39.1777,-2.01661,2.92671,-15.3963,-2.46951,4.63415
608.148,87.5619,4.3582,0,9.78844,0.323328,-0.579595,-0.426829,-0.487805,-1.43293,-38.9286,-2.12199,3.09916,-14.878,-2.86585,4.14634
608.158,87.5591,4.36407,0,9.80042,0.342488,-0.57241,-0.365854,-0.548781,-1.55488,-39.0723,-2.07409,3.07042,-15.122,-2.62195,4.57317
608.168,87.5606,4.36934,0,9.77168,0.330513,-0.593965,-0.182927,-0.853659,-1.40244,-39.0149,-2.06451,3.06083,-14.6646,-2.31707,4.29878
608.178,87.557,4.35708,0,9.75731,0.344883,-0.56762,-0.426829,-0.609756,-1.58537,-39.0053,-1.97829,2.76385,-16.8598,-1.34146,4.7561
608.188,87.5611,4.37122,0,9.78605,0.313748,-0.58678,-0.182927,-0.426829,-1.43293,-39.0053,-2.03577,3.21412,-16.0366,-0.701219,5.12195
608.198,87.5628,4.36685,0,9.78844,0.318538,-0.589175,-0.335366,-0.457317,-1.52439,-39.1107,-2.14115,2.90755,-14.9695,-1.85976,4.35976
608.208,87.5607,4.34038,0,9.77168,0.335303,-0.57241,0.0304878,-0.335366,-1.58537,-39.1107,-2.23695,2.52435,-15.6707,-1.12805,3.32317
608.218,87.5661,4.34077,0,9.8124,0.316143,-0.58678,-0.182927,-0.27439,-1.31098,-39.1011,-2.19863,2.96503,-15.3049,-2.77439,4.29878
608.228,87.5662,4.34397,0,9.79563,0.344883,-0.608335,-0.365854,-0.243902,-1.31098,-39.0915,-2.11241,3.01293,-16.128,-2.89634,3.65854
608.238,87.5633,4.35352,0,9.78366,0.342488,-0.60115,-0.304878,-0.457317,-1.55488,-39.3598,-2.08367,3.14706,-14.7561,-2.7439,4.7561
608.248,87.5672,4.34534,0,9.80281,0.316143,-0.5772,-0.243902,-0.426829,-1.40244,-39.1969,-2.15073,2.83091,-14.2683,-3.2622,4.60366
608.258,87.5748,4.34845,0,9.82916,0.296982,-0.60594,0.0304878,-0.0609756,-1.37195,-39.0723,-2.04535,3.01293,-15.7927,-2.89634,4.42073
608.268,87.5743,4.35441,0,9.79563,0.318538,-0.622705,-0.0304878,-0.0304878,-1.64634,-39.0628,-2.04535,3.06083,-15.7012,-3.75,4.90854
608.278,87.5747,4.35509,0,9.80042,0.313748,-0.574805,0.0914634,-0.335366,-1.64634,-39.0915,-2.16031,2.97461,-15.8232,-4.05488,4.84756
608.288,87.5765,4.35795,0,9.78366,0.325723,-0.63468,0.0609756,-0.152439,-1.40244,-39.1681,-2.07409,3.02251,-15.6402,-2.9878,4.72561
608.298,87.5825,4.34438,0,9.82197,0.301772,-0.589175,0.182927,0.0609756,-1.40244,-39.1011,-2.22737,2.73511,-16.128,-2.80488,5.12195
608.308,87.5823,4.33152,0,9.79323,0.320933,-0.55804,0.0609756,-0.152439,-1.58537,-39.1681,-2.16031,2.74469,-15.2134,-2.2561,4.45122
608.318,87.5794,4.31357,0,9.80281,0.342488,-0.60115,0,0.27439,-1.52439,-39.1873,-2.07409,2.64889,-16.3415,-2.2561,4.93902
608.328,87.5817,4.30973,0,9.8124,0.308958,-0.541274,0.0609756,0.365854,-1.55488,-39.1394,-2.00703,2.87881,-16.0061,-2.04268,4.5122
608.338,87.5808,4.31449,0,9.77407,0.304167,-0.613125,-0.0304878,0.243902,-1.82927,-39.2735,-1.99745,3.03209,-15.061,-3.04878,4.81707
608.348,87.581,4.31388,0,9.78605,0.318538,-0.60115,0.0914634,0.152439,-1.58537,-39.1107,-1.89207,2.92671,-15.8232,-3.96341,5.67073
608.358,87.5786,4.31961,0,9.78844,0.313748,-0.570015,0.0609756,0.243902,-1.82927,-39.0436,-2.17947,3.03209,-16.6463,-3.59756,5.94512
608.368,87.5826,4.32132,0,9.79563,0.318538,-0.574805,-0.0304878,0.152439,-1.34146,-39.2448,-2.14115,2.98419,-14.939,-2.89634,4.87805
608.378,87.5821,4.31425,0,9.79323,0.335303,-0.58199,0.304878,0.243902,-1.43293,-39.1203,-2.16031,2.82133,-15.3354,-3.59756,5.39634
608.388,87.5841,4.2984,0,9.80042,0.296982,-0.593965,0.121951,0.213415,-1.70732,-39.1681,-2.14115,2.66805,-15.9146,-3.47561,4.08537
608.398,87.5782,4.30029,0,9.78366,0.335303,-0.59636,0.121951,0.121951,-1.82927,-39.1681,-2.17947,2.96503,-15.8232,-3.44512,4.17683
608.408,87.5802,4.29388,0,9.80281,0.311353,-0.56283,0,0.0304878,-1.55488,-39.2544,-2.09325,2.83091,-15.5488,-2.7439,4.90854
608.418,87.5792,4.27544,0,9.77168,0.318538,-0.55325,0,0.243902,-1.67683,-39.264,-2.07409,2.62015,-14.6037,-2.13415,4.39024
608.428,87.5769,4.26038,0,9.77407,0.320933,-0.57241,-0.243902,-0.0914634,-1.7378,-39.1298,-2.02619,2.65847,-16.311,-1.70732,4.35976
608.438,87.5845,4.26152,0,9.78366,0.277822,-0.608335,0,0.243902,-1.55488,-39.2065,-2.17947,2.93629,-15.5793,-1.21951,5.15244
608.448,87.5869,4.26597,0,9.76928,0.299377,-0.5772,0,0.213415,-1.64634,-39.0915,-2.22737,2.98419,-16.372,-1.70732,4.72561
608.458,87.587,4.26392,0,9.8124,0.318538,-0.55325,0.182927,0.213415,-1.58537,-39.0915,-1.94955,2.86923,-16.8598,-3.32317,5.39634
608.468,87.5847,4.25831,0,9.78605,0.347278,-0.598755,-0.0304878,0,-1.40244,-39.2065,-1.94955,2.81175,-16.6463,-4.08537,4.32927
608.478,87.5762,4.25423,0,9.78844,0.366438,-0.62989,0,-0.0914634,-1.64634,-39.0244,-2.04535,2.82133,-15.3963,-4.05488,5
608.488,87.5804,4.25072,0,9.76449,0.325723,-0.579595,0.27439,-0.152439,-1.25,-38.9382,-2.10283,2.82133,-13.872,-4.29878,4.29878
608.498,87.5808,4.25925,0,9.75491,0.306563,-0.593965,-0.0914634,-0.152439,-1.70732,-39.2256,-2.22737,3.05125,-15.3049,-3.68902,4.08537
608.508,87.5795,4.24664,0,9.78126,0.328118,-0.565225,-0.0304878,-0.487805,-1.58537,-39.1873,-2.16031,2.68721,-15.0915,-3.62805,4.57317
608.518,87.5779,4.22904,0,9.79803,0.311353,-0.57241,0.0304878,-0.304878,-1.79878,-39.331,-2.14115,2.60099,-15.0915,-3.78049,5.03049
608.528,87.5776,4.24511,0,9.81479,0.328118,-0.56283,0.0914634,-0.457317,-1.52439,-39.4364,-2.16989,3.18538,-15.3049,-3.41463,5.45732
608.538,87.5801,4.25475,0,9.78126,0.313748,-0.59157,0.152439,-0.396341,-1.4939,-39.216,-2.21779,3.06083,-14.6646,-5.18293,6.12805
608.548,87.5747,4.2396,0,9.78126,0.366438,-0.56283,-0.0609756,-0.640244,-1.40244,-39.513,-2.08367,2.65847,-15.4573,-4.69512,5.67073
608.558,87.5715,4.24676,0,9.79803,0.356858,-0.632285,-0.0304878,-0.731707,-1.37195,-39.3789,-2.14115,3.02251,-15.3963,-6.28049,5.36585
608.568,87.5726,4.25185,0,9.80281,0.325723,-0.617915,-0.457317,-0.487805,-1.46341,-39.2831,-2.17947,2.98419,-15.1829,-6.28049,5.15244
608.578,87.5696,4.25318,0,9.80521,0.342488,-0.61552,-0.426829,-0.27439,-1.55488,-39.0532,-1.92081,2.90755,-15,-5.57927,5.27439
608.588,87.5792,4.26076,0,9.76689,0.282612,-0.593965,-0.27439,0,-1.40244,-38.9861,-1.95913,3.01293,-14.5122,-5.15244,5.30488
608.598,87.5884,4.257,0,9.77886,0.280217,-0.62031,-0.304878,-0.0609756,-1.43293,-38.8712,-2.16031,2.81175,-15.7622,-5.73171,4.69512
608.608,87.6,4.25195,0,9.78605,0.261057,-0.59636,-0.0914634,0.0304878,-1.46341,-38.8712,-1.96871,2.79259,-16.189,-4.11585,4.2378
608.618,87.6127,4.25614,0,9.78844,0.265847,-0.603545,-0.0304878,0.0304878,-1.34146,-38.8999,-2.09325,2.95545,-15.9756,-2.62195,4.14634
608.628,87.6107,4.2568,0,9.82197,0.308958,-0.62031,-0.182927,0.213415,-1.79878,-38.8903,-2.01661,2.89797,-15.3963,-2.28659,4.05488
608.638,87.6053,4.25681,0,9.80521,0.335303,-0.62031,-0.182927,0.335366,-1.7378,-39.2352,-1.95913,2.91713,-16.2805,-1.0061,4.39024
608.648,87.5991,4.24858,0,9.81479,0.342488,-0.632285,0.182927,0.426829,-1.7378,-39.149,-1.99745,2.76385,-15.7927,-2.13415,4.90854
608.658,87.5909,4.23586,0,9.80042,0.368833,-0.598755,0.152439,0.731707,-1.55488,-39.1394,-2.18905,2.67763,-16.2195,-2.77439,5.42683
608.668,87.585,4.23301,0,9.79323,0.354463,-0.60594,0.182927,0.701219,-1.58537,-39.034,-2.24653,2.83091,-15.9146,-3.17073,4.42073
608.678,87.5769,4.23646,0,9.77886,0.347278,-0.584385,0.304878,0.579268,-1.85976,-39.2927,-2.21779,2.95545,-16.0366,-3.78049,5.12195
608.688,87.5733,4.25036,0,9.78605,0.344883,-0.62989,0.243902,0.579268,-1.55488,-39.1777,-2.18905,3.1279,-16.6463,-4.60366,5.21341
608.698,87.5724,4.2457,0,9.79084,0.318538,-0.565225,-0.0609756,0.609756,-1.67683,-39.1107,-2.17947,2.81175,-14.9695,-4.17683,4.78659
608.708,87.5697,4.25529,0,9.78366,0.340093,-0.64905,-0.0304878,0.487805,-1.55488,-39.2448,-2.17947,3.07042,-16.0671,-2.89634,6.03659
608.718,87.5692,4.24485,0,9.76928,0.332908,-0.593965,0.0304878,0.457317,-1.4939,-39.2256,-2.33275,2.72553,-15.9146,-3.41463,5.82317
608.728,87.5593,4.2461,0,9.80521,0.376018,-0.57241,-0.152439,0.548781,-1.67683,-39.1586,-2.15073,2.91713,-15.9756,-3.23171,5.30488
608.738,87.5538,4.25951,0,9.79803,0.352068,-0.613125,0.0914634,0,-1.64634,-39.1394,-2.07409,3.1279,-14.6951,-3.14024,6.28049
608.748,87.5468,4.26437,0,9.7597,0.368833,-0.565225,0,-0.0914634,-1.55488,-39.2065,-2.23695,2.99377,-15.1524,-3.17073,6.31098
608.758,87.5382,4.25904,0,9.76449,0.368833,-0.550855,-0.0304878,0.0609756,-1.70732,-39.1586,-2.17947,2.81175,-15.9451,-4.57317,6.43293
608.768,87.5352,4.25281,0,9.7621,0.354463,-0.608335,-0.0914634,0.0914634,-1.46341,-39.0532,-2.23695,2.78301,-16.6463,-5.18293,6.03659
608.778,87.5363,4.26043,0,9.80281,0.344883,-0.550855,0,0.0304878,-1.31098,-39.1873,-2.03577,3.03209,-14.6341,-4.20732,7.65244
608.788,87.5339,4.26638,0,9.77647,0.359253,-0.55325,-0.27439,-0.0914634,-1.37195,-39.2831,-2.14115,3.01293,-14.0549,-5,7.37805
608.798,87.5343,4.26413,0,9.76449,0.330513,-0.55325,0.121951,-0.426829,-1.52439,-39.1873,-1.98787,2.86923,-15,-4.45122,6.76829
608.808,87.5336,4.27765,0,9.77168,0.342488,-0.570015,-0.243902,-0.426829,-1.46341,-39.1394,-2.12199,3.13748,-13.2317,-4.5122,6.67683
608.819,87.5432,4.29588,0,9.75491,0.304167,-0.536484,-0.335366,-0.487805,-1.25,-39.1777,-1.99745,3.23328,-14.0549,-4.08537,6.64634
608.828,87.5519,4.28587,0,9.78366,0.304167,-0.534089,-0.518293,-0.731707,-1.28049,-39.1203,-1.95913,2.75427,-14.0549,-3.17073,5.64024
608.839,87.5607,4.26229,0,9.80281,0.301772,-0.56283,-0.335366,-0.731707,-1.28049,-39.2927,-1.93997,2.52435,-14.2683,-2.95732,6.37195
608.848,87.5677,4.25726,0,9.78605,0.304167,-0.58678,-0.426829,-0.365854,-1.34146,-39.1298,-1.87291,2.82133,-13.3841,-2.28659,6.61585
608.858,87.5703,4.25543,0,9.77168,0.328118,-0.56762,0.0304878,-0.548781,-1.34146,-39.0915,-2.04535,2.86923,-14.8476,-2.65244,5.88415
608.868,87.5705,4.25366,0,9.77886,0.301772,-0.613125,-0.304878,-0.487805,-1.79878,-39.1203,-2.06451,2.86923,-15.4573,-3.23171,6.98171
608.878,87.58,4.24541,0,9.79563,0.282612,-0.608335,-0.213415,-0.0609756,-1.40244,-39.2448,-2.03577,2.76385,-15.2439,-3.41463,5.60976
608.888,87.5871,4.23109,0,9.80521,0.308958,-0.622705,-0.396341,-0.365854,-1.25,-39.0532,-1.90165,2.63931,-15,-3.53659,4.90854
608.898,87.5915,4.23113,0,9.78126,0.308958,-0.60594,-0.243902,-0.0914634,-1.40244,-39.0436,-2.03577,2.87881,-14.6037,-3.01829,5.09146
608.908,87.5943,4.21883,0,9.80281,0.304167,-0.56283,-0.121951,0.0609756,-1.55488,-38.8807,-1.97829,2.65847,-16.5244,-1.85976,5.27439
608.918,87.5995,4.24192,0,9.79323,0.292192,-0.56283,-0.213415,0.213415,-1.52439,-39.1586,-1.98787,3.28118,-15.9451,-2.43902,5.73171
608.928,87.6029,4.23193,0,9.81719,0.301772,-0.627495,0,0.121951,-1.52439,-39.0723,-2.01661,2.71595,-15.9451,-2.68293,5.33537
608.938,87.6064,4.22968,0,9.80281,0.308958,-0.603545,0.121951,0.457317,-1.43293,-39.1107,-1.98787,2.85007,-15.9451,-1.46341,4.5122
608.948,87.6053,4.22884,0,9.83156,0.332908,-0.60115,0.304878,0.182927,-1.46341,-39.216,-1.93039,2.87881,-15.4573,-2.04268,4.54268
608.958,87.607,4.21367,0,9.79563,0.299377,-0.63468,0.487805,0.335366,-1.64634,-39.216,-2.04535,2.62973,-16.6463,-1.85976,4.54268
608.968,87.6003,4.2197,0,9.82197,0.340093,-0.584385,0.457317,0.670732,-1.79878,-39.2065,-2.09325,2.98419,-15.4268,-2.68293,4.93902
608.978,87.6005,4.21321,0,9.78605,0.318538,-0.64905,0.335366,0.548781,-1.55488,-39.1969,-2.18905,2.77343,-16.372,-1.7378,4.69512
608.988,87.593,4.20952,0,9.7621,0.344883,-0.555645,0.213415,0.792683,-1.79878,-39.1298,-2.03577,2.81175,-15.8841,-2.0122,4.84756
608.998,87.5916,4.21852,0,9.78366,0.318538,-0.565225,0,0.884146,-1.67683,-39.1586,-2.05493,3.03209,-16.4634,-1.82927,5.09146
609.008,87.5868,4.22555,0,9.76689,0.354463,-0.59636,0.182927,0.914634,-1.4939,-39.0244,-1.94955,2.99377,-15.8841,-1.89024,5.27439
609.018,87.5836,4.23335,0,9.81,0.328118,-0.56762,0.243902,0.670732,-1.70732,-39.0723,-2.10283,3.01293,-16.5854,-2.62195,4.96951
609.028,87.5763,4.23585,0,9.78126,0.352068,-0.56283,0.304878,0.701219,-1.7378,-39.1777,-2.09325,2.93629,-16.25,-2.07317,4.90854
609.038,87.578,4.22973,0,9.78605,0.318538,-0.608335,0.243902,0.640244,-1.4939,-39.2544,-1.90165,2.79259,-16.372,-2.43902,4.72561
609.048,87.5712,4.22936,0,9.76689,0.349673,-0.57241,0.426829,0.365854,-1.7378,-39.0819,-2.05493,2.87881,-17.6829,-1.55488,4.39024
609.058,87.5728,4.22389,0,9.74054,0.330513,-0.548459,0.457317,0.182927,-1.37195,-39.0053,-2.15073,2.78301,-16.7378,-2.04268,3.96341
609.068,87.5731,4.22138,0,9.77886,0.332908,-0.56762,0.213415,0.579268,-1.43293,-38.9957,-2.16989,2.83091,-16.8902,-1.67683,4.39024
609.078,87.5783,4.2298,0,9.78844,0.328118,-0.574805,0.0609756,0.121951,-1.15854,-39.0532,-2.00703,3.02251,-15.2134,-1.67683,4.11585
609.088,87.5797,4.2237,0,9.78366,0.325723,-0.593965,0.0609756,-0.0304878,-1.43293,-39.0915,-2.03577,2.78301,-16.25,-0.731707,4.39024
609.098,87.587,4.21047,0,9.80521,0.316143,-0.560435,0.152439,0.213415,-1.15854,-39.1394,-2.27527,2.65847,-15.3659,-0.823171,5.42683
609.108,87.5898,4.19722,0,9.8076,0.318538,-0.61073,-0.243902,0.182927,-1.40244,-39.1107,-1.98787,2.64889,-16.189,-0.243902,5.06098
609.118,87.587,4.17996,0,9.79084,0.332908,-0.603545,-0.152439,-0.0304878,-1.61585,-38.9286,-2.16031,2.56267,-16.1585,1.03659,4.96951
609.128,87.5887,4.17172,0,9.76689,0.311353,-0.536484,-0.0304878,0.0609756,-1.55488,-39.0628,-2.10283,2.71595,-15.8841,1.06707,4.48171
609.138,87.5918,4.16981,0,9.79323,0.296982,-0.5772,-0.335366,-0.213415,-1.61585,-38.9478,-2.12199,2.81175,-15.3659,1.12805,4.32927
609.148,87.5965,4.15995,0,9.80042,0.304167,-0.57241,-0.396341,-0.243902,-1.43293,-39.1107,-2.11241,2.68721,-15.2134,1.98171,5
609.158,87.5972,4.14635,0,9.79084,0.320933,-0.593965,-0.335366,-0.27439,-1.4939,-38.9765,-2.01661,2.61057,-16.7988,3.10976,4.57317
609.168,87.6018,4.1281,0,9.78126,0.308958,-0.613125,-0.457317,-0.457317,-1.37195,-39.0053,-2.18905,2.53393,-16.4939,6.31098,4.81707
609.178,87.5991,4.12538,0,9.76689,0.337698,-0.584385,-0.182927,-0.182927,-1.52439,-38.9286,-2.05493,2.78301,-15.6098,6.0061,4.11585
609.188,87.6025,4.12278,0,9.73336,0.325723,-0.60115,-0.518293,-0.335366,-1.25,-39.034,-2.07409,2.79259,-16.0366,6.55488,4.48171
609.198,87.6035,4.12725,0,9.78366,0.323328,-0.534089,-0.640244,-0.0609756,-1.43293,-39.0244,-2.11241,2.91713,-15.3963,7.95732,4.81707
609.208,87.6062,4.13059,0,9.76689,0.311353,-0.512534,-0.152439,-0.213415,-1.46341,-39.0915,-2.01661,2.90755,-15.7317,8.5061,4.5122
609.218,87.6122,4.12752,0,9.77886,0.316143,-0.58678,-0.396341,-0.0304878,-1.18902,-39.1298,-2.03577,2.80217,-16.4634,8.68902,4.02439
609.228,87.6167,4.1211,0,9.7597,0.328118,-0.55804,-0.243902,-0.213415,-1.12805,-39.1777,-2.07409,2.74469,-16.1585,8.47561,3.71951
609.238,87.616,4.11195,0,9.78366,0.332908,-0.65384,-0.304878,0,-1.40244,-38.9957,-1.93997,2.67763,-15.7012,7.71341,4.20732
609.248,87.6125,4.10678,0,9.78126,0.347278,-0.63947,-0.0914634,-0.27439,-1.43293,-39.1107,-2.09325,2.74469,-15.2439,6.64634,4.05488
609.258,87.6167,4.1073,0,9.79803,0.311353,-0.570015,-0.457317,-0.609756,-1.34146,-39.3693,-2.05493,2.85965,-15.5183,6.95122,3.23171
609.268,87.6177,4.1015,0,9.8076,0.320933,-0.598755,-0.213415,-0.731707,-1.43293,-39.149,-2.10283,2.73511,-16.189,7.22561,4.42073
609.278,87.6158,4.10037,0,9.78605,0.347278,-0.603545,-0.304878,-0.670732,-1.31098,-39.3406,-1.98787,2.82133,-16.7378,5.85366,4.7561
609.288,87.6152,4.08631,0,9.76928,0.342488,-0.589175,-0.121951,-0.518293,-1.28049,-39.3119,-1.99745,2.59141,-15.7012,5.27439,5.2439
609.298,87.6226,4.06628,0,9.80042,0.328118,-0.574805,-0.27439,-0.823171,-0.945122,-39.2256,-2.10283,2.46687,-15.3659,3.62805,4.93902
609.308,87.6253,4.0528,0,9.75252,0.337698,-0.56762,-0.182927,-0.670732,-1.09756,-39.0149,-2.11241,2.55309,-15.5488,3.68902,5.39634
609.318,87.6393,4.03065,0,9.75252,0.306563,-0.57241,-0.304878,-0.914634,-0.823171,-39.1586,-2.21779,2.39981,-15.6707,2.71341,4.90854
609.328,87.6576,3.9982,0,9.82437,0.280217,-0.61552,-0.121951,-0.609756,-0.853659,-38.8903,-2.16989,2.18905,-15.7622,2.13415,3.81098
609.338,87.6749,3.98103,0,9.82437,0.275427,-0.565225,-0.365854,-0.670732,-0.914634,-38.967,-2.17947,2.43813,-15.3659,3.17073,5.18293
609.348,87.6908,3.96486,0,9.81,0.296982,-0.60115,0.0304878,-0.182927,-0.731707,-39.0723,-2.09325,2.44771,-16.4024,2.40854,4.5122
609.358,87.7045,3.94289,0,9.81719,0.275427,-0.608335,0.182927,-0.609756,-1.03659,-39.2256,-2.08367,2.34233,-15.5793,1.46341,4.90854
609.368,87.7234,3.92524,0,9.80281,0.253872,-0.622705,0.27439,-1.03659,-0.97561,-39.4556,-2.08367,2.41897,-16.9512,2.22561,4.54268
609.378,87.734,3.90185,0,9.73336,0.275427,-0.56762,-0.0304878,-1.64634,-1.15854,-39.3789,-2.19863,2.30401,-16.25,2.83537,4.90854
609.388,87.7446,3.87734,0,9.81479,0.277822,-0.598755,0.121951,-0.457317,-1.09756,-39.331,-2.13157,2.26569,-16.0976,2.80488,4.81707
609.398,87.7565,3.85463,0,9.8555,0.256267,-0.694556,-0.213415,0.0914634,-1.21951,-39.216,-2.08367,2.27527,-15.6707,3.38415,4.48171
609.408,87.7654,3.81235,0,9.83635,0.241897,-0.56762,-0.304878,0.579268,-1.52439,-39.3023,-2.27527,1.93039,-16.311,5.03049,4.14634
609.418,87.7689,3.77928,0,9.82677,0.275427,-0.661025,-0.27439,0.853659,-1.4939,-38.9382,-2.09325,2.04535,-16.4634,6.0061,4.08537
609.428,87.7746,3.74788,0,9.80042,0.244292,-0.579595,-0.0609756,1.03659,-1.67683,-38.9095,-2.29443,2.05493,-15.6402,7.40854,2.65244
609.438,87.7752,3.72745,0,9.79563,0.246687,-0.598755,-0.0304878,0.640244,-1.98171,-38.8137,-1.90165,2.21779,-16.6463,7.7439,4.78659
609.448,87.781,3.71947,0,9.79803,0.239502,-0.608335,-0.365854,0.823171,-1.70732,-38.737,-1.97829,2.41897,-16.1585,9.57317,4.93902
609.458,87.7896,3.69839,0,9.84832,0.253872,-0.627495,0.0609756,0.762195,-1.37195,-38.852,-1.98787,2.19863,-16.9817,10.4268,3.41463
609.468,87.7915,3.68297,0,9.84593,0.275427,-0.656235,0.121951,1.03659,-1.55488,-39.0149,-2.07409,2.29443,-18.0793,11.4634,3.84146
609.478,87.7858,3.6745,0,9.82197,0.301772,-0.641865,0.121951,1.37195,-1.79878,-38.9861,-1.83458,2.40939,-18.3232,13.5976,3.2622
609.488,87.7823,3.64495,0,9.82197,0.318538,-0.682581,0.243902,1.76829,-1.43293,-38.8041,-2.16031,2.03577,-18.2012,15.1524,2.83537
609.498,87.7817,3.6168,0,9.80042,0.323328,-0.63947,0.182927,1.85976,-1.15854,-38.8233,-2.07409,2.04535,-19.878,16.4634,3.32317
609.508,87.7743,3.59371,0,9.76928,0.347278,-0.617915,-0.243902,2.40854,-1.34146,-38.9382,-2.01661,2.12199,-19.6951,17.3171,2.68293
609.518,87.7651,3.5664,0,9.78605,0.366438,-0.63468,-0.304878,2.9878,-1.21951,-38.9861,-2.11241,2.03577,-20.3049,17.1951,1.92073
609.528,87.7671,3.54166,0,9.78605,0.330513,-0.65384,-0.27439,3.29268,-0.914634,-38.9382,-2.05493,2.05493,-20.1829,16.0061,2.37805
609.538,87.7694,3.51884,0,9.81958,0.344883,-0.543669,-0.243902,3.5061,-0.670732,-38.9574,-2.03577,2.07409,-21.189,16.6159,1.61585
609.548,87.78,3.50644,0,9.81,0.318538,-0.502954,-0.27439,3.84146,-0.548781,-39.1203,-2.24653,2.24653,-21.8902,16.3415,2.37805
609.558,87.7864,3.47627,0,9.82916,0.337698,-0.495769,-0.0304878,3.75,-0.487805,-39.2448,-2.33275,1.93997,-20.9146,17.2561,2.34756
609.568,87.8111,3.44015,0,9.84114,0.306563,-0.55804,0.335366,3.04878,0.0304878,-39.2735,-2.32317,1.81542,-18.9024,16.6768,3.5061
609.578,87.8122,3.4146,0,9.76928,0.354463,-0.548459,-0.0304878,2.59146,-0.426829,-39.4268,-2.28485,1.98787,-18.4451,18.4756,2.2561
609.588,87.8118,3.37088,0,9.79803,0.373623,-0.546064,-0.884146,2.31707,-0.0609756,-39.3789,-2.42855,1.65256,-17.9878,18.689,3.04878
609.598,87.8355,3.31605,0,9.81479,0.299377,-0.467029,-1.43293,2.28659,-0.0914634,-39.3214,-2.39023,1.42264,-17.4085,17.3171,2.28659
609.608,87.8604,3.25424,0,9.84353,0.294587,-0.502954,-0.97561,2.43902,0.213415,-39.2448,-2.32317,1.25978,-17.1037,16.8598,2.43902
609.618,87.9063,3.21053,0,9.8603,0.217947,-0.538879,0.121951,1.95122,0.213415,-39.2352,-2.32317,1.52802,-16.4024,16.128,0.97561
609.628,87.9374,3.15223,0,9.82197,0.253872,-0.548459,1.21951,1.61585,0.579268,-39.2544,-2.14115,1.2502,-17.7439,17.3476,2.04268
609.638,87.9579,3.1059,0,9.86748,0.301772,-0.55325,1.52439,1.21951,1.06707,-39.1586,-2.09325,1.41306,-18.0488,17.0122,1.7378
609.648,87.9667,3.06333,0,9.88904,0.359253,-0.481399,1.09756,1.70732,1.03659,-39.4076,-2.09325,1.45138,-18.9329,15.8232,2.53049
609.658,87.9973,3.00509,0,9.87467,0.258662,-0.502954,0.0914634,1.98171,1.67683,-39.6951,-2.00703,1.1544,-19.5122,14.7866,0.853659
609.668,88.0341,2.95296,0,9.71659,0.210762,-0.546064,0.426829,1.12805,1.34146,-39.5514,-2.00703,1.21188,-18.872,13.4451,0.914634
609.678,88.0949,2.8866,0,9.69983,0.102986,-0.500559,0.640244,0.0914634,0.853659,-39.628,-2.08367,0.934058,-19.0244,14.7256,-1.0061
609.688,88.1887,2.81304,0,9.69504,0.00718506,-0.519719,1.0061,0.548781,0.457317,-39.5514,-1.93997,0.761616,-19.1768,15,-1.25
609.698,88.2935,2.72163,0,9.81,-0.0886157,-0.447869,0.914634,2.37805,-0.396341,-39.2831,-2.07409,0.397573,-19.4207,15.1829,-0.945122
609.708,88.3435,2.62058,0,9.95131,0.00958008,-0.474214,1.12805,4.35976,-0.823171,-39.1586,-2.08367,0.177231,-18.4451,18.0488,-1.95122
609.718,88.363,2.5209,0,9.97286,0.172441,-0.617915,1.21951,5.09146,-0.609756,-39.3598,-2.32317,0.129331,-19.6341,17.1646,-2.43902
609.728,88.3925,2.44593,0,9.96328,0.0694556,-0.574805,0.762195,4.93902,-1.03659,-39.5514,-2.38065,0.493374,-20.061,17.561,-2.80488
609.738,88.4048,2.37055,0,9.97765,0.189207,-0.59157,0.823171,4.02439,-0.701219,-39.5705,-2.14115,0.435894,-20.9451,17.9573,-3.23171
609.748,88.4026,2.30695,0,9.9537,0.150886,-0.593965,-0.762195,4.14634,-2.04268,-39.9058,-2.30401,0.589175,-21.9207,16.4024,-3.93293
609.758,88.3764,2.23469,0,9.89143,0.330513,-0.555645,-1.89024,3.96341,-1.85976,-39.5993,-2.38065,0.378413,-19.9695,13.2012,-2.71341
609.768,88.3257,2.1975,0,9.82437,0.495769,-0.574805,-2.10366,4.39024,-1.58537,-40.7393,-2.72553,0.962798,-20.8537,11.7988,-4.96951
609.778,88.2988,2.15589,0,9.69504,0.340093,-0.275427,-4.66463,3.56707,-1.82927,-40.2699,-2.43813,0.838257,-21.372,9.2378,-5.54878
609.788,88.2609,2.10864,0,9.14179,0.366438,0.170046,-4.29878,-3.41463,-2.10366,-40.1645,-2.35191,0.694556,-20.0915,5.67073,-4.32927
609.798,88.2494,2.0896,0,9.30944,0.239502,-0.0838257,-2.89634,0.152439,-1.98171,-40.107,-2.78301,1.14482,-19.8476,1.43293,-4.20732
609.808,88.2178,2.06105,0,9.48907,0.376018,-0.301772,-2.56098,5.91463,-1.61585,-40.0495,-2.90755,0.953218,-16.25,-1.06707,-2.71341
609.818,88.1942,2.03821,0,9.55852,0.340093,-0.366438,-3.20122,7.13415,-1.64634,-40.1549,-2.90755,1.02986,-13.5671,-3.04878,-0.97561
609.828,88.1694,2.00689,0,9.5681,0.354463,-0.320933,-3.65854,6.55488,-1.55488,-40.1357,-2.89797,0.857417,-10.7012,-4.72561,-0.152439
609.838,88.1455,1.97841,0,9.83874,0.380808,-0.385598,-4.72561,5.27439,-1.21951,-39.81,-2.68721,0.866997,-8.87195,-8.10976,-1.28049
609.848,88.1465,1.97626,0,9.98723,0.292192,-0.335303,-4.57317,3.29268,-0.609756,-39.9154,-2.61057,1.2981,-7.92683,-12.439,-0.457317
609.858,88.1493,2.02203,0,9.94891,0.273032,-0.356858,-3.87195,1.12805,-0.762195,-40.0399,-2.46687,2.12199,-7.53049,-19.878,-0.823171
609.868,88.1429,2.07998,0,9.86269,0.292192,-0.292192,-3.59756,-1.79878,-1.15854,-40.1645,-2.04535,2.35191,-8.07927,-27.1037,-1.25
609.878,88.1509,2.14311,0,9.8603,0.198787,-0.280217,-3.56707,-3.07927,-1.34146,-40.4519,-2.27527,2.47645,-7.89634,-34.5122,-0.609756
609.888,88.1484,2.18466,0,9.80281,0.225132,-0.354463,-2.56098,-4.14634,-1.7378,-40.5956,-2.28485,2.13157,-8.17073,-37.7134,-0.792683
609.898,88.1407,2.20471,0,9.70941,0.273032,-0.474214,-2.37805,-3.71951,-1.52439,-40.5573,-2.38065,1.76752,-7.68293,-39.5122,-0.762195
609.908,88.138,2.20867,0,9.71899,0.268242,-0.531694,-1.58537,-2.04268,-1.21951,-40.7393,-2.33275,1.4897,-9.84756,-42.5305,1.15854
609.918,88.1466,2.21407,0,9.78366,0.273032,-0.6251,-1.18902,-0.762195,-0.396341,-40.7489,-2.32317,1.50886,-10.7317,-45.3659,0.762195
609.928,88.1467,2.21151,0,10.0399,0.342488,-0.689766,-1.46341,1.18902,0.426829,-40.5477,-2.10283,1.346,-13.2317,-50.122,0.762195
609.938,88.1597,2.23381,0,10.2219,0.335303,-0.744851,-1.61585,1.7378,1.40244,-40.8159,-2.21779,1.7771,-13.9939,-56.9207,0.823171
609.948,88.1792,2.24007,0,10.3992,0.323328,-0.838257,-1.03659,1.58537,1.85976,-40.5381,-2.32317,1.47054,-15.3659,-63.5061,1.58537
609.958,88.2147,2.27211,0,10.3537,0.208367,-0.919688,-0.457317,0.792683,2.07317,-40.4136,-2.14115,1.91123,-17.2256,-68.9939,1.03659
609.968,88.2667,2.29621,0,10.2387,0.0598755,-0.735271,-1.37195,1.46341,1.09756,-40.2603,-2.24653,1.76752,-18.0793,-74.1463,0.823171
609.978,88.3454,2.30356,0,10.0591,-0.0431104,-0.421523,-0.914634,2.53049,0.609756,-40.1262,-2.26569,1.47054,-17.2256,-77.3476,1.43293
609.988,88.4237,2.35887,0,10.0495,0.0143701,-0.313748,-0.365854,4.45122,0.0609756,-39.9633,-2.39023,2.30401,-17.2561,-80.9756,1.64634
609.998,88.468,2.40433,0,10.0088,0.0383203,-0.385598,0.579268,6.89024,-0.640244,-40.0878,-2.50519,2.16031,-15.7622,-85.3049,3.17073
610.008,88.4894,2.43824,0,9.9082,0.0431104,-0.534089,1.21951,9.2378,-1.4939,-40.1932,-2.98419,1.98787,-11.7378,-86.7073,5.09146
610.019,88.4966,2.49096,0,9.90101,0.0934058,-0.646655,0.97561,11.1585,-1.82927,-40.289,-3.23328,2.34233,-8.10976,-89.3598,5.70122
610.029,88.4983,2.53475,0,9.75491,0.0958008,-0.541274,1.21951,10.8537,-2.19512,-40.0783,-3.40572,2.19863,-5.42683,-92.2866,5.70122
610.039,88.4765,2.58976,0,9.43398,0.170046,-0.404758,1.43293,9.87805,-3.29268,-40.0208,-3.21412,2.41897,-2.0122,-93.9329,6.58537
610.048,88.4416,2.68153,0,9.15856,0.153281,-0.126936,1.09756,8.78049,-4.7561,-39.81,-3.14706,3.08,-2.28659,-97.6219,6.43293
610.058,88.4015,2.77128,0,8.86876,0.0910107,0.179626,1.37195,7.5,-6.09756,-39.7142,-3.00335,3.08958,-3.14024,-100.915,6.34146
610.068,88.3575,2.86985,0,8.73224,0.0287402,0.275427,1.76829,6.4939,-7.37805,-39.4747,-2.70637,3.2716,-1.92073,-105.61,7.7439
610.078,88.2999,2.97578,0,8.6101,0.0287402,0.289797,2.53049,5.30488,-8.84146,-39.4364,-2.52435,3.45362,-4.7561,-109.085,8.81098
610.088,88.2173,3.0787,0,8.56938,0.0766406,0.213157,3.93293,2.31707,-10.8537,-39.6376,-2.34233,3.48236,-7.04268,-111.921,8.44512
610.098,88.1167,3.15516,0,8.58136,0.0981958,0.100591,4.39024,-1.31098,-12.561,-39.3598,-2.60099,3.06083,-6.4939,-113.72,10.5488
610.108,87.996,3.27173,0,8.64842,0.162861,0.143701,4.32927,-4.45122,-13.9634,-39.5322,-2.53393,3.81766,-7.86585,-117.774,9.69512
610.118,87.8676,3.39224,0,8.86397,0.179626,0.138911,4.39024,-5.97561,-14.8171,-39.6663,-2.58183,3.97094,-7.43902,-120.823,10.061
610.128,87.7333,3.51414,0,9.2304,0.246687,0.0910107,4.84756,-7.16463,-14.939,-39.8675,-2.61057,4.0859,-7.68293,-125.061,9.20732
610.138,87.6032,3.65631,0,9.82437,0.366438,0.119751,5.42683,-8.20122,-13.5366,-40.0016,-2.64889,4.53617,-8.59756,-128.201,8.14024
610.148,87.485,3.79684,0,10.5836,0.574805,0.0814307,5.42683,-8.47561,-10.6098,-40.107,-2.76385,4.60323,-9.81707,-132.896,7.28659
610.158,87.3824,3.97348,0,11.2518,0.833467,0.0455054,5.09146,-8.14024,-6.95122,-40.1836,-2.72553,5.35047,-9.60366,-135.976,8.14024
610.168,87.2885,4.07112,0,11.6781,1.14482,-0.165256,3.5061,-6.09756,-3.44512,-39.9729,-2.88839,4.038,-10.1829,-135.549,6.79878
610.178,87.2167,4.15595,0,11.6135,1.11368,-0.476609,-0.579268,-3.5061,-1.09756,-39.6472,-2.76385,3.8464,-10.4573,-135.732,6.4939
610.188,87.2039,4.2265,0,10.8902,0.548459,-1.01549,-2.0122,-4.14634,-1.06707,-39.216,-2.77343,3.61648,-7.86585,-135.091,7.77439
610.198,87.2228,4.33407,0,10.1285,0.0862207,-1.2502,-4.02439,-6.61585,-3.07927,-38.8041,-2.62973,4.25834,-6.79878,-137.47,9.84756
610.208,87.2487,4.47053,0,9.5202,-0.198787,-1.01309,-6.31098,-7.62195,-5.54878,-38.7562,-2.76385,4.81399,-4.14634,-141.341,12.5305
610.218,87.2545,4.61981,0,9.10826,-0.177231,-0.637075,-6.58537,-6.43293,-7.31707,-38.9095,-2.69679,5.13971,-0.670732,-144.543,14.6646
610.228,87.2168,4.78753,0,9.05078,0.184417,-0.419128,-4.93902,-4.7561,-7.07317,-39.2544,-2.81175,5.60914,0.396341,-146.067,16.0976
610.238,87.1564,4.94388,0,9.25196,0.399968,-0.256267,-3.20122,-3.65854,-6.79878,-39.3789,-2.72553,5.54208,2.13415,-146.433,17.1341
610.248,87.09,5.10664,0,9.37171,0.514929,-0.124541,-1.82927,-1.09756,-6.15854,-39.513,-2.78301,5.79116,3.01829,-144.665,15.9756
610.258,87.0283,5.25055,0,9.616,0.58199,-0.0622705,-1.03659,1.37195,-5.15244,-38.737,-2.61057,5.46543,4.96951,-143.384,14.2378
610.268,86.9795,5.43733,0,9.84593,0.589175,-0.229922,-0.640244,2.92683,-4.02439,-39.1586,-2.39981,6.37554,4.05488,-145.457,11.311
610.278,86.954,5.68327,0,9.96568,0.450264,-0.411943,-0.121951,2.80488,-3.53659,-40.0112,-2.15073,7.69759,4.45122,-153.171,9.2378
610.288,86.9299,5.9316,0,10.0687,0.462239,-0.632285,0.152439,2.5,-3.35366,-39.4268,-1.91123,7.79339,5.03049,-156.159,7.40854
610.298,86.9095,6.18211,0,10.0782,0.407153,-0.790356,-0.396341,1.70732,-3.68902,-39.1777,-2.11241,7.94667,4.29878,-159.878,5.42683
610.308,86.8782,6.44359,0,10.0399,0.438289,-0.778381,-1.37195,2.10366,-4.42073,-39.1394,-2.18905,8.30114,4.5122,-163.811,5.30488
610.318,86.8321,6.71692,0,10.0854,0.490979,-0.665815,-2.68293,3.62805,-5.39634,-39.0915,-2.31359,8.67476,4.42073,-168.506,7.59146
610.328,86.784,7.01338,0,10.1453,0.447869,-0.531694,-4.48171,5.45732,-6.21951,-39.0436,-2.65847,9.24957,7.37805,-176.86,8.81098
610.338,86.7425,7.32459,0,10.198,0.402363,-0.488584,-4.08537,6.64634,-6.18902,-39.034,-2.71595,9.70941,8.75,-182.622,10.5793
610.348,86.6867,7.62288,0,10.1405,0.507744,-0.608335,-2.95732,3.96341,-6.4939,-39.0053,-2.77343,9.67109,12.2561,-188.293,13.1707
610.358,86.6351,7.954,0,9.94412,0.443079,-0.59636,-1.79878,1.61585,-6.82927,-38.5359,-2.70637,10.3513,11.3415,-191.738,16.4939
610.368,86.5877,8.27935,0,9.70941,0.395178,-0.258662,-2.07317,1.06707,-6.95122,-38.2964,-2.35191,10.4183,11.4024,-192.165,17.5915
610.378,86.5433,8.59466,0,9.54415,0.364043,0.0550855,-2.53049,1.12805,-7.04268,-38.1622,-2.42855,10.4279,8.87195,-193.689,20.4573
610.388,86.493,8.90925,0,9.36213,0.378413,0.189207,-1.82927,0.243902,-7.46951,-37.5491,-2.02619,10.4758,6.79878,-192.012,21.2805
610.398,86.4287,9.24965,0,9.51781,0.474214,0.124541,-0.670732,-0.152439,-7.89634,-37.3863,-1.81542,11.0985,3.17073,-196.189,22.1341
610.408,86.3494,9.60404,0,9.49865,0.608335,-0.0574805,-0.0304878,0.182927,-7.89634,-37.415,-1.5855,11.5871,2.46951,-200.335,22.1341
610.418,86.2641,9.94199,0,9.46751,0.677791,-0.186812,0.304878,0.182927,-7.80488,-37.3575,-1.25978,11.5105,0.335366,-204.695,22.1341
610.428,86.1793,10.2778,0,9.60163,0.704136,-0.237107,0.853659,-1.58537,-7.71341,-37.3958,-1.24062,11.7116,0.701219,-208.659,20.8537
610.438,86.0921,10.6267,0,9.71659,0.778381,-0.313748,1.06707,-2.7439,-7.34756,-37.5108,-1.33642,12.229,0.304878,-208.506,20.5183
610.448,86.0091,10.9625,0,9.75491,0.778381,-0.299377,0.762195,-4.93902,-7.13415,-37.2426,-1.5855,12.1523,0.304878,-209.116,18.9024
610.458,85.9334,11.2968,0,9.77647,0.725691,-0.251477,0,-7.19512,-7.19512,-37.1755,-1.78668,12.3439,0.121951,-209.177,17.3171
610.468,85.8597,11.6153,0,9.79803,0.708926,-0.258662,-1.31098,-8.01829,-7.37805,-36.7731,-2.05493,12.1715,-1.7378,-207.256,16.311
610.478,85.7857,11.9275,0,9.84593,0.732876,-0.191602,-2.40854,-7.89634,-7.31707,-36.1217,-1.62382,12.0661,-4.20732,-207.774,15.3354
610.488,85.7174,12.2897,0,9.79563,0.720901,-0.119751,-3.41463,-7.22561,-6.98171,-35.6714,-2.14115,13.0241,-0.152439,-205.213,15.7317
610.498,85.6517,12.627,0,9.78366,0.744851,-0.126936,-4.17683,-6.21951,-6.55488,-34.4739,-2.16031,12.411,-1.46341,-203.72,17.9268
610.508,85.5898,13.0213,0,9.73096,0.735271,-0.162861,-4.45122,-6.06707,-6.37195,-34.9817,-1.825,13.8288,-2.53049,-205.061,19.5122
610.518,85.539,13.4248,0,9.65432,0.692161,-0.155676,-4.87805,-6.98171,-5.82317,-35.8726,-1.84417,14.6336,-3.62805,-205.762,20.2439
610.528,85.4899,13.8503,0,9.65193,0.665815,-0.222737,-5.45732,-8.01829,-6.06707,-35.8534,-1.5855,15.3233,-5.73171,-207.53,19.9085
610.538,85.4476,14.2536,0,9.62798,0.617915,-0.296982,-6.37195,-8.65854,-6.03659,-36.1792,-1.18314,15.3617,-7.77439,-208.049,19.6341
610.548,85.4123,14.674,0,9.69983,0.56283,-0.349673,-6.43293,-9.20732,-6.12805,-36.1025,-0.991538,15.9652,-8.41463,-204.878,18.5061
610.558,85.3797,15.0675,0,9.70701,0.538879,-0.440684,-6.89024,-9.26829,-6.21951,-35.6331,-0.723296,15.5628,-7.7439,-205.213,18.811
610.568,85.3426,15.4569,0,9.88425,0.584385,-0.481399,-6.92073,-9.02439,-6.31098,-35.0583,-0.876577,15.5341,-7.95732,-202.652,18.2927
610.578,85.3085,15.8669,0,10.0184,0.565225,-0.5772,-6.03659,-7.56098,-6.40244,-34.6943,-0.962798,16.0418,-7.56098,-201.311,18.9329
610.588,85.2622,16.2792,0,10.0088,0.677791,-0.6251,-5.36585,-6.7378,-6.40244,-34.2152,-1.25978,16.1568,-7.04268,-202.5,17.4085
610.598,85.2161,16.728,0,10.0423,0.699346,-0.716111,-4.84756,-5.64024,-6.25,-34.2248,-1.4897,17.1435,-6.21951,-203.262,16.2805
610.608,85.165,17.1803,0,9.97765,0.704136,-0.716111,-5.18293,-5.45732,-6.7378,-34.2919,-1.75794,17.5747,-6.03659,-204.817,15.5488
610.618,85.115,17.6319,0,9.8579,0.677791,-0.62031,-6.25,-5.88415,-6.95122,-34.5314,-1.94955,18.0345,-5.2439,-203.75,12.7439
610.628,85.0621,18.084,0,9.88425,0.670605,-0.560435,-7.40854,-5.94512,-7.43902,-34.2344,-2.10283,18.2453,-3.71951,-200.488,12.1646
610.638,85.0101,18.5417,0,9.84353,0.64426,-0.505349,-7.59146,-6.12805,-7.7439,-33.8991,-2.14115,18.5327,-1.98171,-197.53,11.0671
610.648,84.9527,19.0334,0,9.80281,0.696951,-0.58678,-6.82927,-5.30488,-7.7439,-33.3818,-1.91123,19.2607,-0.335366,-196.433,13.75
610.658,84.8885,19.5164,0,9.69025,0.711321,-0.713716,-5.73171,-4.66463,-8.29268,-33.1327,-1.50886,19.3374,1.09756,-194.573,15.4268
610.668,84.8207,20.0044,0,9.78605,0.764011,-0.732876,-4.81707,-3.9939,-8.23171,-32.4046,-1.2023,19.3853,0.243902,-192.012,17.6829
610.678,84.7572,20.5002,0,9.8076,0.790356,-0.807122,-4.35976,-2.92683,-7.65244,-31.9065,-0.981958,19.6152,-2.34756,-190.061,19.5122
610.688,84.6878,21.0156,0,9.91778,0.876577,-0.869392,-3.56707,-1.85976,-7.46951,-32.0789,-0.617915,20.4966,-3.14024,-190.152,19.8476
610.698,84.6221,21.5491,0,9.8555,0.890947,-0.761616,-3.59756,-2.40854,-7.0122,-31.8681,-0.502954,21.1289,-3.78049,-190.335,19.4817
610.708,84.5581,22.0926,0,9.83874,0.902922,-0.744851,-3.96341,-3.04878,-6.79878,-31.8873,-0.493374,21.7803,-6.55488,-189.817,18.5671
610.718,84.5003,22.6269,0,9.70941,0.814307,-0.651445,-5.15244,-4.35976,-7.22561,-31.3125,-0.924478,21.6558,-8.17073,-185.122,16.5244
610.728,84.4307,23.1584,0,9.58966,0.895737,-0.574805,-6.70732,-3.84146,-7.43902,-30.661,-0.694556,21.6079,-10.122,-177.104,15.0305
610.738,84.3601,23.7341,0,9.63995,0.955613,-0.64905,-7.22561,-1.34146,-7.0122,-29.9425,-0.665815,22.4509,-13.6585,-168.11,15.061
610.748,84.2905,24.3131,0,9.7621,1.01309,-0.764011,-5.91463,0.27439,-6.52439,-30.1437,-0.752036,23.179,-17.378,-161.372,14.2988
610.758,84.2262,24.8751,0,9.75491,1.03465,-0.828677,-4.69512,0.0304878,-5.85366,-30.297,-0.589175,23.4472,-20.3659,-155.091,13.0793
610.768,84.1682,25.3894,0,9.98963,1.1041,-0.900527,-3.81098,1.03659,-4.81707,-30.5557,-0.502954,23.1215,-25.9451,-151.067,11.4329
610.778,84.1159,25.8947,0,9.81958,1.0586,-0.63947,-4.7561,-1.09756,-4.66463,-30.776,-0.483794,23.5335,-26.4634,-150.305,9.02439
610.788,84.0664,26.3635,0,9.69983,1.04183,-0.481399,-6.40244,-3.53659,-4.54268,-30.5844,-0.234712,23.0353,-25.3659,-151.25,7.2561
610.798,84.024,26.835,0,9.84353,0.984353,-0.462239,-6.58537,-3.59756,-4.78659,-30.3257,-0.244292,23.2748,-23.9329,-154.36,7.83537
610.808,83.9791,27.3119,0,9.78126,0.981958,-0.414338,-6.21951,-1.76829,-5.09146,-30.0671,-0.704136,23.5622,-20.4573,-160.122,8.65854
610.818,83.9335,27.7764,0,9.80521,1.02028,-0.548459,-5.21341,-0.670732,-4.81707,-29.6743,-1.31726,23.3802,-15.7927,-163.537,10.8232
610.828,83.8814,28.2299,0,9.74294,1.08973,-0.579595,-3.84146,-1.4939,-4.66463,-29.0037,-1.66214,23.0066,-13.5671,-162.348,13.7805
610.838,83.8266,28.6993,0,9.69504,1.12805,-0.651445,-3.93293,-1.4939,-4.5122,-28.266,-1.97829,23.1215,-11.189,-162.043,17.1951
610.848,83.7798,29.1861,0,9.60642,1.1065,-0.646655,-3.93293,-2.5,-3.93293,-28.1511,-2.14115,23.773,-8.78049,-163.78,20
610.858,83.7407,29.6521,0,9.4723,1.05381,-0.627495,-4.45122,-3.68902,-3.71951,-28.0169,-2.09325,23.6388,-7.28659,-161.341,20.2744
610.868,83.6977,30.1562,0,9.50344,1.09692,-0.589175,-5.42683,-3.81098,-3.68902,-27.7008,-1.3939,24.5969,-5.85366,-157.165,21.0366
610.878,83.661,30.6435,0,9.44356,1.10171,-0.579595,-5.06098,-4.63415,-2.92683,-27.8445,-1.22146,24.8172,-6.58537,-152.226,19.7866
610.888,83.6356,31.1199,0,9.51302,1.08494,-0.661025,-4.17683,-3.9939,-2.16463,-27.787,-0.598755,24.9705,-9.90854,-147.073,15.8537
610.898,83.6214,31.5718,0,9.60882,1.08015,-0.759221,-4.32927,-4.45122,-1.31098,-27.969,-0.301772,25.0375,-14.0244,-140.976,11.311
610.908,83.6191,32.0335,0,9.68067,1.0586,-0.723296,-4.26829,-5.18293,-0.792683,-27.8828,-0.129331,25.6028,-16.372,-136.067,9.08537
610.918,83.6282,32.4725,0,9.77886,1.02986,-0.792751,-3.65854,-4.05488,-0.609756,-28.0936,-0.225132,25.7081,-20.0305,-132.957,5.51829
610.928,83.6501,32.9096,0,9.79323,0.986748,-0.807122,-3.32317,-4.02439,-0.487805,-27.8637,-0.225132,25.8614,-20.2134,-129.97,2.89634
610.938,83.6663,33.3573,0,9.8579,0.972378,-0.855022,-3.32317,-3.78049,-0.884146,-27.7966,-0.464634,26.465,-21.7378,-125.305,2.13415
610.948,83.6856,33.8076,0,9.79803,0.931663,-0.866997,-3.32317,-3.93293,-1.06707,-27.8062,-0.732876,26.9631,-20.9146,-123.689,2.92683
610.958,83.7042,34.2567,0,9.99681,0.931663,-0.924478,-3.35366,-2.68293,-1.12805,-27.6242,-1.21188,27.1835,-21.5854,-123.079,2.0122
610.968,83.7099,34.6613,0,9.78126,0.981958,-0.857417,-3.32317,-2.95732,-1.21951,-27.5188,-1.22146,26.4554,-22.6524,-121.707,1.52439
610.978,83.7229,35.0554,0,9.82437,0.900527,-0.907712,-3.01829,-2.5,-1.61585,-27.2505,-1.07776,26.3308,-21.25,-120.549,2.59146
610.988,83.7344,35.4574,0,9.72378,0.895737,-0.965193,-2.40854,-1.25,-1.67683,-26.8673,-0.914897,26.5033,-21.0671,-120.488,4.5122
610.998,83.7475,35.8582,0,9.74294,0.905317,-0.898132,-1.79878,-1.12805,-1.4939,-27.0877,-1.16398,27.0685,-19.5732,-120.976,6.55488
611.008,83.7577,36.2499,0,9.67348,0.955613,-0.826282,-1.61585,-1.37195,-1.09756,-26.7236,-1.1065,26.8673,-18.2927,-120.61,7.95732
611.018,83.7722,36.6165,0,9.87946,0.950823,-0.893342,-0.853659,0.609756,-1.0061,-27.0302,-1.18314,26.9536,-20.122,-118.872,6.15854
611.028,83.7896,36.9987,0,9.8124,0.886157,-0.881367,-0.701219,1.55488,-1.40244,-26.6182,-1.08734,27.2697,-20.5793,-116.25,6.7378
611.038,83.8061,37.3769,0,9.79563,0.874182,-0.862207,0.27439,1.95122,-1.52439,-26.4937,-1.25978,27.4326,-19.7866,-111.829,5.42683
611.048,83.8221,37.7561,0,9.82437,0.871787,-0.850232,0.609756,1.7378,-1.55488,-26.2063,-0.972378,27.5475,-20.5793,-105.701,5.09146
611.058,83.8359,38.1221,0,9.76689,0.866997,-0.838257,1.0061,1.25,-1.67683,-26.0434,-1.23104,27.4421,-19.6037,-101.128,5.06098
611.068,83.8424,38.4903,0,9.79563,0.881367,-0.749641,0.762195,1.85976,-1.98171,-25.8997,-1.36516,27.7104,-19.4512,-97.8049,5.64024
611.078,83.8492,38.8408,0,9.77407,0.886157,-0.747246,0.579268,1.76829,-1.89024,-26.3787,-1.346,28.1511,-19.1463,-97.2561,5.7622
611.088,83.8589,39.1643,0,9.77886,0.840652,-0.673001,0.579268,1.7378,-2.13415,-26.1967,-1.54718,27.6529,-17.2256,-93.0183,6.12805
611.098,83.8655,39.4872,0,9.8579,0.847837,-0.670605,1.21951,1.92073,-2.28659,-25.7656,-1.50886,27.5092,-15.4268,-89.4207,6.7378
611.108,83.8615,39.806,0,9.80042,0.912502,-0.665815,0.97561,1.76829,-2.37805,-25.507,-1.87291,27.4709,-13.2317,-83.7195,7.92683
611.118,83.8463,40.1468,0,9.7621,0.953218,-0.716111,0.640244,1.12805,-2.83537,-25.2483,-2.05493,28.0648,-11.25,-78.7805,8.90244
611.128,83.829,40.4773,0,9.75252,0.960403,-0.684976,0.304878,1.21951,-2.95732,-25.2579,-2.10283,28.1702,-10.4878,-75.061,7.65244
611.138,83.8081,40.8027,0,9.79084,0.969983,-0.725691,-0.182927,2.77439,-3.2622,-24.913,-1.96871,28.0074,-9.11585,-70.1829,6.52439
611.148,83.7868,41.1198,0,9.71899,0.965193,-0.646655,0.0304878,2.86585,-3.32317,-25.095,-1.27894,28.3522,-8.93293,-65.4878,6.7378
611.158,83.7637,41.4206,0,9.74294,0.974773,-0.65863,-0.182927,2.92683,-3.44512,-25.5453,-1.37474,28.7833,-8.65854,-61.6463,6.25
611.168,83.7366,41.719,0,9.75731,1.03465,-0.64426,-0.548781,2.68293,-3.17073,-25.2004,-1.09692,28.6492,-9.7561,-58.689,4.60366
611.178,83.7164,42.0047,0,9.82677,0.967588,-0.680186,-1.06707,2.5,-3.44512,-25.2483,-1.17356,28.6971,-10.4268,-55.9451,4.17683
611.188,83.6888,42.259,0,9.75731,1.02267,-0.64426,-1.52439,2.07317,-3.47561,-25.2483,-1.14482,28.1894,-9.29878,-55.6098,4.48171
611.198,83.658,42.5241,0,9.76449,1.0562,-0.692161,-2.22561,1.92073,-3.44512,-25.1429,-1.0586,28.6013,-7.71341,-54.7256,3.35366
611.208,83.6268,42.7993,0,9.70701,1.08973,-0.701741,-1.89024,2.19512,-3.04878,-25.1142,-0.991538,29.0995,-6.31098,-54.4207,2.40854
611.218,83.5949,43.0594,0,9.69504,1.09692,-0.728086,-1.85976,2.56098,-3.07927,-25.0663,-0.991538,28.9462,-6.12805,-52.2866,1.46341
611.229,83.5725,43.3312,0,9.77647,1.06099,-0.795146,-1.31098,3.04878,-2.77439,-24.8172,-1.31726,29.2432,-6.12805,-49.2988,0.609756
611.238,83.5456,43.5928,0,9.75012,1.08494,-0.766406,-1.64634,2.68293,-2.92683,-24.798,-1.40348,29.2432,-4.66463,-47.378,0.365854
611.249,83.515,43.8528,0,9.77168,1.09931,-0.778381,-2.07317,3.01829,-3.20122,-24.731,-1.49928,29.406,-5.54878,-45.061,-0.213415
611.258,83.4946,44.1023,0,9.75012,1.03704,-0.694556,-2.0122,2.53049,-3.01829,-24.4244,-1.75794,29.042,-5.88415,-43.7195,0.0304878
611.268,83.4747,44.3704,0,9.73336,1.04662,-0.696951,-2.5,2.77439,-2.86585,-24.1657,-1.6334,29.4923,-6.55488,-41.4024,0.579268
611.278,83.4553,44.599,0,9.68785,1.02507,-0.684976,-2.92683,2.59146,-3.07927,-24.6064,-1.75794,29.2719,-7.31707,-39.0244,1.18902
611.288,83.4367,44.8326,0,9.69983,1.02746,-0.711321,-2.28659,2.71341,-3.01829,-24.1274,-1.19272,29.0707,-7.56098,-38.0793,2.10366
611.298,83.422,45.0624,0,9.66869,1.0083,-0.701741,-1.61585,3.17073,-2.89634,-24.0699,-1.33642,29.157,-7.9878,-35.8232,2.71341
611.308,83.4062,45.2745,0,9.65672,1.06339,-0.835862,-1.98171,2.92683,-2.34756,-24.319,-1.00112,29.2336,-7.86585,-35.3963,3.44512
611.318,83.3933,45.4836,0,9.64953,1.03465,-0.704136,-2.34756,2.65244,-2.46951,-24.3765,-0.704136,29.454,-8.75,-33.4451,3.78049
611.328,83.3819,45.6899,0,9.68067,1.04183,-0.718506,-1.92073,2.77439,-2.31707,-24.319,-0.579595,29.5498,-9.48171,-29.9085,3.23171
611.338,83.3711,45.8875,0,9.7118,1.03465,-0.63947,-1.92073,2.40854,-2.40854,-24.4627,-0.656235,29.7126,-9.39024,-29.0244,3.29268
611.348,83.3644,46.0844,0,9.70462,1.02507,-0.60115,-1.43293,1.85976,-2.19512,-24.3478,-0.675395,29.7701,-9.29878,-28.1098,4.26829
611.358,83.3629,46.2697,0,9.72617,0.974773,-0.584385,-0.731707,1.40244,-2.37805,-24.3478,-1.00112,29.6743,-8.5061,-26.8902,4.2378
611.368,83.3608,46.4471,0,9.78605,1.00351,-0.66342,-0.243902,1.28049,-2.16463,-24.2232,-1.31726,29.5114,-8.10976,-25.6098,5.54878
611.378,83.3487,46.6148,0,9.82916,1.05381,-0.677791,-0.396341,0.945122,-2.46951,-24.1945,-1.31726,29.4156,-8.17073,-24.5732,5.27439
611.388,83.3424,46.7929,0,9.76449,1.00112,-0.785566,-0.121951,0.731707,-2.53049,-24.0604,-1.2502,29.703,-8.44512,-24.0854,7.5
611.398,83.3462,46.9738,0,9.77886,0.946033,-0.795146,0.0914634,0.884146,-2.34756,-24.0795,-1.19272,30,-8.44512,-22.8659,7.43902
611.408,83.3517,47.1436,0,9.72857,0.946033,-0.749641,0.365854,1.21951,-2.19512,-23.9646,-0.924478,29.7701,-9.20732,-19.5427,8.75
611.418,83.3529,47.3097,0,9.76928,0.960403,-0.728086,0.213415,1.52439,-2.37805,-24.0029,-0.684976,29.9138,-9.48171,-16.25,10.8537
611.428,83.3454,47.4558,0,9.76928,0.998723,-0.64905,0.762195,1.76829,-2.65244,-24.1562,-0.531694,29.7509,-9.63415,-14.8171,10.2744
611.438,83.336,47.5984,0,9.73575,0.986748,-0.656235,0.762195,1.64634,-2.92683,-24.1178,-0.340093,29.7797,-10.3049,-12.0732,11.0671
611.448,83.3193,47.7309,0,9.75252,1.05141,-0.64426,1.15854,1.55488,-2.86585,-24.434,-0.435894,30.0575,-9.96951,-11.0671,10.2439
611.458,83.2969,47.8671,0,9.73575,1.11129,-0.622705,0.731707,1.4939,-2.68293,-24.2232,-0.387993,30.0383,-11.7683,-10.6707,9.78659
611.468,83.2756,47.9982,0,9.73336,1.1041,-0.61073,0.853659,2.0122,-2.71341,-24.137,-0.301772,29.9425,-14.4207,-10.1524,9.63415
611.478,83.2536,48.1158,0,9.74294,1.14242,-0.62031,0.884146,2.56098,-2.34756,-24.0412,-0.512534,29.6072,-15.3963,-8.81098,8.10976
611.488,83.2329,48.2384,0,9.75252,1.15919,-0.65863,1.12805,3.10976,-2.04268,-23.7921,-0.531694,29.5689,-14.2988,-6.61585,7.07317
611.498,83.2202,48.342,0,9.73336,1.14961,-0.622705,1.18902,3.04878,-1.40244,-24.137,-0.876577,29.636,-13.5061,-3.23171,7.92683
611.508,83.2149,48.436,0,9.72857,1.12326,-0.646655,1.09756,2.77439,-1.18902,-24.0987,-1.07776,29.454,-13.8415,-1.31098,6.7378
611.518,83.2132,48.5253,0,9.74294,1.08255,-0.622705,1.21951,2.62195,-1.4939,-24.2999,-1.14482,29.6839,-11.5854,1.09756,6.89024
611.528,83.2138,48.5851,0,9.71659,1.07536,-0.512534,1.55488,2.53049,-1.40244,-24.4723,-1.33642,29.2049,-10.7317,0.457317,6.92073
611.538,83.218,48.6562,0,9.70462,1.05381,-0.522114,1.06707,2.19512,-1.40244,-24.3669,-1.0586,29.4348,-10.061,0.213415,6.70732
611.548,83.2183,48.7251,0,9.70701,1.08255,-0.452659,1.31098,1.89024,-1.31098,-24.5777,-1.02028,29.7126,-9.14634,1.55488,6.92073
611.558,83.2138,48.7973,0,9.72138,1.10171,-0.450264,1.37195,1.4939,-1.43293,-24.3286,-1.0107,29.5689,-8.17073,1.03659,7.34756
611.568,83.2137,48.8554,0,9.72857,1.08734,-0.500559,1.18902,1.21951,-1.31098,-24.3478,-0.886157,29.3007,-8.29268,2.19512,7.86585
611.578,83.208,48.9146,0,9.66869,1.1065,-0.490979,1.12805,0.945122,-1.40244,-24.4627,-0.771196,29.5402,-9.42073,3.78049,9.20732
611.588,83.2063,48.968,0,9.66869,1.08255,-0.534089,1.15854,1.0061,-1.43293,-24.5681,-0.752036,29.5785,-10.0915,4.90854,9.17683
611.598,83.2078,49.0157,0,9.67827,1.08015,-0.536484,1.06707,0.97561,-1.25,-24.7118,-0.656235,29.6456,-11.8902,2.83537,8.81098
611.608,83.2084,49.0528,0,9.68067,1.07297,-0.550855,1.0061,0.762195,-1.40244,-24.8076,-0.416733,29.5402,-12.2866,5.06098,9.08537
611.618,83.2217,49.0596,0,9.68546,1.03944,-0.538879,0.609756,0.243902,-1.03659,-25.4112,-0.464634,29.4923,-12.5305,5.18293,10.7927
611.628,83.2212,49.092,0,9.71659,1.09452,-0.538879,0.426829,0.365854,-1.21951,-24.8364,-0.455054,29.5019,-13.689,6.15854,9.5122
611.638,83.2307,49.1246,0,9.75252,1.04902,-0.574805,0.670732,0.731707,-1.15854,-24.8076,-0.368833,29.5019,-14.6951,4.69512,8.44512
611.648,83.2471,49.1406,0,9.76449,1.01788,-0.536484,0.701219,0.670732,-1.09756,-24.913,-0.646655,29.224,-12.622,4.81707,6.85976
611.658,83.2644,49.1556,0,9.74294,1.01309,-0.507744,0.579268,0.0914634,-1.06707,-25.1046,-0.694556,29.4444,-12.1341,6.34146,5.94512
611.668,83.2889,49.1763,0,9.76928,0.962798,-0.541274,0.914634,-0.335366,-1.15854,-25.0471,-0.684976,29.5593,-11.6159,8.81098,5.33537
611.678,83.3105,49.1988,0,9.75491,0.984353,-0.55325,1.28049,-0.579268,-1.06707,-24.8938,-0.819097,29.4444,-13.2622,8.81098,7.2561
611.688,83.3193,49.2167,0,9.77168,1.04423,-0.514929,1.0061,-0.548781,-1.09756,-24.7693,-0.809517,29.2049,-14.1768,9.63415,7.7439
611.698,83.3323,49.2419,0,9.79084,1.00351,-0.543669,0.762195,-0.0609756,-1.28049,-24.7597,-0.646655,29.4156,-14.9695,11.5854,6.98171
611.708,83.3412,49.2584,0,9.77886,1.0107,-0.617915,0.579268,0.670732,-1.40244,-24.8843,-0.694556,29.3581,-15.6707,11.4024,8.07927
611.718,83.3422,49.2504,0,9.7142,1.0586,-0.5772,0.487805,0.27439,-1.31098,-25.0184,-0.570015,28.8983,-15.0915,12.4695,8.59756
611.728,83.3422,49.2525,0,9.7142,1.0586,-0.529299,0.243902,-0.304878,-1.37195,-25.2291,-0.866997,29.406,-14.1463,13.3537,8.65854
611.738,83.3407,49.2476,0,9.67109,1.05381,-0.457449,-0.365854,-0.457317,-1.4939,-25.3345,-0.914897,29.339,-12.5305,12.4085,7.46951
611.748,83.3422,49.2439,0,9.66869,1.00351,-0.452659,0.243902,-0.365854,-1.85976,-25.2291,-1.02028,29.2432,-13.0793,11.9512,7.0122
611.758,83.3362,49.2292,0,9.69743,1.08015,-0.474214,-0.0914634,-0.853659,-1.52439,-25.3633,-1.09692,29.0995,-11.372,10.8841,6.52439
611.768,83.3234,49.2096,0,9.73096,1.12087,-0.534089,-0.243902,-1.18902,-1.58537,-25.3728,-1.07776,28.9654,-10.8537,9.66463,6.79878
611.778,83.3127,49.1976,0,9.74533,1.08734,-0.495769,-0.182927,-1.31098,-1.92073,-25.2675,-1.06818,29.0228,-9.5122,10.0915,7.34756
611.788,83.312,49.1995,0,9.79803,1.05141,-0.589175,-0.396341,-0.670732,-1.64634,-24.9801,-0.857417,29.0516,-9.78659,12.6524,8.81098
611.798,83.3202,49.2054,0,9.8124,1.01788,-0.531694,-0.548781,-0.457317,-1.43293,-24.9417,-0.761616,29.1186,-10.4878,14.1463,8.9939
611.808,83.3315,49.2129,0,9.8076,1.0107,-0.560435,-1.03659,-0.792683,-1.31098,-24.8843,-0.627495,29.1091,-9.57317,16.2195,8.41463
611.818,83.3358,49.2355,0,9.79084,1.04183,-0.63947,-0.792683,-0.518293,-1.37195,-24.7693,-0.704136,29.3869,-9.02439,17.9268,8.75
611.828,83.3459,49.2629,0,9.74773,0.989143,-0.637075,-0.518293,-0.731707,-1.52439,-24.4915,-0.665815,29.224,-5.33537,21.7988,7.62195
611.838,83.3524,49.2922,0,9.74773,1.00591,-0.62989,-0.548781,-0.792683,-1.55488,-24.3286,-0.972378,29.1186,-3.10976,24.2988,7.95732
611.848,83.3592,49.3241,0,9.71899,1.01309,-0.684976,-0.487805,-0.945122,-1.43293,-24.4148,-1.1065,29.3294,-2.0122,25.3354,7.86585
611.858,83.3628,49.3404,0,9.74294,1.01788,-0.742456,0.182927,-0.579268,-1.58537,-24.8938,-1.02986,29.521,-1.85976,25.5183,9.60366
611.868,83.3669,49.3425,0,9.74294,1.02507,-0.742456,0.701219,-0.457317,-1.46341,-24.9801,-0.646655,29.2719,-3.93293,25.8537,10.2744
611.878,83.3619,49.3484,0,9.7597,1.06578,-0.716111,1.03659,-0.640244,-1.64634,-25.095,-0.378413,29.5114,-2.95732,26.8293,9.45122
611.888,83.3614,49.3479,0,9.71899,1.0562,-0.632285,0.731707,-1.0061,-1.40244,-25.3728,-0.234712,29.6743,-3.07927,26.9207,9.63415
611.898,83.3567,49.3454,0,9.7597,1.09692,-0.60594,0.640244,-1.15854,-1.21951,-25.1429,0.186812,29.3581,-5,27.6524,10.3049
611.908,83.3606,49.3403,0,9.78126,1.04423,-0.627495,1.18902,0,-1.31098,-25.2579,0.282612,29.4156,-6.64634,26.8902,9.60366
611.918,83.3733,49.3302,0,9.79084,1.04183,-0.682581,1.85976,0.701219,-0.823171,-25.4782,0.407153,29.5402,-8.38415,27.4085,8.68902
611.928,83.3922,49.3022,0,9.80521,1.02986,-0.682581,2.07317,0.426829,-0.640244,-25.3249,0.301772,28.8887,-9.63415,28.0183,8.35366
611.938,83.4131,49.2664,0,9.8124,1.04902,-0.680186,2.22561,0.548781,-0.304878,-25.3345,0.0622705,28.678,-9.32927,28.9329,7.34756
611.948,83.4278,49.2363,0,9.81479,1.03944,-0.59636,2.62195,1.03659,-0.670732,-25.277,-0.177231,28.7259,-9.48171,30.0305,6.79878
611.958,83.4483,49.2049,0,9.74054,1.01309,-0.637075,2.53049,1.18902,-0.609756,-25.2675,-0.263452,28.6588,-9.17683,31.128,5.42683
611.968,83.4734,49.1812,0,9.68785,0.986748,-0.546064,2.07317,1.09756,-0.640244,-25.3154,-0.608335,28.8791,-10.1524,31.6463,5.60976
611.978,83.4924,49.1582,0,9.70701,0.986748,-0.524509,2.10366,1.12805,-0.853659,-25.1908,-0.665815,28.7354,-11.6159,32.561,7.65244
611.988,83.4986,49.1292,0,9.74533,1.03465,-0.570015,1.92073,1.85976,-0.97561,-25.3728,-0.416733,28.7738,-13.3232,33.9939,7.40854
611.998,83.5017,49.0877,0,9.78126,1.0562,-0.524509,2.28659,2.56098,-0.914634,-25.6123,-0.435894,28.6971,-14.7256,34.1159,8.68902
612.008,83.4896,49.0375,0,9.78126,1.14003,-0.673001,1.98171,3.2622,-0.640244,-25.6028,-0.387993,28.4289,-16.0671,35.2744,9.26829
612.018,83.4825,48.9778,0,9.8076,1.14003,-0.64426,2.2561,3.90244,-0.0609756,-25.7944,-0.522114,28.3522,-16.4939,35.2744,8.78049
612.028,83.4864,48.9078,0,9.76689,1.11129,-0.627495,2.28659,4.69512,0.27439,-25.871,-0.723296,28.1319,-14.4512,37.8659,8.93293
612.038,83.5032,48.8379,0,9.75252,1.06099,-0.59157,2.7439,5,-0.0609756,-25.6411,-0.991538,27.8158,-12.1951,37.9573,10.6098
612.048,83.5459,48.7905,0,9.74533,0.977168,-0.531694,2.43902,5.18293,-0.0914634,-25.6507,-0.780776,28.3235,-10.6402,39.0854,9.81707
612.058,83.5692,48.7279,0,9.67588,0.979563,-0.613125,2.43902,5.18293,-0.609756,-25.8614,-0.550855,28.1223,-12.3171,38.0183,10.9146
612.068,83.5842,48.6693,0,9.6639,0.974773,-0.546064,2.68293,6.09756,-0.97561,-25.8997,-0.167651,28.199,-14.3598,37.2866,11.2805
612.078,83.5914,48.5817,0,9.63995,0.989143,-0.56762,2.56098,6.76829,-1.18902,-26.1967,-0.100591,27.7295,-17.6829,34.8171,8.5061
612.088,83.6024,48.4657,0,9.66151,0.969983,-0.490979,2.16463,7.77439,-1.18902,-26.6757,0.0143701,27.4421,-20.7622,32.0427,6.58537
612.098,83.614,48.321,0,9.65432,0.955613,-0.490979,1.82927,8.38415,-1.28049,-27.4421,0.196392,27.4038,-24.2683,30,5
612.108,83.6223,48.1563,0,9.59205,0.953218,-0.368833,2.77439,8.14024,-1.43293,-27.9116,0.129331,27.2314,-27.0427,26.25,4.5122
612.118,83.6389,47.9647,0,9.4244,0.881367,-0.311353,2.71341,6.95122,-1.61585,-29.157,-0.0814307,27.5858,-27.9268,19.5427,3.71951
612.128,83.6376,47.747,0,9.39806,0.998723,-0.165256,4.72561,4.11585,-1.25,-29.2815,-0.435894,26.8482,-28.3841,10.2439,2.86585
612.138,83.5915,47.4935,0,9.58487,1.23104,-0.270637,5.91463,2.95732,-0.853659,-29.7701,-0.752036,26.1967,-27.2256,0.27439,1.7378
612.148,83.5482,47.2167,0,9.5681,1.23344,-0.270637,3.04878,1.7378,-1.31098,-30.1054,-0.857417,25.6698,-27.5,-10.4573,0.487805
612.158,83.5479,46.8962,0,9.52499,0.953218,0.0287402,1.85976,-2.28659,-2.04268,-30.594,-0.665815,24.798,-22.5,-19.2378,0.97561
612.168,83.5436,46.5845,0,9.32621,0.936453,0.330513,2.59146,-9.93902,-2.34756,-30.6227,-0.694556,24.7022,-16.4634,-26.7988,1.70732
612.178,83.5571,46.3029,0,9.39566,0.816702,0.474214,3.10976,-14.2378,-2.43902,-31.5999,-0.00479004,25.8423,-11.4939,-40,4.5122
612.188,83.5835,46.0185,0,9.68785,0.802332,0.318538,4.32927,-11.8598,-1.92073,-32.5579,0.158071,26.2446,-9.48171,-50.1829,5.54878
612.198,83.5976,45.7136,0,9.81479,0.895737,0.0694556,3.07927,-9.02439,-1.79878,-32.51,0.330513,25.4399,-10.4878,-55.8232,6.79878
612.208,83.6207,45.4189,0,9.87467,0.855022,-0.335303,0.97561,-8.01829,-1.64634,-32.7016,-0.0431104,25.507,-8.75,-64.0549,6.0061
612.218,83.6551,45.1325,0,9.95131,0.725691,-0.500559,-0.457317,-8.59756,-2.0122,-32.0118,-0.282612,24.8459,-5.88415,-74.5732,7.46951
612.228,83.6692,44.8226,0,9.92017,0.723296,-0.55804,-1.67683,-9.7561,-3.29268,-31.1209,-0.713716,23.361,-3.87195,-83.811,8.04878
612.238,83.6814,44.6094,0,9.91299,0.665815,-0.63468,-3.20122,-10,-3.9939,-31.5137,-1.03944,25.4974,-3.56707,-93.3537,6.95122
612.248,83.6806,44.4113,0,9.68306,0.6251,-0.512534,-4.05488,-9.14634,-5.4878,-32.4142,-0.828677,26.3213,-2.0122,-106.982,6.06707
612.258,83.6754,44.1841,0,9.51781,0.57241,-0.474214,-3.44512,-9.81707,-6.43293,-32.0502,-0.771196,25.1429,3.41463,-113.171,7.2561
612.268,83.6638,43.9959,0,9.47709,0.56283,-0.59157,-1.7378,-10.8232,-7.16463,-32.1651,-1.03944,25.9093,9.87805,-116.951,9.17683
612.278,83.6462,43.88,0,9.71899,0.589175,-0.919688,-0.670732,-10.0915,-7.65244,-32.4142,-0.943638,27.6146,16.6768,-129.695,10.6707
612.288,83.6323,43.7817,0,10.0495,0.524509,-1.27894,0.304878,-8.07927,-8.29268,-31.9927,-0.828677,27.5188,22.561,-140.854,10.5183
612.298,83.6095,43.7255,0,10.5261,0.534089,-1.54239,0.365854,-8.32317,-9.39024,-30.9676,-0.627495,27.5379,24.6037,-144.512,9.84756
612.308,83.5332,43.7274,0,11.1392,0.821492,-2.57944,-7.34756,-6.34146,-12.2256,-30.2108,-0.608335,28.199,25.6098,-150.701,8.65854
612.318,83.4106,43.7704,0,11.9511,0.943638,-3.67396,-22.8354,0.548781,-16.4939,-29.8659,-0.857417,28.8791,25.5488,-156.951,8.78049
612.328,83.2888,43.8329,0,12.4325,0.498164,-3.9901,-31.7988,8.10976,-21.189,-29.7222,-1.4897,29.2528,30.8232,-162.5,8.62805
612.338,83.1343,43.929,0,12.0901,0.514929,-2.91234,-35.5488,13.1098,-24.4817,-29.6456,-1.346,30.1054,32.1951,-165.457,6.52439
612.348,82.9936,43.9704,0,11.5703,0.119751,-1.14242,-31.189,13.0793,-27.1646,-29.7414,-1.59508,28.9462,36.7378,-151.921,7.46951
612.358,82.7892,44.1089,0,10.1453,0.479004,-0.229922,-20.1829,13.1402,-29.6341,-30.0671,-2.16989,32.0023,44.0549,-137.47,7.43902
612.368,82.5868,44.3596,0,9.49865,0.201182,-0.775986,-12.9268,25.5183,-32.8963,-31.1975,-2.54351,36.7827,58.628,-150.396,6.12805
612.378,82.3806,44.6052,0,9.84353,0.0886157,-1.35319,-5.67073,23.2622,-35.122,-32.4046,-3.28118,38.258,81.7988,-166.707,1.03659
612.388,82.1267,44.8685,0,11.0099,0.308958,-1.73639,0.243902,26.7378,-38.1707,-31.5807,-2.50519,38.1814,100.305,-171.646,-4.39024
612.398,81.8401,45.2041,0,11.9919,0.579595,-0.759221,-1.61585,20.8537,-39.6646,-29.8563,-1.52802,38.9382,103.232,-166.189,-6.46341
612.408,81.5501,45.6214,0,12.6864,0.390388,-0.0742456,-3.71951,18.3537,-42.6524,-26.7715,-0.627495,38.2101,91.0671,-153.171,-4.81707
612.418,81.2469,46.1543,0,12.1499,0.0838257,-0.0550855,-2.62195,27.8659,-47.378,-23.7825,-0.205972,38.6317,77.3171,-140.762,0.121951
612.428,80.9068,46.7457,0,10.574,0.105381,-0.0431104,-3.04878,34.939,-51.4024,-20.6594,0.512534,36.4857,66.8598,-123.049,6.06707
612.438,80.5702,47.3376,0,9.87227,-0.0766406,0.852627,-1.55488,27.4085,-53.811,-20.8606,1.35558,37.8557,61.189,-111.006,12.9268
612.448,80.1777,47.9251,0,10.2076,0.313748,0.524509,2.56098,19.0854,-55.7012,-19.8643,2.25611,36.9072,52.5305,-93.8415,18.7195
612.458,79.7219,48.4112,0,9.4723,0.732876,0.543669,5.73171,6.89024,-57.5305,-20.2858,2.56267,34.905,45.061,-73.4451,20.7012
612.468,79.1861,48.8229,0,9.65432,1.27415,0.203577,5.39634,3.75,-60.3049,-20.7361,2.46687,33.8704,42.8049,-56.9817,19.0549
612.478,78.5931,49.1665,0,10.0471,1.89925,-0.119751,6.76829,3.2622,-60.7317,-21.7899,2.76385,33.8704,40.8232,-51.4024,17.2866
612.488,77.9464,49.4527,0,9.5226,2.31359,0.0479004,3.90244,2.65244,-61.4024,-22.336,2.32317,33.2956,38.1707,-50.3963,14.5427
612.498,77.2779,49.7158,0,9.69743,2.73751,-0.330513,1.4939,5.09146,-60.6402,-22.7096,1.69088,33.4776,38.8415,-50.2134,11.7683
612.508,76.5965,49.9975,0,9.44835,2.94827,-0.239502,1.18902,1.18902,-60.122,-22.0102,1.69088,33.4105,40.2744,-41.2805,10.2439
612.518,75.9075,50.2709,0,9.06036,3.06562,-0.512534,1.95122,0.670732,-59.5122,-21.5791,1.74836,32.9315,44.6341,-27.8963,6.76829
612.528,75.2643,50.574,0,9.52499,3.06562,-0.560435,4.20732,1.58537,-57.9878,-19.7972,2.20821,31.5232,47.1037,-11.189,5.7622
612.538,74.5542,50.8136,0,9.06036,3.58774,-0.285007,4.63415,1.09756,-58.4451,-22.3168,2.05493,33.8033,52.7439,-11.4939,5.03049
612.548,73.825,51.052,0,8.53824,3.67635,0.0622705,6.89024,-4.72561,-58.3841,-22.7671,3.20454,34.7613,53.3841,-11.2195,4.84756
612.558,73.0613,51.3013,0,8.02332,3.99968,0.227527,8.10976,-8.17073,-56.8598,-22.8054,4.19128,35.5277,53.9024,-9.17683,4.72561
612.568,72.3633,51.5508,0,8.69632,4.02363,0.0191602,6.37195,-5.27439,-55.122,-22.2593,4.68945,35.0487,45.3354,-3.96341,3.38415
612.578,71.7234,51.7723,0,8.88313,3.91586,0.146096,7.80488,-9.05488,-52.7439,-22.585,5.26425,34.9625,33.7805,-1.40244,2.0122
612.588,71.1052,51.9702,0,9.00288,4.03321,0.100591,6.40244,-7.77439,-51.128,-22.8054,5.46543,34.7901,22.2256,-3.23171,-1.67683
612.598,70.5064,52.1639,0,8.93103,4.02842,0.387993,5.45732,-8.96341,-50.122,-22.8054,5.58998,34.905,15.7012,-3.81098,-4.17683
612.608,69.9344,52.3559,0,8.85678,3.85119,-0.141306,6.79878,-11.7988,-50.1829,-22.9682,5.37921,35.3553,14.3598,-4.35976,-6.85976
612.618,69.3683,52.5361,0,9.0891,3.90149,-0.0598755,5.45732,-13.4146,-51.311,-23.2365,4.69903,35.6427,11.5854,-1.58537,-10.122
612.628,68.8203,52.7085,0,9.42201,3.80808,-0.505349,5.30488,-8.65854,-53.1098,-23.2461,3.99968,35.6618,7.9878,2.19512,-13.5976
612.638,68.2592,52.8712,0,9.75731,4.06435,0.00958008,3.71951,-11.6159,-54.3293,-23.0736,2.90755,35.317,3.20122,5.18293,-16.9512
612.648,67.6974,53.036,0,9.61361,4.02124,0.258662,4.05488,-15.4268,-55.3659,-22.6713,2.04535,34.9912,3.2622,5.57927,-18.1098
612.658,67.1243,53.1976,0,9.74533,4.15296,-0.136516,4.57317,-16.7378,-56.8902,-22.2881,1.69088,34.5314,6.06707,8.78049,-16.8598
612.668,66.563,53.3798,0,9.58008,3.89191,-0.193997,7.53049,-13.5366,-58.8415,-21.9623,1.83458,34.9625,7.86585,13.0488,-13.9024
612.678,65.9469,53.5495,0,9.67827,4.41642,-0.855022,4.96951,-6.06707,-60.6402,-21.5312,2.28485,34.1482,6.85976,20.6098,-6.34146
612.688,65.3391,53.7233,0,9.55134,4.27271,-0.479004,2.2561,-3.90244,-61.9207,-21.5216,3.03209,34.5218,3.68902,24.6341,2.04268
612.698,64.7443,53.8903,0,9.60163,4.29906,-0.193997,3.35366,-7.0122,-61.7988,-22.0102,3.23328,35.2978,0.0609756,23.1402,8.20122
612.708,64.1454,54.0386,0,9.41003,4.2296,-0.455054,-0.0914634,-5.79268,-63.2622,-22.1539,3.47278,35.1062,0.853659,22.3171,9.20732
612.718,63.5572,54.1774,0,8.95258,3.84401,-0.229922,0.914634,-5.70122,-65.3659,-21.742,4.038,34.3877,0.884146,30.9146,8.41463
612.728,62.9419,54.291,0,8.72745,4.01405,-0.423918,2.62195,-5.12195,-66.3415,-22.336,3.97094,34.7134,0.518293,39.0854,7.31707
612.738,62.307,54.4164,0,8.77775,4.32301,-0.574805,2.10366,-8.20122,-66.4939,-21.3492,3.90388,33.8033,0.396341,54.3902,5.4878
612.748,61.6552,54.5047,0,8.69392,4.62239,-0.524509,0.27439,-11.189,-65.8841,-21.4929,3.82724,33.0465,-3.14024,63.4451,3.38415
612.758,61.0194,54.5519,0,8.67716,4.60802,-0.749641,-0.823171,-9.78659,-65.6402,-21.8474,3.85598,32.4525,-8.5061,71.311,1.43293
612.768,60.3615,54.5649,0,8.34185,4.75172,-0.900527,0.152439,-5.94512,-65.7317,-22.4318,4.1338,32.3376,-15.4268,75.2134,-0.731707
612.778,59.6968,54.5342,0,7.90596,4.79483,-0.510139,0.853659,-7.7439,-64.5732,-22.1635,4.15296,30.7281,-21.6463,82.439,-2.83537
612.788,59.065,54.5102,0,7.8844,4.83794,-0.107776,0.426829,-15.4878,-61.9512,-22.0485,4.39247,30.7856,-26.5854,93.3841,-3.47561
612.798,58.4939,54.4945,0,8.13349,4.66789,-0.452659,-0.152439,-14.7561,-60.4878,-22.0869,4.50743,31.0634,-31.2195,95.4878,-3.29268
612.808,57.9374,54.4895,0,7.75507,4.40923,-0.560435,1.12805,-12.0427,-60.6402,-21.7037,4.30625,30.8431,-33.1707,100.549,-1.61585
612.818,57.3785,54.486,0,7.80776,4.63197,-0.273032,1.95122,-13.5061,-59.8476,-21.56,4.0859,30.7089,-35.1524,106.402,-2.31707
612.828,56.8051,54.4796,0,7.86285,4.90739,-0.823887,3.56707,-12.0122,-59.8476,-21.7803,3.95178,30.9676,-37.5305,112.378,-0.426829
612.838,56.2087,54.4208,0,7.86524,5.32652,-0.61552,2.2561,-16.372,-58.9939,-22.2497,3.33866,30.1533,-40.3049,117.988,-0.243902
612.848,55.6035,54.344,0,7.85087,5.58758,-0.61073,1.31098,-15.7012,-58.3841,-22.7192,2.99377,30.2299,-40.7317,119.573,-2.89634
612.858,54.9834,54.1404,0,7.78381,5.89175,-0.64426,0.213415,-13.9024,-57.7134,-23.7059,3.06083,28.0744,-41.0671,125.305,-5.18293
612.868,54.3553,53.9404,0,7.60179,6.08574,-0.471819,-1.15854,-18.2012,-56.6159,-22.5946,2.83091,26.6853,-41.0976,132.439,-6.40244
612.878,53.7728,53.7088,0,7.65688,5.85822,-0.64905,-1.7378,-20.2439,-55.8232,-24.0508,2.55309,27.4805,-39.7256,144.604,-7.04268
612.888,53.2193,53.4747,0,7.64969,5.7696,-0.699346,-2.13415,-24.4817,-54.8476,-24.4915,2.00703,27.7295,-38.7805,151.768,-8.35366
612.898,52.7291,53.2778,0,7.82213,5.62111,-0.677791,0.304878,-28.1707,-52.2256,-24.1945,2.08367,28.1127,-43.0183,157.439,-8.59756
612.908,52.2736,53.1146,0,8.02332,5.80553,-0.797541,-0.0304878,-28.1098,-49.2988,-23.9837,2.07409,28.5247,-49.3293,158.78,-8.9939
612.918,51.8194,52.9406,0,7.9323,6.08814,-0.804727,-3.44512,-27.3171,-46.7988,-23.4281,2.60099,27.4517,-53.5671,161.951,-7.80488
612.928,51.3818,52.8026,0,7.98021,6.26058,-1.0107,-5.91463,-19.6646,-44.7866,-23.064,3.42488,27.7583,-56.311,165.945,-5.54878
612.938,50.9541,52.6532,0,7.81974,6.23424,-1.07536,-8.65854,-7.37805,-43.75,-23.5143,3.3195,27.8924,-59.7866,169.39,-4.7561
612.948,50.5518,52.4356,0,7.69759,6.25579,-0.64426,-9.39024,-6.0061,-40.9451,-24.1945,3.20454,26.9056,-68.0488,177.835,-7.5
612.958,50.1989,52.2086,0,7.79579,6.17915,-0.735271,-10.5488,-10.4268,-38.1402,-24.7118,3.08,27.0781,-78.5976,184.024,-12.3171
612.968,49.8929,51.9693,0,7.64251,5.85582,-1.01549,-11.7683,-9.54268,-36.0061,-24.5777,2.80217,26.4554,-86.7683,190.579,-17.439
612.978,49.6141,51.686,0,7.16829,5.49657,-0.929268,-12.7439,-10.1829,-33.811,-24.2424,2.89797,24.9417,-88.8719,201.616,-19.0244
612.988,49.3499,51.4117,0,6.98388,5.44148,-0.950823,-13.4146,-14.939,-31.9817,-23.9933,2.88839,24.6735,-90.3049,210.518,-16.2805
612.998,49.1209,51.172,0,7.10363,5.4343,-0.981958,-12.2561,-18.1402,-29.9695,-24.1657,2.65847,25.3824,-87.7439,211.677,-13.689
613.008,48.8721,50.9546,0,7.01262,5.73128,-0.953218,-10.7317,-19.7256,-28.689,-24.5298,2.31359,26.053,-87.3171,210.884,-11.4024
613.018,48.6121,50.6898,0,6.86413,5.87019,-0.991538,-9.84756,-21.6159,-27.7439,-25.1429,1.76752,25.4303,-89.8781,213.598,-11.2195
613.028,48.3502,50.4113,0,6.87371,5.88935,-1.12087,-7.65244,-24.0549,-28.3537,-25.21,1.94955,24.9705,-95.2134,216.189,-14.4207
613.038,48.0319,50.0575,0,6.67731,6.12885,-1.17835,-7.68293,-28.689,-30.6402,-25.9381,1.825,23.8017,-93.7195,214.909,-14.878
613.048,47.697,49.7022,0,6.74677,6.23903,-1.25499,-5.51829,-29.2378,-32.561,-26.4075,1.80584,23.9262,-89.6037,220.793,-17.0122
613.058,47.3357,49.3248,0,6.7827,6.50727,-1.2023,-6.28049,-28.4451,-33.7805,-26.5799,1.47054,23.3514,-86.3719,227.957,-18.3841
613.068,46.9817,48.9246,0,6.92161,6.43302,-1.20469,-6.89024,-26.4329,-35.6402,-27.2218,0.627495,23.1598,-88.3232,236.494,-21.5549
613.078,46.6096,48.5044,0,7.00783,6.54319,-1.56634,-7.13415,-19.2683,-37.9268,-27.5475,0.493374,22.7,-92.2866,237.896,-23.75
613.088,46.2322,48.0994,0,6.97669,6.4426,-1.48731,-7.86585,-18.3841,-39.878,-27.5571,0.704136,22.6617,-94.1159,233.232,-24.1768
613.098,45.83,47.7286,0,6.81623,6.52643,-1.0586,-4.57317,-18.5671,-41.0671,-27.7966,0.684976,23.1982,-94.5122,224.817,-23.8415
613.108,45.3652,47.3588,0,6.44979,6.83778,-1.13524,-4.39024,-15.9146,-42.3171,-28.1702,0.934058,23.1982,-95.7927,218.293,-23.0488
613.118,44.8458,46.9827,0,6.17436,7.10363,-1.02028,-4.81707,-14.1463,-44.0854,-28.8504,1.4897,23.3035,-97.1037,215.732,-19.5732
613.128,44.3385,46.5736,0,6.24142,7.15871,-1.0107,-3.65854,-14.878,-44.0854,-29.5593,1.38432,22.8437,-98.811,210.945,-17.6524
613.138,43.8753,46.1346,0,6.60546,6.98388,-1.22386,-1.37195,-17.1341,-45.3659,-30.1629,1.41306,22.3455,-99.7256,211.25,-15.3354
613.148,43.4325,45.6323,0,7.01501,6.79228,-1.21906,0.365854,-16.4634,-49.3598,-30.6419,1.50886,21.0618,-101.707,212.622,-11.8598
613.158,42.9201,45.1601,0,7.06531,7.05812,-1.07776,0.670732,-12.6524,-55.5488,-30.3736,1.2023,21.081,-101.494,213.201,-6.55488
613.168,42.3359,44.6602,0,6.85934,7.36229,-1.11368,-0.884146,-7.62195,-59.7256,-30,0.914897,19.9314,-98.7195,214.756,-2.19512
613.178,41.7512,44.2029,0,6.81862,7.43654,-0.871787,-0.0609756,-7.22561,-60.0305,-29.6935,-0.110171,20.1804,-98.8415,219.665,0.152439
613.188,41.1696,43.7509,0,6.96232,7.77423,-1.11129,-0.487805,-3.10976,-59.5427,-29.7222,-0.617915,19.9601,-99.0244,221.22,1.0061
613.198,40.5811,43.3241,0,6.87371,7.68322,-1.27894,-1.61585,0.853659,-61.372,-29.5593,-0.857417,19.9793,-98.0488,218.506,3.20122
613.208,39.9504,42.8928,0,6.48811,7.52276,-1.152,-3.29268,2.37805,-64.7561,-29.4252,-1.13524,19.4715,-93.9939,214.36,6.40244
613.218,39.2909,42.4468,0,6.22705,7.42696,-1.30529,-4.08537,3.41463,-67.3476,-29.7126,-1.87291,19.0691,-85.2744,214.695,8.32317
613.228,38.6061,42.009,0,5.95162,7.5036,-1.33882,-4.66463,9.08537,-68.1098,-30.3257,-2.45729,19.2895,-77.8659,215.64,8.32317
613.238,37.8884,41.5448,0,5.55884,7.58263,-0.902922,-2.68293,8.59756,-68.4146,-31.3029,-2.51477,19.0883,-76.4329,219.97,7.40854
613.248,37.163,41.066,0,5.4319,7.89398,-0.931663,-1.46341,5.82317,-67.1646,-31.3795,-2.64889,18.5231,-76.8598,222.165,5.79268
613.258,36.4693,40.5794,0,5.5804,7.94428,-1.0562,-0.701219,4.63415,-66.5549,-31.3604,-1.94955,18.0249,-73.3537,224.573,3.75
613.268,35.7635,40.0469,0,5.40795,8.11193,-0.967588,-0.182927,2.22561,-66.3415,-30.6227,-1.5855,16.4729,-68.2927,231.311,3.93293
613.278,35.0726,39.5205,0,5.28581,7.97302,-1.04902,0.792683,0.792683,-65.9756,-30.6898,-1.48012,16.2718,-64.0244,237.652,5.27439
613.288,34.4087,38.9987,0,5.35047,8.09517,-1.19272,2.10366,-2.5,-64.4512,-30.5844,-1.61424,15.946,-59.4512,241.25,3.41463
613.298,33.7759,38.4531,0,5.45106,8.12151,-0.965193,0.884146,-2.77439,-63.4756,-31.0634,-1.71004,15.4383,-55.5183,243.902,1.85976
613.308,33.126,37.9423,0,5.15887,8.00416,-1.03465,1.61585,-0.0609756,-64.3293,-31.1017,-1.87291,15.6874,-54.1768,244.36,0.0914634
613.318,32.4817,37.4395,0,5.23072,7.95865,-1.32684,1.61585,3.17073,-66.1281,-31.3029,-1.80584,15.582,-52.3476,246.524,-1.95122
613.328,31.7956,36.9478,0,4.98404,8.1263,-1.64298,-3.78049,3.23171,-68.0488,-31.5137,-1.91123,15.5437,-51.5549,248.384,-3.65854
613.338,31.0908,36.4127,0,4.77567,7.98979,-1.33403,-5.82317,0.121951,-70.0305,-31.916,-2.09325,14.6719,-50.7317,253.506,-4.02439
613.348,30.422,35.8499,0,5.02715,7.85327,-0.907712,-4.45122,-2.43902,-71.3719,-32.4334,-2.24653,14.0875,-49.6341,257.774,-6.52439
613.358,29.6926,35.278,0,4.16733,8.27,-1.03465,-5.64024,-5.85366,-66.9207,-32.9603,-2.58183,13.7809,-43.9634,259.39,-7.22561
613.368,28.9621,34.7214,0,3.92783,8.41131,-1.00351,-3.04878,-5.36585,-65.0305,-32.8836,-2.26569,13.6372,-43.811,262.988,-9.35976
613.378,28.2322,34.1596,0,3.93023,8.87594,-1.08255,-3.47561,-10.8232,-64.1159,-32.9603,-2.14115,13.2157,-40.3659,265.366,-9.45122
613.388,27.543,33.5737,0,3.95897,9.03401,-0.850232,-4.66463,-17.9878,-61.0061,-33.3818,-2.24653,12.6026,-38.4451,266.646,-8.07927
613.398,26.9381,32.9796,0,4.25595,8.89031,-1.22146,-3.29268,-19.3902,-57.7134,-33.765,-2.44771,12.2194,-34.1768,267.165,-6.12805
613.408,26.3736,32.3715,0,4.30146,8.79451,-1.27176,-3.38415,-17.8963,-55.8232,-33.6883,-2.94587,11.5679,-29.6037,268.689,-5.09146
613.418,25.856,31.7882,0,4.32541,8.70829,-0.926873,-2.59146,-19.1159,-52.8963,-33.5255,-2.89797,11.5296,-25.5793,269.787,-2.28659
613.428,25.3517,31.1965,0,4.10027,8.61968,-0.780776,-3.93293,-20.5183,-50.6098,-33.1998,-3.09916,10.9069,-23.4756,270.671,-2.40854
613.438,24.8875,30.6162,0,4.04998,8.49992,-0.960403,-5.42683,-21.5244,-47.622,-32.7591,-2.86923,10.562,-17.2866,268.171,-0.548781
613.448,24.4586,30.0627,0,4.07872,8.40173,-1.16158,-5.91463,-20.122,-45.8232,-32.7399,-3.09916,10.6099,-12.7439,266.25,-1.03659
613.458,24.0176,29.549,0,3.93262,8.59812,-1.61664,-8.10976,-16.6768,-45.2439,-33.0177,-3.05125,10.9836,-9.29878,264.878,-1.58537
613.468,23.5575,29.0125,0,3.63085,8.57656,-1.60466,-11.4024,-14.6646,-44.7561,-32.5579,-3.03209,10.1501,-5.2439,265.213,-3.44512
613.478,23.0881,28.5075,0,3.40332,8.51908,-0.907712,-14.2378,-19.1463,-44.2683,-33.0561,-3.06083,10.4662,-4.93902,264.756,-4.7561
613.488,22.6337,27.969,0,3.3171,8.60052,-0.828677,-11.0366,-23.5061,-42.2866,-32.874,-2.99377,9.56571,-3.23171,265.244,-7.34756
613.498,22.2192,27.4474,0,3.59971,8.66758,-1.32684,-11.189,-22.1341,-42.1341,-33.3914,-2.16989,9.64235,-3.68902,265,-10.122
613.508,21.8072,26.8996,0,3.62845,8.78972,-1.31008,-11.5854,-21.7378,-42.4695,-33.0273,-2.05493,8.7993,-3.23171,263.598,-12.0122
613.518,21.3221,26.3731,0,3.00096,9.08191,-1.22625,-11.189,-23.5366,-42.3171,-33.832,-1.78668,9.00048,-2.40854,260.945,-13.3841
613.528,20.9117,25.8336,0,3.39614,9.07952,-1.12805,-11.2805,-24.6341,-40.2134,-34.129,-1.4418,8.53106,-2.92683,259.695,-16.4939
613.538,20.5043,25.2846,0,3.2716,9.20885,-0.888552,-6.25,-24.4817,-38.811,-35.3553,-1.57592,8.3203,-4.57317,257.256,-18.8415
613.548,20.0646,24.7399,0,3.17101,9.56331,-1.54,-7.07317,-24.0244,-40.4573,-36.3516,-1.07776,8.25324,-4.63415,254.726,-15.9756
613.558,19.6445,24.1765,0,3.14945,9.35016,-1.84417,-9.20732,-21.1585,-39.9085,-37.1084,-1.13524,7.71675,-4.5122,249.817,-13.1098
613.568,19.2339,23.5915,0,2.93869,9.09628,-1.31487,-8.90244,-20.4878,-38.3537,-38.191,-0.905317,7.16111,-4.20732,245.518,-9.29878
613.578,18.8482,23.0484,0,2.87642,8.95019,-1.29571,-6.12805,-23.6585,-36.4634,-39.513,-1.47054,7.71675,-2.65244,237.348,-5.42683
613.588,18.4763,22.4963,0,2.84289,8.86636,-1.31726,-4.69512,-23.1707,-35.7622,-39.1298,-1.55676,7.07489,-0.97561,230.884,-1.46341
613.598,18.0674,21.952,0,2.4501,8.85439,-1.33403,-3.81098,-22.0427,-35.5793,-39.3119,-1.83458,6.83539,0.121951,224.329,-0.0609756
613.608,17.6788,21.4135,0,2.46208,9.07952,-1.22146,-2.07317,-20.122,-33.75,-38.7083,-2.29443,6.4426,0.701219,221.585,1.15854
613.618,17.3161,20.9073,0,2.54591,9.24478,-1.24062,-1.09756,-18.7195,-32.3476,-38.3922,-2.54351,6.55756,0.152439,214.665,0.670732
613.628,16.9752,20.4127,0,2.65847,9.42919,-1.29092,-1.55488,-18.2927,-31.5854,-38.0952,-2.39023,6.3468,-0.731707,210.366,0.457317
613.638,16.6236,19.9217,0,2.5004,9.40524,-1.09931,-4.02439,-17.6829,-31.6159,-38.6508,-2.22737,6.13604,-2.83537,203.567,-2.5
613.648,16.266,19.4493,0,2.39981,9.4268,-1.1999,-5.85366,-16.6463,-31.7073,-39.3598,-2.17947,6.21268,-4.39024,197.317,-5.57927
613.658,15.891,19.0036,0,2.18426,9.52499,-1.08734,-6.55488,-17.2256,-31.4329,-38.9957,-2.09325,6.26058,-6.46341,187.195,-7.77439
613.668,15.5041,18.597,0,1.99026,9.57768,-1.20469,-7.86585,-19.2683,-31.0061,-39.0628,-1.30768,6.61504,-11.0976,177.195,-8.59756
613.678,15.1343,18.188,0,2.05972,9.43638,-1.3484,-8.01829,-18.628,-31.2195,-38.6125,-0.349673,6.18394,-13.628,167.683,-8.07927
613.688,14.7752,17.7622,0,2.11241,9.37411,-1.33403,-6.06707,-18.4451,-31.6768,-39.2927,-0.0526904,5.68578,-17.8049,160.915,-5.85366
613.698,14.4418,17.3671,0,2.22258,9.26154,-1.48491,-4.93902,-18.628,-31.4024,-39.8388,-0.0431104,5.98276,-21.2805,152.683,-2.34756
613.708,14.1419,16.9576,0,2.30161,9.19448,-1.65496,-3.78049,-15.5793,-29.8171,-39.8388,-0.493374,5.42711,-24.5122,147.744,-1.06707
613.718,13.8422,16.5645,0,2.13396,9.25915,-1.50407,-3.90244,-12.3476,-28.2012,-39.6951,-1.25978,5.39837,-26.372,144.512,-0.457317
613.728,13.5768,16.1838,0,2.31598,9.06754,-1.19511,-3.56707,-12.1646,-28.0793,-39.4076,-1.1544,5.28341,-29.4817,138.11,-2.86585
613.738,13.3094,15.7949,0,2.24892,9.10347,-0.962798,-2.62195,-13.811,-27.8963,-38.9765,-1.30768,4.79483,-29.3902,131.341,-4.08537
613.748,13.0409,15.4026,0,2.08846,9.21843,-0.929268,-1.06707,-13.3841,-26.2805,-38.6412,-1.60466,4.41163,-31.4329,126.524,-4.32927
613.758,12.7651,14.9994,0,1.96152,9.40524,-1.07536,0.670732,-13.0488,-25.5793,-38.6891,-1.6334,3.9422,-33.0793,120.427,-5.09146
613.768,12.4991,14.6165,0,1.89446,9.35255,-1.25978,1.98171,-11.8598,-24.4512,-37.9419,-1.346,3.92304,-33.2927,115.854,-5.06098
613.778,12.2494,14.2135,0,1.99745,9.36692,-1.26697,1.25,-10.8537,-24.5427,-38.1622,-1.5376,3.32908,-33.872,110.091,-1.92073
613.788,11.9868,13.7773,0,1.88249,9.36213,-1.2023,1.31098,-9.20732,-25,-38.3155,-1.65256,2.49561,-34.3293,106.921,-1.06707
613.798,11.7057,13.3579,0,1.95434,9.64953,-1.21188,2.62195,-9.17683,-27.5915,-38.8903,-1.4897,2.51477,-32.6829,103.659,0.152439
613.808,11.4647,12.9318,0,2.26808,9.49865,-1.02986,2.65244,-7.80488,-28.1098,-38.967,-1.51844,2.10283,-33.3841,99.4817,1.92073
613.818,11.2239,12.4776,0,2.18186,9.50104,-0.890947,2.0122,-9.02439,-27.561,-38.9765,-1.87291,1.32684,-33.2012,98.4146,1.79878
613.828,11.0145,12.0272,0,2.27766,9.34058,-0.684976,1.43293,-7.10366,-26.4329,-39.2544,-2.11241,1.07776,-32.6829,94.6341,1.28049
613.838,10.8292,11.6141,0,2.32317,9.35016,-0.55325,1.7378,-4.26829,-24.9085,-39.7046,-2.19863,1.42264,-33.1707,92.2256,-1.46341
613.848,10.6518,11.1647,0,2.26329,9.3765,-0.613125,2.7439,-0.152439,-23.689,-40.0016,-2.50519,0.502954,-30.8537,91.9512,-1.64634
613.858,10.4762,10.7368,0,2.13636,9.35495,-0.701741,2.5,2.53049,-22.439,-39.8196,-2.46687,0.560435,-29.8171,90.1524,-1.37195
613.868,10.2995,10.2969,0,2.04056,9.36213,-0.785566,2.31707,4.63415,-21.7378,-40.0112,-2.46687,0.0526904,-27.378,90.4268,-3.44512
613.878,10.1344,9.81532,0,2.02619,9.29986,-0.955613,2.46951,6.37195,-20.9146,-39.5418,-2.48603,-0.981958,-25.7317,89.3902,-0.0304878
613.888,9.95962,9.30588,0,1.8777,9.37171,-1.16158,2.59146,8.23171,-20.2744,-39.0244,-2.12199,-1.76752,-22.7744,92.1037,0.121951
613.898,9.77567,8.81926,0,1.78668,9.51302,-1.23344,2.86585,8.14024,-20.1524,-39.149,-1.92081,-1.71962,-22.6524,94.4512,2.62195
613.908,9.57625,8.34465,0,1.6334,9.54655,-1.41306,2.56098,6.37195,-20.2134,-39.3502,-2.23695,-1.84417,-22.3476,97.5,1.06707
613.918,9.36557,7.91032,0,1.51365,9.58247,-1.43222,1.98171,4.66463,-20.2744,-39.7142,-2.57225,-1.48012,-18.4146,98.7805,-0.335366
613.928,9.14572,7.50196,0,1.37953,9.53457,-1.47054,1.58537,2.13415,-20.122,-39.6951,-2.55309,-1.32684,-18.4756,98.4756,-1.67683
613.938,8.9139,7.12158,0,1.28134,9.46033,-1.45138,1.70732,1.55488,-20.7317,-39.446,-2.55309,-1.11608,-18.9024,97.561,-3.01829
613.948,8.68669,6.74359,0,1.23583,9.51781,-1.47773,1.4939,1.98171,-20.0915,-39.8196,-2.22737,-1.35558,-18.3841,95.7012,-3.90244
613.958,8.46831,6.40371,0,1.2502,9.60163,-1.40588,1.21951,2.0122,-19.6951,-39.9633,-2.29443,-0.962798,-15.061,92.8049,-2.53049
613.968,8.25729,6.05468,0,1.23823,9.64714,-1.35798,1.34146,2.04268,-19.1768,-39.4651,-2.20821,-1.346,-14.3902,92.2866,-1.25
613.978,8.06023,5.71665,0,1.27655,9.59684,-1.45378,2.13415,1.82927,-18.7195,-39.1681,-2.42855,-1.38432,-14.7866,92.3781,-1.55488
613.988,7.87523,5.41601,0,1.346,9.54415,-1.46575,2.07317,1.28049,-18.811,-38.9957,-2.66805,-0.972378,-12.622,90.3049,-2.07317
613.998,7.70082,5.11967,0,1.41067,9.46512,-1.42025,2.04268,0.884146,-19.0244,-39.1873,-2.95545,-1.11608,-9.66463,88.0793,-4.08537
614.008,7.54033,4.83857,0,1.49689,9.40524,-1.38911,2.04268,2.53049,-19.1159,-39.149,-2.53393,-1.07776,-8.90244,81.189,-7.10366
614.018,7.39265,4.56181,0,1.57353,9.41003,-1.2981,2.37805,3.84146,-19.0549,-39.6376,-2.19863,-1.23104,-6.43293,75.0305,-9.48171
614.028,7.24604,4.32563,0,1.52802,9.39806,-1.16877,2.62195,4.7561,-18.7195,-40.2986,-1.94955,-0.752036,-7.07317,67.3171,-11.128
614.038,7.11486,4.09333,0,1.5879,9.41243,-1.1544,2.19512,5.12195,-18.1402,-40.4998,-1.41306,-0.876577,-7.0122,60.7317,-11.128
614.048,6.9901,3.88656,0,1.54,9.44835,-1.06578,1.58537,5.45732,-17.1037,-40.8063,-1.13524,-0.617915,-12.622,52.6829,-10.6098
614.058,6.86737,3.70676,0,1.47294,9.51302,-1.01309,1.55488,6.15854,-16.2195,-41.1608,-0.541274,-0.301772,-19.939,47.1951,-8.07927
614.068,6.74581,3.52919,0,1.40109,9.58247,-1.12326,1.95122,8.01829,-15.3659,-41.6781,-0.426313,-0.426313,-28.4451,38.6585,-6.18902
614.078,6.61121,3.3645,0,1.19751,9.6184,-1.06339,2.68293,10.1829,-14.4512,-41.9847,-0.0526904,-0.349673,-35.8841,30.8232,-4.45122
614.088,6.46162,3.21809,0,0.965193,9.73815,-1.14242,3.5061,10.8537,-13.3232,-42.8661,-0.158071,-0.167651,-42.1341,21.9512,-1.70732
614.098,6.31203,3.06204,0,0.792751,9.7597,-1.152,3.87195,11.9817,-11.5549,-42.9044,-0.502954,-0.483794,-48.2927,15.4573,-2.89634
614.108,6.17007,2.89075,0,0.718506,9.81,-1.26218,4.17683,11.2805,-10.1524,-42.6745,-0.771196,-0.914897,-51.6768,7.13415,-2.71341
614.118,6.03988,2.70816,0,0.684976,9.88664,-1.46336,3.35366,9.29878,-8.78049,-42.5691,-1.23104,-1.27894,-53.4756,-0.152439,-2.7439
614.128,5.93512,2.4881,0,0.764011,9.88664,-1.55197,3.20122,7.2561,-7.37805,-41.6015,-1.95913,-2.09325,-51.6463,-6.37195,-4.78659
614.138,5.84819,2.23687,0,0.778381,9.84114,-1.6358,2.89634,5.54878,-5.97561,-41.0075,-2.74469,-2.80217,-48.3537,-10.7622,-7.80488
614.148,5.79097,1.97338,0,0.888552,9.74533,-1.64538,2.5,3.38415,-4.5122,-40.4998,-3.56858,-3.1758,-42.8049,-13.4451,-8.71951
614.158,5.75454,1.69679,0,0.950823,9.68306,-1.64298,2.19512,1.61585,-3.32317,-39.8962,-4.14338,-3.54942,-37.1037,-14.7256,-10.7622
614.168,5.74003,1.42266,0,1.0107,9.58487,-1.44659,1.64634,0.853659,-2.16463,-39.5897,-4.65113,-3.67396,-30.6402,-15.4268,-12.622
614.178,5.74278,1.16239,0,1.03704,9.5705,-1.4442,1.70732,-0.457317,-1.21951,-38.9478,-4.91937,-3.559,-24.3598,-14.3902,-12.3171
614.188,5.77791,0.883169,0,1.06339,9.5705,-1.31008,0.792683,-2.53049,0.213415,-38.6508,-5.08223,-4.038,-17.8049,-15.2744,-10.5183
614.198,5.7992,0.593942,0,1.02028,9.60642,-1.23583,0.365854,-4.69512,1.25,-38.5263,-4.91937,-4.38289,-11.5549,-14.0854,-7.34756
614.208,5.83387,0.315137,0,1.06099,9.67109,-1.16877,-0.670732,-7.28659,2.43902,-38.4113,-4.68945,-4.38289,-7.04268,-12.7134,-4.69512
614.218,5.87239,0.0451935,0,1.0586,9.69504,-1.17595,-1.12805,-9.87805,3.04878,-38.4975,-4.40205,-4.43079,-2.22561,-12.8963,-2.13415
614.228,5.91659,-0.230701,0,1.06099,9.69743,-1.20709,-1.76829,-12.0427,3.71951,-38.5263,-4.23918,-4.71819,0.914634,-12.1646,0.365854
614.238,5.96904,-0.496915,0,1.08255,9.68546,-1.2526,-2.34756,-13.8415,4.39024,-38.6125,-3.7506,-4.74693,3.96341,-11.189,1.03659
614.248,6.01997,-0.748388,0,1.10889,9.67348,-1.3005,-2.34756,-14.6037,3.9939,-38.5742,-3.25244,-4.66071,7.04268,-8.5061,1.0061
614.258,6.07713,-0.9913,0,1.17356,9.65432,-1.346,-2.2561,-14.7866,3.90244,-38.6412,-3.05125,-4.68945,7.62195,-7.46951,1.92073
614.268,6.12921,-1.20591,0,1.18553,9.69983,-1.37953,-2.28659,-14.939,3.38415,-38.7562,-2.79259,-4.37331,8.07927,-5.51829,2.53049
614.278,6.18661,-1.40453,0,1.25978,9.65672,-1.41785,-2.5,-14.4512,2.92683,-39.0149,-2.68721,-4.26792,8.23171,-4.29878,0.670732
614.288,6.24542,-1.60459,0,1.28373,9.59684,-1.53281,-2.53049,-13.5671,2.68293,-39.034,-2.51477,-4.43079,8.78049,-3.93293,0.853659
614.298,6.31219,-1.79923,0,1.36516,9.59445,-1.52084,-2.10366,-12.3476,2.22561,-39.1107,-2.73511,-4.47869,8.10976,-2.62195,1.0061
614.308,6.39005,-1.97198,0,1.42264,9.52978,-1.60706,-1.95122,-11.0366,1.55488,-38.9765,-2.45729,-4.21044,8.38415,-0.762195,1.25
614.318,6.48189,-2.13966,0,1.47533,9.51541,-1.68609,-1.37195,-9.54268,1.12805,-39.2352,-2.47645,-4.26792,6.34146,-0.365854,2.40854
614.328,6.59287,-2.30397,0,1.5376,9.50823,-1.69088,-1.09756,-7.62195,0.823171,-39.628,-2.64889,-4.37331,5.94512,-1.76829,3.10976
614.338,6.74264,-2.46172,0,1.59987,9.48188,-1.70046,-0.853659,-6.03659,0.365854,-39.6376,-2.56267,-4.38289,5.82317,-4.48171,3.90244
614.348,6.88592,-2.6078,0,1.59508,9.46033,-1.66933,-1.03659,-5.18293,-0.304878,-39.8196,-3.04167,-4.31582,5.4878,-7.13415,4.7561
614.358,7.04057,-2.76953,0,1.62861,9.49146,-1.61424,-1.09756,-3.9939,-0.182927,-40.0112,-3.03209,-4.72777,4.81707,-9.5122,5.45732
614.368,7.15072,-2.89986,0,1.59029,9.52978,-1.50886,-0.884146,-2.40854,-0.426829,-40.0974,-2.84049,-4.29667,3.90244,-11.189,6.61585
614.378,7.23342,-3.03017,0,1.57353,9.60163,-1.47773,-0.823171,-1.82927,-0.609756,-39.8867,-2.83091,-4.36373,3.17073,-10.7012,7.65244
614.388,7.29398,-3.13953,0,1.50647,9.63516,-1.35079,-0.97561,-1.34146,-0.640244,-39.7142,-2.81175,-4.06674,1.89024,-11.0976,9.93902
614.398,7.33664,-3.24321,0,1.45378,9.63756,-1.34361,-0.97561,-1.06707,-0.731707,-39.513,-2.87881,-4.02842,-0.731707,-12.8354,11.4024
614.408,7.3745,-3.35917,0,1.36037,9.68785,-1.31008,-1.0061,-1.55488,0,-39.3981,-2.74469,-4.30625,-2.0122,-13.3841,11.5854
614.418,7.40108,-3.45782,0,1.33882,9.67827,-1.32445,-1.25,-2.13415,-0.0914634,-39.1586,-2.80217,-4.05716,-3.65854,-13.1402,12.1951
614.428,7.43325,-3.55361,0,1.35079,9.63516,-1.31966,-1.37195,-2.77439,0.213415,-39.1107,-2.59141,-4.07632,-5.15244,-14.8171,11.7073
614.438,7.4784,-3.6455,0,1.3939,9.61361,-1.40109,-1.06707,-3.23171,0.182927,-38.9382,-2.57225,-4.05716,-6.67683,-15.061,12.3476
614.448,7.52018,-3.72803,0,1.39869,9.63277,-1.44899,-1.34146,-3.35366,0.243902,-39.1011,-2.77343,-3.97094,-6.34146,-13.9939,11.6159
614.458,7.56661,-3.80344,0,1.41546,9.62079,-1.4442,-1.46341,-3.62805,0.182927,-39.2352,-3.13748,-3.92304,-6.64634,-15.6402,11.2195
614.468,7.63133,-3.87711,0,1.46336,9.55613,-1.45378,-2.07317,-3.04878,0.152439,-39.2256,-3.28118,-3.9422,-5.79268,-15.2134,9.78659
614.478,7.68553,-3.96025,0,1.44899,9.54176,-1.42504,-2.59146,-3.17073,0.304878,-39.5035,-3.7027,-4.19128,-5.88415,-16.128,8.47561
614.488,7.7603,-4.05379,0,1.53042,9.54415,-1.47294,-3.47561,-2.68293,0.304878,-39.3214,-3.98052,-4.41163,-6.34146,-15.9756,6.70732
614.498,7.82961,-4.13295,0,1.54479,9.53457,-1.51844,-4.02439,-2.10366,0.518293,-39.2927,-3.9901,-4.22002,-5.4878,-15.6098,5.73171
614.508,7.90781,-4.21163,0,1.56874,9.5226,-1.64298,-4.11585,-1.15854,0.335366,-39.3693,-4.09548,-4.2775,-4.72561,-16.372,5.91463
614.518,7.9802,-4.27204,0,1.53521,9.52499,-1.65256,-3.2622,-0.884146,0.0914634,-39.0532,-3.83682,-3.98052,-4.84756,-16.7073,5.57927
614.528,8.03797,-4.32357,0,1.50168,9.52739,-1.70046,-2.34756,0.213415,-0.0304878,-39.0149,-3.6548,-3.86556,-4.32927,-17.1951,8.38415
614.538,8.06225,-4.3823,0,1.44899,9.53936,-1.78668,-1.92073,0.670732,-0.396341,-38.9286,-3.49194,-4.00926,-4.29878,-14.8476,10.3659
614.548,8.06778,-4.42165,0,1.40109,9.54894,-1.78908,-1.82927,1.09756,-0.640244,-38.9957,-3.39614,-3.71228,-5.79268,-12.5305,12.439
614.558,8.07151,-4.46379,0,1.41067,9.53697,-1.74357,-2.28659,1.85976,-0.914634,-39.1394,-3.14706,-3.7985,-7.31707,-11.5854,15.7012
614.568,8.06353,-4.4981,0,1.35079,9.51781,-1.66933,-2.31707,3.07927,-0.853659,-39.149,-3.18538,-3.69312,-9.29878,-11.9207,14.9695
614.578,8.03619,-4.52145,0,1.26936,9.5681,-1.5879,-2.86585,4.29878,-0.945122,-39.5035,-3.4632,-3.559,-9.81707,-12.1646,12.622
614.588,8.01231,-4.56912,0,1.28134,9.58726,-1.54718,-3.17073,5.27439,-0.792683,-39.5609,-3.6548,-4.00926,-12.0427,-12.4695,11.128
614.598,7.99314,-4.60113,0,1.30529,9.58247,-1.57353,-3.56707,5.57927,-1.09756,-39.7334,-3.4632,-3.78892,-12.0732,-14.0854,9.35976
614.608,7.97368,-4.63154,0,1.31487,9.5705,-1.61185,-3.59756,5.42683,-1.4939,-39.8388,-3.53026,-3.7985,-12.7439,-15.6098,9.2378
614.618,7.95385,-4.63375,0,1.32445,9.56092,-1.65256,-3.23171,5.42683,-1.79878,-39.7717,-3.37698,-3.3195,-14.3293,-16.9512,7.95732
614.628,7.92791,-4.63084,0,1.29571,9.49386,-1.61664,-2.77439,5.33537,-2.19512,-39.8196,-3.26202,-3.24286,-17.5,-19.2683,8.32317
614.638,7.90212,-4.62153,0,1.28852,9.53457,-1.6813,-2.80488,5.82317,-2.04268,-39.8579,-3.59732,-3.13748,-19.6341,-21.25,10.061
614.648,7.86325,-4.62126,0,1.22386,9.62319,-1.70046,-3.04878,6.15854,-2.40854,-39.8867,-3.71228,-3.30034,-21.189,-23.2927,11.0671
614.658,7.82613,-4.61868,0,1.21427,9.67588,-1.69088,-3.38415,6.12805,-1.98171,-39.6567,-3.93262,-3.24286,-23.8415,-23.9939,12.622
614.668,7.78371,-4.62382,0,1.17116,9.70222,-1.66693,-4.11585,5.4878,-1.89024,-39.2831,-4.10506,-3.34824,-24.5427,-24.9085,13.3232
614.678,7.74117,-4.64037,0,1.16398,9.69743,-1.61185,-4.45122,5.12195,-1.92073,-38.8999,-4.06674,-3.5111,-24.1159,-23.3841,13.2012
614.688,7.70014,-4.69362,0,1.1544,9.63995,-1.57113,-4.72561,4.11585,-1.61585,-38.8137,-4.2775,-4.14338,-24.2073,-21.8598,13.2622
614.698,7.66771,-4.72841,0,1.19511,9.6184,-1.6334,-5.15244,3.38415,-1.52439,-38.9095,-4.28709,-3.86556,-24.0549,-20.4878,13.4146
614.708,7.64356,-4.7781,0,1.21906,9.54655,-1.64777,-5.85366,2.43902,-1.15854,-38.8233,-4.43079,-4.1338,-23.4146,-19.1159,11.2805
614.718,7.63518,-4.83323,0,1.29092,9.51302,-1.65735,-6.06707,1.31098,-1.15854,-38.7945,-4.46911,-4.25834,-23.6585,-18.9634,11.189
614.728,7.63912,-4.86966,0,1.36516,9.52978,-1.64538,-6.4939,1.28049,-1.28049,-38.9957,-4.43079,-3.9901,-24.939,-17.9878,10.2134
614.738,7.64825,-4.89742,0,1.42504,9.54894,-1.66693,-7.10366,0.914634,-1.55488,-39.0532,-4.23918,-3.86556,-26.5244,-16.6159,8.93293
614.748,7.67825,-4.91115,0,1.52084,9.55852,-1.65975,-7.92683,0.945122,-1.31098,-39.0149,-4.00926,-3.63564,-29.2073,-16.0976,8.84146
614.758,7.71967,-4.93116,0,1.5855,9.616,-1.5855,-8.62805,1.31098,-1.18902,-38.8807,-3.8464,-3.74102,-31.7988,-16.0671,9.60366
614.768,7.78357,-4.94236,0,1.70046,9.63037,-1.65017,-9.17683,1.21951,-1.06707,-38.5167,-3.71228,-3.56858,-33.7805,-16.0061,11.2195
614.778,7.87442,-4.96118,0,1.79626,9.59684,-1.57113,-9.26829,1.34146,-0.884146,-38.4975,-3.6069,-3.7027,-37.5915,-15.3963,13.0488
614.788,8.01577,-4.94347,0,1.86333,9.54894,-1.54718,-9.78659,2.0122,-0.396341,-38.488,-3.74102,-3.08958,-40.3049,-15.3049,14.3598
614.798,8.2351,-4.94109,0,2.0214,9.51541,-1.57353,-9.72561,2.59146,0.0914634,-38.3443,-3.77934,-3.3195,-41.6768,-13.0183,15.8232
614.808,8.40503,-4.94018,0,2.19623,9.49625,-1.53281,-9.57317,3.07927,1.03659,-38.3251,-3.71228,-3.33866,-43.9939,-12.2256,16.189
614.818,8.55986,-4.91322,0,2.34712,9.44117,-1.52563,-9.69512,4.14634,2.31707,-38.4017,-3.48236,-2.89797,-47.0732,-11.372,15.6098
614.829,8.73747,-4.88571,0,2.56267,9.38369,-1.52323,-9.93902,5.15244,3.87195,-38.5454,-3.63564,-2.87881,-48.628,-10.6402,15.5488
614.838,8.94578,-4.85765,0,2.74948,9.34776,-1.45857,-10.3049,6.40244,5.51829,-38.5454,-3.6548,-2.85007,-50.122,-10.4268,15.7317
614.848,9.18915,-4.81391,0,2.90755,9.31902,-1.51365,-10.3659,7.34756,7.71341,-38.6987,-3.49194,-2.57225,-50.9146,-10.061,15.7317
614.858,9.47996,-4.77703,0,3.08239,9.22801,-1.42025,-10.2439,9.90854,10.7317,-38.7179,-3.72186,-2.65847,-53.0183,-9.14634,15.8232
614.868,9.82135,-4.72556,0,3.23807,9.12981,-1.37474,-9.72561,12.439,14.3293,-38.6987,-3.7027,-2.38065,-52.5305,-8.68902,16.25
614.878,10.2118,-4.67562,0,3.45122,9.06515,-1.346,-8.87195,16.0061,17.3476,-38.967,-4.02842,-2.39023,-52.1646,-9.20732,16.7073
614.888,10.643,-4.62988,0,3.58055,9.04359,-1.2981,-7.53049,18.9024,20.7622,-39.4747,-4.1338,-2.46687,-50.7012,-11.2195,15.061
614.898,11.135,-4.56648,0,3.85598,9.00288,-1.346,-7.07317,20.9146,24.6037,-39.5897,-4.23918,-2.14115,-45.2744,-13.5061,15.3963
614.908,11.6897,-4.52777,0,4.05956,8.91426,-1.37953,-6.92073,21.311,29.3598,-39.5418,-4.52659,-2.53393,-43.6585,-15.6707,15.7622
614.918,12.3075,-4.48987,0,4.24397,8.81367,-1.49928,-8.84146,21.9207,34.4207,-39.331,-4.61281,-2.50519,-35.8232,-14.9085,15.2134
614.928,13.0148,-4.43754,0,4.48108,8.56699,-1.41546,-9.2378,23.5061,40.9451,-39.1969,-4.90979,-2.21779,-28.1098,-14.1768,14.7866
614.938,13.8034,-4.38705,0,4.6176,8.26761,-1.22386,-8.04878,27.3476,47.4695,-38.555,-4.83315,-2.17947,-18.1402,-14.7256,14.6951
614.948,14.6683,-4.37006,0,4.74214,8.09277,-1.10171,-6.43293,30.9451,54.4512,-37.8078,-4.61281,-2.66805,-6.98171,-15.8537,14.878
614.958,15.6144,-4.35948,0,4.87147,7.94188,-1.07776,-4.26829,35.0305,62.1341,-36.9456,-4.37331,-2.70637,7.2561,-17.5,17.0122
614.968,16.6253,-4.34566,0,4.89542,7.82213,-0.996328,-1.95122,39.0244,69.6341,-36.8019,-3.76018,-2.64889,23.3841,-21.5244,17.2256
614.978,17.7203,-4.35421,0,5.13253,7.71436,-1.08015,1.76829,42.6524,77.0122,-35.8343,-2.92671,-2.93629,39.4207,-24.8171,19.4817
614.988,18.8702,-4.35466,0,5.34329,7.81974,-1.37714,7.40854,45.3049,83.4146,-36.7348,-2.50519,-2.89797,55.6402,-29.3293,22.8049
614.998,20.0455,-4.35819,0,5.63309,8.23647,-1.86812,14.2378,47.8963,88.2927,-37.9611,-2.00703,-3.06083,69.3598,-33.5366,22.5915
615.008,21.2277,-4.42215,0,6.0091,8.88552,-2.40699,20,50.9146,92.0122,-39.1586,-1.90165,-4.22002,82.3171,-35.8537,22.5305
615.018,22.3689,-4.55605,0,6.11209,9.70462,-2.94108,22.6829,56.372,94.0549,-40.1932,-1.19272,-5.61872,92.5915,-31.2195,22.4085
615.028,23.4302,-4.7256,0,5.92528,10.5836,-2.84528,21.4634,61.8598,94.2683,-40.7201,-0.886157,-6.42344,101.829,-25.6098,23.2317
615.038,24.3843,-4.93283,0,5.15648,11.5248,-2.14833,15.4268,62.7744,95.9756,-40.9692,-0.560435,-7.25691,108.018,-17.378,23.75
615.048,25.2737,-5.16685,0,4.70142,11.9823,-1.16637,11.9817,57.9573,96.7988,-40.95,-0.0143701,-7.87961,111.433,-9.93902,24.7561
615.058,26.0871,-5.41619,0,4.19607,12.0374,-0.428708,17.2561,53.4756,95.3659,-41.2853,0.627495,-8.38736,108.537,-4.11585,24.939
615.068,26.7983,-5.65928,0,3.14466,12.1212,0.265847,22.4085,45.2744,96.1281,-41.5919,1.31726,-8.50232,104.146,0.304878,24.3902
615.078,27.3874,-5.87046,0,2.0693,12.0278,1.02986,22.5,29.2988,94.8781,-42.0422,2.18905,-8.15744,96.7683,2.31707,26.7073
615.088,27.8712,-6.07366,0,1.13763,12.035,1.37953,20.061,10.8841,94.2378,-42.8086,2.75427,-8.3203,87.3476,0.548781,29.3598
615.098,28.2567,-6.24123,0,0.64426,11.9895,1.16637,16.372,-0.365854,89.939,-43.6995,3.2237,-7.94667,79.2683,-0.243902,33.75
615.108,28.6066,-6.41364,0,0.550855,11.4362,0.419128,15.2744,0.27439,87.7439,-43.6229,3.56858,-8.16702,70.0915,-1.85976,38.1098
615.118,28.9422,-6.55519,0,0.828677,10.8159,-0.239502,14.2988,-1.18902,83.689,-43.5079,2.78301,-7.66885,62.8354,-1.64634,41.8598
615.128,29.2997,-6.68922,0,1.53281,10.3369,-0.728086,11.25,-8.35366,78.3232,-42.9619,2.17947,-7.54431,54.0549,-4.05488,43.0488
615.138,29.6675,-6.79901,0,2.07409,9.59684,-0.912502,5.85366,-21.7378,72.439,-42.1476,1.73878,-7.06531,46.1585,-11.0366,44.3293
615.148,30.07,-6.88878,0,2.75427,8.95019,-0.809517,0.853659,-35.5183,66.7073,-41.1225,1.19272,-6.6342,40.2744,-19.9085,45.4878
615.158,30.4995,-6.98404,0,3.27878,8.27719,-0.720901,0.457317,-47.3476,61.0976,-40.404,0.790356,-6.72042,38.628,-30.1524,47.622
615.168,30.9208,-7.03293,0,3.63324,7.92033,-0.814307,1.06707,-50.0915,54.939,-39.7046,0.560435,-5.87738,37.5915,-40.7012,49.4207
615.178,31.3448,-7.07723,0,3.9446,7.71915,-0.981958,1.52439,-43.7805,51.128,-38.8328,0.301772,-5.73368,39.6341,-50,51.372
615.188,31.7931,-7.12096,0,4.41163,7.44372,-1.08734,0.548781,-28.7195,47.1646,-37.7886,-0.148491,-5.61872,42.8354,-55.7012,52.1341
615.198,32.2789,-7.17625,0,5.06547,7.22577,-1.17835,1.03659,-12.0122,42.9573,-36.6869,-0.244292,-5.68578,43.0793,-59.1159,49.2073
615.208,32.7913,-7.23354,0,5.71691,7.02938,-1.23583,3.04878,4.78659,38.3232,-36.1313,-0.407153,-5.66662,45.1524,-58.628,45.3963
615.218,33.3003,-7.29616,0,6.15281,6.77551,-1.04662,5.06098,16.7988,32.6524,-35.6331,-0.282612,-5.71452,44.6037,-59.878,40.2134
615.228,33.7781,-7.34646,0,6.26058,6.56475,-0.998723,9.26829,26.7988,27.6524,-35.6139,0.0239502,-5.55166,46.311,-59.3293,36.0976
615.238,34.2018,-7.38654,0,6.17197,6.4929,-1.14242,13.5671,35,23.2927,-35.4894,0.627495,-5.39837,43.2012,-58.7195,33.0793
615.248,34.5526,-7.40594,0,5.82948,6.43063,-1.27655,16.7378,42.4085,19.4817,-35.7672,1.16398,-5.13013,39.1768,-57.7439,29.0854
615.258,34.8416,-7.42923,0,5.64746,6.47374,-1.32445,20.3963,46.189,16.128,-36.045,1.81542,-5.24509,35.122,-57.622,26.1585
615.268,35.064,-7.45158,0,5.36724,6.28214,-1.37235,23.4146,48.5061,11.128,-36.5145,2.62973,-5.30257,26.6768,-54.3902,21.6768
615.278,35.176,-7.50641,0,4.84033,6.30609,-1.18314,25.8841,48.5061,6.34146,-36.754,3.25244,-5.87738,17.622,-50.3049,18.5976
615.288,35.1451,-7.56859,0,4.50982,6.5887,-1.16637,28.2317,45.9756,1.7378,-36.8881,3.80808,-6.04982,10.9756,-47.9268,17.4085
615.298,35.0281,-7.6589,0,4.24397,6.72761,-1.10171,27.3171,40.4268,-3.20122,-37.0318,4.07632,-6.56714,3.53659,-41.8293,13.3232
615.308,34.8873,-7.77666,0,4.16494,6.75875,-1.05141,26.9207,37.1646,-7.40854,-37.1084,3.85598,-7.08447,-1.64634,-35.5183,9.54268
615.318,34.6529,-7.89508,0,3.9925,7.0222,-1.36756,23.2012,33.9024,-13.1707,-37.3288,3.50152,-7.19943,-7.28659,-30.1829,4.7561
615.328,34.3306,-8.04303,0,3.77934,7.2138,-1.08734,19.4817,29.6341,-18.5976,-37.4629,3.21412,-7.80297,-11.9207,-27.1646,0.518293
615.338,33.9573,-8.20425,0,3.71468,7.38385,-0.696951,18.75,22.1037,-22.5305,-37.6353,2.78301,-8.16702,-14.1463,-26.128,-3.04878
615.348,33.5747,-8.37559,0,3.96376,7.43893,-0.531694,19.3293,13.6585,-26.9817,-37.8557,2.16031,-8.50232,-17.2561,-25.7317,-7.95732
615.358,33.2657,-8.59106,0,4.60802,7.20182,-0.270637,17.1037,8.29268,-29.5732,-37.8365,1.55676,-9.39327,-19.9085,-25.3963,-12.7439
615.368,33.0687,-8.78165,0,5.21156,6.84257,0.0622705,15.0915,3.87195,-28.3232,-38.4017,0.953218,-9.23999,-20.6402,-25.2744,-17.8659
615.378,32.9685,-8.96607,0,6.02108,6.72282,0.304167,15.4268,-0.335366,-28.1402,-39.0532,0.234712,-9.42201,-20.1829,-25.3049,-22.1341
615.388,32.9419,-9.10734,0,6.95274,6.56235,0.332908,17.9268,-4.60366,-30.6402,-39.446,-0.359253,-8.86636,-18.9024,-27.1341,-27.1951
615.398,32.9417,-9.23544,0,7.44612,6.51924,0.311353,19.2378,-7.28659,-32.378,-39.7813,-0.531694,-8.80888,-15.0305,-29.0244,-30.7927
615.408,32.9651,-9.34849,0,7.65448,6.50727,0.428708,17.8354,-7.07317,-31.6768,-39.5609,-0.359253,-8.58854,-11.25,-31.9817,-31.0671
615.418,33.0164,-9.43596,0,7.77663,6.50008,0.6251,18.2012,-9.35976,-29.7561,-39.4939,0.0718506,-8.20534,-3.23171,-36.311,-28.689
615.428,33.0994,-9.50353,0,7.91075,6.49769,0.589175,20.4573,-13.3537,-27.4085,-39.4076,0.244292,-7.90835,4.14634,-41.4329,-22.2866
615.438,33.2068,-9.53462,0,8.16702,6.80186,0.440684,21.4939,-17.8354,-23.9634,-39.5418,0.387993,-7.34313,9.90854,-46.7988,-17.622
615.448,33.3663,-9.57728,0,8.3682,6.89766,0.215552,20.6402,-22.5,-19.0244,-39.4364,0.684976,-7.56347,11.5854,-49.5122,-14.4207
615.458,33.5567,-9.6111,0,8.57177,7.31199,-0.0574805,15.6707,-27.7744,-13.5671,-39.0149,1.35558,-7.36229,8.9939,-51.5244,-12.1646
615.468,33.7567,-9.6435,0,8.40173,7.54671,-0.122146,11.8293,-32.7134,-9.20732,-38.7849,2.26569,-7.32397,5.2439,-53.3841,-10.2744
615.478,33.9628,-9.66631,0,8.10475,7.65688,-0.323328,12.8659,-36.7988,-5.30488,-38.8328,3.2716,-7.18985,0.884146,-54.5427,-8.5061
615.488,34.183,-9.71738,0,8.02092,7.7407,-0.63947,13.9329,-41.6463,-2.86585,-38.7945,4.04758,-7.69759,-4.72561,-53.9329,-4.84756
615.498,34.4651,-9.79608,0,8.06643,7.53713,-1.06099,16.311,-44.3598,-1.28049,-38.7562,5.06307,-8.21492,-11.5244,-53.0793,1.18902
615.508,34.8111,-9.89482,0,7.94907,7.28565,-1.40348,17.6524,-47.1341,-0.670732,-39.0819,5.50376,-8.69392,-18.3537,-50.9146,6.28049
615.518,35.0717,-9.96914,0,7.66646,7.118,-1.36277,18.2012,-46.5549,-1.95122,-39.6567,5.79116,-8.44484,-23.8415,-50.4878,11.0061
615.528,35.2023,-9.98596,0,7.27367,7.41977,-1.67891,18.2927,-43.628,-5.82317,-40.7872,6.04982,-7.65927,-29.0244,-48.7805,12.8963
615.538,35.1235,-9.93809,0,6.70126,8.68434,-2.05732,16.4634,-40.5488,-13.0488,-41.8123,6.11688,-6.6342,-31.0061,-48.2317,14.5122
615.548,34.82,-9.84167,0,6.16478,10.3561,-2.05253,11.189,-35.4573,-22.0732,-43.6804,5.13971,-5.93486,-28.5061,-47.3171,12.0732
615.558,34.3281,-9.85069,0,5.44148,11.4051,-1.93518,6.85976,-28.3841,-31.189,-45.7209,3.72186,-8.26282,-21.0061,-35.3049,8.78049
615.568,33.7384,-9.88591,0,4.74214,11.4745,-1.22146,0.121951,-28.2927,-35.9451,-46.4394,2.23695,-8.85678,-9.32927,-11.5854,4.60366
615.578,33.2291,-9.83674,0,4.96488,11.0865,0.0838257,-10.3963,-41.9512,-32.3476,-47.2442,0.512534,-7.15153,5.15244,7.34756,2.46951
615.588,32.9753,-9.6816,0,6.95035,10.8949,0.325723,-14.2683,-60,-24.4817,-48.7386,-1.825,-4.98643,25.1829,15.6707,2.89634
615.598,32.9241,-9.56513,0,8.90229,10.6339,-0.646655,-5.97561,-65.6402,-19.4207,-49.8595,-3.7985,-5.80074,47.8963,21.0671,0.213415
615.608,32.9638,-9.4286,0,9.67109,10.6051,-3.10395,3.84146,-44.3293,-15.2134,-50.4535,-5.85822,-5.26425,73.2317,32.5,-6.89024
615.618,33.0358,-9.25623,0,9.49386,10.5501,-4.73974,-0.0304878,-9.26829,-11.0671,-50.7121,-6.6821,-4.30625,95.1524,44.878,-14.939
615.628,33.015,-9.06206,0,7.37187,10.107,-3.71228,-9.17683,19.0854,-8.38415,-49.5338,-6.27974,-3.50152,106.22,62.561,-22.2866
615.638,32.7116,-8.79022,0,3.86077,9.1825,-1.69567,-9.5122,33.2317,-10.122,-47.3591,-4.44995,-1.50886,102.043,75.2439,-22.5915
615.648,32.0049,-8.54204,0,0.63468,8.57417,-0.65863,-3.9939,44.3598,-13.9939,-44.2743,-3.29076,-1.62382,95.7622,85.3963,-20.8537
615.658,30.8927,-8.20496,0,-1.9735,8.38975,0.385598,6.64634,38.9329,-21.1585,-42.9619,-1.70046,0.301772,87.6524,87.3476,-22.3476
615.668,29.5548,-7.70239,0,-3.53026,8.90947,-0.0862207,10.2744,3.01829,-29.3598,-42.9619,-0.378413,3.67396,76.311,81.1585,-28.8415
615.678,28.2354,-7.06209,0,-3.28836,9.79323,-2.29922,-0.823171,-42.7744,-36.4329,-44.0348,0.713716,6.81623,59.7866,67.1341,-38.4146
615.688,27.057,-6.32019,0,-1.56395,10.2052,-4.16254,-14.3598,-70.7012,-44.8476,-44.7438,1.54718,9.44117,41.0671,48.9329,-49.939
615.698,25.9415,-5.52181,0,-0.476609,10.5357,-4.24158,-18.1707,-79.1159,-53.3232,-44.351,2.09325,11.0698,18.9634,35.061,-55
615.708,24.911,-4.78483,0,0.613125,10.8949,-4.10506,-18.3841,-73.2622,-58.7805,-43.8241,5.45585,10.2459,-21.5244,14.2073,-59.0549
615.718,23.9719,-4.0135,0,1.67412,10.847,-3.73623,-20.3963,-61.4024,-62.8963,-40.1836,2.39023,10.6099,-28.5061,19.6951,-60.061
615.728,23.1115,-3.30422,0,2.39502,10.0663,-3.20933,-22.3171,-51.6768,-66.189,-39.5705,2.46687,9.84353,-48.5061,14.4817,-52.5915
615.738,22.3279,-2.6631,0,2.95785,9.17053,-2.87163,-19.3902,-40.8232,-69.2683,-37.9611,2.78301,8.73224,-64.5732,13.872,-40.9146
615.748,21.5839,-2.12724,0,3.09676,8.67955,-2.88121,-15.0305,-30.6098,-70.4268,-36.4378,2.00703,7.03657,-78.2927,12.4085,-29.4512
615.758,20.895,-1.66568,0,3.26441,8.27479,-2.95306,-11.0976,-20.6707,-70.1829,-35.8151,0.934058,6.04982,-87.4085,12.0122,-22.439
615.768,20.2174,-1.28913,0,3.10874,8.08559,-2.97701,-7.92683,-12.8963,-69.4207,-35.5852,-0.455054,4.93853,-92.7744,11.6768,-20.7622
615.778,19.501,-0.983616,0,2.68961,8.2221,-2.86444,-4.05488,-9.5122,-68.811,-36.0067,-2.16031,4.0859,-95.7012,9.72561,-23.75
615.788,18.7569,-0.726885,0,2.39262,8.36101,-2.78301,-2.46951,-5,-68.7195,-36.3324,-4.37331,3.52068,-95.1524,7.13415,-33.2622
615.798,17.9272,-0.491911,0,1.7292,8.58136,-2.78541,-1.12805,-2.37805,-69.6341,-36.5719,-5.84864,3.34824,-92.4695,4.87805,-42.0122
615.808,17.0604,-0.30325,0,1.3484,8.85199,-2.63931,0.792683,-1.43293,-69.5427,-36.9935,-7.08447,2.77343,-88.3537,3.07927,-51.8293
615.818,16.1751,-0.189288,0,1.11847,9.20166,-2.75188,0.670732,-4.17683,-69.6646,-36.754,-8.18618,1.66214,-85.1524,2.9878,-58.9329
615.828,15.2883,-0.103592,0,0.934058,9.22801,-2.68003,-0.853659,-8.14024,-69.2683,-36.8306,-8.21492,1.27894,-79.7561,2.83537,-61.9817
615.838,14.4405,-0.0573722,0,1.11608,9.14179,-2.73511,-1.92073,-11.9207,-69.5122,-36.4666,-8.04248,0.684976,-75.5793,2.53049,-62.2561
615.848,13.6136,-0.0459835,0,1.13045,9.14418,-2.67524,-4.05488,-17.1951,-69.2988,-36.524,-7.89877,0.148491,-70.7927,0.548781,-61.1585
615.858,12.8022,-0.0637197,0,1.03944,9.06754,-2.5028,-5.33537,-22.8963,-68.3537,-36.16,-7.65927,-0.320933,-64.7256,-2.95732,-59.8476
615.868,12.034,-0.057932,0,1.07776,8.98611,-2.35191,-6.25,-29.9695,-66.2195,-35.6331,-6.73958,0.0335303,-59.939,-5.7622,-59.6951
615.878,11.3464,-0.0641636,0,1.37474,8.98851,-2.33275,-5.70122,-36.3415,-63.3537,-35.1158,-6.00192,-0.167651,-56.2195,-11.7683,-57.5305
615.888,10.7399,-0.111736,0,1.69567,8.99569,-2.1172,-4.66463,-40.9756,-60.5183,-35.0391,-5.5325,-0.819097,-51.0366,-14.878,-56.189
615.898,10.1755,-0.151822,0,1.825,9.10107,-2.12199,-5.51829,-46.1585,-58.811,-34.8763,-4.92895,-0.732876,-44.7561,-16.128,-53.4451
615.908,9.66554,-0.204453,0,2.01182,9.14658,-2.07409,-6.55488,-49.6037,-56.5854,-34.3973,-4.48827,-0.943638,-41.8902,-18.2927,-49.0549
615.918,9.18557,-0.246246,0,2.05253,9.19209,-2.08367,-7.7439,-51.0366,-54.939,-34.4164,-4.19128,-0.819097,-38.2622,-20.9146,-43.8415
615.928,8.73382,-0.293719,0,2.12678,9.23759,-2.15312,-9.14634,-50.3049,-53.811,-34.6655,-4.01884,-0.943638,-36.2195,-23.0793,-37.9878
615.938,8.26396,-0.348145,0,1.94476,9.17532,-2.03337,-10.2134,-49.7866,-54.5427,-34.7805,-4.45953,-1.08734,-35.7012,-24.7561,-32.1951
615.948,7.78823,-0.419498,0,2.00703,9.17532,-2.13875,-10.4878,-47.0732,-56.8598,-34.8954,-4.79483,-1.38432,-35.4573,-24.6037,-28.9329
615.958,7.30026,-0.491379,0,1.88488,9.01964,-2.27287,-11.25,-43.4756,-57.9878,-35.0391,-5.03433,-1.4418,-37.2561,-24.5732,-24.6341
615.968,6.80374,-0.601795,0,1.85135,8.97893,-2.28485,-11.6463,-40.061,-59.5427,-35.2403,-5.29299,-2.09325,-40.3659,-24.1768,-22.561
615.978,6.29299,-0.702606,0,1.76752,9.02204,-2.47166,-10.8841,-36.6463,-60.8537,-35.0296,-5.54208,-1.99745,-42.2256,-23.4451,-20.7012
615.988,5.8015,-0.862468,0,1.90644,9.0388,-2.56267,-10.7622,-32.7134,-61.6159,-35.1062,-5.60914,-2.98419,-42.6524,-24.0854,-17.7744
615.998,5.34567,-1.02527,0,2.22737,9.00767,-2.63931,-10.8537,-27.4085,-63.0183,-34.6847,-5.88696,-3.08958,-42.5305,-23.5366,-15.5488
616.008,4.91801,-1.23022,0,2.39981,8.83283,-2.73272,-10.7012,-22.1646,-63.75,-33.9949,-6.28932,-3.76018,-43.811,-22.4695,-11.25
616.018,4.51297,-1.45859,0,2.49322,8.69871,-2.77343,-10.1524,-14.878,-63.9329,-33.6404,-6.37554,-4.19128,-43.2622,-21.189,-8.56707
616.029,4.13774,-1.72643,0,2.63452,8.59093,-2.79738,-9.54268,-6.61585,-63.872,-33.1423,-6.19352,-4.84273,-42.6524,-18.3537,-3.81098
616.038,3.76574,-2.04793,0,2.53633,8.58375,-2.61536,-8.20122,0.396341,-63.1098,-32.9219,-6.30848,-5.76242,-39.7561,-16.7683,3.59756
616.048,3.41151,-2.4027,0,2.54112,8.7035,-2.36628,-6.61585,5.94512,-61.6768,-32.5675,-5.98276,-6.36596,-36.189,-10.7622,9.11585
616.058,3.06516,-2.82232,0,2.43813,8.80409,-2.14354,-6.15854,8.90244,-59.9695,-32.4908,-5.99234,-7.51557,-33.3232,-5.09146,18.2622
616.068,2.71714,-3.25134,0,2.19384,8.80649,-1.93518,-5.7622,8.71951,-57.8049,-32.807,-6.23184,-7.96584,-29.0854,1.67683,26.372
616.078,2.34683,-3.67494,0,1.76992,8.83283,-1.89207,-4.48171,7.28659,-55.3659,-33.4776,-6.00192,-8.29156,-23.9329,7.59146,33.3841
616.088,1.94634,-4.0363,0,1.30289,8.97893,-1.99505,-4.17683,4.5122,-52.9268,-33.7267,-6.27974,-7.62095,-21.7073,13.5976,38.7805
616.098,1.55576,-4.32838,0,1.12326,9.15856,-2.24892,-4.05488,-0.762195,-50.1524,-34.608,-6.5863,-6.94077,-21.9207,14.5122,44.2988
616.108,1.19517,-4.57619,0,1.09213,9.42919,-2.40939,-5.64024,-6.61585,-47.1037,-35.6618,-7.05573,-6.62462,-21.5549,12.6524,46.9512
616.118,0.875137,-4.7278,0,1.14961,9.66869,-2.50998,-9.84756,-15.061,-44.0549,-36.1792,-7.21859,-5.31215,-24.5427,10.4573,49.5122
616.128,0.650011,-4.80263,0,1.69328,9.6663,-2.77822,-14.0244,-20.3963,-41.4634,-37.3958,-6.94077,-4.30625,-30.0305,9.81707,52.5
616.138,0.468889,-4.84546,0,1.89207,9.61361,-2.82133,-15,-21.0061,-39.878,-38.8424,-6.50008,-3.97094,-34.878,9.5122,51.6768
616.148,0.309911,-4.94444,0,1.98547,9.56092,-2.76864,-14.5122,-19.5427,-39.2073,-40.2411,-5.30257,-5.14929,-33.6585,10.7012,54.878
616.158,0.156715,-5.03917,0,1.90165,9.56092,-2.47885,-13.3841,-18.5061,-37.9573,-41.7739,-4.69903,-5.32173,-28.0793,15.4573,56.9817
616.168,0.0266056,-5.04953,0,1.83219,9.5226,-2.12917,-12.7134,-18.628,-35.1829,-43.6899,-5.42711,-3.99968,-22.7439,14.1768,57.1951
616.178,-0.0545181,-5.02687,0,1.84177,9.46272,-2.12678,-12.0122,-20.2439,-30.7012,-45.2419,-6.27016,-3.5111,-22.9878,7.9878,50.3049
616.188,-0.0674817,-5.04893,0,1.90644,9.331,-2.58902,-11.7988,-20.9756,-25,-45.5772,-6.86413,-4.44037,-24.7256,3.96341,38.8415
616.198,-0.0165168,-5.21716,0,1.88967,9.22322,-3.0776,-13.0488,-19.2988,-18.5671,-44.0348,-6.98867,-7.18027,-23.4146,7.28659,26.6463
616.208,0.0622762,-5.54158,0,1.64059,9.24478,-3.3674,-14.7866,-17.561,-12.5305,-41.7356,-7.34313,-9.87227,-16.8598,20.4268,17.378
616.218,0.188757,-5.89216,0,1.61664,9.65432,-3.52547,-17.1341,-15.5488,-6.40244,-40.9309,-8.83762,-10.3609,-12.2866,38.3232,8.59756
616.228,0.425216,-6.1354,0,1.62382,10.4375,-3.59253,-20.7927,-17.2561,-0.304878,-41.5536,-10.3225,-8.68434,-9.02439,46.5244,-0.335366
616.238,0.641277,-6.23573,0,1.76034,11.2111,-3.7027,-24.7561,-21.9817,4.66463,-42.0039,-10.0447,-6.251,-1.7378,41.2805,-6.40244
616.248,0.927508,-6.35724,0,2.08367,11.5608,-3.7985,-27.4085,-26.311,9.66463,-43.2397,-12.3152,-6.90245,-1.64634,47.378,-6.95122
616.258,1.29462,-6.49484,0,2.61536,11.5679,-3.86317,-28.7805,-28.6585,13.3537,-46.4873,-13.2157,-7.80297,-1.76829,61.3415,-14.0549
616.268,1.78616,-6.70116,0,3.6045,11.5751,-3.85598,-29.6341,-27.5,17.5,-48.5949,-12.3823,-9.68067,-0.152439,88.5976,-19.2073
616.278,2.36094,-6.8891,0,3.92783,11.6087,-3.56858,-31.0976,-28.872,24.1463,-49.8212,-12.2098,-9.55613,2.80488,119.024,-24.6037
616.288,3.12358,-6.98805,0,5.06547,11.4171,-3.61169,-31.9512,-26.5854,33.811,-50.3002,-10.4375,-7.70717,10.7012,136.677,-25.0305
616.298,4.06795,-7.06824,0,6.01868,11.1536,-3.4129,-33.7805,-22.7439,44.878,-49.0835,-8.92384,-7.14195,25.2744,148.384,-21.4024
616.308,5.19284,-6.95112,0,6.99346,10.7369,-3.01293,-36.311,-18.0793,55.5793,-48.3459,-6.14562,-2.86923,38.0793,144.268,-12.5915
616.318,6.49008,-6.62111,0,7.76465,10.1453,-2.4525,-38.4146,-12.0732,66.5854,-47.4358,-3.98052,1.64298,34.9695,121.494,-0.823171
616.328,7.91617,-6.14558,0,8.01374,9.56092,-1.8274,-41.0976,0.457317,77.1951,-46.746,-0.799937,4.77567,19.5732,90.1219,10.7317
616.338,9.4005,-5.5896,0,7.27367,8.78733,-0.855022,-41.8902,17.8354,86.7683,-47.6465,2.27527,6.83539,1.25,54.4512,20.2134
616.348,10.8979,-5.0702,0,6.14802,8.28677,-0.0670605,-39.939,37.1646,97.3476,-45.6443,-2.28485,6.22226,-0.914634,47.7439,32.439
616.358,12.3082,-4.40786,0,4.26074,7.5036,0.313748,-32.8049,49.3598,105.762,-45.9029,7.33355,9.58487,-24.2378,28.0183,37.3171
616.368,13.6237,-3.99041,0,2.85965,6.77072,-0.313748,-21.5854,60.1829,112.622,-40.7776,1.42264,4.44995,-25.3354,19.0244,36.7378
616.378,14.8623,-3.23002,0,2.0693,6.52643,-1.30529,-4.93902,79.1768,118.293,-44.6767,4.82357,12.1715,-23.9634,5.70122,28.3841
616.388,15.9923,-2.56542,0,0.958008,7.09405,-2.15073,11.128,98.9329,129.939,-42.205,1.5855,10.2267,-18.5976,13.7195,12.0732
616.398,17.0617,-1.97329,0,0.146096,7.79818,-2.46687,20.5793,102.195,139.573,-40.2699,-0.876577,8.88552,-17.8049,11.2195,-8.2622
616.408,18.0865,-1.43282,0,-0.62989,8.95977,-2.35191,24.3598,88.75,147.591,-39.264,-2.63931,8.1287,-16.4634,4.35976,-25.9756
616.418,19.072,-1.00146,0,-1.57113,10.9213,-1.74597,22.9878,62.7134,154.177,-38.488,-4.25834,6.41386,-13.5671,0.243902,-36.5549
616.428,20.1127,-0.63729,0,-1.13524,13.5343,-2.20102,19.9695,39.9695,154.909,-37.6641,-5.54208,5.41753,-10.3049,-1.95122,-38.0793
616.438,21.1816,-0.40779,0,-0.902922,16.2358,-3.18059,12.6524,28.5671,156.616,-37.1851,-5.8678,3.34824,-5.36585,-2.62195,-31.4329
616.448,22.3023,-0.231351,0,0.912502,17.4381,-3.92544,14.2073,14.8476,151.463,-37.1851,-5.39837,2.62015,-2.10366,-3.47561,-16.2195
616.458,23.394,-0.153489,0,2.38783,16.9783,-5.00559,15.5793,-0.792683,140.579,-37.3096,-4.90979,1.11608,1.15854,-4.32927,2.56098
616.468,24.4073,-0.133577,0,2.9818,14.6431,-4.49785,10.9756,-11.4024,127.652,-37.5779,-4.63197,0.215552,9.02439,-4.17683,25
616.478,25.3184,-0.0796543,0,2.41178,12.5834,-2.85007,11.0061,-16.7378,120.64,-38.2006,-3.74102,0.790356,14.0549,-8.65854,45.1524
616.488,26.1626,-0.0614467,0,1.83219,11.3045,-1.34121,16.0671,-17.0427,119.024,-38.6029,-2.51477,0.215552,18.811,-12.1646,59.4817
616.498,27.0508,-0.117893,0,2.15791,10.6626,-0.469424,23.5976,-3.10976,120.671,-37.0414,-3.74102,-0.981958,25.9756,-6.40244,70.4573
616.508,27.8962,-0.153435,0,2.01182,10.7225,-0.182021,31.3415,14.7866,119.787,-39.8579,0.119751,-0.752036,20,-13.2317,72.8354
616.518,28.6038,-0.251399,0,1.09931,10.95,-0.414338,38.2927,34.4817,117.439,-38.2485,-0.148491,-1.7771,25.6707,-6.64634,71.0671
616.528,29.2481,-0.354561,0,1.23104,10.8806,-0.799937,41.9207,50.9756,110.945,-37.6162,0.282612,-1.90165,26.7073,-7.59146,66.4329
616.538,29.9111,-0.469585,0,1.94955,10.6746,-0.917292,44.2073,64.1768,106.22,-36.9552,0.378413,-2.13157,26.4634,-8.47561,59.7866
616.548,30.5046,-0.590609,0,1.78429,10.2243,-0.59636,43.8415,74.8781,101.402,-35.796,0.531694,-2.23695,27.1646,-10.122,53.1402
616.558,31.0996,-0.70225,0,2.18665,9.58247,-0.241897,45.7012,88.689,96.7378,-35.0487,0.780776,-2.13157,22.3171,-14.2378,47.8659
616.568,31.628,-0.804556,0,2.07409,9.2831,-0.0981958,47.4695,104.909,91.6768,-33.9566,1.38432,-1.99745,16.128,-16.311,46.0976
616.578,32.0525,-0.905851,0,1.77231,8.85199,-0.0742456,47.622,108.78,84.7561,-33.9087,1.45138,-2.04535,8.38415,-18.0488,44.939
616.588,32.4192,-1.0349,0,1.90883,8.57656,-0.201182,48.6585,108.11,77.2256,-33.8416,1.48012,-2.51477,1.40244,-17.1951,45.3963
616.598,32.6876,-1.15318,0,1.59748,8.18378,-0.555645,48.6585,100.884,71.0061,-34.0045,1.16398,-2.44771,-5.39634,-19.2988,46.9512
616.608,32.8719,-1.30547,0,1.67651,8.01134,-0.919688,47.9268,93.5976,61.4024,-34.3877,1.03944,-3.07042,-12.4695,-20.8841,48.1098
616.618,32.8631,-1.4776,0,0.977168,7.73591,-0.886157,43.6585,86.6768,51.4939,-34.838,0.723296,-3.5111,-18.2927,-20.7927,49.0244
616.628,32.6961,-1.70151,0,0.421523,7.48444,-0.847837,41.2195,79.2073,43.4451,-34.7901,0.656235,-4.41163,-23.2927,-19.2073,50.8232
616.638,32.38,-1.99283,0,-0.150886,7.38864,-0.948428,39.1159,68.5976,36.8598,-34.3494,0.809517,-5.54208,-29.2378,-21.6463,49.9695
616.648,31.9288,-2.28441,0,-0.66342,7.21619,-1.33403,34.8171,57.8354,30.7622,-34.5122,0.445474,-5.7241,-34.0854,-12.378,51.4634
616.658,31.3456,-2.64112,0,-1.19511,7.02938,-1.43462,31.25,45.5183,25.3354,-34.2919,0.263452,-6.87371,-35.7317,-8.53659,48.2012
616.668,30.6005,-3.03403,0,-1.83219,7.07968,-1.42983,29.878,30,17.561,-34.1769,-0.110171,-7.63053,-35.4573,-4.60366,45.0305
616.678,29.7151,-3.44683,0,-2.3088,6.8785,-1.42743,28.2317,13.2012,10.061,-34.1003,-0.502954,-8.16702,-34.2378,-2.10366,37.5
616.688,22.1656,-3.86933,0,-2.67763,6.61265,-1.16637,26.0671,-2.19512,1.43293,-34.0236,-0.464634,-8.5598,-30.8232,-1.12805,29.2683
616.698,21.124,-4.26111,0,-3.06083,6.40907,-0.874182,25.5183,-21.0366,-7.71341,-34.0811,-1.00112,-8.34904,-27.2256,-0.457317,19.2988
616.708,20.0803,-4.66205,0,-2.61776,6.74917,-0.687371,23.2927,-41.0366,-20.122,-33.9374,-1.2502,-8.71308,-23.7195,-2.65244,8.14024
616.718,19.1431,-5.04696,0,-1.54479,7.25451,-0.313748,17.1341,-52.1646,-30.122,-33.9949,-1.13524,-8.73224,-20.3659,-4.84756,-2.46951
616.728,18.4756,-5.42472,0,0.263452,6.94795,0.65384,8.75,-62.378,-33.4756,-33.6692,-1.0107,-8.78014,-16.6768,-5.97561,-11.7988
616.738,17.9831,-5.75838,0,1.48012,6.9719,1.04423,5.97561,-83.1402,-37.0122,-33.7075,-0.416733,-8.32988,-15.4268,-6.18902,-18.1402
616.748,17.783,-6.04895,0,3.94699,7.24493,0.989143,8.2622,-102.866,-42.0427,-34.0428,0.119751,-7.94667,-12.6524,-8.75,-23.0793
616.758,17.6663,-6.28872,0,6.11928,7.95625,0.00479004,13.9024,-117.409,-52.2866,-34.608,1.04902,-7.44851,-13.0183,-8.56707,-23.9329
616.768,17.6189,-6.48645,0,7.71196,8.2245,-1.78189,18.0793,-128.841,-56.8598,-35.9109,1.3939,-7.18985,-11.5549,-8.01829,-24.2073
616.778,17.7032,-6.65486,0,9.26873,8.24366,-3.51349,16.7378,-139.482,-54.1159,-37.5779,1.2023,-7.14195,-10.1524,-4.45122,-23.872
616.788,17.8979,-6.78944,0,9.41243,8.0329,-4.73256,11.8598,-143.445,-45.061,-39.7813,1.0107,-7.05573,-7.59146,-0.823171,-22.6524
616.798,18.2343,-6.90004,0,9.73096,7.6473,-4.96009,13.5061,-146.555,-34.939,-42.1571,0.196392,-7.10363,-6.37195,3.53659,-22.5915
616.808,18.7871,-7.01945,0,11.4338,7.34792,-4.70861,17.6524,-138.201,-23.2622,-43.757,-1.46096,-7.61137,-3.47561,9.66463,-26.0061
616.818,19.4865,-7.16332,0,12.9858,7.58263,-4.53377,22.1341,-115.366,-12.1646,-44.3127,-2.65847,-8.2724,-2.04268,15.7622,-28.5976
616.828,20.2887,-7.36588,0,14.7581,7.53473,-3.9901,24.4512,-81.25,-6.85976,-43.1247,-3.38656,-9.30705,2.7439,20.1829,-31.0671
616.838,21.1614,-7.61358,0,15.4814,6.95035,-3.44883,23.5061,-46.128,-3.87195,-41.429,-3.34824,-9.94891,6.52439,23.7195,-25.8537
616.848,22.0645,-7.95209,0,14.8707,6.22945,-3.39614,25,-12.622,-1.98171,-39.0149,-3.00335,-11.1943,9.11585,30.7927,-16.9817
616.858,22.9052,-8.37918,0,13.0361,5.97078,-3.61169,24.6037,18.9329,-2.71341,-37.7311,-1.42264,-12.6505,7.10366,40.7927,-7.04268
616.868,23.5556,-8.81225,0,10.4135,6.40907,-3.44404,20.2439,50.0915,-6.06707,-37.4916,0.579595,-12.9475,0.396341,53.2012,1.98171
616.878,23.851,-8.98904,0,7.37666,7.75507,-2.94108,18.5976,80.3049,-10.7012,-39.9729,3.07042,-9.23999,-6.03659,52.7439,11.2805
616.888,23.6544,-9.11407,0,4.77327,10.9357,-2.23934,19.6951,102.805,-19.5122,-44.4372,4.32541,-9.38369,-10.6098,44.9695,21.2195
616.898,22.9811,-9.32668,0,1.80345,13.5606,-2.70877,23.8415,110.03,-35.8841,-48.3363,4.24876,-12.229,-12.2561,57.5915,27.0427
616.908,22.0179,-9.45405,0,-0.208367,13.4193,-1.7771,15.7012,85.061,-49.5732,-52.0438,3.72186,-11.2231,-11.6463,75.5488,31.2805
616.918,21.1393,-9.42165,0,0.531694,12.423,-0.687371,-2.0122,40.7012,-49.7256,-54.8795,1.4418,-7.94667,-10.3049,80.1219,32.6524
616.928,20.5583,-9.3095,0,3.54942,12.7846,0.0574805,-15.6098,-3.07927,-47.8049,-56.0291,-0.301772,-6.11688,-2.53049,72.561,32.3171
616.938,20.226,-9.12516,0,6.48332,12.696,-0.63947,-10,-22.1037,-47.1646,-56.7189,-2.31359,-4.29667,9.26829,65.0915,30.2439
616.948,20.1595,-8.83891,0,8.72266,10.7776,-3.78413,16.4634,20.2439,-45.061,-56.556,-3.4153,-1.57592,17.7439,60.7317,25.3354
616.958,20.217,-8.47857,0,9.4244,10.2363,-6.17436,29.0244,104.878,-40,-54.0269,-4.11464,0.522114,19.7561,59.2073,20.8232
616.968,20.0327,-8.07489,0,5.94683,10.8135,-3.2237,22.0732,140.305,-36.3415,-49.9553,-4.71819,1.75794,13.811,60.6098,19.4512
616.978,19.3276,-7.53015,0,0.277822,11.2326,0.931663,7.40854,102.317,-33.9634,-45.7784,-4.59365,4.73735,4.96951,45.8841,24.1768
616.988,18.1944,-6.86542,0,-4.22002,11.2087,2.20102,-6.67683,43.4146,-34.0854,-44.121,-3.3195,7.29523,-8.32317,26.7988,26.0976
616.998,16.7813,-6.16028,0,-6.65097,10.4159,0.517324,-9.26829,-1.03659,-40.6098,-42.7703,-2.71595,8.30114,-23.5976,8.65854,25.1829
617.008,15.1874,-5.39781,0,-7.79579,9.93215,-1.90404,-3.81098,-30.7622,-50.5793,-42.0422,-0.962798,9.75731,-44.5732,-5.64024,21.4939
617.018,13.6399,-4.64272,0,-7.05094,10.4423,-4.20805,-10,-63.0793,-57.4695,-41.6877,0.464634,10.0639,-67.1646,-19.8171,18.5061
617.028,12.2952,-3.92895,0,-4.62478,10.7465,-5.31934,-23.75,-87.4695,-61.8598,-41.1225,1.96871,9.66151,-88.75,-32.3476,18.7195
