time,angle1,angle2,intgangle,accX1,accY1,accZ1,gyroX1,gyroY1,gyroZ1,accX2,accY2,accZ2,gyroX2,gyroY2,gyroZ2
505.379,87.8033,5.01253,0,9.82197,0.301772,0.189207,0.0304878,0.0914634,-1.61585,-39.2065,-2.26569,3.45362,-16.189,-5.2439,2.92683
505.388,87.8055,5.01942,0,9.84114,0.282612,0.167651,-0.152439,0.335366,-1.43293,-39.0915,-2.20821,3.53026,-16.6463,-5.30488,3.5061
505.398,87.8032,5.01798,0,9.84353,0.308958,0.172441,0.0914634,-0.152439,-1.43293,-39.0628,-2.39023,3.38656,-16.8293,-5.67073,3.2622
505.409,87.8101,5.00984,0,9.8124,0.275427,0.165256,0.304878,-0.213415,-1.21951,-39.1011,-2.38065,3.2716,-16.2195,-5.97561,2.77439
505.419,87.8113,4.99553,0,9.81479,0.292192,0.186812,-0.243902,-0.243902,-1.37195,-39.2448,-2.28485,3.16622,-16.6768,-7.2561,3.71951
505.429,87.8083,4.96789,0,9.79084,0.294587,0.184417,-0.121951,-0.579268,-1.64634,-39.1298,-2.22737,2.91713,-15.9451,-6.92073,3.41463
505.439,87.8069,4.97456,0,9.81,0.287402,0.182021,-0.27439,-0.853659,-1.61585,-39.1298,-2.34233,3.49194,-15.5488,-7.40854,3.47561
505.448,87.8123,4.96987,0,9.84114,0.285007,0.153281,0,-0.579268,-1.18902,-39.1107,-2.23695,3.30034,-14.6037,-6.58537,4.42073
505.458,87.813,4.95675,0,9.84114,0.287402,0.184417,-0.152439,-0.823171,-1.46341,-39.0819,-2.25611,3.14706,-15.1829,-7.04268,5.27439
505.468,87.8168,4.96618,0,9.83874,0.265847,0.112566,0.0914634,-0.792683,-1.4939,-38.9957,-2.31359,3.52068,-14.2378,-7.2561,4.93902
505.478,87.8184,4.96632,0,9.84114,0.270637,0.114961,-0.487805,-0.731707,-1.58537,-39.0053,-2.38065,3.3674,-14.1463,-7.16463,4.78659
505.488,87.8235,4.95977,0,9.83874,0.265847,0.0958008,-0.243902,-0.823171,-1.40244,-39.1681,-2.31359,3.2716,-14.6037,-5.30488,5.06098
505.498,87.8265,4.97425,0,9.84832,0.285007,0.0862207,-0.365854,-0.823171,-1.31098,-39.0149,-2.34233,3.62606,-13.2927,-3.17073,4.7561
505.508,87.8277,4.99492,0,9.83395,0.292192,0.0934058,-0.304878,-0.731707,-1.34146,-39.034,-2.30401,3.74102,-13.628,-4.39024,3.41463
505.518,87.8309,5.00729,0,9.86509,0.275427,0.143701,-0.487805,-0.518293,-1.40244,-39.1586,-2.28485,3.62606,-13.2622,-3.41463,3.90244
505.528,87.8335,5.00617,0,9.86988,0.277822,0.124541,-0.579268,-0.762195,-1.40244,-39.0436,-2.13157,3.38656,-13.7195,-4.35976,3.41463
505.538,87.8328,5.01298,0,9.85311,0.287402,0.0790356,-0.457317,-0.518293,-1.52439,-39.1969,-2.25611,3.53984,-14.6341,-3.59756,2.62195
505.548,87.825,5.01532,0,9.82437,0.308958,0.0958008,-0.426829,-0.731707,-1.79878,-39.0628,-2.25611,3.45362,-14.3598,-3.96341,3.2622
505.558,87.8232,5.03722,0,9.84593,0.294587,0.0766406,-0.335366,-0.579268,-1.52439,-39.0915,-2.27527,3.7985,-14.2073,-3.71951,2.62195
505.568,87.8292,5.03849,0,9.85072,0.239502,0.0981958,-0.182927,-0.487805,-1.61585,-39.0436,-2.16031,3.45362,-13.7805,-2.86585,2.19512
505.578,87.8311,5.03518,0,9.85311,0.287402,0.0526904,-0.121951,-0.457317,-1.34146,-38.7275,-2.36149,3.34824,-13.0488,-2.7439,3.07927
505.588,87.828,5.04976,0,9.85072,0.296982,0.0838257,-0.243902,-0.518293,-1.58537,-39.0053,-2.28485,3.68354,-14.3598,-1.7378,2.7439
505.598,87.8308,5.06653,0,9.8579,0.280217,0.134121,-0.304878,-0.304878,-1.37195,-38.9957,-2.10283,3.73144,-13.0793,-1.46341,3.38415
505.608,87.8372,5.09392,0,9.8555,0.258662,0.117356,-0.0609756,-0.152439,-1.37195,-38.9478,-2.27527,3.92304,-13.9634,-1.31098,3.41463
505.618,87.8355,5.0936,0,9.82437,0.318538,0.100591,0.0304878,-0.396341,-1.18902,-39.0053,-2.06451,3.4632,-13.9024,-2.43902,3.78049
505.628,87.8319,5.09901,0,9.85072,0.318538,0.107776,-0.365854,-0.243902,-1.34146,-39.1203,-2.14115,3.56858,-14.878,-3.65854,3.20122
505.638,87.8316,5.11654,0,9.81479,0.311353,0.124541,-0.27439,0.0304878,-1.18902,-39.1011,-2.26569,3.77934,-14.9085,-4.20732,3.47561
505.648,87.8393,5.12709,0,9.86269,0.268242,0.102986,-0.182927,-0.335366,-1.18902,-39.1681,-1.96871,3.67396,-14.1768,-4.90854,2.56098
505.658,87.848,5.1288,0,9.83874,0.273032,0.102986,-0.152439,-0.365854,-1.06707,-39.0053,-2.20821,3.5111,-14.8171,-5.36585,2.37805
505.668,87.8543,5.13576,0,9.82916,0.268242,0.0550855,-0.0304878,-0.182927,-1.25,-39.1777,-2.38065,3.61648,-15.122,-6.15854,2.46951
505.678,87.8593,5.13289,0,9.85311,0.251477,0.0981958,-0.0304878,-0.518293,-1.4939,-39.2927,-2.45729,3.4632,-16.7073,-5.33537,2.04268
505.688,87.8615,5.1315,0,9.85311,0.275427,0.0694556,-0.0609756,-0.121951,-1.40244,-39.216,-2.15073,3.48236,-16.5244,-4.69512,2.7439
505.698,87.8634,5.13412,0,9.85311,0.287402,0.112566,-0.152439,-0.518293,-1.28049,-39.264,-2.39981,3.54942,-16.189,-6.52439,2.56098
505.708,87.8635,5.13398,0,9.83395,0.282612,0.124541,-0.182927,-0.701219,-1.46341,-39.1394,-2.23695,3.49194,-15.9451,-6.4939,3.90244
505.718,87.8674,5.12403,0,9.83635,0.275427,0.124541,-0.182927,-0.518293,-1.28049,-38.9095,-2.25611,3.30034,-16.0061,-6.98171,2.53049
505.728,87.8717,5.1132,0,9.81479,0.251477,0.122146,0.0304878,-0.243902,-1.52439,-39.0244,-2.32317,3.29076,-15.9451,-6.15854,2.77439
505.738,87.8773,5.11344,0,9.83635,0.241897,0.112566,-0.243902,0.0304878,-1.52439,-38.8424,-2.46687,3.4632,-15.7317,-4.87805,2.86585
505.748,87.8819,5.09983,0,9.83874,0.258662,0.146096,-0.27439,0.213415,-1.40244,-38.9574,-2.63931,3.23328,-15.8537,-5.12195,2.53049
505.758,87.8854,5.10147,0,9.84114,0.258662,0.0598755,-0.0914634,0.0304878,-1.46341,-38.9478,-2.38065,3.49194,-16.6159,-3.65854,3.17073
505.768,87.8943,5.10755,0,9.85072,0.232317,0.117356,-0.121951,-0.182927,-1.40244,-38.8424,-2.38065,3.559,-15.7317,-3.9939,3.96341
505.778,87.8931,5.10848,0,9.84114,0.261057,0.114961,-0.27439,-0.27439,-1.7378,-38.9957,-2.30401,3.49194,-17.5305,-2.83537,2.46951
505.788,87.9011,5.09728,0,9.84353,0.241897,0.0886157,-0.0304878,-0.121951,-1.34146,-38.967,-2.35191,3.28118,-15.8537,-2.53049,2.71341
505.798,87.8987,5.09879,0,9.8555,0.275427,0.0981958,0.0609756,0.0609756,-1.64634,-39.0532,-2.46687,3.50152,-16.4329,-2.37805,2.07317
505.808,87.8963,5.10567,0,9.84832,0.270637,0.0646655,0.243902,0.152439,-1.70732,-39.0628,-2.17947,3.59732,-16.8902,-2.22561,2.7439
505.818,87.8936,5.11315,0,9.82677,0.273032,0.102986,-0.0304878,0.213415,-1.70732,-38.9286,-2.36149,3.59732,-15.6402,-3.04878,2.53049
505.828,87.8883,5.11895,0,9.83395,0.308958,0.0934058,0.152439,0.121951,-1.46341,-39.1969,-2.41897,3.59732,-16.5244,-3.20122,2.19512
505.838,87.8816,5.10191,0,9.84114,0.304167,0.0287402,-0.182927,0.0914634,-1.64634,-39.0915,-2.42855,3.19496,-16.372,-3.29268,2.37805
505.848,87.8763,5.10895,0,9.83395,0.306563,0.126936,0.0914634,0.0609756,-1.52439,-39.0244,-2.39981,3.59732,-15.5793,-2.59146,3.01829
505.858,87.8663,5.10553,0,9.83874,0.311353,0.0981958,0.27439,0.182927,-1.85976,-38.9957,-2.44771,3.4153,-16.7378,-3.53659,2.5
505.868,87.8649,5.11338,0,9.85072,0.280217,0.0910107,0.213415,0.396341,-1.58537,-39.0915,-2.62015,3.61648,-15.7622,-3.65854,3.53659
505.878,87.8567,5.10369,0,9.87227,0.320933,0.0838257,0.121951,0.335366,-1.61585,-39.1777,-2.49561,3.32908,-14.939,-2.34756,2.5
505.888,87.8491,5.10379,0,9.87706,0.313748,0.0598755,0.0304878,0.0609756,-1.67683,-39.1681,-2.41897,3.49194,-13.9024,-2.37805,3.87195
505.898,87.8435,5.10932,0,9.82197,0.311353,0.0910107,-0.213415,0.213415,-1.55488,-39.1298,-2.36149,3.57816,-14.6646,-3.78049,3.81098
505.908,87.8428,5.10592,0,9.84593,0.287402,0.105381,-0.335366,-0.182927,-1.4939,-39.1107,-2.39981,3.42488,-15.061,-3.81098,3.41463
505.918,87.8377,5.1093,0,9.8076,0.318538,0.0766406,-0.0304878,-0.121951,-1.43293,-39.3023,-2.22737,3.559,-15.122,-3.44512,3.53659
505.928,87.8381,5.1226,0,9.82916,0.289797,0.110171,0.0304878,-0.243902,-1.40244,-38.9861,-2.56267,3.7027,-14.2988,-3.96341,4.05488
505.938,87.8328,5.14538,0,9.84114,0.306563,0.124541,0.121951,0.243902,-1.61585,-38.9861,-2.36149,3.87514,-14.7561,-4.35976,4.54268
505.948,87.8292,5.16408,0,9.82197,0.306563,0.0766406,0.121951,0.27439,-1.4939,-38.9861,-2.43813,3.81766,-14.5732,-5,4.02439
505.958,87.8329,5.16563,0,9.8603,0.261057,0.110171,-0.0609756,0.304878,-1.52439,-39.0149,-2.50519,3.53984,-13.872,-3.81098,3.75
505.968,87.8293,5.16324,0,9.81958,0.294587,0.126936,0,0.0304878,-1.64634,-38.9286,-2.55309,3.4632,-14.2683,-4.35976,4.02439
505.978,87.8369,5.14428,0,9.81479,0.246687,0.160466,-0.121951,-0.579268,-1.43293,-39.0436,-2.49561,3.18538,-13.8415,-4.08537,5.21341
505.988,87.84,5.15575,0,9.8124,0.263452,0.134121,-0.335366,-0.335366,-1.52439,-38.9574,-2.59141,3.69312,-13.5366,-3.75,4.63415
505.998,87.8391,5.14497,0,9.83156,0.289797,0.100591,-0.0609756,-0.548781,-1.4939,-39.0819,-2.31359,3.32908,-13.3232,-2.95732,4.39024
506.008,87.8441,5.15075,0,9.79803,0.265847,0.0718506,-0.0609756,-0.335366,-1.37195,-39.149,-2.28485,3.61648,-14.1463,-2.65244,5.60976
506.018,87.8553,5.13791,0,9.82916,0.232317,0.0814307,-0.0914634,-0.365854,-1.34146,-39.0723,-2.38065,3.29076,-15.3659,-2.46951,5.06098
506.028,87.8595,5.1208,0,9.8124,0.270637,0.105381,0.0914634,-0.426829,-1.34146,-39.0436,-2.49561,3.20454,-14.2988,-2.80488,4.93902
506.038,87.8627,5.13014,0,9.82677,0.258662,0.0958008,0.0304878,-0.0609756,-1.52439,-39.0819,-2.35191,3.6548,-14.2683,-2.83537,5.15244
506.048,87.8633,5.1312,0,9.82197,0.294587,0.0910107,0.213415,-0.27439,-1.28049,-39.1107,-2.31359,3.52068,-14.5732,-2.65244,5.79268
506.058,87.8718,5.1256,0,9.85311,0.258662,0.0694556,-0.213415,-0.27439,-1.18902,-39.1298,-2.44771,3.40572,-15.7012,-3.10976,4.20732
506.068,87.8791,5.1187,0,9.85311,0.246687,0.124541,-0.213415,-0.152439,-1.37195,-38.967,-2.44771,3.3674,-15.3963,-2.5,4.57317
506.078,87.8797,5.12134,0,9.84114,0.268242,0.0838257,-0.365854,-0.396341,-1.55488,-39.0915,-2.29443,3.53984,-16.128,-2.2561,5.33537
506.088,87.8812,5.12069,0,9.83156,0.265847,0.0694556,-0.0914634,-0.152439,-1.52439,-39.0819,-2.40939,3.48236,-15.7317,-2.65244,4.54268
506.098,87.8836,5.11642,0,9.85311,0.251477,0.0862207,-0.121951,0.0304878,-1.61585,-39.1203,-2.46687,3.42488,-15.0305,-1.95122,5.03049
506.108,87.8809,5.12313,0,9.85311,0.277822,0.141306,-0.0304878,0.243902,-1.67683,-38.9382,-2.52435,3.59732,-16.0366,-1.4939,5.15244
506.118,87.8771,5.11656,0,9.86269,0.287402,0.0934058,-0.182927,0,-1.64634,-39.2448,-2.43813,3.39614,-15.3049,-2.28659,4.84756
506.128,87.8731,5.1138,0,9.8555,0.289797,0.136516,0.0304878,-0.0609756,-1.64634,-38.9765,-2.44771,3.43446,-14.3902,-2.2561,6.31098
506.138,87.8707,5.11362,0,9.83874,0.275427,0.0910107,0.0609756,-0.152439,-1.70732,-39.0436,-2.43813,3.48236,-15.7012,-2.53049,5.09146
506.148,87.8683,5.13249,0,9.84114,0.277822,0.0407153,-0.0609756,0.213415,-1.67683,-39.2065,-2.50519,3.82724,-16.189,-2.95732,4.90854
506.158,87.8657,5.12466,0,9.84353,0.299377,0.0910107,0.243902,0.243902,-1.43293,-39.1107,-2.29443,3.3674,-16.6463,-2.80488,5.06098
506.168,87.8706,5.12846,0,9.84593,0.275427,0.102986,-0.182927,0.518293,-1.21951,-39.0819,-2.34233,3.559,-14.7866,-3.5061,5.82317
506.178,87.8746,5.14346,0,9.85311,0.249082,0.119751,0.152439,0.548781,-1.55488,-39.149,-2.20821,3.76018,-15.7622,-4.2378,4.90854
506.188,87.8716,5.14481,0,9.83156,0.270637,0.00958008,0.213415,0.426829,-1.79878,-39.2927,-2.39023,3.54942,-16.6768,-3.17073,5.7622
506.198,87.8754,5.12791,0,9.8555,0.244292,0.0814307,0.152439,0.304878,-1.61585,-39.0628,-2.45729,3.21412,-16.2805,-2.89634,5
506.208,87.8783,5.10829,0,9.81719,0.246687,0.122146,0.243902,0.396341,-1.64634,-39.0915,-2.46687,3.15664,-16.4024,-3.20122,5.15244
506.218,87.8812,5.09084,0,9.82437,0.265847,0.0981958,0.609756,0.518293,-1.43293,-39.1394,-2.40939,3.18538,-16.311,-3.01829,4.87805
506.228,87.8797,5.09321,0,9.82437,0.273032,0.107776,0.0609756,0.396341,-1.64634,-39.0915,-2.55309,3.5111,-16.8598,-3.68902,5.36585
506.238,87.8775,5.08578,0,9.83635,0.275427,0.110171,0.304878,0.701219,-1.67683,-39.0244,-2.34233,3.33866,-15.9146,-3.17073,5.82317
506.248,87.8738,5.08675,0,9.84832,0.285007,0.0598755,0.27439,0.579268,-1.67683,-39.0628,-2.30401,3.48236,-16.4939,-3.23171,6.92073
506.258,87.8733,5.0821,0,9.83635,0.268242,0.119751,0.365854,0.640244,-1.64634,-39.034,-2.36149,3.37698,-16.372,-5,5.82317
506.268,87.8725,5.09196,0,9.84832,0.275427,0.0981958,0.426829,0.487805,-1.58537,-38.9191,-2.46687,3.61648,-15.2439,-4.48171,6.52439
506.278,87.8734,5.0788,0,9.82197,0.270637,0.107776,0.0914634,0.579268,-1.52439,-39.034,-2.45729,3.23328,-15.061,-4.96951,6.95122
506.288,87.8719,5.06214,0,9.83156,0.261057,0.136516,-0.0914634,0.365854,-1.79878,-38.9191,-2.51477,3.15664,-15.4573,-4.2378,7.10366
506.298,87.8675,5.06611,0,9.82197,0.287402,0.129331,-0.27439,0.182927,-1.70732,-38.8807,-2.35191,3.50152,-14.8171,-3.32317,6.15854
506.308,87.8662,5.07306,0,9.83156,0.285007,0.124541,0.121951,0.426829,-1.52439,-38.852,-2.34233,3.54942,-15,-4.35976,5.33537
506.318,87.8605,5.06486,0,9.84353,0.296982,0.0934058,-0.304878,0.335366,-1.70732,-39.0149,-2.43813,3.30992,-15.3049,-3.38415,6.09756
506.328,87.8607,5.0471,0,9.84114,0.289797,0.122146,0.0609756,0.213415,-1.37195,-39.1203,-2.48603,3.14706,-14.2988,-3.47561,6.46341
506.338,87.8579,5.03805,0,9.84353,0.287402,0.119751,0.0609756,0.27439,-1.61585,-39.2831,-2.37107,3.30034,-14.6037,-3.29268,6.64634
506.348,87.8597,5.02624,0,9.85072,0.275427,0.112566,-0.182927,0.152439,-1.43293,-39.3598,-2.33275,3.25244,-15.7927,-3.20122,6.18902
506.358,87.8605,5.0194,0,9.86748,0.268242,0.0742456,-0.213415,0.365854,-1.58537,-39.4843,-2.62973,3.33866,-15.0305,-4.11585,6.46341
506.368,87.8573,5.02556,0,9.86509,0.285007,0.0622705,-0.426829,0.0304878,-1.67683,-39.3119,-2.39981,3.54942,-13.8415,-3.17073,7.04268
506.378,87.853,5.01026,0,9.84114,0.289797,0.117356,-0.121951,0.152439,-1.70732,-39.2065,-2.55309,3.16622,-14.8171,-4.48171,6.64634
506.388,87.8545,5.01032,0,9.84353,0.256267,0.0886157,-0.0914634,0.121951,-1.67683,-39.2352,-2.55309,3.42488,-14.8476,-4.66463,7.04268
506.398,87.849,5.02084,0,9.86509,0.277822,0.112566,-0.518293,-0.0609756,-1.95122,-38.8903,-2.48603,3.57816,-15.0305,-3.87195,6.58537
506.408,87.8429,5.00742,0,9.81958,0.294587,0.0838257,-0.243902,-0.0609756,-1.79878,-38.9286,-2.32317,3.1758,-15.8841,-3.65854,7.28659
506.418,87.8406,5.00261,0,9.82677,0.285007,0.107776,-0.0304878,0.243902,-1.64634,-39.0053,-2.29443,3.3195,-13.9939,-4.32927,7.19512
506.428,87.838,5.01166,0,9.84353,0.301772,0.0814307,0.213415,0.152439,-1.46341,-38.9382,-2.31359,3.54942,-13.5976,-4.60366,7.10366
506.438,87.8371,5.01292,0,9.83156,0.287402,0.0981958,0.152439,0.121951,-1.52439,-39.0723,-2.33275,3.43446,-14.4207,-4.05488,7.5
506.448,87.8361,5.02836,0,9.86269,0.280217,0.0742456,-0.0609756,0.304878,-1.61585,-39.2256,-2.39981,3.69312,-15.2439,-4.90854,6.95122
506.458,87.8324,5.04479,0,9.85072,0.289797,0.153281,0,0.0914634,-1.70732,-39.1203,-2.45729,3.71228,-14.9085,-4.54268,6.46341
506.468,87.8285,5.05366,0,9.8579,0.299377,0.105381,0.152439,0.213415,-1.61585,-39.0723,-2.33275,3.58774,-14.939,-4.5122,6.37195
506.478,87.8308,5.06739,0,9.86988,0.263452,0.100591,0.0914634,0.426829,-1.58537,-39.2831,-2.32317,3.69312,-16.5854,-6.0061,6.7378
506.488,87.8292,5.06918,0,9.8555,0.280217,0.0958008,0.121951,0.27439,-1.67683,-39.034,-2.11241,3.47278,-15.8841,-5.73171,6.4939
506.498,87.8329,5.06357,0,9.8555,0.261057,0.126936,-0.0609756,0.396341,-1.52439,-39.1969,-2.26569,3.35782,-15.7622,-6.31098,5.42683
506.508,87.8277,5.06788,0,9.81479,0.296982,0.112566,-0.152439,0.304878,-1.7378,-39.1011,-2.24653,3.52068,-15.9146,-5.54878,5.21341
506.518,87.8234,5.0676,0,9.83395,0.296982,0.102986,0.0609756,0.396341,-1.67683,-38.8999,-2.30401,3.42488,-15.5183,-5.88415,6.25
506.528,87.8282,5.06979,0,9.82197,0.258662,0.143701,0.152439,0.640244,-1.4939,-38.9382,-2.17947,3.47278,-15.6098,-5.36585,6.25
506.538,87.8261,5.08103,0,9.82677,0.275427,0.114961,0.152439,0.548781,-1.76829,-38.8712,-2.35191,3.62606,-15.5793,-4.87805,6.15854
506.548,87.827,5.09346,0,9.82437,0.273032,0.136516,0.0609756,0.579268,-1.58537,-38.9765,-2.28485,3.66438,-15.8841,-4.87805,5.64024
506.558,87.826,5.11294,0,9.85311,0.268242,0.119751,-0.152439,0.365854,-1.76829,-38.8807,-2.40939,3.78892,-16.5854,-3.90244,6.34146
506.568,87.8233,5.12454,0,9.84832,0.285007,0.114961,0.0304878,0.121951,-1.70732,-39.0819,-2.37107,3.68354,-15.9756,-4.39024,5.45732
506.578,87.8173,5.11986,0,9.82677,0.311353,0.0862207,0.121951,0.213415,-1.64634,-39.0149,-2.39023,3.40572,-14.4512,-3.5061,5.57927
506.588,87.8122,5.1105,0,9.8124,0.308958,0.150886,-0.0914634,0.335366,-1.61585,-39.2448,-2.23695,3.33866,-14.0854,-4.2378,4.90854
506.598,87.8111,5.10087,0,9.81,0.285007,0.131726,0.0304878,0.365854,-1.61585,-39.1203,-2.38065,3.3195,-14.8476,-3.47561,4.60366
506.609,87.8109,5.0947,0,9.81,0.289797,0.138911,0.121951,0.0609756,-1.4939,-38.967,-2.52435,3.35782,-14.1768,-4.05488,5.39634
506.619,87.8111,5.0881,0,9.81,0.280217,0.131726,0.0609756,0.0304878,-1.58537,-38.9957,-2.26569,3.34824,-16.0366,-4.11585,4.2378
506.629,87.8079,5.09212,0,9.79323,0.282612,0.136516,-0.0609756,0.243902,-1.79878,-39.0244,-2.19863,3.53026,-16.0061,-4.17683,4.96951
506.638,87.8046,5.09417,0,9.82677,0.311353,0.129331,-0.304878,-0.0304878,-1.46341,-38.9478,-2.49561,3.49194,-16.1585,-4.17683,4.60366
506.648,87.8046,5.10274,0,9.82677,0.282612,0.148491,-0.0609756,-0.304878,-1.58537,-39.0149,-2.39981,3.61648,-17.622,-2.95732,4.39024
506.658,87.8022,5.0983,0,9.84353,0.299377,0.122146,-0.0609756,-0.182927,-1.55488,-38.9765,-2.39981,3.39614,-16.4024,-2.19512,4.20732
506.668,87.8008,5.10035,0,9.8555,0.306563,0.114961,-0.182927,-0.0304878,-1.40244,-39.0436,-2.36149,3.5111,-15.5488,-2.28659,4.84756
506.678,87.8002,5.09389,0,9.81719,0.296982,0.0742456,-0.152439,-0.548781,-1.46341,-38.9861,-2.49561,3.35782,-16.372,-2.95732,4.05488
506.688,87.8006,5.10574,0,9.83156,0.311353,0.0981958,0.304878,-0.0304878,-1.21951,-39.1394,-2.39981,3.68354,-15.3049,-3.38415,5.06098
506.698,87.8013,5.09867,0,9.86748,0.296982,0.0718506,-0.0609756,-0.27439,-1.37195,-39.1777,-2.34233,3.3674,-15.8232,-2.92683,4.78659
506.708,87.8044,5.09121,0,9.84353,0.280217,0.124541,0.213415,-0.0304878,-1.40244,-39.2256,-2.33275,3.35782,-15.3963,-3.53659,4.96951
506.718,87.8053,5.10039,0,9.82197,0.287402,0.0622705,0.152439,-0.152439,-1.46341,-39.1681,-2.38065,3.63564,-15.3659,-4.02439,4.66463
506.728,87.8068,5.10108,0,9.83156,0.294587,0.131726,0.152439,-0.27439,-1.34146,-39.0723,-2.09325,3.48236,-15.2744,-5,4.84756
506.738,87.8077,5.10419,0,9.82677,0.294587,0.153281,0.152439,-0.152439,-1.37195,-39.1203,-2.37107,3.53026,-16.189,-4.66463,4.96951
506.748,87.8132,5.11546,0,9.84353,0.268242,0.160466,0,-0.243902,-1.37195,-39.2256,-2.23695,3.68354,-15.8232,-4.90854,3.96341
506.758,87.8134,5.10733,0,9.86509,0.289797,0.0694556,0.121951,-0.0914634,-1.46341,-39.1681,-2.20821,3.34824,-14.3902,-4.84756,4.84756
506.768,87.8202,5.11021,0,9.84353,0.251477,0.0838257,0.0304878,-0.182927,-1.46341,-39.0149,-2.40939,3.52068,-15.061,-4.81707,4.48171
506.778,87.8217,5.11276,0,9.87467,0.275427,0.0718506,0.0304878,-0.182927,-1.52439,-38.967,-2.08367,3.5111,-15.5793,-5.21341,3.87195
506.788,87.8244,5.10637,0,9.83395,0.268242,0.0910107,0.0304878,-0.27439,-1.52439,-39.1586,-2.34233,3.37698,-16.6463,-4.57317,3.78049
506.798,87.8287,5.09935,0,9.81719,0.275427,0.136516,-0.0609756,-0.152439,-1.34146,-39.2256,-2.29443,3.3674,-15.4573,-4.5122,3.90244
506.808,87.8301,5.082,0,9.8579,0.282612,0.100591,-0.0914634,-0.152439,-1.43293,-38.8616,-2.36149,3.15664,-15.9146,-3.53659,2.80488
506.818,87.8324,5.08664,0,9.82916,0.261057,0.122146,0,-0.0304878,-1.61585,-38.9286,-2.35191,3.53026,-16.7683,-3.53659,3.53659
506.828,87.837,5.09257,0,9.82437,0.261057,0.0934058,0,-0.121951,-1.46341,-39.0819,-2.56267,3.56858,-16.25,-3.87195,3.07927
506.838,87.8382,5.08141,0,9.86748,0.280217,0.136516,-0.0914634,0.0914634,-1.46341,-39.0915,-2.49561,3.28118,-14.9085,-2.59146,4.45122
506.848,87.8415,5.06956,0,9.83156,0.275427,0.0622705,-0.121951,0.152439,-1.37195,-39.1298,-2.49561,3.26202,-15.3659,-3.35366,3.04878
506.858,87.8427,5.06624,0,9.84114,0.292192,0.0910107,0.0914634,0.0304878,-1.31098,-39.1298,-2.45729,3.40572,-14.9085,-2.34756,3.47561
506.868,87.843,5.07078,0,9.8579,0.292192,0.119751,-0.213415,-0.152439,-1.37195,-38.8137,-2.44771,3.5111,-13.9634,-2.40854,4.17683
506.878,87.8441,5.07682,0,9.88185,0.287402,0.0934058,-0.152439,-0.243902,-1.37195,-38.9095,-2.45729,3.54942,-14.0549,-2.22561,5.09146
506.888,87.8423,5.06924,0,9.83395,0.301772,0.110171,-0.27439,-0.457317,-1.40244,-38.852,-2.40939,3.30992,-13.7195,-3.23171,4.14634
506.898,87.8462,5.07281,0,9.82916,0.289797,0.141306,-0.304878,-0.27439,-1.15854,-39.1011,-2.41897,3.52068,-15.2439,-2.89634,4.78659
506.908,87.8447,5.08085,0,9.85311,0.287402,0.138911,-0.182927,-0.152439,-1.55488,-39.0532,-2.53393,3.59732,-15.4878,-2.62195,5.21341
506.918,87.8428,5.08964,0,9.83874,0.301772,0.124541,-0.152439,-0.152439,-1.40244,-39.1777,-2.38065,3.62606,-14.9085,-2.9878,5.30488
506.928,87.8431,5.11465,0,9.83874,0.292192,0.134121,-0.121951,-0.0914634,-1.37195,-39.1969,-2.51477,3.91346,-14.5427,-3.96341,5.85366
506.938,87.8429,5.12768,0,9.81958,0.287402,0.162861,-0.365854,-0.0914634,-1.46341,-39.2065,-2.58183,3.72186,-14.7561,-4.2378,4.87805
506.948,87.8423,5.12423,0,9.83395,0.299377,0.146096,-0.0914634,-0.213415,-1.34146,-39.264,-2.38065,3.44404,-14.2988,-5.57927,4.96951
506.958,87.8488,5.12293,0,9.88904,0.258662,0.170046,-0.335366,-0.213415,-1.34146,-39.2735,-2.39023,3.48236,-14.5427,-4.93902,4.87805
506.968,87.8517,5.11274,0,9.8579,0.268242,0.0622705,-0.396341,-0.579268,-1.46341,-38.852,-2.31359,3.29076,-14.2683,-4.87805,6.37195
506.978,87.8496,5.1023,0,9.85311,0.301772,0.126936,-0.396341,-0.640244,-1.40244,-38.967,-2.39981,3.29076,-14.3598,-4.45122,5.64024
506.988,87.8527,5.10048,0,9.82916,0.277822,0.102986,-0.152439,-0.670732,-1.34146,-38.9574,-2.36149,3.43446,-13.872,-3.65854,4.14634
506.998,87.8564,5.11965,0,9.8124,0.268242,0.0910107,-0.304878,-0.548781,-1.40244,-38.9095,-2.39981,3.78892,-13.628,-4.60366,5
507.008,87.8598,5.11739,0,9.84114,0.261057,0.0550855,-0.121951,-0.335366,-1.4939,-38.8424,-2.31359,3.42488,-14.7561,-4.7561,4.39024
507.018,87.8608,5.11595,0,9.8603,0.263452,0.0981958,-0.365854,0.0914634,-1.61585,-39.0149,-2.26569,3.45362,-14.4512,-4.54268,4.78659
507.028,87.865,5.10008,0,9.8555,0.244292,0.0838257,-0.182927,-0.182927,-1.61585,-39.0532,-2.44771,3.20454,-14.4817,-4.90854,4.48171
507.038,87.8682,5.11322,0,9.85072,0.265847,0.0838257,0.0304878,-0.27439,-1.43293,-38.9957,-2.29443,3.69312,-15.2744,-4.39024,4.69512
507.048,87.874,5.10514,0,9.8579,0.244292,0.0502954,0.0304878,0.0914634,-1.4939,-39.0149,-2.20821,3.33866,-15.8232,-3.62805,4.48171
507.058,87.879,5.09983,0,9.84832,0.251477,0.0981958,-0.182927,0.335366,-1.46341,-38.9765,-2.35191,3.37698,-15.3963,-3.90244,3.90244
507.068,87.8793,5.09676,0,9.8555,0.253872,0.0670605,0.182927,0.0609756,-1.7378,-39.0244,-2.52435,3.4153,-15.9146,-4.17683,3.87195
507.078,87.8781,5.09189,0,9.83156,0.265847,0.158071,0.335366,0.182927,-1.70732,-38.9765,-2.24653,3.37698,-15.6098,-4.45122,4.08537
507.088,87.8767,5.10872,0,9.84353,0.268242,0.0646655,-0.213415,0.27439,-1.70732,-39.1586,-2.30401,3.76976,-16.5549,-3.62805,4.93902
507.098,87.8799,5.10684,0,9.84114,0.258662,0.124541,0.0304878,0.335366,-1.4939,-39.0723,-2.34233,3.44404,-14.939,-4.81707,4.35976
507.109,87.8786,5.12173,0,9.8579,0.285007,0.0742456,0.27439,0.640244,-1.4939,-39.0244,-2.31359,3.73144,-15.3354,-4.2378,4.66463
507.118,87.8787,5.14048,0,9.83635,0.292192,0.0766406,0.335366,0.182927,-1.31098,-39.0628,-2.30401,3.80808,-15.7012,-5.51829,4.39024
507.128,87.879,5.14142,0,9.83635,0.275427,0.100591,0.27439,0.152439,-1.4939,-39.0819,-2.40939,3.5111,-16.189,-6.15854,4.29878
507.138,87.8756,5.14559,0,9.85311,0.280217,0.110171,0.335366,0.487805,-1.70732,-39.2256,-2.58183,3.57816,-14.7256,-7.0122,5.39634
507.148,87.8717,5.1653,0,9.88664,0.292192,0.0766406,0.304878,0.457317,-1.61585,-39.1873,-2.40939,3.8464,-16.372,-7.59146,6.76829
507.158,87.8671,5.15244,0,9.85311,0.301772,0.122146,0.152439,0.365854,-1.55488,-39.2735,-2.52435,3.30034,-15.8841,-7.46951,5.4878
507.168,87.8606,5.16083,0,9.84353,0.294587,0.124541,0.27439,0.426829,-1.79878,-39.4172,-2.38065,3.67396,-15.2744,-7.92683,5.33537
507.178,87.865,5.15946,0,9.83635,0.265847,0.129331,0.0914634,0.670732,-1.37195,-39.3406,-2.39981,3.50152,-15.8537,-8.07927,5.39634
507.188,87.8613,5.15733,0,9.83635,0.296982,0.134121,0.121951,0.487805,-1.55488,-39.331,-2.17947,3.48236,-15.7927,-9.26829,5.30488
507.198,87.8659,5.15342,0,9.81958,0.280217,0.0838257,0.121951,0.27439,-1.18902,-39.3981,-2.39981,3.45362,-14.9695,-9.87805,5.12195
507.209,87.8646,5.15606,0,9.86509,0.282612,0.110171,-0.0914634,0.0914634,-1.55488,-39.3214,-2.59141,3.559,-15.4268,-9.7561,4.84756
507.218,87.8703,5.15006,0,9.82677,0.251477,0.136516,-0.0609756,0,-1.43293,-39.0436,-2.40939,3.38656,-14.0549,-9.57317,5.12195
507.228,87.8693,5.15736,0,9.83395,0.282612,0.0814307,0.0609756,0.304878,-1.52439,-39.0628,-2.49561,3.61648,-14.8171,-9.05488,4.29878
507.238,87.869,5.16052,0,9.87227,0.275427,0.102986,-0.0304878,0.396341,-1.55488,-38.9382,-2.49561,3.53984,-15.0915,-8.65854,4.60366
507.248,87.8693,5.15732,0,9.82916,0.258662,0.0958008,-0.335366,0.243902,-1.70732,-38.67,-2.38065,3.40572,-15.122,-9.42073,4.78659
507.258,87.8729,5.15296,0,9.82197,0.249082,0.136516,-0.182927,0.27439,-1.58537,-38.967,-2.40939,3.4153,-14.4207,-7.7439,4.48171
507.268,87.8731,5.14723,0,9.81479,0.258662,0.122146,-0.0914634,0.121951,-1.70732,-39.0628,-2.42855,3.39614,-15.3049,-7.92683,5.54878
507.278,87.8746,5.12474,0,9.82197,0.241897,0.100591,-0.304878,-0.121951,-1.79878,-39.2448,-2.29443,3.11832,-15.2439,-7.31707,4.93902
507.288,87.8777,5.12338,0,9.81958,0.251477,0.186812,-0.182927,0.0914634,-1.58537,-39.1298,-2.38065,3.4632,-14.8171,-6.61585,5.15244
507.298,87.8767,5.1268,0,9.8124,0.275427,0.0981958,-0.0609756,0.152439,-1.58537,-39.2448,-2.35191,3.559,-13.4451,-5.60976,4.45122
507.309,87.8743,5.13217,0,9.8124,0.292192,0.107776,0.0304878,0.27439,-1.4939,-39.1011,-2.31359,3.57816,-14.7561,-6.82927,4.54268
507.318,87.8715,5.14651,0,9.82916,0.289797,0.172441,-0.243902,0.0609756,-1.55488,-39.034,-2.17947,3.73144,-16.0061,-6.85976,4.66463
507.328,87.8692,5.16418,0,9.83874,0.280217,0.148491,-0.243902,-0.0914634,-1.64634,-39.0723,-2.39981,3.7985,-16.372,-8.07927,5.7622
507.338,87.8616,5.16798,0,9.83874,0.330513,0.0910107,0.121951,-0.0609756,-1.40244,-39.0149,-2.52435,3.559,-14.5427,-9.66463,5.12195
507.348,87.8577,5.16093,0,9.87227,0.289797,0.0886157,-0.243902,-0.426829,-1.67683,-39.0915,-2.40939,3.38656,-14.878,-7.83537,6.03659
507.358,87.8554,5.16861,0,9.84593,0.299377,0.198787,0.152439,-0.426829,-1.43293,-39.3214,-2.44771,3.6548,-14.6951,-8.9939,5.51829
507.368,87.8541,5.17993,0,9.87467,0.296982,0.0958008,-0.0914634,-0.27439,-1.40244,-39.2448,-2.52435,3.71228,-15.2744,-10.2744,6.21951
507.378,87.8537,5.19504,0,9.86269,0.301772,0.0958008,-0.0609756,-0.487805,-1.28049,-39.3023,-2.48603,3.78892,-14.3598,-11.0976,6.52439
507.388,87.855,5.20128,0,9.83635,0.294587,0.110171,-0.0914634,-0.0304878,-1.25,-39.2735,-2.38065,3.63564,-13.6585,-12.8659,6.15854
507.398,87.8516,5.22227,0,9.8076,0.294587,0.0718506,0.0609756,0.27439,-1.58537,-39.1586,-2.19863,3.88472,-15.3354,-13.3232,5.94512
507.409,87.8555,5.26273,0,9.90101,0.261057,0.0910107,0.365854,0.182927,-1.46341,-39.1586,-2.30401,4.23918,-14.2988,-13.2012,6.03659
507.418,87.8521,5.29149,0,9.83395,0.306563,0.0886157,0.365854,0.121951,-1.43293,-39.1394,-2.51477,4.05716,-14.7561,-14.2988,6.25
507.428,87.8504,5.31424,0,9.8555,0.292192,0.0646655,0.152439,0.121951,-1.4939,-39.0149,-2.39023,3.96136,-15.3963,-13.8415,4.7561
507.438,87.8585,5.32364,0,9.87227,0.251477,0.0670605,0.182927,-0.0304878,-1.31098,-38.9574,-2.46687,3.74102,-14.5732,-13.3841,4.54268
507.448,87.8658,5.33635,0,9.81719,0.249082,0.0766406,0,0.0914634,-1.37195,-39.0149,-2.43813,3.80808,-15.4573,-14.1159,5.30488
507.459,87.8701,5.32528,0,9.83156,0.253872,0.119751,-0.182927,0.0609756,-1.4939,-39.0819,-2.31359,3.4153,-15.1829,-12.6524,5.09146
507.468,87.8686,5.3474,0,9.82677,0.275427,0.131726,-0.152439,0.0304878,-1.64634,-39.0532,-2.37107,3.98052,-16.0366,-12.9268,4.02439
507.478,87.8688,5.36155,0,9.82437,0.275427,0.136516,0.0304878,0.335366,-1.52439,-38.9382,-2.51477,3.8464,-15.0305,-12.8049,5.30488
507.488,87.8731,5.35945,0,9.82437,0.277822,0.112566,0.152439,0.243902,-1.21951,-38.9957,-2.45729,3.57816,-14.7256,-13.2622,5.39634
507.498,87.8799,5.37639,0,9.8076,0.244292,0.0958008,-0.0304878,0.426829,-1.43293,-38.8424,-2.27527,3.8943,-14.6037,-12.561,5.03049
507.508,87.8799,5.38531,0,9.85311,0.282612,0.0790356,0.213415,0.27439,-1.43293,-38.9574,-2.26569,3.77934,-14.5732,-12.2256,5.06098
507.518,87.8821,5.41607,0,9.81,0.258662,0.160466,0.27439,0.0914634,-1.55488,-38.8807,-2.31359,4.15296,-15.061,-13.1707,4.87805
507.528,87.8828,5.43536,0,9.8076,0.275427,0.0742456,0.121951,0.365854,-1.46341,-39.0532,-2.29443,3.9901,-15.7012,-14.0244,4.60366
507.538,87.8879,5.43464,0,9.82197,0.268242,0.134121,0.182927,-0.335366,-1.25,-39.2927,-2.15073,3.67396,-15.9451,-15.2744,4.60366
507.548,87.8927,5.45004,0,9.81479,0.258662,0.107776,0.0914634,-0.0304878,-1.37195,-39.1011,-2.39981,3.9422,-14.0244,-13.3841,3.78049
507.558,87.8983,5.47277,0,9.82437,0.256267,0.134121,-0.0609756,-0.213415,-1.34146,-39.2256,-2.31359,4.09548,-15.5488,-12.8354,4.20732
507.568,87.8965,5.50082,0,9.86509,0.292192,0.153281,0,0.0609756,-1.40244,-39.1873,-2.37107,4.20086,-14.878,-12.5915,4.02439
507.578,87.8973,5.51837,0,9.83395,0.296982,0.112566,-0.243902,0.0609756,-1.15854,-39.0436,-2.12199,4.01884,-15.4573,-13.5976,4.05488
507.588,87.8928,5.52956,0,9.87227,0.306563,0.141306,0.0304878,-0.0914634,-1.43293,-39.0628,-2.48603,3.92304,-14.939,-13.3232,3.20122
507.598,87.8987,5.5556,0,9.8579,0.273032,0.124541,-0.213415,-0.335366,-1.12805,-39.0053,-2.29443,4.1817,-15.7317,-13.7195,2.83537
507.608,87.9013,5.58367,0,9.85311,0.294587,0.141306,-0.182927,-0.27439,-1.06707,-38.9574,-2.41897,4.2296,-14.9695,-13.75,3.38415
507.618,87.9041,5.60898,0,9.82916,0.280217,0.141306,-0.304878,-0.304878,-1.21951,-39.0628,-2.28485,4.21044,-15.9451,-14.3293,2.7439
507.628,87.9104,5.62944,0,9.79563,0.258662,0.107776,-0.27439,-0.335366,-1.25,-38.9861,-2.22737,4.1338,-15.2744,-14.7256,2.83537
507.638,87.905,5.63331,0,9.8076,0.325723,0.0814307,0.243902,-0.304878,-1.18902,-39.0915,-2.34233,3.86556,-15.6098,-16.128,3.65854
507.648,87.9064,5.65315,0,9.8076,0.287402,0.102986,-0.0914634,-0.518293,-1.21951,-39.1777,-2.34233,4.15296,-14.8476,-16.8598,2.04268
507.658,87.9073,5.66452,0,9.81,0.282612,0.0742456,0.121951,-0.762195,-1.31098,-39.2065,-2.36149,4.01884,-15.8537,-17.7134,2.65244
507.668,87.9108,5.69483,0,9.83874,0.270637,0.107776,0.0914634,-0.609756,-1.28049,-39.1298,-2.37107,4.34457,-15.8232,-19.0549,1.76829
507.678,87.9134,5.70799,0,9.81719,0.280217,0.131726,0.365854,-0.792683,-1.21951,-39.3214,-2.40939,4.0859,-15.5488,-19.1768,3.84146
507.688,87.9236,5.72942,0,9.84353,0.246687,0.119751,0.304878,-0.548781,-1.12805,-39.1873,-2.48603,4.22002,-15.122,-20.7622,4.2378
507.698,87.9347,5.74783,0,9.8555,0.237107,0.114961,0.365854,-0.640244,-1.15854,-39.3023,-2.65847,4.19128,-15.1524,-21.6159,4.08537
507.708,87.9384,5.77747,0,9.8555,0.280217,0.0838257,0.548781,-0.487805,-1.09756,-39.1586,-2.54351,4.38289,-14.1768,-22.2256,5.06098
507.718,87.9454,5.77263,0,9.87467,0.241897,0.0694556,0.365854,-0.640244,-1.31098,-39.2065,-2.80217,3.80808,-13.0793,-21.7378,6.46341
507.728,87.9447,5.78044,0,9.81479,0.275427,0.0670605,0.27439,-1.0061,-1.43293,-39.3214,-2.65847,4.038,-13.2622,-21.5549,7.5
507.738,87.948,5.78421,0,9.84114,0.270637,0.0359253,0.365854,-0.670732,-1.21951,-39.0819,-2.44771,3.9422,-13.6585,-23.3537,6.25
507.748,87.9489,5.79235,0,9.83156,0.273032,0.117356,0.426829,-0.304878,-1.34146,-39.3023,-2.54351,4.038,-14.0244,-24.9695,7.71341
507.758,87.9426,5.81305,0,9.80521,0.330513,0.0742456,0.121951,-0.27439,-1.06707,-39.2352,-2.62973,4.24876,-12.8659,-27.2256,7.68293
507.768,87.9559,5.81512,0,9.83395,0.265847,0.0862207,0.243902,-0.0304878,-0.701219,-39.331,-2.34233,3.9422,-13.0793,-28.628,6.70732
507.778,87.9637,5.83651,0,9.81719,0.289797,0.112566,0.335366,-0.396341,-0.670732,-39.3502,-2.29443,4.2775,-14.7866,-30.5488,7.28659
507.788,87.9825,5.83531,0,9.80042,0.241897,0.148491,0.335366,-0.243902,-0.670732,-39.4172,-2.38065,3.8943,-15.3354,-33.1098,8.62805
507.798,88.0088,5.85512,0,9.79323,0.210762,0.136516,0.213415,-0.518293,-0.640244,-39.5993,-2.57225,4.2775,-15.9146,-34.4512,10.0305
507.809,88.0251,5.88344,0,9.8579,0.234712,0.102986,0.701219,-0.304878,-0.762195,-39.3885,-2.64889,4.41163,-15.8232,-36.25,13.2317
507.819,88.0268,5.90394,0,9.88664,0.306563,0.0718506,0.640244,0.304878,-0.640244,-39.1969,-2.82133,4.26792,-15.9146,-37.8049,15.5183
507.829,88.0214,5.92291,0,9.8579,0.349673,0.0359253,0.701219,0.426829,-0.27439,-39.2544,-2.96503,4.25834,-14.2988,-38.75,17.2866
507.838,88.0062,5.93474,0,9.86269,0.387993,0.0311353,0.609756,0.182927,0.0304878,-39.4076,-2.84049,4.15296,-11.9207,-41.5549,19.6037
507.848,87.9969,5.95477,0,9.73815,0.376018,0.0574805,0.853659,-0.365854,0.243902,-39.6472,-3.08,4.32541,-10.6707,-43.3232,19.6646
507.858,87.9844,6.00121,0,9.69504,0.479004,0.100591,1.06707,-1.15854,1.37195,-39.8675,-2.85965,4.82357,-7.34756,-46.2195,18.9634
507.868,88.0094,6.02801,0,9.91299,0.282612,0.182021,-0.853659,-1.95122,1.46341,-40.0112,-2.77343,4.50743,-5.79268,-50.6098,19.6037
507.878,88.0875,6.08426,0,10.2148,-0.0862207,0.179626,-1.0061,0.0914634,-0.640244,-40.1262,-2.92671,5.05349,-4.81707,-54.6037,18.1707
507.888,88.1079,6.12361,0,9.79084,0.0766406,0.0981958,-0.579268,-0.914634,-1.85976,-39.9537,-2.48603,4.76609,-3.17073,-55.6098,17.9878
507.898,88.0924,6.16931,0,9.8124,0.320933,0.00239502,-0.518293,-0.792683,-1.64634,-39.5514,-2.44771,4.85231,-3.07927,-57.2561,16.9512
507.908,88.0984,6.20802,0,9.94173,0.191602,0.0239502,-0.945122,-1.12805,-1.61585,-39.4076,-2.22737,4.73735,-3.44512,-58.9939,17.1951
507.918,88.095,6.2611,0,9.88664,0.213157,0.105381,-1.82927,-1.95122,-2.04268,-39.0053,-1.93997,4.96727,-4.57317,-58.7805,16.8902
507.928,88.0788,6.33532,0,9.83156,0.318538,0.0215552,-2.07317,-0.518293,-1.79878,-38.8137,-1.93997,5.35047,-6.31098,-57.8963,15.2744
507.938,88.0691,6.4035,0,9.81,0.325723,0.0455054,-2.7439,-0.121951,-1.06707,-38.7754,-2.06451,5.28341,-7.62195,-60.1829,14.9085
507.948,88.0822,6.4759,0,9.81,0.196392,0.155676,-2.86585,-1.21951,-1.21951,-38.6508,-1.97829,5.38879,-8.47561,-59.5427,14.1463
507.958,88.105,6.54462,0,9.78366,0.0862207,0.126936,-2.7439,-1.61585,-1.67683,-38.5646,-1.7771,5.36005,-9.05488,-60.3049,14.3902
507.968,88.1286,6.62272,0,9.75252,0.102986,0.0910107,-2.2561,-1.34146,-1.4939,-38.5167,-1.96871,5.56124,-9.32927,-60.7927,13.2317
507.978,88.1469,6.70632,0,9.77407,0.146096,0.0646655,-2.22561,-0.304878,-1.34146,-38.67,-1.90165,5.73368,-11.0671,-60.5793,12.439
507.988,88.156,6.80642,0,9.83395,0.215552,0.0598755,-2.22561,-0.0609756,-1.09756,-38.6508,-1.96871,6.07856,-10.2439,-59.9085,11.0671
507.998,88.1721,6.89125,0,9.94891,0.162861,0.0167651,-2.53049,0.914634,-1.18902,-38.8328,-1.96871,5.90612,-8.5061,-60.7927,11.9207
508.008,88.1963,6.9958,0,9.96568,0,0.112566,-2.68293,1.12805,-2.07317,-38.6221,-2.16031,6.27974,-8.38415,-59.8171,12.0732
508.018,88.2073,7.08822,0,9.98005,-0.0143701,0.0479004,-2.28659,1.52439,-3.04878,-38.4017,-1.78668,6.1073,-8.56707,-59.2683,11.8598
508.028,88.2023,7.20305,0,9.95849,0.0574805,0.0910107,-2.10366,2.07317,-3.62805,-38.4401,-1.74836,6.56714,-7.95732,-59.2073,12.4695
508.038,88.1863,7.29953,0,9.92017,0.112566,0.0670605,-2.40854,2.62195,-4.05488,-38.7275,-1.66214,6.36596,-7.5,-61.5244,12.3476
508.048,88.1622,7.40828,0,9.90341,0.150886,0.136516,-2.92683,3.41463,-4.42073,-38.6604,-1.52802,6.6342,-7.34756,-62.378,14.0549
508.058,88.1387,7.5267,0,9.94173,0.129331,0.0766406,-2.56098,4.14634,-4.66463,-38.7562,-1.19272,6.89287,-9.42073,-63.4146,15.2439
508.068,88.1202,7.63356,0,9.90341,0.119751,-0.00479004,-1.43293,3.90244,-4.32927,-38.6221,-1.13524,6.74917,-10.6098,-63.2317,14.9695
508.078,88.0972,7.75832,0,9.92736,0.150886,-0.0886157,-0.0609756,4.02439,-4.45122,-38.7562,-1.06818,7.16111,-11.4634,-63.7195,15.5488
508.088,88.0665,7.88892,0,9.94173,0.282612,-0.0550855,0.579268,4.17683,-3.71951,-38.9765,-1.0586,7.38145,-13.7195,-67.1646,15.5183
508.098,88.0294,8.01748,0,9.92736,0.325723,-0.0742456,0.152439,4.93902,-3.90244,-39.149,-1.22146,7.45809,-14.8171,-70.6098,14.6037
508.108,87.9954,8.15255,0,9.9058,0.313748,0.0766406,-0.884146,5.67073,-3.81098,-39.2448,-1.31726,7.67843,-16.0976,-72.3171,13.6585
508.118,87.9754,8.27958,0,9.96089,0.182021,0.0910107,-0.701219,6.46341,-4.05488,-39.3598,-1.1544,7.64011,-17.7439,-75.8232,13.2622
508.128,87.9647,8.42204,0,9.92975,0.0981958,-0.0191602,1.12805,6.89024,-4.14634,-39.3214,-1.28852,7.99458,-18.9634,-77.7439,12.1341
508.138,87.9546,8.55752,0,9.89143,0.0359253,-0.110171,3.5061,6.85976,-4.81707,-39.264,-1.42264,7.95625,-20.8841,-78.4451,11.5549
508.148,87.9303,8.68741,0,9.86269,0.153281,-0.129331,5.42683,6.12805,-4.87805,-39.0053,-1.55676,7.89877,-21.189,-78.75,10.7622
508.158,87.886,8.82476,0,9.82437,0.328118,-0.0119751,5,4.45122,-4.84756,-39.0819,-1.80584,8.13828,-19.0244,-79.3598,11.4634
508.168,87.8343,8.93199,0,9.85311,0.407153,0.251477,3.01829,4.20732,-4.7561,-39.0244,-2.10283,7.67843,-18.689,-81.0976,11.7073
508.178,87.777,9.08034,0,9.91538,0.493374,0.359253,1.76829,4.45122,-4.42073,-38.8903,-2.14115,8.45442,-16.5854,-83.5061,10.9756
508.188,87.7301,9.2192,0,9.93694,0.431104,0.423918,1.09756,4.17683,-4.2378,-38.8137,-2.34233,8.35862,-14.7256,-87.6219,12.0122
508.198,87.6882,9.36135,0,9.9082,0.416733,0.256267,2.2561,3.75,-3.9939,-38.7466,-2.45729,8.48316,-14.6646,-92.8354,11.4939
508.208,87.6449,9.50032,0,9.81719,0.431104,0.201182,3.29268,3.62805,-3.9939,-38.8233,-2.11241,8.53106,-12.6829,-96.4329,11.0671
508.218,87.5949,9.64199,0,9.72857,0.493374,0.160466,3.14024,3.23171,-3.93293,-38.9478,-2.20821,8.69392,-10.3963,-99.9695,10.0305
508.228,87.5469,9.77373,0,9.68067,0.481399,0.170046,1.95122,3.47561,-3.96341,-38.4688,-2.20821,8.50232,-9.45122,-102.134,9.39024
508.238,87.5007,9.88873,0,9.64235,0.500559,0.289797,1.12805,3.14024,-3.59756,-38.5359,-2.16031,8.31072,-8.78049,-102.561,8.47561
508.248,87.4586,10.0377,0,9.68306,0.486189,0.325723,1.25,2.28659,-3.47561,-38.4305,-1.90165,8.97174,-7.86585,-103.11,6.7378
508.258,87.4351,10.1989,0,9.71899,0.404758,0.387993,1.15854,1.55488,-2.77439,-38.4975,-2.04535,9.29747,-7.31707,-107.409,5.85366
508.268,87.4134,10.3585,0,9.74294,0.404758,0.364043,1.55488,0.640244,-2.65244,-38.373,-1.90165,9.33579,-5.30488,-112.104,5.30488
508.278,87.3959,10.5104,0,9.78605,0.361648,0.332908,1.7378,-0.0609756,-2.86585,-38.1814,-1.71962,9.25915,-6.85976,-113.689,4.5122
508.288,87.3761,10.6865,0,9.74294,0.378413,0.299377,1.34146,-0.762195,-2.89634,-38.4592,-1.78668,9.86269,-5.94512,-116.006,5.97561
508.298,87.3582,10.8184,0,9.73096,0.364043,0.261057,1.31098,-0.97561,-2.92683,-38.2964,-1.825,9.15376,-6.09756,-116.25,4.87805
508.308,87.3449,10.9715,0,9.63995,0.313748,0.299377,1.15854,-1.0061,-3.10976,-39.3406,-1.83458,9.87227,-3.38415,-120.366,6.58537
508.318,87.3279,11.0747,0,9.65911,0.308958,0.361648,0.579268,-1.12805,-3.53659,-37.6641,-1.33642,8.7035,-4.08537,-114.634,7.16463
508.328,87.3014,11.2147,0,9.70222,0.383203,0.409548,0.487805,-1.0061,-3.59756,-37.9706,-1.4897,9.49865,-6.64634,-114.024,7.31707
508.338,87.2705,11.3754,0,9.72617,0.438289,0.428708,0.548781,-1.64634,-3.41463,-38.5167,-1.57592,10.0926,-6.46341,-119.177,7.62195
508.348,87.2401,11.5558,0,9.79323,0.447869,0.443079,0.0914634,-1.34146,-3.35366,-38.7466,-1.81542,10.6099,-6.64634,-124.909,8.65854
508.358,87.2221,11.7545,0,9.85072,0.373623,0.493374,-0.182927,-1.28049,-3.14024,-38.9191,-1.96871,11.1081,-7.07317,-129.848,9.26829
508.368,87.215,11.9552,0,9.91778,0.270637,0.481399,0.213415,-2.5,-3.35366,-39.1107,-1.84417,11.338,-7.65244,-132.439,8.59756
508.378,87.2107,12.143,0,9.92257,0.229922,0.471819,-0.243902,-3.5061,-3.56707,-39.0723,-1.91123,11.2231,-6.58537,-135.793,11.4329
508.388,87.1947,12.3079,0,9.87946,0.258662,0.409548,-0.670732,-4.93902,-4.32927,-38.6604,-1.76752,10.8207,-5.94512,-135.701,12.5915
508.398,87.1698,12.4364,0,9.84114,0.277822,0.445474,-1.34146,-5.60976,-5,-38.0952,-2.09325,10.1309,-2.59146,-133.049,14.1159
508.408,87.1348,12.5401,0,9.8124,0.328118,0.416733,-1.98171,-5.54878,-5.45732,-37.7407,-1.85375,9.69983,0.121951,-129.634,14.5122
508.418,87.0842,12.6565,0,9.77168,0.428708,0.299377,-2.71341,-5.27439,-5.88415,-37.4342,-1.67172,9.93933,4.08537,-123.476,12.6524
508.428,87.0242,12.8552,0,9.69025,0.493374,0.270637,-3.53659,-3.90244,-6.12805,-37.233,-1.28852,11.4338,4.81707,-121.555,12.4085
508.438,86.9551,13.0806,0,9.66869,0.58678,0.332908,-4.2378,-3.53659,-6.03659,-37.8174,-1.19272,12.2386,3.23171,-124.055,7.77439
508.448,86.8855,13.2938,0,9.72857,0.61552,0.440684,-4.84756,-4.42073,-5.91463,-37.9706,-1.23104,12.2194,3.44512,-126.707,2.95732
508.458,86.8267,13.5157,0,9.81958,0.6251,0.550855,-5.51829,-4.93902,-4.90854,-38.373,-0.972378,12.6505,2.80488,-131.738,-1.82927
508.468,86.7799,13.7364,0,9.90341,0.60115,0.579595,-5.73171,-5.06098,-4.14634,-38.3443,-0.962798,12.7559,4.57317,-138.841,-4.54268
508.478,86.7493,13.9638,0,9.8555,0.526904,0.550855,-6.12805,-6.70732,-3.47561,-37.5587,-1.16398,12.7655,5.4878,-142.744,-5.06098
508.488,86.7353,14.2046,0,9.88904,0.462239,0.421523,-6.40244,-6.7378,-2.7439,-37.2617,-1.40348,13.072,7.62195,-143.994,-4.05488
508.498,86.7309,14.462,0,9.82916,0.366438,0.366438,-6.70732,-7.34756,-2.9878,-36.3612,-1.74836,13.2253,8.75,-144.878,0.0914634
508.508,86.7185,14.7461,0,9.75731,0.378413,0.407153,-7.40854,-7.83537,-3.53659,-35.7481,-2.18905,13.666,8.81098,-144.878,5.82317
508.518,86.7063,15.025,0,9.68306,0.328118,0.397573,-8.10976,-7.56098,-4.08537,-35.2116,-1.7771,13.551,8.29268,-149.146,11.5549
508.528,86.6899,15.2929,0,9.7142,0.323328,0.337698,-8.17073,-7.22561,-4.57317,-35.0487,-3.39614,13.4935,12.1037,-148.262,15.2439
508.538,86.6688,15.589,0,9.7118,0.385598,0.182021,-8.07927,-6.52439,-4.32927,-34.5314,-2.68721,13.9821,12.0427,-147.073,19.1159
508.548,86.6405,15.8675,0,9.74054,0.383203,0.162861,-8.23171,-7.2561,-5.12195,-34.2152,-2.40939,13.7522,12.3171,-146.128,21.7378
508.558,86.6134,16.1726,0,9.81719,0.359253,-0.0119751,-8.96341,-7.46951,-5.36585,-34.1673,-2.19863,14.4036,11.5244,-144.421,22.9268
508.568,86.5851,16.488,0,9.72617,0.368833,-0.0383203,-9.90854,-8.04878,-5.39634,-34.6655,-1.6334,15.0168,10.1829,-144.634,23.3232
508.578,86.5543,16.8365,0,9.74533,0.366438,-0.0934058,-10.1524,-8.14024,-5.73171,-34.6464,-1.26936,15.8407,10.5488,-144.909,21.5549
508.588,86.5231,17.1996,0,9.91059,0.368833,-0.249082,-9.87805,-7.07317,-5.88415,-34.5793,-1.03944,16.3292,8.44512,-146.982,20.4878
508.598,86.4878,17.5526,0,9.86269,0.407153,-0.249082,-9.54268,-6.03659,-5.88415,-34.7709,-0.866997,16.5113,8.68902,-144.238,18.3537
508.608,86.4405,17.8764,0,9.81479,0.464634,-0.277822,-9.63415,-5.73171,-6.46341,-34.905,-0.828677,16.3005,6.03659,-140.457,17.9878
508.618,86.3928,18.2276,0,9.88185,0.469424,-0.299377,-9.29878,-5.21341,-6.58537,-34.5697,-0.608335,16.9136,2.77439,-136.463,16.311
508.628,86.3414,18.5978,0,9.93933,0.510139,-0.301772,-8.62805,-3.71951,-6.61585,-34.7422,-0.866997,17.6226,0.121951,-137.378,14.6037
508.638,86.2894,18.9675,0,10.0567,0.519719,-0.352068,-7.92683,-2.34756,-6.7378,-34.8859,-1.03944,17.9579,-2.13415,-140.457,12.8659
508.648,86.2327,19.3422,0,10.004,0.541274,-0.428708,-7.07317,-2.22561,-7.04268,-34.8475,-1.12566,18.3219,-2.65244,-140.976,12.5915
508.658,86.1638,19.6978,0,10.0998,0.656235,-0.469424,-6.52439,-0.609756,-7.13415,-34.9338,-0.809517,18.2836,-3.10976,-140.518,12.5
508.668,86.0965,20.0707,0,10.2507,0.65863,-0.570015,-6.76829,1.52439,-7.19512,-34.5601,-0.780776,18.7147,-4.32927,-136.585,10.6098
508.678,86.0442,20.438,0,10.0471,0.490979,-0.510139,-7.19512,1.89024,-7.59146,-34.5985,-0.819097,18.9254,-5.4878,-134.97,11.1585
508.688,85.9937,20.8203,0,9.86748,0.486189,-0.366438,-6.52439,1.40244,-7.46951,-34.4356,-0.579595,19.4236,-7.16463,-134.787,10.4573
508.698,85.9331,21.2237,0,9.85311,0.548459,-0.356858,-6.15854,2.19512,-7.86585,-34.0715,-0.397573,19.9314,-8.07927,-137.195,10.061
508.708,85.8733,21.6257,0,9.94412,0.584385,-0.361648,-5.45732,3.47561,-7.53049,-33.832,-0.474214,20.0655,-8.29268,-142.5,9.32927
508.718,85.8102,22.0072,0,9.88664,0.701741,-0.390388,-4.81707,3.81098,-6.58537,-33.5063,-0.205972,19.7685,-9.69512,-144.97,7.22561
508.728,85.7457,22.4036,0,9.88185,0.787961,-0.402363,-4.5122,3.71951,-5.82317,-33.0656,0.0431104,20.0942,-10.7012,-147.561,5.64024
508.738,85.6931,22.8068,0,9.80521,0.711321,-0.261057,-4.32927,3.71951,-5.57927,-32.7208,0.0718506,20.3241,-13.1707,-149.207,3.90244
508.748,85.6505,23.2039,0,9.92736,0.65863,-0.196392,-3.71951,3.56707,-5.39634,-32.2418,0.330513,20.2188,-16.4024,-150.549,1.58537
508.758,85.5966,23.5736,0,9.8555,0.732876,-0.0718506,-3.93293,3.9939,-5.70122,-32.0214,0.167651,19.8451,-19.2988,-151.402,0.152439
508.768,85.5459,23.9737,0,9.77886,0.740061,0.0598755,-3.96341,3.59756,-5.33537,-31.8011,0.263452,20.5924,-23.4451,-152.348,0.97561
508.778,85.4926,24.3815,0,9.83635,0.802332,0.00958008,-2.37805,5.30488,-5,-31.7723,0.244292,21.0331,-28.7195,-154.787,1.89024
508.788,85.4422,24.7157,0,9.72138,0.826282,-0.0359253,-1.64634,6.37195,-4.42073,-31.6669,-0.0431104,19.826,-30.9451,-155.945,2.28659
508.798,85.4095,25.0495,0,9.78844,0.747246,-0.0790356,-0.97561,6.76829,-3.75,-31.8585,-0.253872,20.2092,-31.189,-152.591,2.68293
508.808,85.3764,25.421,0,9.64235,0.775986,0.131726,-0.884146,5,-3.35366,-31.7723,-0.340093,21.1672,-33.2927,-153.537,3.17073
508.818,85.3477,25.7972,0,9.7621,0.754431,0.182021,-1.09756,4.08537,-3.38415,-31.9927,-0.320933,21.6941,-33.4451,-157.47,4.78659
508.828,85.3331,26.1857,0,9.80281,0.65384,0.198787,-0.457317,3.96341,-3.32317,-32.0789,-0.445474,22.3168,-32.8963,-158.293,5.2439
508.838,85.3227,26.5348,0,9.75012,0.589175,0.253872,0.152439,3.5061,-3.65854,-32.0406,-0.550855,21.7995,-32.1951,-155.671,4.66463
508.848,85.3027,26.8965,0,9.74533,0.684976,0.265847,0.0914634,2.13415,-3.47561,-31.6765,-0.742456,22.1156,-31.3415,-150.793,6.58537
508.858,85.2992,27.2476,0,9.82437,0.56762,0.285007,0.335366,2.59146,-3.38415,-31.3412,-0.713716,21.9815,-28.811,-145.457,7.31707
508.868,85.2898,27.6245,0,9.76449,0.598755,0.313748,0.457317,1.67683,-3.53659,-30.9868,-1.16398,22.5659,-25.4268,-141.372,6.76829
508.878,85.2821,27.9858,0,9.79084,0.5772,0.320933,0.457317,0.335366,-3.65854,-30.5748,-1.38432,22.2689,-23.0488,-137.53,6.55488
508.888,85.2717,28.3528,0,9.83395,0.646655,0.220342,0.670732,-0.670732,-3.17073,-30.2299,-1.45138,22.4605,-18.8415,-129.695,6.03659
508.898,85.2617,28.7039,0,9.85072,0.665815,0.107776,1.43293,-1.43293,-2.95732,-29.9425,-1.93997,22.2402,-15.9451,-124.604,5.97561
508.908,85.2371,29.041,0,9.86509,0.773591,0.00479004,1.18902,-1.15854,-3.07927,-29.8659,-2.09325,22.2018,-12.0122,-118.78,6.55488
508.918,85.2183,29.3833,0,9.82677,0.742456,0.117356,0.731707,-1.58537,-2.92683,-29.8946,-2.02619,22.6234,-9.72561,-114.787,6.67683
508.928,85.1907,29.7377,0,9.68306,0.728086,0.201182,0,-3.35366,-3.84146,-29.9138,-2.16989,23.179,-7.10366,-113.506,8.56707
508.938,85.1393,30.1074,0,9.54176,0.859812,0.359253,-1.12805,-4.96951,-4.54268,-29.157,-1.825,23.2173,-5.30488,-109.939,10.5793
508.948,85.0976,30.4934,0,9.58726,0.833467,0.277822,-0.853659,-4.05488,-4.02439,-29.3007,-1.83458,24.0029,-3.87195,-107.256,11.7988
508.958,85.055,30.8698,0,9.79803,0.893342,0.0910107,-0.243902,-2.59146,-3.68902,-28.9941,-1.88249,23.8975,-2.37805,-101.402,12.622
508.968,85.0076,31.2325,0,9.86269,0.998723,0.0407153,-0.487805,-2.16463,-2.9878,-28.9366,-1.71962,23.8975,-1.28049,-96.3719,12.2866
508.978,84.9648,31.6075,0,9.95131,1.00351,-0.0359253,-1.28049,-1.06707,-2.62195,-28.6013,-1.74836,24.2136,1.03659,-91.1281,11.1585
508.988,84.9249,31.9718,0,9.92257,0.986748,0.0407153,-2.34756,-0.97561,-2.59146,-28.5343,-1.75794,24.2711,2.68293,-85.4268,10.9451
508.998,84.8777,32.3331,0,9.79084,1.03465,0.119751,-3.38415,-0.97561,-2.59146,-28.1415,-1.50886,24.2041,4.69512,-80.5488,8.96341
509.009,84.8379,32.6858,0,9.62079,0.972378,0.148491,-3.65854,-1.34146,-2.5,-27.9211,-1.43222,24.1562,5.4878,-75.5793,8.71951
509.019,84.819,33.0456,0,9.64235,0.835862,0.0886157,-4.69512,-0.945122,-2.43902,-28.0936,-1.76752,24.7885,4.69512,-70.3963,6.70732
509.029,84.7895,33.3883,0,9.64953,0.931663,0.0550855,-5.09146,-0.853659,-2.16463,-28.3235,-1.64298,24.9417,5.33537,-67.0732,3.9939
509.038,84.763,33.7353,0,9.79323,0.929268,-0.102986,-5.70122,1.15854,-2.19512,-28.0648,-1.84417,25.1238,4.39024,-63.9634,1.55488
509.048,84.7467,34.0355,0,9.89143,0.874182,-0.0742456,-5.88415,0.304878,-2.13415,-28.6971,-1.51844,24.9609,6.03659,-60.1524,-0.762195
509.058,84.7305,34.3293,0,9.88185,0.893342,-0.0287402,-5.91463,-0.487805,-1.89024,-28.7929,-1.4418,25.1908,6.67683,-55.3659,-0.609756
509.068,84.7183,34.6072,0,9.88664,0.871787,-0.0790356,-6.0061,-1.52439,-1.85976,-28.8887,-1.32684,25.1812,6.12805,-54.2683,-1.95122
509.078,84.7111,34.8691,0,9.81958,0.816702,-0.0502954,-6.79878,-0.579268,-2.07317,-29.1857,-1.18314,25.3345,7.43902,-52.9573,-1.15854
509.088,84.7154,35.1255,0,9.89143,0.713716,-0.0550855,-7.0122,0.579268,-2.34756,-29.3869,-1.04902,25.6123,6.64634,-54.3902,-1.21951
509.098,84.7076,35.3769,0,9.73336,0.756826,-0.0598755,-7.16463,0.213415,-2.7439,-29.0612,-0.761616,25.4495,7.89634,-53.4146,-0.914634
509.108,84.7034,35.621,0,9.8603,0.747246,-0.0981958,-7.19512,1.58537,-2.65244,-28.8408,-0.637075,25.3249,6.98171,-51.2805,-1.92073
509.118,84.702,35.8681,0,9.92496,0.749641,-0.215552,-6.58537,2.16463,-2.43902,-28.5055,-0.665815,25.3249,8.56707,-49.1159,-2.86585
509.128,84.707,36.1241,0,9.85072,0.740061,-0.215552,-5.91463,2.62195,-2.04268,-28.2852,-0.445474,25.5549,7.43902,-47.8963,-3.81098
509.138,84.7207,36.3728,0,9.8555,0.699346,-0.177231,-6.15854,1.18902,-1.85976,-28.199,-0.435894,25.5453,6.09756,-46.4634,-4.48171
509.148,84.743,36.6098,0,9.90341,0.651445,-0.0502954,-5.73171,1.89024,-1.76829,-28.3714,-0.378413,25.6698,5.15244,-44.4817,-3.5061
509.158,84.7633,36.8384,0,9.7142,0.59636,0.0742456,-5.85366,0.518293,-2.28659,-28.2564,-0.186812,25.6028,4.20732,-40.8841,-2.83537
509.168,84.7863,37.0412,0,9.80521,0.608335,0.100591,-5.51829,1.25,-2.0122,-28.5534,-0.426313,25.4974,1.61585,-39.5732,-2.10366
509.178,84.8067,37.2125,0,9.77407,0.59157,0.0838257,-4.17683,2.04268,-2.2561,-28.6492,-0.349673,25.0663,3.78049,-37.1646,-0.640244
509.188,84.8227,37.3745,0,9.8076,0.62031,0.0119751,-3.20122,1.89024,-2.2561,-29.1953,-0.158071,25.4878,2.5,-36.4939,-0.701219
509.198,84.8322,37.5666,0,9.76689,0.675395,0.0215552,-3.2622,1.18902,-2.13415,-29.2528,0.100591,26.3787,3.01829,-36.9817,-0.213415
509.208,84.8533,37.7236,0,9.8579,0.60594,-0.0335303,-2.59146,1.82927,-2.04268,-29.5977,0.0526904,26.0434,0.762195,-37.561,0.365854
509.218,84.8733,37.876,0,9.8579,0.632285,0.00479004,-1.70732,1.52439,-1.85976,-29.7126,0.148491,26.1871,-0.457317,-36.7073,-0.182927
509.228,84.891,38.0498,0,9.94652,0.63468,-0.0383203,-1.25,0.97561,-1.95122,-29.3007,0.0239502,26.465,-3.5061,-35.3963,0.0914634
509.238,84.9061,38.2446,0,9.94891,0.603545,0.0143701,-1.43293,0.823171,-2.34756,-28.8121,0.0335303,26.6853,-5.79268,-33.2012,1.21951
509.248,84.9033,38.4307,0,9.74773,0.728086,0.138911,-1.58537,1.25,-2.31707,-28.6588,-0.0239502,26.5224,-7.43902,-32.4695,2.0122
509.258,84.9082,38.6086,0,9.68785,0.646655,0.110171,-1.55488,1.4939,-2.56098,-28.4385,0.00479004,26.3117,-10.0305,-30.0915,1.70732
509.268,84.9176,38.7729,0,9.70701,0.627495,0.0862207,-0.609756,1.46341,-2.43902,-28.199,-0.215552,25.9476,-11.6159,-27.8354,1.52439
509.278,84.9213,38.9403,0,9.80281,0.675395,-0.0502954,-0.27439,1.43293,-2.37805,-27.9882,-0.0143701,25.986,-12.622,-25.3659,1.70732
509.288,84.9153,39.1111,0,9.76928,0.732876,-0.0239502,-0.548781,0.335366,-2.5,-28.1319,-0.234712,26.3596,-14.2988,-23.5671,2.13415
509.298,84.913,39.2659,0,9.84114,0.730481,0.00479004,-0.304878,0.396341,-2.28659,-28.0744,-0.407153,26.1009,-13.5976,-21.311,0.945122
509.308,84.9031,39.3893,0,9.86509,0.768801,-0.00718506,0.396341,0.731707,-2.5,-28.1606,-0.522114,25.6028,-14.1463,-21.128,1.58537
509.318,84.8883,39.5357,0,9.82437,0.831072,0.00718506,0.27439,0.853659,-2.16463,-27.902,-0.550855,26.0051,-13.2927,-20.8232,1.12805
509.328,84.8712,39.6646,0,9.77886,0.862207,0.0502954,0.304878,1.09756,-1.95122,-28.0936,-0.637075,25.9189,-13.7805,-19.6646,0.0914634
509.338,84.8618,39.8072,0,9.79563,0.831072,0.110171,0.213415,1.28049,-1.7378,-28.0457,-0.531694,26.3021,-15.3963,-20.3963,0.762195
509.348,84.8521,39.9574,0,9.74054,0.821492,0.0694556,0.152439,1.4939,-1.85976,-28.0648,-0.474214,26.6374,-16.0061,-19.5732,0.762195
509.358,84.8465,40.0861,0,9.78605,0.809517,0.0814307,0.304878,1.12805,-1.7378,-28.0457,-0.684976,26.2638,-14.939,-17.378,0.792683
509.368,84.8432,40.2258,0,9.81,0.802332,0.0814307,0.243902,0.853659,-1.67683,-27.8732,-0.675395,26.4841,-15.3354,-15.5488,0.731707
509.378,84.833,40.3427,0,9.78844,0.831072,0.105381,-0.0304878,0.182927,-1.85976,-27.9978,-0.723296,26.2063,-17.1646,-14.5122,0.762195
509.388,84.8218,40.4634,0,9.80281,0.843047,0.0814307,0,0.182927,-1.82927,-27.9882,-0.866997,26.3979,-18.2927,-12.8963,0.457317
509.398,84.8115,40.5749,0,9.80281,0.847837,0.105381,0.304878,0.518293,-1.70732,-28.0361,-0.943638,26.3404,-17.2866,-13.4756,0.457317
509.409,84.8032,40.6812,0,9.7621,0.850232,0.0742456,0.243902,0.701219,-1.4939,-27.8541,-0.819097,26.1584,-16.4939,-11.4024,1.7378
509.418,84.7957,40.7875,0,9.76928,0.831072,0.126936,-0.182927,0.0914634,-1.70732,-27.9307,-0.656235,26.3404,-15.7622,-9.14634,4.02439
509.428,84.7945,40.881,0,9.74054,0.816702,0.210762,-0.243902,-0.609756,-1.40244,-28.0744,-0.732876,26.2829,-14.7561,-6.95122,3.71951
509.438,84.7948,40.9594,0,9.75731,0.819097,0.222737,-0.0914634,-1.09756,-1.28049,-28.084,-0.646655,26.0434,-13.5671,-4.35976,4.5122
509.448,84.807,41.0199,0,9.77647,0.742456,0.172441,0.27439,-0.884146,-1.40244,-28.448,-0.886157,26.0339,-13.9024,-4.63415,4.60366
509.458,84.8117,41.1142,0,9.75252,0.792751,0.201182,-0.0914634,-0.945122,-1.28049,-27.6529,-0.407153,26.1488,-13.9939,-0.396341,4.63415
509.468,84.8176,41.1844,0,9.74533,0.787961,0.110171,-0.152439,-1.31098,-1.25,-28.0457,-0.694556,26.0434,-14.9085,-1.40244,4.57317
509.479,84.8308,41.2472,0,9.81,0.749641,0.0335303,-0.0609756,-1.18902,-1.25,-28.2852,-0.397573,26.1584,-15.3049,-1.82927,4.08537
509.488,84.8509,41.3112,0,9.80281,0.766406,0.0598755,0.182927,-0.884146,-0.731707,-28.2085,-0.426313,26.1776,-16.0671,-0.518293,4.02439
509.498,84.8743,41.3735,0,9.84353,0.752036,0.0287402,0.457317,-0.396341,-0.701219,-28.381,-0.502954,26.3596,-15.8537,0.213415,3.01829
509.508,84.8964,41.4218,0,9.88664,0.764011,0.0215552,0.548781,-1.15854,-0.609756,-28.3522,-0.627495,26.0722,-17.6829,1.98171,2.5
509.518,84.9292,41.4853,0,9.86509,0.713716,0.0862207,0.518293,-1.12805,-0.609756,-28.4001,-0.694556,26.5129,-17.4085,1.21951,3.41463
509.528,84.9499,41.5396,0,9.79803,0.720901,0.0574805,0.579268,-1.76829,-0.97561,-28.5343,-1.0107,26.4841,-17.0732,1.89024,3.29268
509.538,84.9737,41.599,0,9.82197,0.708926,-0.0215552,1.06707,-1.15854,-0.914634,-28.3235,-0.866997,26.465,-17.8049,3.5061,4.66463
509.548,85.0056,41.6589,0,9.89143,0.63947,-0.0646655,1.52439,-0.426829,-1.09756,-28.1894,-0.742456,26.4171,-18.5976,6.03659,4.42073
509.558,85.0332,41.7127,0,9.97286,0.656235,-0.0886157,1.95122,-0.182927,-1.09756,-28.3331,-0.771196,26.4745,-19.4512,7.71341,3.9939
509.568,85.0511,41.7523,0,9.95849,0.684976,-0.0814307,2.13415,-0.579268,-1.28049,-28.5247,-0.637075,26.3692,-18.1402,8.23171,3.29268
509.578,85.0707,41.7904,0,9.94412,0.675395,-0.0670605,2.10366,-0.762195,-1.25,-28.448,-0.665815,26.3117,-18.1098,10.1829,2.53049
509.588,85.0912,41.8384,0,9.96568,0.65863,-0.105381,2.37805,-0.518293,-1.31098,-28.3522,-0.732876,26.4937,-18.1707,11.25,2.43902
509.598,85.1063,41.8839,0,9.9561,0.720901,-0.136516,2.53049,0.396341,-1.0061,-28.1798,-0.550855,26.3213,-19.1768,12.1646,0.945122
509.608,85.1178,41.9294,0,9.97526,0.735271,-0.0981958,3.23171,1.52439,-1.03659,-28.0648,-0.675395,26.2638,-20.6098,14.0244,0.579268
509.618,85.1231,41.9906,0,9.95849,0.766406,-0.0694556,3.04878,2.10366,-1.03659,-27.8732,-0.684976,26.5033,-20.6707,16.6159,-0.0304878
509.628,85.1225,42.0381,0,9.93454,0.804727,-0.0263452,3.10976,1.95122,-0.914634,-27.9499,-0.742456,26.3213,-23.8415,18.0183,0.823171
509.638,85.1134,42.0896,0,9.84353,0.845442,-0.0526904,2.80488,1.85976,-0.823171,-27.7966,-0.809517,26.3117,-25.6707,18.5061,0.884146
509.648,85.1098,42.135,0,9.80281,0.821492,-0.0598755,2.53049,2.13415,-0.762195,-27.7966,-0.637075,26.2255,-23.75,19.7561,0.945122
509.658,85.1115,42.1945,0,9.75491,0.795146,-0.0431104,2.71341,2.59146,-0.762195,-27.5571,-0.637075,26.3692,-25.1524,20.2744,0.853659
509.668,85.1015,42.2451,0,9.83156,0.857417,0.0119751,3.32317,3.44512,-0.640244,-27.7679,-0.838257,26.4171,-23.872,20.1829,1.06707
509.678,85.1008,42.301,0,9.86509,0.833467,0.0694556,3.93293,3.87195,-0.396341,-27.8541,-0.790356,26.6757,-24.5427,20.8841,-0.365854
509.688,85.1006,42.3451,0,9.89862,0.840652,0.0790356,3.68902,3.35366,-0.243902,-27.7679,-0.675395,26.3692,-23.872,21.7073,-0.731707
509.698,85.0962,42.3902,0,9.88425,0.862207,0.155676,3.62805,2.92683,0.0304878,-27.5475,-0.732876,26.2255,-25.9756,21.7988,0.487805
509.708,85.0815,42.4321,0,9.83635,0.912502,0.165256,3.20122,3.81098,0.365854,-27.5379,-0.723296,26.1871,-26.5549,22.1341,0.731707
509.718,85.0738,42.469,0,9.76928,0.902922,0.182021,3.62805,4.48171,0.701219,-27.3751,-0.656235,25.9476,-28.5671,20.7927,1.40244
509.728,85.0787,42.5149,0,9.73815,0.876577,0.189207,3.38415,4.96951,1.21951,-27.4134,-0.483794,26.2159,-28.0183,19.0244,4.29878
509.738,85.0927,42.5468,0,9.75012,0.859812,0.205972,3.81098,4.39024,1.76829,-27.6912,-0.407153,26.1871,-27.3171,16.189,4.7561
509.748,85.0984,42.585,0,9.82197,0.955613,0.232317,3.14024,3.56707,2.19512,-27.902,-0.282612,26.5608,-31.372,15.8232,4.14634
509.758,85.1089,42.6067,0,9.93454,0.969983,0.210762,2.19512,3.5061,2.62195,-28.4001,-0.110171,26.6757,-33.1707,14.4512,3.9939
509.768,85.1289,42.5959,0,9.97047,0.969983,0.225132,2.7439,4.08537,3.47561,-28.3235,-0.00479004,25.871,-32.7134,15.1829,2.46951
509.778,85.1463,42.5648,0,9.83156,1.00351,0.273032,2.86585,3.59756,3.81098,-28.1798,-0.00479004,25.277,-31.0061,16.7988,3.01829
509.788,85.1684,42.5246,0,9.75731,1.00112,0.337698,2.65244,3.62805,4.35976,-28.4959,-0.474214,25.3345,-27.4085,17.9268,4.26829
509.798,85.2007,42.4561,0,9.59924,0.919688,0.481399,2.04268,3.44512,4.63415,-29.0037,-0.742456,25.1046,-24.9085,16.9207,3.87195
509.808,85.2323,42.4096,0,9.53457,0.898132,0.56283,1.79878,2.83537,4.45122,-29.2336,-1.23104,25.7273,-24.5427,13.8415,2.80488
509.818,85.2777,42.3685,0,9.4747,0.787961,0.56283,1.89024,1.28049,4.60366,-29.0324,-1.55676,25.6123,-26.5549,9.17683,2.68293
509.828,85.3288,42.3009,0,9.48907,0.716111,0.622705,1.61585,-0.0914634,4.35976,-29.157,-1.59508,25.0854,-26.4939,9.08537,4.35976
509.838,85.3758,42.2012,0,9.51062,0.752036,0.682581,2.13415,-2.65244,4.48171,-28.7929,-1.54718,24.022,-25.5488,11.4634,9.84756
509.848,85.4174,42.0737,0,9.58966,0.814307,0.699346,2.92683,-4.96951,4.72561,-29.3007,-1.93039,23.7538,-25.2744,9.87805,13.3537
509.858,85.451,41.9103,0,9.59924,0.831072,0.687371,2.10366,-7.07317,4.20732,-30.0192,-2.04535,23.4377,-25.3049,6.82927,16.372
509.868,85.4764,41.7276,0,9.5226,0.809517,0.5772,0.518293,-8.84146,3.29268,-30.4215,-1.7771,23.1886,-23.7805,4.08537,17.7439
509.878,85.5027,41.477,0,9.38848,0.740061,0.65384,0.243902,-11.9512,2.65244,-31.5903,-1.94955,22.4509,-22.2866,0.457317,19.2683
509.888,85.5009,41.1878,0,9.09628,0.780776,0.859812,-0.213415,-16.372,1.43293,-32.3759,-1.92081,21.9623,-20.8537,-4.69512,19.2988
509.898,85.577,40.8823,0,8.91905,0.56283,0.917292,-0.762195,-17.7134,0.396341,-33.1327,-2.04535,21.8569,-18.1098,-12.439,20.0305
509.908,85.7417,40.5416,0,8.943,0.407153,0.773591,-0.609756,-18.0488,0.27439,-33.7267,-2.36149,21.2247,-14.8476,-19.3902,20.122
509.918,85.8291,40.1959,0,9.21364,0.421523,0.728086,-1.28049,-21.128,0.914634,-33.5925,-2.57225,20.7265,-12.9878,-27.9573,20.3963
509.928,85.9097,39.8343,0,9.59205,0.332908,0.66821,-0.426829,-26.8902,1.58537,-33.7267,-2.94587,20.1709,-8.84146,-36.7988,19.1159
509.938,85.9702,39.4976,0,9.77168,0.433499,0.524509,0.0304878,-31.5854,1.34146,-33.4297,-2.70637,20.1709,-7.53049,-45.2744,20
509.948,86.0084,39.1839,0,9.86988,0.548459,0.189207,-3.23171,-29.939,1.31098,-33.6883,-2.16031,20.4966,-7.10366,-52.6829,20.2134
509.959,86.0925,38.8905,0,9.90101,0.306563,-0.0958008,-7.68293,-21.4939,0.97561,-34.6847,-1.7771,21.2534,-10.3049,-55.7317,19.1768
509.968,86.1939,38.5664,0,10.0639,0.114961,-0.689766,-11.0061,-11.8902,1.52439,-35.6235,-1.1544,20.9181,-16.372,-57.561,18.2012
509.978,86.317,38.2696,0,10.3609,-0.0910107,-1.18793,-13.75,-6.61585,1.37195,-36.2462,-1.2502,21.5791,-20.7927,-61.25,17.0732
509.988,86.4722,37.9757,0,10.5572,-0.193997,-1.14721,-15.2134,-7.71341,0.396341,-36.5911,-1.43222,21.5504,-24.0854,-71.0366,18.7805
509.998,86.5513,37.7234,0,10.6243,-0.217947,-1.02986,-15.7012,-8.35366,-2.31707,-36.7731,-1.65256,22.2593,-28.9024,-84.6341,22.3476
510.008,86.5911,37.5009,0,10.4375,-0.146096,-1.1065,-14.7256,-4.60366,-4.69512,-36.9552,-1.825,22.7287,-33.7195,-103.293,27.1037
510.018,86.6182,37.3367,0,10.0471,-0.203577,-1.0562,-13.6585,2.0122,-6.58537,-37.1659,-1.6334,23.8879,-31.8902,-126.098,31.2195
510.028,86.6385,37.192,0,9.83635,-0.237107,-0.742456,-12.1037,5.67073,-7.65244,-37.0605,-1.69088,24.0316,-26.2805,-145.793,33.9329
510.038,86.6454,37.1148,0,9.81479,-0.261057,-0.608335,-10.5793,5.97561,-9.26829,-36.5336,-1.40348,25.0567,-16.5854,-161.22,35
510.048,86.6507,37.0162,0,10.0256,-0.397573,-0.835862,-7.80488,5.03049,-10.9451,-35.863,-1.06818,23.9933,-10.7927,-169.787,35.6098
510.058,86.6348,36.8818,0,10.1621,-0.335303,-1.06578,-4.26829,3.81098,-12.3171,-35.3649,-0.962798,22.7671,-7.13415,-171.707,33.872
510.068,86.6001,36.8199,0,10.4782,-0.273032,-1.27655,-1.4939,4.02439,-13.4451,-34.4356,-0.589175,23.6197,-3.65854,-176.311,31.8902
510.078,86.5615,36.7757,0,10.4423,-0.332908,-1.32684,1.28049,5.57927,-14.6037,-33.468,-0.934058,23.2844,-1.40244,-177.165,28.689
510.088,86.5189,36.8068,0,10.4782,-0.443079,-1.38672,1.52439,7.46951,-16.311,-32.9986,-1.00112,24.5777,1.76829,-178.232,26.7073
510.098,86.4403,36.9646,0,10.9117,-0.349673,-1.57113,-2.2561,11.1585,-18.872,-32.1172,-1.08734,26.8098,3.10976,-189.482,26.9512
510.108,86.2879,37.2172,0,11.6781,-0.0598755,-2.51956,-9.20732,19.4512,-23.4146,-30.7952,-1.30768,28.0744,8.32317,-199.787,27.4085
510.118,86.0899,37.56,0,12.9379,-0.0502954,-2.81654,-23.811,23.3537,-28.2317,-29.1665,-1.00112,29.042,12.7439,-201.22,30.4573
510.128,85.8387,37.9806,0,13.642,0.143701,-2.60818,-34.7561,26.6463,-32.378,-28.2181,-0.464634,30.479,14.6341,-197.226,35.4878
510.138,85.5475,38.3865,0,13.6181,0.189207,-1.42504,-44.6037,35.8232,-36.5854,-28.5247,-0.550855,30.9005,12.6524,-190.152,38.4146
510.148,85.2663,38.7646,0,12.3583,-0.301772,0.0886157,-40.6402,63.0488,-40.6402,-29.0516,-0.387993,31.2071,10.7622,-179.024,38.4451
510.158,85.0291,39.1014,0,9.30944,-0.598755,1.60466,-33.2622,80.8537,-41.372,-29.7797,-1.04902,31.3604,15.2439,-159.512,35.0305
510.168,84.8494,39.4433,0,6.5384,-0.756826,3.27399,-27.8049,67.8659,-41.9512,-30.1916,-0.704136,32.4429,16.6159,-136.738,28.9939
510.178,84.7371,39.7997,0,6.3971,-0.969983,3.13029,-23.75,27.3476,-39.5732,-30.8047,-0.972378,33.9757,8.44512,-129.177,23.0183
510.188,84.6327,40.1757,0,9.45314,-1.30529,0.66342,-10.4878,-8.17073,-37.439,-29.8563,-0.349673,33.9183,-1.79878,-131.524,17.8354
510.198,84.3947,40.5888,0,11.4841,-0.129331,-0.59636,-4.48171,-22.9268,-36.5549,-29.3294,0.138911,34.8954,4.17683,-132.165,17.8354
510.208,84.104,41.038,0,12.2912,0.112566,-1.42025,-5.79268,-1.89024,-40.0305,-28.678,0.704136,35.8343,9.81707,-121.463,20.4268
510.219,83.7965,41.5426,0,11.6685,-0.0886157,-0.383203,-4.39024,26.128,-44.2988,-27.4326,0.866997,36.8019,16.0671,-97.4085,26.7378
510.228,83.4916,42.061,0,10.8399,-0.232317,0.531694,1.34146,27.9268,-46.2805,-26.5224,0.340093,36.8306,18.9634,-79.1159,30.6707
510.239,83.1873,42.5725,0,9.55134,-0.431104,1.20469,6.98171,12.4085,-49.6037,-25.1333,0.0335303,35.4415,19.3902,-64.6341,33.1707
510.249,82.8883,43.0573,0,9.29507,-0.534089,0.756826,13.7195,-4.87805,-51.128,-24.1178,-0.359253,33.8608,23.0488,-55.7012,33.2012
510.259,82.5186,43.5845,0,9.93694,0.0191602,0.265847,17.2561,-9.42073,-52.0122,-22.6042,-0.234712,33.7075,26.2805,-43.689,32.561
510.268,82.0477,44.144,0,10.3824,0.864602,-0.131726,15.9146,-4.02439,-53.5976,-21.6845,0.0143701,34.0907,26.2805,-35.122,34.9695
510.279,81.5218,44.7473,0,9.6663,1.16398,0.232317,14.2378,4.02439,-55.8841,-20.2188,-0.158071,34.0141,24.7256,-21.7988,41.4939
510.288,80.9569,45.3349,0,9.65911,1.48252,0.807122,15.4878,4.20732,-57.1341,-19.1937,-0.397573,32.6633,24.2683,-4.90854,46.1585
510.298,80.3824,45.7944,0,10.7369,1.70525,-0.124541,19.2073,9.57317,-58.6585,-21.33,-0.876577,32.8166,19.5427,7.7439,42.378
510.308,79.7537,46.1078,0,10.2842,2.11001,0.0359253,21.9512,-0.365854,-60.122,-25.3537,0.953218,34.6464,20.3659,19.3598,40.122
510.318,79.063,46.3548,0,9.58008,2.53872,0.809517,24.6037,-8.96341,-61.0976,-26.1297,1.825,34.0236,28.7805,26.5549,37.5
510.328,78.3343,46.5894,0,9.8124,2.9339,0.682581,24.3902,-11.4024,-62.7134,-26.1201,2.61057,34.0045,31.7073,38.75,35.2744
510.338,77.5725,46.769,0,9.53457,3.17101,1.10171,22.9268,-12.3476,-63.9939,-26.7524,2.73511,33.4776,33.5366,49.5122,32.2256
510.348,76.8101,46.9037,0,9.74054,3.1758,0.893342,20.3049,-11.4024,-66.311,-27.5667,2.39981,33.3722,33.2622,54.9695,28.7195
510.358,75.9854,47.0532,0,9.85311,3.70989,0.780776,18.75,-8.84146,-68.9634,-27.9978,2.36149,34.5122,35.4573,54.6341,24.0549
510.368,75.132,47.2251,0,9.51302,3.89191,0.905317,16.8598,-6.25,-70.2744,-28.0361,2.29443,35.4319,39.5732,51.1585,20.7622
510.378,74.2639,47.3613,0,9.6184,4.14817,0.785566,15.8232,-8.56707,-71.311,-27.787,2.60099,34.2344,44.9085,54.4207,19.878
510.388,73.3816,47.4878,0,9.52978,4.22481,1.07297,14.8171,-13.689,-73.3537,-27.7774,2.98419,34.1386,42.9878,62.7439,17.1646
510.398,72.4762,47.5961,0,9.39806,4.39486,1.03944,12.3171,-20.1524,-75.1524,-28.3139,3.07042,34.3877,37.4085,62.7134,13.811
510.408,71.5577,47.6974,0,9.43398,4.50024,0.407153,12.2866,-17.1037,-77.439,-28.3906,3.13748,34.3877,30.7927,61.0366,10.8537
510.418,70.6226,47.7737,0,9.43877,4.8092,0.237107,10.4878,-12.8963,-77.9573,-28.3522,3.18538,33.6883,28.689,58.9024,8.62805
510.428,69.6805,47.8672,0,9.27112,5.0511,0.541274,9.96951,-13.2622,-77.3476,-28.0648,3.57816,33.9374,25.7012,55.9756,8.78049
510.438,68.7363,47.9618,0,9.1346,5.20438,0.862207,9.78659,-15.8232,-77.2561,-27.8158,3.6069,33.765,26.0061,52.9268,10.3354
510.448,67.841,48.0447,0,9.43877,5.07744,0.747246,8.04878,-20.5488,-77.0427,-27.5858,3.6069,33.2572,21.6768,54.5732,11.9512
510.458,66.9626,48.1261,0,9.45075,4.96248,0.208367,7.22561,-15,-78.3232,-27.6529,3.44404,33.4105,19.1768,57.6524,14.2988
510.468,66.0818,48.1792,0,9.11305,4.98883,0.170046,5.85366,-17.1341,-78.3232,-27.8445,3.10874,32.9219,14.1159,62.439,13.4146
510.478,65.2091,48.2115,0,9.04599,5.06307,0.498164,4.02439,-21.6463,-78.2012,-27.8732,3.15664,32.4429,10.7622,68.2622,10.5488
510.488,64.3169,48.229,0,8.71548,5.10618,0.62031,1.37195,-20.7622,-79.6646,-27.6529,3.10874,31.849,8.20122,76.9512,7.92683
510.498,63.4552,48.2536,0,8.87594,5.00799,-0.213157,-0.0609756,-18.9329,-80.2744,-27.4613,3.24286,31.8873,5.70122,83.9329,7.71341
510.508,62.6078,48.2477,0,9.00527,5.08942,-0.0359253,-2.37805,-18.1402,-80.4878,-27.2793,3.00335,30.8718,3.29268,87.1341,7.77439
510.518,61.782,48.2554,0,8.99569,5.01278,0.227527,-3.32317,-14.6951,-80.7317,-26.944,2.87881,30.8718,0.792683,89.3598,9.81707
510.528,60.9318,48.2298,0,8.52148,5.07265,-0.122146,-3.81098,-8.90244,-81.5549,-26.5512,3.10874,29.5593,-2.10366,92.8659,11.9512
510.538,60.0902,48.2321,0,8.37538,5.21635,-0.282612,-1.7378,-10.4573,-80.061,-26.2542,3.23328,29.9521,-4.93902,96.4939,14.3598
510.548,59.2548,48.2425,0,8.38496,5.56842,-0.479004,2.07317,-13.8415,-77.7439,-26.1392,3.24286,30.0575,-9.63415,99.7866,13.7805
510.558,58.4565,48.2555,0,8.61249,5.80553,-0.687371,3.65854,-11.6159,-74.8476,-26.1967,3.01293,30.2299,-11.7988,104.695,13.811
510.568,57.7161,48.2498,0,8.86397,5.90372,-0.63468,3.68902,-15.2439,-71.2195,-26.5703,2.79259,30.1916,-14.3598,108.872,10.5183
510.578,56.9656,48.186,0,8.31311,5.94204,-0.589175,3.04878,-16.2805,-69.9085,-27.0302,2.89797,29.2049,-20.3963,115.976,6.55488
510.588,56.1903,48.0734,0,7.63772,5.86061,-0.589175,2.56098,-14.6951,-70,-27.49,3.3195,28.4097,-25.3963,121.616,1.28049
510.598,55.435,47.9126,0,7.58503,5.75044,-0.570015,2.19512,-17.6829,-70.2134,-27.8541,3.30034,27.4996,-25.8537,125.183,-2.86585
510.608,54.7593,47.7175,0,8.13109,5.64746,-1.12566,7.16463,-21.5854,-68.5061,-28.1702,3.3195,26.8482,-28.9634,129.024,-6.79878
510.618,54.0638,47.5897,0,7.95625,6.11448,-0.850232,3.35366,-21.189,-66.2805,-28.1511,3.21412,28.266,-35.4573,126.189,-13.0183
510.628,53.367,47.4237,0,7.63532,6.21268,-0.565225,0.335366,-17.622,-64.5732,-27.5379,2.95545,26.6278,-42.6829,129.238,-18.3841
510.638,52.6759,47.2613,0,7.35032,6.19592,-0.742456,-2.7439,-11.5244,-63.3841,-26.5416,2.59141,25.6411,-44.4512,139.207,-23.3232
510.648,52.027,47.1162,0,7.23775,6.09772,-0.665815,-0.945122,-13.1098,-60.5183,-26.0818,2.35191,25.4686,-44.2073,145.671,-27.439
510.658,51.4072,46.9761,0,7.17548,6.2534,-0.876577,0.304878,-12.8963,-56.9207,-25.7081,1.61424,25.1046,-46.5854,149.756,-29.939
510.668,50.8187,46.8628,0,7.17787,6.37075,-0.969983,-0.365854,-12.1341,-53.9329,-25.5357,0.962798,25.4112,-50.0305,150.488,-32.2866
510.678,50.2425,46.7606,0,6.99346,6.54798,-0.831072,-1.67683,-13.7195,-50.7622,-25.21,0.512534,25.2579,-51.9207,156.372,-36.7683
510.688,49.7086,46.6156,0,6.96951,6.50248,-0.598755,-1.98171,-16.0366,-47.8354,-24.8364,0.694556,23.9071,-55.2744,163.171,-37.6829
510.698,49.2104,46.4312,0,6.93837,6.42344,-0.747246,-1.03659,-14.878,-45.7317,-25.2675,0.704136,23.3802,-55.6098,165.762,-39.6646
510.708,48.7371,46.2388,0,6.9264,6.39949,-0.435894,-0.518293,-19.1463,-44.3293,-24.8555,0.886157,22.6904,-53.9329,165.366,-38.689
510.718,48.2719,46.049,0,6.94316,6.40907,-1.03704,0.27439,-17.378,-44.5122,-24.731,0.847837,22.4701,-49.4512,164.116,-36.7683
510.728,47.8006,45.8712,0,7.13237,6.46655,-1.2981,-3.17073,-6.64634,-47.1341,-24.7118,0.646655,22.5563,-48.0488,167.957,-40.3354
510.738,47.3247,45.6809,0,6.76593,6.16718,-0.905317,-1.21951,-2.59146,-48.2622,-25.2291,0.378413,22.6521,-51.6463,172.287,-44.1768
510.748,46.7948,45.4714,0,6.21029,6.26537,-0.689766,-3.17073,-11.372,-48.811,-25.507,-0.129331,22.3743,-52.1951,175.091,-48.5061
510.758,46.2713,45.235,0,5.99952,5.85103,-1.15679,-3.53659,-15.7012,-51.2195,-25.5165,-0.119751,21.7037,-51.5549,178.232,-52.7744
510.768,45.769,44.9746,0,6.3013,5.98755,-1.14482,-3.14024,-19.2073,-51.6463,-25.6219,-0.301772,21.1672,-52.6829,181.951,-55.1524
510.778,45.2567,44.6842,0,6.29172,6.0594,-0.989143,-1.7378,-19.9695,-52.8963,-26.1488,-0.0814307,20.8415,-54.6646,184.909,-56.0061
510.788,44.7494,44.405,0,6.42105,6.09053,-0.895737,-2.62195,-21.0366,-54.3293,-26.8865,-0.129331,21.4354,-59.7561,188.201,-55.3659
510.798,44.252,44.074,0,6.81144,6.42344,-0.878972,-4.69512,-24.2378,-54.6951,-27.1452,-0.119751,20.4583,-61.6159,193.415,-54.6646
510.808,43.7593,43.7272,0,6.9743,6.44021,-0.843047,-5.21341,-26.5549,-56.4634,-27.2218,-0.282612,20.008,-61.9512,201.585,-55.7317
510.818,43.2687,43.3414,0,7.01022,6.32764,-0.807122,-3.68902,-25.0305,-58.5671,-27.6146,-0.464634,19.3374,-63.2622,205.671,-55.6098
510.828,42.7438,42.9633,0,7.08447,6.66055,-1.18553,-4.78659,-19.8476,-60.7012,-28.1032,-0.522114,19.5577,-63.4451,210.213,-53.872
510.838,42.2018,42.5609,0,7.0222,6.74198,-1.00112,-6.76829,-15.3659,-62.2866,-28.199,-0.704136,18.9159,-63.5366,212.988,-54.9695
510.848,41.6342,42.1526,0,6.7803,6.88808,-0.823887,-7.16463,-14.1463,-62.7134,-28.4385,-0.598755,18.7051,-65.1524,218.72,-54.5427
510.858,41.0333,41.7646,0,6.51206,7.17069,-0.802332,-3.71951,-14.5122,-62.561,-28.2469,-0.301772,18.6572,-65.4573,220.183,-53.1402
510.868,40.4114,41.3939,0,6.30369,7.36708,-1.04662,-1.18902,-14.4512,-62.4695,-28.3906,-0.771196,18.7817,-62.622,219.238,-50.061
510.878,39.7684,40.9917,0,6.13843,7.51557,-1.21427,-1.37195,-10.7317,-63.2317,-28.6684,-0.924478,18.1399,-56.4939,219.543,-46.8598
510.888,39.1177,40.5611,0,5.88696,7.52036,-1.08255,-1.95122,-11.0671,-62.8963,-29.1378,-1.88249,17.6705,-51.4634,225.335,-45.2439
510.898,38.482,40.1042,0,5.87498,7.53473,-0.969983,-1.89024,-10.6402,-62.4695,-29.2719,-2.17947,17.019,-48.9939,232.53,-44.2683
510.908,37.8557,39.6781,0,5.82948,7.5012,-1.09692,-3.53659,-10.4573,-62.622,-29.0516,-2.14115,17.1148,-48.2927,234.085,-45.6098
510.918,37.2451,39.2275,0,5.94444,7.49641,-1.20469,-4.66463,-5.54878,-63.4451,-29.6647,-2.21779,16.7508,-48.811,232.805,-45.122
510.928,36.6226,38.7705,0,5.82469,7.27367,-0.61073,-6.21951,-4.05488,-66.4634,-29.6647,-2.05493,16.3388,-45.3049,234.146,-44.3902
510.938,35.9837,38.3238,0,5.44148,7.00064,-0.474214,-1.61585,-7.19512,-67.7134,-29.5114,-2.01661,16.1281,-43.75,235.671,-44.7866
510.948,35.2968,37.8917,0,5.37921,7.81734,-0.816702,-1.06707,-9.2378,-67.1341,-29.9809,-2.04535,16.3388,-44.2683,238.079,-43.9939
510.958,34.6022,37.4302,0,5.3385,7.99937,-0.754431,-3.04878,-11.8293,-67.6524,-30.4024,-1.71004,15.7736,-41.372,238.841,-43.2317
510.968,33.9009,36.9352,0,5.55645,8.28437,-1.12087,-4.2378,-10.2134,-70.0305,-30.7664,-1.79626,15.0934,-37.8354,242.957,-42.2866
510.978,33.182,36.4451,0,4.93134,8.13349,-0.598755,-8.04878,-11.0061,-67.8963,-30.7473,-1.7292,14.8443,-33.9634,244.665,-41.5854
510.988,32.5518,35.9628,0,5.16606,8.05206,-0.514929,-6.0061,-8.9939,-63.2927,-30.9676,-2.09325,14.7485,-31.5549,242.439,-42.9573
510.998,31.9421,35.446,0,5.25467,8.33467,-0.617915,-7.46951,-7.0122,-61.5549,-30.9772,-2.34233,13.8767,-28.9024,246.341,-44.4207
511.008,31.3247,34.9529,0,4.79004,8.11193,-0.387993,-9.35976,-3.84146,-60.1829,-30.8814,-2.26569,13.8959,-27.7134,248.872,-48.0488
511.018,30.7062,34.4994,0,4.42121,8.13349,-0.440684,-7.59146,-4.84756,-57.4085,-30.9484,-2.19863,14.2504,-26.5854,247.073,-51.7683
511.028,30.101,34.0249,0,4.3302,8.32269,-0.447869,-7.68293,-11.4329,-55.1829,-30.9484,-2.35191,13.6085,-25.4573,246.585,-54.2378
511.038,29.4934,33.5524,0,4.14338,8.56938,-0.397573,-7.86585,-15.2744,-53.2317,-30.9484,-2.54351,13.3403,-20.3659,247.378,-56.0061
511.048,28.8777,33.0883,0,3.91346,8.58375,-0.270637,-7.7439,-19.3598,-52.6524,-30.9772,-2.85965,13.187,-16.6768,247.683,-55.1524
511.058,28.2733,32.5657,0,3.92065,8.63165,-0.414338,-8.17073,-21.9512,-52.5915,-30.958,-3.02251,11.9607,-12.561,249.543,-54.8171
511.068,27.6942,32.0473,0,4.00447,8.64842,-0.481399,-11.189,-26.5549,-52.1037,-31.6765,-3.26202,11.9799,-8.44512,250.64,-52.0122
511.078,27.1595,31.561,0,4.17691,8.46879,-0.696951,-14.6341,-29.8171,-51.6159,-32.3376,-3.25244,12.411,-6.0061,248.201,-49.4207
511.088,26.6811,31.0524,0,4.33978,8.16462,-0.459844,-14.1463,-32.378,-50.5183,-32.5962,-3.1279,11.817,-0.579268,244.787,-47.378
511.098,26.2358,30.5409,0,4.39726,8.28437,-0.55804,-11.9512,-35.3049,-48.0488,-32.7112,-2.99377,11.4817,1.82927,243.262,-42.2256
511.108,25.8426,30.0363,0,4.64155,8.37778,-0.888552,-11.0671,-35.4268,-45.7317,-33.2668,-2.30401,11.453,6.37195,242.043,-36.1585
511.118,25.4527,29.5203,0,4.48827,8.50232,-0.673001,-10.061,-31.25,-43.8415,-33.7937,-2.42855,11.1081,7.43902,240.762,-34.2073
511.128,25.0254,28.9982,0,3.8464,8.36101,-0.292192,-8.71951,-28.5976,-42.0732,-33.7362,-1.99745,10.6674,10.2439,244.451,-32.378
511.138,24.5929,28.4807,0,3.66677,8.66997,-0.361648,-8.75,-28.5366,-39.8476,-33.6788,-1.7771,10.3896,9.96951,245.518,-30.2134
511.148,24.1641,27.9757,0,3.64043,9.02204,-0.66342,-11.4329,-30.5183,-38.4146,-34.5218,-1.2981,10.5141,7.43902,244.39,-29.3902
511.158,23.7553,27.469,0,3.7506,9.03401,-1.01788,-13.3841,-30.6707,-38.4146,-34.905,-0.838257,10.2555,5.51829,241.128,-25.9146
511.168,23.3745,26.9669,0,3.99968,9.1346,-0.852627,-14.7256,-32.7134,-38.628,-35.202,-0.656235,10.083,1.98171,241.311,-23.2622
511.178,23.0101,26.4712,0,4.04998,9.13939,-0.732876,-16.5549,-31.7073,-38.2622,-36.0738,-0.579595,10.0926,-1.79878,238.659,-19.0854
511.188,22.6368,25.971,0,3.74342,8.86157,-0.773591,-14.6341,-30.2134,-37.8659,-36.2654,-1.02028,9.70941,-1.37195,232.012,-16.311
511.198,22.2794,25.4287,0,3.80808,8.658,-1.14242,-9.29878,-28.2317,-38.7195,-36.4187,-0.914897,8.67476,-0.121951,226.768,-11.2805
511.208,21.9541,24.8986,0,3.97334,8.72745,-1.31247,-6.85976,-24.4207,-37.6829,-36.5145,-1.04902,8.53106,1.95122,223.78,-8.68902
511.219,21.6026,24.3724,0,3.75539,8.96695,-1.09931,-7.07317,-23.9024,-37.439,-36.3899,-1.43222,8.20534,2.37805,221.098,-5
511.228,21.2459,23.8567,0,3.61648,8.87355,-1.0107,-8.62805,-21.9512,-37.561,-36.457,-1.66214,8.04248,2.40854,220.823,-4.17683
511.238,20.9046,23.3161,0,3.57097,8.73224,-0.66342,-3.81098,-18.5061,-36.8598,-35.8151,-1.84417,7.15153,2.2561,219.665,-2.22561
511.248,20.5517,22.8225,0,3.56618,8.9454,-0.435894,0.182927,-17.2561,-37.7134,-35.2499,-1.80584,7.44851,2.10366,218.14,-2.46951
511.258,20.1923,22.3336,0,3.48715,9.13221,-0.646655,0.548781,-17.5915,-37.378,-35.8726,-1.61424,7.31439,-0.243902,211.616,-0.609756
511.268,19.8579,21.8756,0,3.54223,8.86876,-1.04423,1.89024,-17.6829,-37.3476,-36.4091,-1.26936,7.59221,-4.60366,204.36,2.10366
511.278,19.5226,21.389,0,3.49673,8.95258,-1.15919,0.243902,-15.9451,-37.2256,-36.5911,-1.13524,6.83539,-7.19512,200.427,6.76829
511.288,19.1915,20.9013,0,3.38177,8.98611,-0.931663,1.76829,-11.6463,-36.0366,-37.8174,-0.838257,6.69168,-9.96951,194.299,11.5549
511.298,18.8505,20.3974,0,3.25244,9.1825,-0.893342,1.18902,-5.45732,-35.4268,-37.9419,-1.03944,6.08814,-11.7988,189.878,15.2744
511.308,18.4569,19.9119,0,2.71595,9.42201,-0.498164,-1.64634,-4.90854,-34.5122,-38.076,-1.19272,6.0594,-16.0976,182.835,16.25
511.318,18.0943,19.4524,0,2.82133,9.11065,-0.546064,0.884146,-5,-34.4512,-38.0185,-1.16398,6.14562,-21.1585,176.555,16.7988
511.328,17.7345,19.0233,0,2.72553,9.18729,-0.708926,1.89024,-7.13415,-33.5061,-37.9994,-1.16398,6.32764,-24.9085,169.299,16.5854
511.338,17.3894,18.6601,0,2.63692,9.2328,-0.931663,0.487805,-11.5244,-31.5549,-38.9286,-1.3939,7.31439,-29.7866,159.207,15.2439
511.348,17.0825,18.2833,0,2.73511,9.06515,-0.981958,-0.884146,-14.5732,-30.0915,-38.5263,-1.346,6.71084,-32.9573,149.024,13.9329
511.358,16.8192,17.9,0,2.90276,9.00288,-0.886157,-1.34146,-15.7927,-28.4756,-38.5742,-1.346,6.30848,-36.189,138.262,13.9939
511.368,16.592,17.5323,0,2.99377,8.93821,-0.886157,-0.823171,-15.1524,-26.6463,-38.8233,-1.22146,6.32764,-38.0183,129.482,16.0061
511.378,16.4127,17.1503,0,3.19735,8.9909,-0.912502,0.579268,-11.0366,-24.3902,-38.2389,-1.25978,5.70494,-40,121.494,18.2927
511.388,16.2079,16.7926,0,2.86684,9.16813,-1.14482,-0.0304878,-10.6402,-22.8354,-38.2293,-1.09692,5.83906,-41.8598,114.573,20.5488
511.398,16.0394,16.3962,0,2.94108,9.09149,-1.24541,-1.43293,-9.90854,-20.7012,-38.5454,-1.41306,4.94811,-42.6829,107.53,22.439
511.408,15.8842,15.9609,0,2.87642,8.95258,-1.22625,-0.762195,-8.32317,-19.4512,-39.0149,-1.6813,4.038,-41.9512,102.043,23.811
511.418,15.7464,15.5098,0,2.8381,8.95737,-1.02028,-0.365854,-7.9878,-17.5305,-39.446,-2.35191,3.49194,-42.1646,98.811,22.3476
511.428,15.614,15.0487,0,2.73511,9.02204,-0.866997,2.16463,-6.40244,-15.7927,-39.8771,-2.80217,3.03209,-41.9512,97.1951,20.9451
511.438,15.4633,14.5813,0,2.60099,9.42201,-0.984353,2.40854,-1.98171,-15,-40.1357,-3.32908,2.61057,-42.0732,96.4329,18.5671
511.448,15.2779,14.0698,0,2.29682,9.63756,-1.14242,0.426829,-0.97561,-14.7256,-39.7621,-3.56858,1.4897,-42.8659,97.2256,15.7317
511.458,15.0862,13.5817,0,2.2585,9.5202,-1.15919,0.0914634,-3.87195,-15.6098,-39.9825,-3.30992,1.55676,-42.378,97.8659,13.628
511.468,14.8603,13.0771,0,2.13157,9.48907,-1.23344,1.67683,-3.01829,-18.1098,-40.0208,-3.25244,0.924478,-41.9512,97.6829,11.25
511.478,14.596,12.5809,0,1.91602,9.70941,-1.3939,0.701219,-1.06707,-19.4207,-39.9154,-3.28118,0.723296,-40.3659,99.2988,10.3354
511.488,14.3164,12.1083,0,1.81782,9.71659,-1.26697,-0.0304878,-4.48171,-20.3659,-39.992,-3.4153,0.799937,-39.3598,100.884,7.95732
511.498,14.0496,11.6784,0,1.9256,9.72857,-1.32684,-1.06707,-8.20122,-20.8537,-40.1549,-3.44404,1.21188,-36.7988,96.2195,7.5
511.508,13.8289,11.2451,0,2.3064,9.57529,-1.32924,-1.7378,-10.3659,-21.4939,-39.9058,-3.42488,0.828677,-35.9756,91.7073,5.51829
511.518,13.6268,10.8302,0,2.52914,9.4747,-1.26936,-1.85976,-8.90244,-22.8963,-39.9825,-3.53984,0.838257,-36.128,87.6829,2.31707
511.528,13.4256,10.3939,0,2.5483,9.36692,-1.32684,-1.98171,-5.97561,-23.7805,-39.6663,-3.52068,0.158071,-35.7317,84.0549,-0.0609756
511.538,13.2449,10.0007,0,2.67524,9.22322,-1.25978,-1.18902,-2.53049,-24.0549,-39.8388,-3.13748,0.608335,-35.2744,82.7439,-1.21951
511.548,13.0859,9.61669,0,2.75906,9.06994,-1.12566,0.762195,0.853659,-23.7195,-40.0399,-3.18538,0.483794,-35.4573,78.5366,-2.65244
511.558,12.9526,9.2143,0,2.86923,9.12981,-0.979563,2.37805,5.60976,-22.5,-40.0495,-2.95545,-0.110171,-36.4024,78.2317,-4.87805
511.568,12.8206,8.83928,0,2.83331,9.19687,-1.11129,3.10976,13.2927,-21.9817,-39.9058,-2.49561,0.0910107,-35.7012,78.0793,-4.69512
511.578,12.6749,8.47914,0,2.69919,9.22562,-1.15919,2.62195,18.5671,-21.9817,-39.6759,-2.73511,0.0910107,-36.128,78.1098,-4.72561
511.588,12.4956,8.12012,0,2.38065,9.18011,-1.18314,2.65244,19.878,-22.1037,-39.5322,-2.54351,-0.138911,-36.4939,77.9573,-4.69512
511.598,12.2959,7.76285,0,2.15073,9.2831,-1.14961,3.2622,17.8049,-21.4939,-39.3119,-2.23695,-0.359253,-36.9207,76.4329,-3.65854
511.608,12.0724,7.42873,0,1.93039,9.37171,-1.1065,2.65244,14.1768,-21.4634,-38.9382,-2.37107,-0.196392,-35.2439,77.8963,-3.78049
511.618,11.8364,7.08718,0,1.79866,9.39806,-1.04183,2.7439,10.2744,-21.5549,-38.7658,-2.47645,-0.550855,-36.5854,77.1646,-3.90244
511.628,11.5901,6.74042,0,1.70046,9.50583,-1.07776,2.95732,6.4939,-21.6768,-38.67,-2.47645,-0.866997,-37.1341,77.8354,-4.5122
511.638,11.3342,6.41,0,1.57353,9.66151,-1.13045,3.10976,4.35976,-21.3415,-38.9957,-2.57225,-0.828677,-35.3354,78.0183,-7.22561
511.648,11.0847,6.06303,0,1.60706,9.74533,-1.15919,2.22561,3.17073,-21.4329,-39.0628,-2.69679,-1.35558,-33.2317,73.5976,-8.17073
511.658,10.8422,5.74754,0,1.61903,9.74773,-1.05141,1.64634,1.12805,-21.372,-39.3885,-2.95545,-1.06818,-31.8293,70.8232,-9.05488
511.668,10.6182,5.40995,0,1.71244,9.74533,-1.02746,1.12805,-1.4939,-21.0671,-39.5801,-2.83091,-1.6813,-29.7866,69.6951,-9.11585
511.678,10.4159,5.09112,0,1.81782,9.68306,-0.974773,0.792683,-2.9878,-20.6707,-40.0783,-3.28118,-1.61424,-28.9634,67.6524,-8.04878
511.688,10.2307,4.7707,0,1.90404,9.63756,-0.888552,0.152439,-3.78049,-20.4573,-40.1453,-3.15664,-1.87291,-26.8902,66.4939,-7.10366
511.698,10.056,4.4525,0,1.88967,9.58726,-0.857417,0.0914634,-3.53659,-19.6951,-39.8867,-3.21412,-2.04535,-26.0366,66.5244,-4.08537
511.708,9.88392,4.12993,0,1.82979,9.5226,-1.00351,0.213415,-2.7439,-19.2378,-39.4651,-2.90755,-2.32317,-23.2012,65.5183,-0.152439
511.718,9.69151,3.77851,0,1.6334,9.49146,-0.996328,-0.0609756,-2.95732,-19.3902,-39.331,-2.79259,-3.03209,-22.8049,67.8659,4.05488
511.728,9.47684,3.40249,0,1.43941,9.44117,-0.977168,-0.0914634,-5.64024,-19.8171,-39.0819,-2.78301,-3.67396,-21.7378,70.061,7.53049
511.738,9.25684,3.03328,0,1.3939,9.44356,-1.06339,0.0609756,-9.11585,-20.2439,-39.0149,-2.71595,-3.7985,-21.5549,72.7439,8.90244
511.748,9.0307,2.72764,0,1.346,9.60882,-1.152,-1.28049,-11.5549,-20.4573,-39.7525,-2.76385,-3.00335,-22.5305,73.6281,10.5488
511.758,8.80393,2.43699,0,1.34121,9.67109,-1.00351,-2.37805,-11.7683,-20.8232,-39.9633,-2.77343,-2.97461,-23.9329,71.7378,10.1524
511.768,8.57932,2.15076,0,1.33403,9.7118,-1.0562,-2.22561,-11.9207,-20.9146,-39.7621,-2.48603,-3.08958,-25.122,70.3354,10.2744
511.778,8.33703,1.88402,0,1.17116,9.75252,-1.00112,-2.46951,-13.0183,-21.189,-39.5801,-2.18905,-2.93629,-26.189,69.1159,8.56707
511.788,8.10888,1.63642,0,1.24062,9.72857,-1.08734,-2.86585,-13.872,-21.0976,-38.7466,-2.09325,-2.73511,-26.8598,66.8293,9.20732
511.798,7.89772,1.4077,0,1.38672,9.76449,-1.08015,-2.62195,-14.5122,-21.4939,-39.1011,-1.75794,-2.61057,-28.8415,64.6037,8.96341
511.808,7.72519,1.25094,0,1.62143,9.53218,-0.969983,-2.86585,-13.0488,-21.189,-39.5609,-2.11241,-1.55676,-30.5183,60.061,11.4329
511.818,7.58935,1.08441,0,1.83458,9.43638,-0.907712,-2.2561,-10.7622,-20.5488,-39.8292,-1.98787,-1.86333,-31.6768,55.7622,11.6768
511.828,7.48484,0.941619,0,2.019,9.4747,-0.941243,-1.18902,-8.38415,-19.7256,-40.2507,-2.43813,-1.59508,-30.9146,50.9146,11.8293
511.838,7.40769,0.785923,0,2.1651,9.59924,-0.855022,-1.03659,-5.7622,-18.5366,-40.4423,-2.28485,-1.94955,-29.7866,46.5244,13.872
511.848,7.36259,0.646503,0,2.25371,9.58247,-0.900527,-0.487805,-2.37805,-16.4939,-40.586,-2.56267,-1.78668,-28.872,43.2622,13.2622
511.858,7.33742,0.51962,0,2.24174,9.54655,-1.04902,0.152439,1.31098,-14.5122,-40.7393,-2.38065,-1.6813,-27.7439,39.2683,13.6585
511.868,7.32912,0.381927,0,2.16749,9.68546,-1.14003,-1.79878,6.31098,-11.6159,-40.7201,-2.49561,-1.97829,-28.2012,35.5793,14.7256
511.878,7.34978,0.250856,0,2.2106,9.66151,-1.14721,0,11.372,-9.2378,-40.8351,-2.53393,-1.97829,-28.2927,31.189,15.3049
511.888,7.36759,0.137465,0,2.03098,9.78126,-1.14003,1.85976,13.4146,-7.13415,-40.95,-2.42855,-1.7771,-27.8354,25.7927,16.6768
511.898,7.39386,0.000239262,0,1.9232,9.74054,-1.22146,0.579268,13.9939,-5.15244,-41.0363,-2.17947,-2.31359,-28.0793,20.3963,18.9939
511.908,7.42455,-0.167551,0,1.79387,9.58966,-1.1065,0.670732,12.0732,-3.71951,-40.8542,-2.32317,-2.96503,-28.5366,17.3476,20.7927
511.918,7.44509,-0.360614,0,1.54718,9.58247,-1.12805,1.0061,10.3659,-2.2561,-40.9213,-2.41897,-3.559,-28.7195,14.6037,21.5244
511.928,7.44343,-0.547734,0,1.3005,9.58247,-1.08015,1.03659,8.68902,-1.15854,-40.6435,-2.71595,-3.56858,-28.9329,13.75,21.4329
511.938,7.36845,-0.76046,0,1.03704,9.65672,-1.00112,1.03659,6.09756,-0.152439,-40.2411,-2.82133,-4.12422,-28.5671,13.7195,19.8171
511.948,7.27089,-1.00011,0,0.852627,9.74294,-1.00591,0.487805,2.95732,0.518293,-39.8579,-2.77343,-4.70861,-27.3476,15.122,17.5915
511.958,7.18404,-1.2317,0,0.665815,9.77168,-1.09452,0.0304878,-0.884146,1.37195,-39.6759,-3.04167,-4.70861,-26.2195,16.25,13.3232
511.968,7.09789,-1.43497,0,0.5772,9.81,-1.18553,-1.52439,-4.26829,1.67683,-39.7238,-2.97461,-4.37331,-23.7805,16.5854,10.8537
511.978,7.01343,-1.64561,0,0.538879,9.75491,-1.152,-2.86585,-6.70732,1.85976,-39.1203,-2.64889,-4.58407,-23.628,14.3293,7.16463
511.988,6.91089,-1.81218,0,0.60115,9.6639,-1.08734,-3.14024,-8.2622,1.18902,-38.9286,-2.52435,-3.95178,-21.6768,11.189,5.09146
511.998,6.79382,-1.97957,0,0.699346,9.58966,-1.08494,-2.0122,-8.04878,0.609756,-38.6029,-2.38065,-4.04758,-20.7317,10.8232,3.04878
512.008,6.68994,-2.14687,0,0.756826,9.616,-1.15919,-1.40244,-6.89024,-0.670732,-38.4592,-2.15073,-4.15296,-19.4207,8.29268,2.37805
512.018,6.62888,-2.30483,0,0.857417,9.67109,-1.19272,-1.0061,-5.54878,-1.76829,-38.7083,-1.71004,-4.1338,-19.4817,8.10976,2.68293
512.028,6.58333,-2.45967,0,0.991538,9.69264,-1.26218,-1.40244,-4.84756,-2.86585,-38.852,-1.73878,-4.20086,-20.3049,8.87195,4.08537
512.038,6.54728,-2.58101,0,1.09692,9.60403,-1.24302,-1.40244,-3.71951,-3.53659,-39.0819,-1.62382,-3.7506,-22.1951,8.47561,3.75
512.048,6.52075,-2.71713,0,1.24062,9.50104,-1.20469,-1.40244,-2.10366,-4.57317,-39.4651,-1.7292,-4.1338,-23.1707,7.80488,2.07317
512.058,6.50012,-2.84248,0,1.29092,9.50823,-1.14721,-1.21951,-0.426829,-4.63415,-39.5322,-2.04535,-4.04758,-22.9573,7.37805,1.0061
512.068,6.47407,-2.95708,0,1.31487,9.58247,-1.14242,-1.12805,1.06707,-5.36585,-39.7525,-1.94955,-3.97094,-22.1646,6.46341,-0.670732
512.078,6.4507,-3.07117,0,1.32445,9.63277,-0.960403,-0.97561,3.14024,-5.18293,-39.6951,-2.06451,-4.038,-22.0427,6.0061,-1.4939
512.088,6.42027,-3.16986,0,1.27655,9.67348,-0.862207,-1.25,4.42073,-5.30488,-39.6759,-2.03577,-3.8464,-21.5854,5.27439,-1.64634
512.098,6.39527,-3.26303,0,1.26457,9.70941,-0.787961,-0.884146,3.93293,-4.63415,-39.9058,-2.17947,-3.8464,-21.2805,3.44512,-2.77439
512.108,6.37404,-3.36562,0,1.28373,9.80281,-0.888552,-0.182927,3.93293,-4.39024,-40.0974,-2.19863,-4.10506,-21.311,1.67683,-3.07927
512.118,6.35685,-3.4676,0,1.27894,9.81958,-0.943638,-0.182927,3.62805,-3.96341,-39.9154,-2.16989,-4.15296,-19.5427,0.213415,-4.17683
512.128,6.34338,-3.57349,0,1.2526,9.81958,-1.07776,0.0609756,2.40854,-3.35366,-40.1453,-2.11241,-4.31582,-21.372,1.09756,-3.84146
512.138,6.34381,-3.6642,0,1.27655,9.79084,-1.06578,-0.426829,1.12805,-2.5,-40.5285,-2.06451,-4.16254,-20.9146,0,-2.92683
512.148,6.35938,-3.75643,0,1.28613,9.7142,-1.13763,-0.640244,0.426829,-1.70732,-40.471,-2.29443,-4.24876,-21.7378,0.0304878,-2.22561
512.158,6.38002,-3.85536,0,1.2502,9.65672,-1.14003,-0.518293,0.152439,-1.21951,-39.9346,-2.38065,-4.38289,-21.4329,-1.7378,-1.76829
512.168,6.41049,-3.9498,0,1.21427,9.67588,-1.152,-1.06707,-0.487805,-0.457317,-39.5418,-2.58183,-4.33499,-20.8841,-3.2622,-2.2561
512.178,6.43511,-4.06936,0,1.1544,9.65193,-1.10171,-0.945122,-0.914634,0.0609756,-39.2448,-2.93629,-4.81399,-20.061,-4.90854,-1.34146
512.188,6.45696,-4.17296,0,1.15679,9.67348,-1.1041,-1.67683,-1.15854,0.396341,-38.852,-2.90755,-4.57449,-17.0122,-5.97561,-1.95122
512.198,6.46695,-4.27381,0,1.1065,9.64714,-1.06818,-1.06707,-1.25,0.670732,-38.6221,-2.92671,-4.57449,-14.2378,-7.07317,-1.34146
512.208,6.46304,-4.37123,0,1.08015,9.6639,-0.989143,-0.945122,-1.4939,0.121951,-38.5263,-2.89797,-4.56491,-13.8415,-4.7561,0.304878
512.218,6.45844,-4.48622,0,1.08015,9.63516,-0.919688,0,-2.31707,-0.0609756,-38.5933,-2.88839,-4.93853,-11.5244,-3.47561,0.121951
512.228,6.4516,-4.59803,0,1.08255,9.70941,-1.0083,0.304878,-2.46951,-0.182927,-38.4305,-2.73511,-4.93853,-9.42073,-2.59146,0.152439
512.238,6.45002,-4.67312,0,1.11608,9.7597,-1.07776,-0.182927,-1.89024,-0.487805,-38.5742,-2.39023,-4.39247,-10.3963,-0.457317,0.548781
512.248,6.44038,-4.74927,0,1.08973,9.74294,-1.06099,-0.640244,-1.70732,-0.731707,-38.6508,-2.30401,-4.46911,-10.0915,0.121951,1.40244
512.258,6.43813,-4.84716,0,1.12566,9.69504,-1.00351,-1.03659,-2.68293,-0.914634,-38.5742,-2.30401,-4.88105,-10,1.92073,1.55488
512.268,6.45127,-4.91593,0,1.21188,9.68306,-1.03465,-1.40244,-3.71951,-1.06707,-38.7849,-2.22737,-4.46911,-10.5793,2.13415,3.32317
512.278,6.49853,-4.9738,0,1.27415,9.62798,-1.05141,-1.43293,-4.69512,-0.426829,-38.9574,-2.29443,-4.34457,-10.9146,2.80488,4.29878
512.288,6.56518,-5.0357,0,1.36277,9.6184,-1.04662,-1.34146,-4.63415,-0.487805,-39.0053,-2.23695,-4.45953,-11.5854,2.95732,2.80488
512.298,6.64681,-5.11227,0,1.43222,9.616,-1.07776,-0.853659,-4.08537,-0.487805,-39.1107,-2.33275,-4.76609,-11.5854,4.29878,3.20122
512.308,6.74278,-5.17007,0,1.4442,9.68067,-1.1065,-0.97561,-3.56707,-0.152439,-39.3885,-2.30401,-4.52659,-12.7439,3.2622,3.07927
512.318,6.84809,-5.21875,0,1.48012,9.6663,-1.12566,-1.15854,-2.7439,-0.121951,-39.3406,-2.19863,-4.40205,-12.0732,2.9878,2.9878
512.328,6.93625,-5.27205,0,1.46815,9.68306,-1.13284,-1.15854,-1.70732,0.304878,-39.4939,-2.60099,-4.53617,-12.2866,2.56098,3.47561
512.338,7.02689,-5.33486,0,1.4442,9.66151,-1.16637,-0.731707,-0.701219,0.0304878,-39.4364,-2.48603,-4.73735,-13.0183,1.67683,2.65244
512.348,7.10883,-5.39066,0,1.42983,9.63995,-1.1065,-0.670732,0.579268,0.0609756,-39.628,-2.53393,-4.67987,-12.6524,1.76829,2.2561
512.358,7.15753,-5.45922,0,1.35319,9.616,-1.1041,0.0304878,1.4939,-0.152439,-39.6184,-2.60099,-4.94811,-12.8354,0.579268,2.10366
512.368,7.16945,-5.51962,0,1.28373,9.62079,-1.04662,0.609756,1.98171,-0.670732,-39.628,-2.45729,-4.85231,-12.1341,0.731707,3.62805
512.378,7.15834,-5.57404,0,1.19751,9.64235,-1.03465,1.06707,2.13415,-0.792683,-39.4843,-2.57225,-4.77567,-11.0366,-0.548781,2.43902
512.388,7.12928,-5.63247,0,1.12087,9.69264,-1.06578,1.28049,1.98171,-0.701219,-39.149,-2.67763,-4.84273,-12.0732,-0.396341,1.95122
512.398,7.09007,-5.69678,0,1.06818,9.69743,-1.02267,0.731707,1.52439,-0.914634,-39.0819,-2.72553,-4.97685,-10.3049,-0.182927,1.15854
512.408,7.0416,-5.74785,0,1.02986,9.67827,-0.989143,0.701219,0,-0.640244,-38.8903,-2.72553,-4.76609,-9.93902,-0.0914634,1.76829
512.418,6.99658,-5.82133,0,1.04662,9.69983,-1.09931,0.457317,-1.76829,-0.396341,-38.7945,-2.60099,-5.17803,-8.2622,0.182927,1.85976
512.428,6.96349,-5.86727,0,1.08494,9.76928,-1.13284,-0.0304878,-2.46951,-0.426829,-38.9478,-2.59141,-4.76609,-7.89634,0.97561,1.37195
512.438,6.92587,-5.89866,0,1.07057,9.77407,-1.02986,-0.762195,-3.32317,-0.213415,-39.2256,-3.00335,-4.57449,-8.62805,1.64634,0.335366
512.448,6.9039,-5.9387,0,1.11129,9.69983,-1.09692,-1.25,-3.84146,-0.579268,-39.2256,-2.80217,-4.74693,-8.93293,1.95122,1.09756
512.458,6.90184,-5.98203,0,1.17356,9.66869,-1.0083,-1.52439,-3.96341,-0.304878,-39.216,-2.79259,-4.83315,-7.31707,1.37195,0.762195
512.468,6.91294,-6.02777,0,1.20469,9.62558,-0.996328,-1.21951,-4.39024,-0.182927,-39.2065,-2.74469,-4.90021,-7.0122,2.62195,0.243902
512.478,6.93331,-6.06966,0,1.25499,9.63995,-1.02746,-1.18902,-4.42073,-0.396341,-39.1873,-2.76385,-4.86189,-8.5061,2.68293,0.762195
512.488,6.95479,-6.11882,0,1.27894,9.6663,-1.08973,-0.945122,-4.11585,-0.518293,-39.0053,-2.69679,-4.99601,-8.14024,2.40854,0.335366
512.498,6.98,-6.1445,0,1.31966,9.66151,-1.1065,-0.884146,-3.90244,-0.731707,-39.1011,-2.59141,-4.63197,-9.5122,2.31707,0.0914634
512.508,7.00954,-6.16322,0,1.35558,9.6639,-1.152,-0.701219,-2.86585,-0.823171,-39.1873,-2.72553,-4.53617,-10.1829,2.89634,0.396341
512.518,7.03491,-6.18335,0,1.36516,9.67348,-1.11847,-0.762195,-1.82927,-1.0061,-39.1873,-2.39981,-4.57449,-11.128,2.71341,1.28049
512.528,7.07002,-6.20079,0,1.42025,9.65911,-1.12805,-1.21951,-1.55488,-1.03659,-39.331,-2.37107,-4.55533,-12.0122,3.44512,0.792683
512.538,7.12847,-6.21619,0,1.45378,9.63756,-1.1041,-0.579268,-0.670732,-0.579268,-39.2448,-2.39023,-4.52659,-13.3841,2.04268,0.731707
512.548,7.18197,-6.22491,0,1.46575,9.65911,-1.12805,-0.335366,-0.27439,-0.670732,-39.3502,-2.45729,-4.43079,-14.9695,2.40854,0.548781
512.558,7.22898,-6.22077,0,1.46815,9.6639,-1.15679,0.121951,0.487805,-0.792683,-39.5418,-2.42855,-4.23918,-16.2805,0.27439,0.914634
512.568,7.26054,-6.21991,0,1.42504,9.64714,-1.16877,-0.0609756,1.12805,-0.97561,-39.4843,-2.47645,-4.28709,-17.0732,0.457317,1.67683
512.578,7.28621,-6.24352,0,1.40109,9.64714,-1.1544,0.518293,2.16463,-0.97561,-39.4747,-2.54351,-4.71819,-18.6585,0.0609756,0.823171
512.588,7.31188,-6.26066,0,1.37714,9.66869,-1.08494,0.548781,3.04878,-0.701219,-39.4651,-2.72553,-4.62239,-20.061,-0.853659,-0.0914634
512.598,7.32276,-6.2905,0,1.32445,9.65432,-1.09213,0.670732,3.35366,-0.823171,-39.3693,-2.57225,-4.85231,-19.6341,-2.40854,0.487805
512.608,7.31712,-6.31648,0,1.25978,9.63516,-1.11608,0.701219,3.2622,-1.03659,-39.4268,-2.63931,-4.81399,-19.7866,-2.9878,0.884146
512.619,7.30621,-6.34975,0,1.24062,9.68546,-1.04183,0.457317,3.04878,-1.06707,-39.4843,-2.63931,-4.96727,-21.7988,-2.77439,1.15854
512.628,7.28842,-6.37752,0,1.2023,9.67348,-1.08255,0.396341,2.95732,-1.06707,-39.3693,-2.39981,-4.88105,-22.8049,-3.35366,2.46951
512.638,7.26859,-6.40668,0,1.18553,9.65672,-1.05381,0.182927,2.04268,-1.0061,-39.6184,-2.62015,-4.95769,-22.4085,-3.78049,1.37195
512.648,7.25149,-6.43614,0,1.21427,9.67827,-1.09452,0,1.85976,-1.40244,-39.4747,-2.81175,-4.96727,-22.1341,-4.35976,1.09756
512.658,7.22903,-6.47373,0,1.17835,9.65672,-1.06578,-0.152439,1.7378,-1.40244,-39.513,-2.84049,-5.13971,-24.0244,-5.21341,0.426829
512.668,7.21089,-6.4888,0,1.18314,9.65193,-1.0562,-0.213415,1.4939,-1.0061,-39.3598,-2.71595,-4.74693,-23.5976,-4.57317,-1.03659
512.678,7.19998,-6.50633,0,1.23583,9.64714,-1.02746,0.152439,1.43293,-1.40244,-39.1298,-2.79259,-4.77567,-25.4878,-5.42683,-1.0061
512.688,7.19476,-6.54311,0,1.26457,9.67827,-1.08255,0.365854,1.61585,-1.31098,-39.1681,-2.85965,-5.13013,-24.6037,-5.39634,-1.0061
512.698,7.19453,-6.55732,0,1.27176,9.65432,-1.06818,-0.304878,1.64634,-1.09756,-39.1203,-2.97461,-4.75651,-25.061,-6.15854,-0.213415
512.708,7.19736,-6.57703,0,1.30289,9.65672,-1.11608,-0.0914634,1.95122,-1.28049,-39.034,-3.02251,-4.85231,-24.8476,-6.25,0.182927
512.718,7.20418,-6.58945,0,1.346,9.65911,-1.0562,0.0609756,2.59146,-1.4939,-38.9191,-2.93629,-4.72777,-24.3293,-7.19512,0.853659
512.729,7.22028,-6.60095,0,1.38672,9.61361,-1.10171,0.396341,3.47561,-1.43293,-39.0532,-3.10874,-4.73735,-23.811,-7.37805,0.853659
512.738,7.24507,-6.61233,0,1.42504,9.63516,-1.11368,0.609756,4.08537,-1.28049,-39.0819,-3.11832,-4.74693,-22.6829,-7.5,-0.396341
512.748,7.26093,-6.62515,0,1.3939,9.62079,-1.1041,1.09756,4.84756,-1.43293,-39.1298,-2.97461,-4.78525,-24.0854,-7.2561,0.243902
512.758,7.27579,-6.64268,0,1.40109,9.63756,-1.11368,1.15854,5.15244,-1.4939,-39.3693,-2.87881,-4.90979,-21.9207,-8.2622,0.0609756
512.768,7.2867,-6.66154,0,1.36756,9.65432,-1.11608,1.55488,5.09146,-1.34146,-39.3598,-2.99377,-4.94811,-21.9207,-9.39024,1.15854
512.778,7.2904,-6.66542,0,1.34121,9.616,-1.11608,1.03659,5.70122,-1.55488,-39.4172,-3.23328,-4.70861,-21.6768,-10.6402,0.213415
512.788,7.29001,-6.67121,0,1.29571,9.64953,-1.12087,0.762195,5.85366,-1.21951,-39.3981,-3.1758,-4.74693,-20.3659,-11.8293,-0.518293
512.798,7.2927,-6.67715,0,1.31726,9.6184,-1.09931,0.853659,6.46341,-1.34146,-39.3885,-3.24286,-4.75651,-19.6951,-12.9878,-1.70732
512.808,7.28722,-6.68332,0,1.26457,9.66151,-1.0562,0.914634,6.89024,-1.12805,-39.3789,-3.38656,-4.76609,-19.8476,-13.7805,-2.5
512.818,7.28013,-6.68676,0,1.25978,9.65432,-1.06578,1.40244,7.22561,-1.21951,-39.4939,-3.30992,-4.73735,-20.3354,-14.1159,-1.61585
512.828,7.28556,-6.68706,0,1.29331,9.69025,-1.1065,1.61585,7.28659,-0.731707,-39.3693,-3.19496,-4.67029,-20.0305,-14.3293,-1.95122
512.838,7.28988,-6.67745,0,1.2981,9.67827,-1.06578,1.70732,6.98171,-0.884146,-39.1969,-3.23328,-4.47869,-21.25,-14.939,-2.59146
512.848,7.29251,-6.67831,0,1.29092,9.67827,-1.09692,1.37195,6.82927,-0.884146,-39.1011,-3.01293,-4.64155,-22.0122,-14.2683,-3.01829
512.858,7.30495,-6.6666,0,1.31247,9.65193,-1.12087,1.15854,6.64634,-0.640244,-38.9861,-3.16622,-4.41163,-22.4085,-14.8171,-2.10366
512.868,7.33065,-6.64556,0,1.3484,9.65193,-1.17356,1.21951,6.46341,-0.426829,-39.0244,-3.2237,-4.24876,-23.9329,-15.8232,-2.16463
512.878,7.34392,-6.65208,0,1.32924,9.616,-1.16398,1.67683,6.25,-0.792683,-39.1394,-3.21412,-4.72777,-24.1768,-15.6098,-1.06707
512.888,7.35873,-6.6397,0,1.35558,9.59924,-1.16158,2.04268,6.15854,-1.0061,-39.3598,-3.30992,-4.43079,-24.6951,-16.8598,-1.18902
512.898,7.37189,-6.64405,0,1.346,9.59205,-1.19032,1.92073,6.18902,-0.97561,-39.5705,-3.44404,-4.74693,-24.9695,-18.4146,-1.7378
512.908,7.37413,-6.63916,0,1.346,9.63995,-1.16158,1.92073,6.82927,-1.4939,-39.6759,-3.48236,-4.60323,-25.5488,-19.6341,-2.9878
512.918,7.38125,-6.63172,0,1.3484,9.60403,-1.17116,1.89024,7.07317,-1.28049,-39.7238,-3.45362,-4.56491,-26.6159,-21.0671,-4.02439
512.928,7.37821,-6.61053,0,1.30529,9.59924,-1.22386,1.79878,7.31707,-1.43293,-39.6855,-3.62606,-4.32541,-27.0427,-25,-4.26829
512.938,7.37358,-6.57989,0,1.30529,9.63277,-1.17116,2.19512,7.80488,-1.4939,-39.7909,-3.62606,-4.16254,-26.6463,-27.2866,-4.20732
512.948,7.37777,-6.55947,0,1.3484,9.63516,-1.12566,2.04268,8.10976,-1.40244,-40.0112,-3.67396,-4.35415,-27.8354,-29.5732,-2.83537
512.958,7.37864,-6.53708,0,1.32445,9.67588,-1.16637,1.89024,8.14024,-1.25,-40.1166,-3.7506,-4.32541,-28.1098,-32.3171,-2.7439
512.968,7.37793,-6.49207,0,1.34361,9.77168,-1.20948,1.43293,8.38415,-1.40244,-39.9537,-3.88472,-3.8943,-30.2744,-33.6585,-3.01829
512.978,7.38039,-6.44339,0,1.35798,9.77168,-1.35558,0.731707,7.43902,-1.34146,-40.1262,-4.05716,-3.81766,-31.5854,-34.7561,-3.87195
512.988,7.38461,-6.37703,0,1.38432,9.65911,-1.45857,-0.457317,7.2561,-1.70732,-40.4136,-4.15296,-3.5111,-32.7134,-39.9695,-4.81707
512.998,7.3758,-6.32393,0,1.32445,9.58487,-1.42504,-1.37195,6.89024,-2.13415,-40.3178,-4.05716,-3.7027,-34.8171,-42.6524,-4.42073
513.008,7.35216,-6.26718,0,1.23583,9.58726,-1.346,-1.7378,6.67683,-2.34756,-40.2699,-3.7506,-3.6069,-37.7439,-45.9146,-5.2439
513.018,7.32208,-6.21486,0,1.19032,9.68546,-1.27894,-1.64634,6.64634,-2.22561,-39.8196,-3.93262,-3.61648,-38.5976,-49.2073,-4.84756
513.028,7.28202,-6.15916,0,1.14242,9.74773,-1.35079,-2.13415,5.88415,-2.62195,-39.6472,-4.22002,-3.5111,-39.7866,-51.0366,-2.95732
513.038,7.25104,-6.11416,0,1.19272,9.75252,-1.43941,-3.5061,6.15854,-2.43902,-39.2352,-4.2775,-3.62606,-42.2256,-51.9817,-4.45122
513.048,7.22043,-6.07694,0,1.20709,9.71659,-1.45378,-5.85366,6.79878,-2.7439,-39.0723,-4.26792,-3.72186,-43.2622,-53.9634,-2.19512
513.058,7.19177,-6.05785,0,1.22625,9.64474,-1.45378,-7.10366,8.01829,-2.9878,-38.4592,-4.51701,-3.95178,-45.8841,-54.9085,-1.98171
513.068,7.1555,-6.05095,0,1.18074,9.61121,-1.45378,-7.0122,9.57317,-3.29268,-38.2006,-4.67029,-4.12422,-44.6951,-56.25,-1.46341
513.078,7.11809,-6.03802,0,1.14242,9.52739,-1.35079,-6.09756,9.72561,-3.10976,-38.258,-5.03433,-4.01884,-43.75,-55,-0.0609756
513.088,7.08271,-6.05124,0,1.13524,9.53218,-1.25499,-5.94512,9.42073,-2.86585,-38.2772,-5.74326,-4.45953,-43.9024,-55.2439,-1.06707
513.098,7.05885,-6.05404,0,1.17835,9.53697,-1.3005,-6.52439,8.84146,-2.34756,-38.488,-6.23184,-4.31582,-45.1524,-55.7927,0.0914634
513.108,7.03283,-6.06641,0,1.17116,9.62079,-1.41306,-7.80488,8.14024,-2.37805,-38.5742,-6.6821,-4.48827,-43.5671,-54.6341,-0.27439
513.118,7.00795,-6.08133,0,1.14003,9.59205,-1.36756,-8.68902,7.13415,-1.85976,-38.7466,-6.70126,-4.55533,-41.9207,-52.9573,-1.25
513.128,6.99558,-6.12215,0,1.22864,9.60163,-1.42504,-8.75,6.09756,-2.0122,-38.488,-6.77791,-4.97685,-41.0671,-51.6768,-0.0304878
513.138,6.99106,-6.19028,0,1.26697,9.60882,-1.38911,-9.08537,5.60976,-1.85976,-38.1718,-6.82581,-5.41753,-38.75,-47.5305,3.32317
513.148,6.98797,-6.25394,0,1.26697,9.63756,-1.44899,-9.39024,5.15244,-1.70732,-38.0281,-7.09405,-5.36005,-39.2683,-45.4573,5.2439
513.158,6.99764,-6.29627,0,1.31487,9.63277,-1.43701,-10.3049,4.69512,-1.40244,-38.2389,-7.19943,-5.06307,-36.0671,-44.3902,7.46951
513.168,7.0309,-6.32143,0,1.39151,9.65911,-1.4897,-11.0671,3.78049,-0.914634,-38.5071,-7.31439,-4.83315,-33.75,-44.939,8.07927
513.178,7.08825,-6.36863,0,1.43941,9.7118,-1.5376,-11.9512,3.10976,-0.396341,-38.8712,-7.15153,-5.27383,-31.8598,-43.0183,9.54268
513.189,7.1784,-6.40905,0,1.51365,9.73096,-1.59269,-12.439,1.67683,0.0914634,-39.1394,-6.5863,-5.21635,-30.122,-40.8537,10.7927
513.198,7.25871,-6.43769,0,1.56874,9.68785,-1.67651,-12.8049,-0.152439,0.762195,-39.3693,-6.48092,-5.05349,-27.3171,-36.7988,10.9451
513.208,7.34625,-6.47098,0,1.65017,9.70462,-1.67172,-12.5,-1.67683,0.97561,-39.5609,-6.18394,-5.16845,-26.0976,-33.3232,11.5244
513.218,7.44421,-6.47982,0,1.78429,9.63516,-1.68849,-12.5,-2.2561,1.89024,-39.7717,-6.1552,-4.77567,-25.061,-30.8841,12.4085
513.228,7.5588,-6.47995,0,1.9232,9.5681,-1.6358,-12.9878,-1.67683,2.83537,-39.9825,-6.06898,-4.65113,-24.939,-30.7927,10.5183
513.238,7.69638,-6.47064,0,2.09804,9.55373,-1.54239,-13.9939,-0.548781,3.78049,-39.5993,-5.79116,-4.43079,-24.3598,-28.1707,9.81707
513.248,7.85744,-6.43535,0,2.24653,9.51781,-1.40588,-15,-0.0609756,4.87805,-39.6759,-5.73368,-3.97094,-25.7622,-27.4695,8.44512
513.258,8.04095,-6.40303,0,2.36388,9.45793,-1.33163,-15.2439,-0.0609756,6.06707,-39.2544,-5.26425,-3.95178,-26.2195,-26.128,7.31707
513.268,8.24123,-6.35511,0,2.41897,9.41961,-1.27655,-15.7927,-0.670732,7.43902,-38.8999,-5.11097,-3.62606,-28.872,-26.7683,9.5122
513.278,8.45459,-6.30632,0,2.47645,9.44356,-1.23104,-15.9451,-0.243902,8.59756,-38.5646,-4.57449,-3.53984,-30.7012,-24.5427,11.7683
513.288,8.68544,-6.22488,0,2.55788,9.46272,-1.14961,-15.7622,0.609756,9.93902,-38.1431,-4.42121,-2.91713,-31.5549,-25,14.2988
513.298,8.94295,-6.14975,0,2.65608,9.50344,-0.972378,-15.8232,2.10366,12.1341,-37.8844,-3.95178,-2.94587,-34.2988,-23.9634,16.4329
513.308,9.23516,-6.08199,0,2.81415,9.4268,-0.917292,-15.9451,3.9939,14.1463,-37.5683,-4.17212,-2.98419,-35.5183,-20.8232,18.5366
513.318,9.55816,-6.05141,0,2.91474,9.39087,-0.785566,-15.9756,6.09756,16.6159,-37.4821,-4.33499,-3.53984,-34.6341,-17.2561,20.4878
513.328,9.91835,-6.0103,0,3.0273,9.33818,-0.5772,-16.311,7.2561,19.6037,-37.4054,-4.42121,-3.3195,-31.7988,-11.7073,20.4878
513.338,10.3234,-5.96727,0,3.2237,9.29986,-0.550855,-16.4634,7.9878,22.561,-37.4821,-3.98052,-3.25244,-29.3598,-7.19512,21.128
513.348,10.7823,-5.92885,0,3.43446,9.19687,-0.443079,-16.6768,8.41463,26.0976,-37.5587,-3.90388,-3.29076,-26.4329,-2.07317,22.2866
513.358,11.2998,-5.90053,0,3.68354,9.06754,-0.301772,-16.5549,9.35976,29.6951,-38.191,-4.25834,-3.47278,-20.9146,3.62805,21.9512
513.368,11.8837,-5.87422,0,3.98052,8.95977,-0.124541,-16.9817,11.25,33.75,-38.4017,-4.14338,-3.49194,-17.2256,8.17073,20.9146
513.378,12.5443,-5.85566,0,4.33259,8.87594,-0.00239502,-16.8902,12.9268,38.5671,-38.7179,-3.8943,-3.62606,-13.2317,11.1585,22.1646
513.388,13.2776,-5.80501,0,4.6176,8.72985,0.0119751,-17.1341,14.2683,43.5366,-38.9574,-3.28118,-3.08958,-8.07927,8.5061,23.5976
513.398,14.103,-5.75472,0,4.94811,8.40173,-0.00479004,-16.7988,15.3659,49.0854,-38.9191,-2.62015,-3.07042,-3.35366,4.87805,25.061
513.408,15.0188,-5.68498,0,5.23072,8.02092,-0.160466,-14.9085,15.7622,54.6646,-38.8233,-1.52802,-2.70637,6.40244,1.25,29.6341
513.419,16.0117,-5.60529,0,5.34808,7.60179,-0.512534,-10.4573,15.6098,60.2744,-39.0053,-0.627495,-2.51477,14.3598,-3.32317,35.4268
513.428,17.0531,-5.53171,0,5.31455,7.26888,-0.855022,-1.55488,17.7744,65.1219,-39.5705,-0.0143701,-2.61057,22.2256,-5.51829,41.8598
513.438,18.1221,-5.46469,0,5.36724,7.29283,-1.03944,9.54268,22.6829,69.6951,-40.1262,0.474214,-2.71595,29.1463,-6.64634,45.0915
513.448,19.1876,-5.45378,0,5.48938,7.5994,-1.03225,20.9756,28.0183,72.561,-40.0399,0.608335,-3.6548,38.1707,-5.30488,48.4146
513.458,20.215,-5.47448,0,5.79834,8.3682,-1.01309,31.0366,35.9146,73.1402,-40.1741,0.780776,-4.22002,47.6829,-4.05488,49.0854
513.468,21.1958,-5.51628,0,6.14083,9.4244,-0.929268,37.5305,43.4146,73.811,-40.2507,0.273032,-4.62239,55.3659,-4.2378,48.9939
513.478,22.1475,-5.61188,0,6.73,10.8518,-1.18074,43.2927,50,75.4573,-40.5573,-0.426313,-5.65704,63.2622,-2.07317,48.628
513.488,23.0753,-5.7504,0,7.43414,12.3439,-2.213,42.439,61.0671,76.4939,-40.7201,-0.560435,-6.52882,69.7256,0.182927,49.6341
513.498,23.8893,-5.91902,0,6.89047,12.969,-2.31838,31.3415,75.061,73.0488,-41.6973,-1.1544,-7.35271,80.1219,1.64634,52.439
513.509,24.557,-6.11924,0,5.29539,12.7966,-0.780776,20.6707,75.9756,71.0061,-42.023,-1.62382,-8.14786,87.8659,0.426829,58.5366
513.518,25.08,-6.28799,0,3.37698,12.8157,1.0586,12.9268,58.1402,73.3537,-41.7835,-2.02619,-7.64969,94.1159,1.18902,63.2012
513.528,25.522,-6.45707,0,2.00224,12.0733,1.33642,9.90854,46.6159,77.0732,-41.6494,-2.23695,-7.76465,96.4329,-0.548781,68.4756
513.538,25.9076,-6.62899,0,1.1544,10.4998,0.960403,12.5915,49.3902,78.6281,-41.3716,-2.23695,-7.90835,97.9268,-4.69512,72.1951
513.548,26.2212,-6.83935,0,0.65863,9.93933,0.895737,20.4878,50.8537,77.1341,-40.8638,-1.84417,-8.67476,99.4207,-8.90244,77.1341
513.558,26.4626,-7.03107,0,0.270637,9.51781,0.802332,25.5793,42.622,74.8171,-40.7393,-0.924478,-8.48316,103.75,-16.5549,79.1159
513.568,26.6667,-7.19826,0,0.0981958,9.2831,0.802332,26.8293,24.6341,73.5976,-40.883,-0.110171,-8.2245,108.841,-24.5427,82.1646
513.578,26.8948,-7.3265,0,0.325723,9.22083,0.0143701,24.9695,9.48171,73.5671,-40.7297,0.550855,-7.63053,115.213,-35.2134,85.4573
513.588,27.1927,-7.4236,0,0.833467,9.14897,-0.828677,23.0488,-1.89024,74.6646,-40.2124,0.550855,-7.09405,120.64,-45.7622,84.3598
513.598,27.6052,-7.4923,0,1.78429,8.95019,-1.47533,22.3171,-10.7317,74.5732,-39.3406,0.368833,-6.52882,126.372,-53.3841,81.311
513.608,28.1765,-7.54371,0,3.20214,8.7035,-1.90404,22.1951,-16.189,73.4146,-38.1622,0.282612,-6.09772,128.232,-58.1402,75.4573
513.618,28.8683,-7.56181,0,4.49785,8.23887,-1.79866,21.5854,-19.1768,69.6646,-36.9552,0.675395,-5.39837,130.457,-62.622,70.1524
513.628,29.6317,-7.57897,0,5.57321,7.8389,-1.51605,20.9146,-20.0915,64.5427,-36.045,1.0586,-5.26425,129.665,-63.4451,65.6098
513.638,30.4132,-7.58357,0,6.3468,7.50599,-1.34361,21.0061,-17.2561,58.1402,-35.6618,1.4897,-5.01517,125.03,-62.6524,63.8415
513.648,31.1726,-7.57671,0,6.5384,7.22338,-1.20469,22.5305,-8.07927,53.5366,-35.6906,1.71004,-4.83315,117.47,-60.9146,59.4207
513.658,31.91,-7.55958,0,6.67971,7.09405,-0.989143,26.4329,4.17683,50.5488,-35.9013,2.20821,-4.67987,108.323,-57.1037,57.561
513.668,32.6173,-7.53254,0,6.46655,6.79946,-0.749641,30.1524,14.0549,48.3841,-36.3229,2.50519,-4.56491,97.3171,-57.8659,55.3963
513.678,33.3022,-7.54404,0,6.3013,6.45218,-0.66821,33.8415,20.4268,46.0061,-36.9456,2.63931,-5.26425,86.4024,-57.8659,53.1402
513.688,33.9278,-7.57552,0,6.19113,6.39231,-0.747246,36.189,24.3598,41.8293,-37.1755,3.2237,-5.63788,76.2805,-57.4695,49.7866
513.698,34.458,-7.61864,0,5.82469,6.55996,-0.845442,37.5,26.8598,38.4451,-37.0797,3.4153,-5.83906,66.7073,-57.5305,43.3841
513.708,34.9116,-7.68017,0,5.50136,6.61504,-0.843047,38.689,28.4146,35.4878,-36.4378,3.6069,-6.0594,55.9451,-54.3902,37.7744
513.718,35.2868,-7.79525,0,5.13971,6.57193,-0.924478,39.4512,30.6402,31.9207,-36.0738,3.64522,-6.90245,46.7988,-49.6951,30.4878
513.728,35.5568,-7.92069,0,4.82836,6.71563,-1.13763,38.7805,32.0732,26.6768,-35.8055,3.48236,-7.07489,35.9146,-43.2622,19.8476
513.738,35.7125,-8.05876,0,4.29427,6.70605,-1.05141,36.4329,29.4512,21.8598,-35.4319,3.24286,-7.26649,26.0061,-36.8598,11.4024
513.748,35.822,-8.26325,0,4.43318,6.74198,-0.778381,33.3232,25.122,16.0366,-34.8667,2.48603,-8.28198,15.7317,-28.1707,2.34756
513.758,35.8687,-8.47281,0,4.57209,6.84976,-0.476609,30.4878,19.2073,9.05488,-35.1733,2.29443,-8.55022,7.10366,-21.7683,-5.70122
513.768,35.8765,-8.67292,0,4.78764,6.76354,-0.251477,28.628,13.3537,2.71341,-35.1349,2.20821,-8.50232,-1.85976,-15.6098,-13.0183
513.778,36.0101,-8.86366,0,5.16845,6.55996,-0.138911,27.9878,9.96951,-1.40244,-35.8151,1.93039,-8.62686,-8.93293,-10.8232,-18.4756
513.788,36.0552,-9.04621,0,5.51094,6.47374,-0.0143701,28.1098,6.79878,-4.87805,-36.3803,1.59508,-8.74182,-14.1768,-7.65244,-22.0427
513.798,36.1367,-9.23251,0,6.08574,6.25579,0.0622705,28.0488,6.52439,-8.35366,-37.3479,1.57592,-9.15376,-22.1341,-4.14634,-23.6585
513.808,36.2473,-9.39254,0,6.52403,6.0115,0.205972,27.6524,6.0061,-11.5854,-38.0473,1.31726,-8.98132,-27.7744,-1.70732,-26.4634
513.818,36.3724,-9.54304,0,6.90245,5.94923,0.402363,28.9939,5.51829,-13.75,-38.8041,1.14482,-9.10586,-33.4146,-2.62195,-28.4451
513.828,36.5159,-9.71815,0,7.34073,5.8678,0.55325,30.7012,7.2561,-15.9451,-39.2831,1.17356,-9.77647,-37.1037,-2.10366,-30.5488
513.838,36.6447,-9.91095,0,7.52755,6.00671,0.58199,33.0183,9.90854,-17.2561,-38.8807,1.19272,-10.1214,-40.3963,-0.914634,-32.0732
513.848,36.7618,-10.0839,0,7.6449,6.29411,0.546064,32.7439,10.7622,-16.4024,-38.8233,1.43222,-9.88185,-41.8293,-0.518293,-32.9878
513.858,36.8769,-10.2452,0,7.82213,6.57433,0.58678,29.7256,7.07317,-15.1829,-38.852,1.40348,-9.80521,-40.2134,-1.15854,-34.6341
513.868,36.9996,-10.3827,0,8.2245,7.11081,0.584385,26.4024,3.14024,-12.5305,-39.1011,1.46096,-9.54655,-40.3963,-0.945122,-35.8537
513.878,37.1323,-10.509,0,8.78014,7.94428,-0.0239502,20.8841,-2.2561,-8.62805,-39.1777,1.52802,-9.46991,-39.5122,-3.23171,-33.5366
513.888,37.304,-10.6191,0,9.01485,7.97062,-0.783171,11.0976,-2.19512,-5.73171,-39.5322,1.83458,-9.35495,-40.0915,-5.09146,-32.1037
513.898,37.5206,-10.7153,0,9.08191,7.50839,-1.17356,3.87195,-0.670732,-4.72561,-39.6472,1.93997,-9.22083,-41.3415,-8.68902,-31.128
513.908,37.7681,-10.8221,0,8.8975,6.92879,-1.39869,2.31707,0.365854,-4.60366,-39.8196,2.52435,-9.53697,-43.2622,-11.3415,-24.1159
513.918,38.0113,-10.9265,0,8.67955,6.66773,-1.3963,5.73171,3.53659,-5.27439,-40.0112,3.23328,-9.62319,-44.6646,-13.4146,-17.4695
513.928,38.2324,-11.0542,0,8.48795,6.65815,-1.13045,10.1524,6.55488,-5.82317,-40.1741,3.98052,-10.1788,-48.5366,-13.5366,-9.26829
513.938,38.422,-11.2202,0,8.42089,6.72282,-0.941243,15.4573,10.4878,-7.53049,-40.0591,4.74693,-10.9548,-53.6585,-9.57317,-3.20122
513.948,38.5497,-11.4069,0,7.9826,6.7827,-0.713716,18.5976,15.8232,-9.87805,-40.0591,5.36005,-11.453,-58.0793,-4.32927,2.0122
513.958,38.6026,-11.548,0,7.32157,6.79707,-0.395178,19.878,19.9085,-12.1037,-40.4231,5.85822,-10.8111,-61.9817,-0.365854,7.62195
513.968,38.5707,-11.5899,0,6.83539,7.08926,-0.129331,20.7012,24.5122,-14.1768,-41.8793,6.22226,-9.37411,-65.6707,-2.2561,10.4573
513.978,38.396,-11.5561,0,6.36117,7.92512,-0.0766406,20.3354,27.622,-18.2012,-44.0348,5.55166,-8.37778,-63.2317,-7.22561,11.1585
513.988,38.0507,-11.5277,0,5.9636,9.20166,0.102986,19.3293,26.0366,-24.1159,-45.9892,5.20677,-8.83762,-57.378,-7.59146,13.3537
513.998,37.578,-11.5432,0,5.73607,10.198,0.407153,19.9085,16.8598,-30.4878,-48.2022,3.93262,-10.1788,-46.5244,-1.28049,12.1037
514.008,37.069,-11.5702,0,5.64746,10.5046,1.08494,21.8598,-4.93902,-32.9268,-49.3326,2.31359,-10.6195,-33.7805,15.6707,11.5549
514.018,36.6477,-11.4993,0,6.09053,10.6962,1.42025,16.4939,-30.3354,-27.8659,-49.4955,0.579595,-8.39694,-17.7744,30.6098,11.9512
514.028,36.4772,-11.3311,0,7.81016,10.2938,0.881367,11.9207,-50.1524,-18.5061,-50.1757,-0.752036,-6.24142,-2.68293,32.4085,10.4573
514.038,36.4656,-11.1784,0,8.7059,10.2698,-0.59157,11.6159,-49.2683,-8.96341,-49.9074,-2.30401,-6.3947,15.3659,35.0305,6.4939
514.048,36.3961,-11.0025,0,7.75747,11.3548,-1.2526,-6.12805,-52.9573,-2.7439,-50.032,-4.14338,-5.7241,33.5976,42.5915,-4.17683
514.058,36.1712,-10.8381,0,5.66183,11.362,-1.13763,-25.0915,-51.9817,-2.56098,-48.6141,-4.42121,-5.60914,44.0244,54.4512,-15.5488
514.068,35.7742,-10.687,0,3.53984,9.74533,-0.802332,-14.7561,-35.4573,-7.40854,-46.3915,-3.83682,-5.41753,50.5793,72.9573,-24.9695
514.078,35.1045,-10.4809,0,1.50886,9.20406,-2.01661,-0.97561,-6.67683,-14.3293,-45.4144,-2.76385,-3.99968,45.061,90.4878,-31.128
514.088,34.0406,-10.2202,0,-1.34121,9.7597,-2.19384,-5.42683,8.56707,-20.9451,-45.0216,-2.10283,-2.67763,35.8232,99.8476,-34.7256
514.098,32.7516,-9.89811,0,-3.05844,9.64474,-1.26697,-5.33537,-8.84146,-26.1585,-45.309,-0.866997,-1.27894,31.7378,95.0305,-41.7378
514.108,31.4579,-9.43828,0,-2.96743,10.0184,-2.04056,-5.54878,-40.6098,-31.4939,-46.5927,-0.349673,1.71004,30.7622,78.4146,-48.9024
514.118,30.275,-8.86855,0,-1.42504,10.3561,-3.82724,-11.6463,-68.6585,-40.5183,-47.886,-0.857417,4.37331,31.7988,54.4207,-59.5732
514.128,29.1722,-8.16246,0,0.117356,10.6099,-4.67987,-12.9268,-83.9329,-52.0427,-48.001,-0.790356,7.71675,26.0366,34.5427,-70.4268
514.138,28.1155,-7.40588,0,1.32924,11.3189,-4.46911,-14.2988,-86.2805,-61.9512,-47.0621,-0.886157,9.17292,13.5976,17.4085,-78.9024
514.148,27.0855,-6.57217,0,2.17707,11.4506,-3.68354,-18.628,-83.5976,-69.6951,-46.0275,-0.407153,11.1943,-7.77439,4.45122,-79.939
514.158,26.1329,-5.62467,0,3.04886,10.8279,-3.47996,-21.0671,-72.1951,-74.0244,-46.6598,3.34824,14.4994,-41.0061,-18.5976,-74.6646
514.168,25.3051,-4.89021,0,4.03321,9.73336,-3.33866,-17.3476,-53.0793,-77.0732,-39.0628,0.847837,8.95258,-48.9634,-2.80488,-64.5122
514.178,24.5433,-4.19234,0,4.35175,8.80649,-3.13508,-10.8841,-34.3293,-79.7561,-37.5108,1.2981,8.44484,-69.7561,-9.14634,-49.2073
514.188,23.7802,-3.54295,0,4.19607,8.41131,-3.01772,-5.36585,-18.2317,-81.8902,-36.1792,1.92081,7.77423,-85.0915,-15.9756,-31.9512
514.198,22.9721,-3.00721,0,3.70749,8.24126,-2.94587,0.121951,-6.79878,-83.3537,-35.3936,2.32317,6.17436,-100.244,-18.2317,-17.3476
514.208,22.1061,-2.55548,0,3.11113,8.22929,-2.67045,3.90244,-2.31707,-83.75,-35.0583,1.80584,5.11097,-111.311,-21.3415,-9.81707
514.218,21.1163,-2.21424,0,2.07888,8.49034,-2.57944,6.18902,-1.98171,-83.9634,-35.3265,0.598755,3.67396,-115.152,-25.122,-8.2622
514.228,20.0222,-1.92498,0,1.04662,8.88552,-2.5962,7.46951,-4.20732,-82.2561,-35.7864,-0.771196,3.09916,-113.476,-28.4451,-15.122
514.238,18.9157,-1.73091,0,0.673001,9.07712,-2.65368,7.22561,-9.17683,-80.7012,-36.2654,-2.45729,1.78668,-110.945,-31.3415,-24.8171
514.248,17.8278,-1.61176,0,0.531694,9.34776,-2.48364,6.82927,-12.9268,-79.0549,-36.821,-4.30625,0.723296,-103.018,-30.8232,-35.8537
514.258,16.7488,-1.5246,0,0.301772,9.55852,-2.34951,5.09146,-18.689,-77.4085,-37.0701,-5.9636,0.282612,-94.7561,-30.8232,-45.0305
514.268,15.6966,-1.49217,0,0.193997,9.7142,-2.28485,2.5,-27.439,-75.5183,-36.8785,-7.33355,-0.550855,-85.6098,-30.3354,-52.0732
514.278,14.6775,-1.47222,0,0.256267,9.64714,-2.09804,-0.914634,-37.9268,-75.061,-36.6486,-7.99458,-0.723296,-80,-28.7195,-56.4024
514.288,13.6868,-1.4827,0,0.227527,9.72138,-1.95194,-4.2378,-51.7683,-73.8719,-36.2079,-8.91426,-1.19272,-75.5183,-30.2744,-58.9329
514.298,12.773,-1.49094,0,0.598755,9.78126,-2.12438,-7.10366,-66.4329,-72.4695,-36.0738,-9.02922,-1.16398,-69.8171,-31.7988,-61.189
514.308,11.9813,-1.54442,0,1.38432,9.6184,-2.42855,-10.4878,-78.2317,-71.4329,-35.0296,-8.45442,-1.84417,-62.7439,-34.7866,-58.9939
514.318,11.3117,-1.62306,0,2.09085,9.24478,-2.65608,-12.4085,-85.3354,-69.8781,-34.426,-7.73591,-2.22737,-51.5244,-34.6341,-56.4329
514.328,10.7045,-1.68677,0,2.3088,8.92384,-2.71835,-12.2256,-88.1098,-68.4756,-33.0752,-6.72042,-1.97829,-42.0427,-38.628,-49.3293
514.338,10.1603,-1.80224,0,2.51717,8.81367,-2.75427,-11.189,-86.189,-66.2195,-32.7687,-5.93486,-2.75427,-33.1098,-40.7622,-41.7988
514.348,9.67329,-1.92689,0,2.7399,8.66758,-2.62734,-10.9451,-81.9512,-64.7561,-32.7878,-5.41753,-2.95545,-21.8902,-40.5488,-35.1829
514.358,9.21471,-2.04162,0,2.81654,8.52627,-2.5028,-9.54268,-76.4329,-64.3598,-33.0369,-5.36005,-2.90755,-9.96951,-41.5244,-32.1037
514.368,8.74526,-2.11206,0,2.62255,8.38496,-2.50519,-8.53659,-70.3049,-64.5427,-33.4584,-5.34089,-2.36149,-0.518293,-43.811,-30.5183
514.378,8.28807,-2.1732,0,2.56507,8.41131,-2.60099,-9.54268,-65.2744,-63.4146,-34.0811,-5.58998,-2.31359,4.60366,-45.9451,-30.2744
514.388,7.85055,-2.23469,0,2.60818,8.32509,-2.63213,-9.32927,-59.5427,-63.2317,-34.2727,-5.97318,-2.37107,9.35976,-46.7988,-31.6159
514.398,7.40449,-2.30342,0,2.52675,8.36101,-2.62734,-9.17683,-53.5366,-63.811,-34.6176,-6.08814,-2.54351,13.75,-46.8902,-31.6159
514.408,6.92795,-2.35818,0,2.30161,8.62926,-2.63692,-9.81707,-48.628,-63.9939,-34.1578,-6.09772,-2.33275,16.5549,-44.5732,-31.4024
514.418,6.48985,-2.44746,0,2.67284,8.95498,-2.61776,-9.84756,-45.1829,-64.4817,-33.947,-6.03066,-2.85965,16.4024,-40.8841,-27.9878
514.428,6.06632,-2.54932,0,2.73032,8.98132,-2.82373,-10.2744,-42.0427,-64.4817,-33.7746,-6.1552,-3.08,14.6341,-38.5671,-26.1585
514.438,5.68892,-2.69517,0,2.88121,8.76577,-2.91953,-11.7073,-36.3415,-63.2622,-33.7267,-6.59588,-3.78892,11.8598,-35.8232,-24.3598
514.448,5.36762,-2.83636,0,3.05125,8.39933,-2.7902,-11.8598,-32.3171,-61.9207,-33.6692,-6.74917,-3.7985,6.67683,-35.6402,-23.0183
514.458,5.07854,-3.01116,0,3.1279,8.44963,-2.66805,-11.4939,-30.6402,-60,-33.4009,-6.52882,-4.34457,-0.335366,-32.4085,-19.9695
514.468,4.81296,-3.22854,0,3.26441,8.62926,-2.63692,-12.439,-26.1585,-59.0244,-32.9411,-5.71452,-5.00559,-6.67683,-28.2317,-16.0366
514.478,4.51235,-3.46723,0,2.91474,8.7059,-2.43094,-14.2988,-18.9024,-58.628,-32.4908,-4.85231,-5.36005,-12.5915,-22.5915,-8.2622
514.488,4.19724,-3.73165,0,2.5986,8.68195,-2.38304,-13.9939,-11.4024,-56.9512,-32.2705,-4.43079,-5.82948,-17.5915,-19.2073,0.335366
514.498,3.8613,-4.04983,0,2.38544,8.76098,-2.50998,-12.0122,-3.90244,-56.7988,-31.9065,-3.6069,-6.6821,-22.5305,-12.5305,11.189
514.508,3.4824,-4.44723,0,1.93518,8.84241,-2.45969,-7.9878,1.7378,-55.9756,-31.8394,-3.4153,-7.99458,-27.622,-1.98171,20.1524
514.518,3.07799,-4.88897,0,1.67172,9.26633,-2.78541,-5.15244,5,-55.0305,-32.1268,-3.29076,-8.943,-29.5427,9.45122,29.7561
514.528,2.65651,-5.23027,0,1.50886,9.60882,-3.00335,-4.32927,5.39634,-54.939,-33.0561,-3.83682,-7.88919,-31.7378,17.0732,36.4024
514.538,2.26555,-5.40654,0,1.75794,9.64714,-3.14466,-5.12195,5.30488,-55.5488,-34.3877,-4.78525,-5.8199,-37.439,15.2744,39.0244
514.549,1.9295,-5.47729,0,2.20102,9.53697,-3.0273,-7.13415,2.65244,-56.189,-36.5528,-5.14929,-4.58407,-44.878,9.11585,39.1768
514.558,1.67093,-5.50321,0,2.67763,9.41482,-2.86923,-8.81098,-1.52439,-54.8476,-38.5167,-5.41753,-4.12422,-48.6585,4.05488,37.622
514.568,1.49824,-5.51423,0,3.13508,9.35734,-2.56507,-9.57317,-3.38415,-52.0122,-40.4998,-5.26425,-4.0859,-52.1951,4.17683,36.6159
514.578,1.35055,-5.5662,0,3.01772,9.44596,-2.22258,-8.81098,-5.42683,-48.1707,-42.0422,-5.52291,-5.00559,-53.7195,7.43902,37.0732
514.588,1.2329,-5.65016,0,2.82133,9.68067,-1.81063,-7.95732,-7.0122,-42.4085,-43.1822,-5.84864,-5.76242,-50.4268,17.2866,37.9878
514.598,1.1216,-5.76231,0,2.40699,10.1621,-1.54,-8.29268,-10.3049,-36.0366,-44.3605,-6.48092,-6.50008,-47.9268,29.5122,38.0183
514.608,1.0729,-5.96186,0,2.50519,10.5141,-1.91362,-10.7317,-9.93902,-30.0305,-44.0444,-7.31439,-8.23408,-47.4085,42.8659,35.4573
