time,angle1,angle2,intgangle,accX1,accY1,accZ1,gyroX1,gyroY1,gyroZ1,accX2,accY2,accZ2,gyroX2,gyroY2,gyroZ2
672.591,87.3823,0.487426,0,9.8076,0.356858,-0.421523,-0.548781,-1.37195,-1.58537,-39.446,-2.65847,0.0910107,-11.4634,-6.82927,7.5
672.601,87.3915,0.466055,0,9.78126,0.337698,-0.426313,-0.884146,-1.52439,-1.18902,-39.3598,-2.39023,-0.0526904,-11.128,-4.93902,6.46341
672.611,87.4038,0.470832,0,9.81958,0.325723,-0.409548,-0.701219,-1.67683,-1.12805,-39.3693,-2.52435,0.387993,-12.3476,-4.45122,6.46341
672.621,87.4144,0.47346,0,9.84114,0.313748,-0.423918,-1.09756,-1.55488,-1.31098,-39.264,-2.48603,0.359253,-12.5915,-2.62195,5.88415
672.631,87.4327,0.456577,0,9.8124,0.273032,-0.414338,-1.09756,-1.64634,-1.28049,-39.4747,-2.39981,0.0239502,-14.5427,-2.5,6.34146
672.642,87.4481,0.436305,0,9.80521,0.265847,-0.419128,-0.579268,-1.64634,-1.46341,-39.264,-2.44771,-0.0431104,-14.4207,-1.52439,6.25
672.651,87.4656,0.413839,0,9.84114,0.263452,-0.479004,-0.731707,-1.37195,-1.34146,-39.4076,-2.52435,-0.100591,-15,-3.07927,6.70732
672.661,87.4771,0.418966,0,9.90101,0.277822,-0.498164,-0.365854,-0.823171,-1.4939,-39.2927,-2.53393,0.359253,-15,-3.93293,7.40854
672.671,87.4846,0.427071,0,9.8603,0.263452,-0.546064,-0.304878,-0.701219,-1.85976,-39.3023,-2.65847,0.416733,-15.5183,-3.2622,6.92073
672.681,87.4823,0.426807,0,9.88904,0.313748,-0.541274,-0.0914634,0.243902,-2.0122,-39.149,-2.65847,0.273032,-17.1037,-4.20732,6.67683
672.691,87.4785,0.445781,0,9.84114,0.316143,-0.524509,-0.0609756,0.365854,-2.10366,-39.3023,-2.64889,0.608335,-16.7378,-3.87195,7.37805
672.701,87.4704,0.447875,0,9.83395,0.328118,-0.536484,0.27439,0.731707,-2.31707,-39.2831,-2.64889,0.330513,-16.0366,-3.35366,7.19512
672.711,87.4679,0.470292,0,9.82197,0.308958,-0.512534,0.243902,0.97561,-2.10366,-39.4172,-2.69679,0.684976,-16.1585,-3.71951,6.61585
672.721,87.4589,0.49027,0,9.83156,0.356858,-0.514929,0.27439,1.12805,-2.07317,-39.2735,-2.58183,0.656235,-15.9146,-3.53659,6.92073
672.731,87.4486,0.490065,0,9.79803,0.349673,-0.507744,0.457317,1.28049,-2.28659,-39.2735,-2.43813,0.320933,-17.1951,-3.41463,7.71341
672.741,87.4376,0.51598,0,9.8124,0.371228,-0.546064,0.762195,1.7378,-2.10366,-39.3502,-2.44771,0.771196,-16.128,-4.39024,5.42683
672.752,87.428,0.519485,0,9.82677,0.387993,-0.483794,1.12805,1.67683,-1.79878,-39.3214,-2.76385,0.397573,-18.4756,-5.09146,6.58537
672.761,87.4128,0.539487,0,9.85072,0.411943,-0.514929,0.945122,1.82927,-2.0122,-39.3023,-2.62015,0.684976,-17.8049,-5.27439,7.37805
672.772,87.402,0.54079,0,9.8124,0.399968,-0.474214,0.853659,1.92073,-1.79878,-39.2352,-2.57225,0.368833,-16.7683,-6.82927,7.13415
672.781,87.3896,0.545546,0,9.8076,0.414338,-0.469424,1.0061,1.98171,-1.76829,-39.4747,-2.60099,0.435894,-17.378,-5.70122,7.07317
672.791,87.3854,0.541113,0,9.80521,0.378413,-0.464634,0.762195,1.61585,-1.58537,-39.2448,-2.59141,0.273032,-19.0549,-7.07317,6.18902
672.801,87.3817,0.554004,0,9.8076,0.361648,-0.407153,0.579268,1.89024,-1.76829,-39.2544,-2.48603,0.570015,-18.6585,-7.0122,6.28049
672.811,87.378,0.561287,0,9.78844,0.366438,-0.373623,0.823171,1.85976,-1.70732,-39.2735,-2.59141,0.483794,-17.9573,-6.4939,6.89024
672.821,87.3732,0.57632,0,9.80281,0.359253,-0.376018,0.701219,1.89024,-1.89024,-39.1298,-2.51477,0.617915,-18.4451,-7.31707,7.0122
672.831,87.3709,0.569526,0,9.79803,0.359253,-0.376018,0.426829,1.61585,-1.70732,-39.3406,-2.73511,0.253872,-16.7073,-7.07317,5.67073
672.841,87.3664,0.562869,0,9.8076,0.364043,-0.364043,0.335366,1.82927,-1.82927,-39.149,-2.61057,0.253872,-16.7378,-6.03659,6.40244
672.851,87.3622,0.537472,0,9.8124,0.354463,-0.397573,0.0609756,1.28049,-1.92073,-39.2544,-2.58183,-0.0718506,-17.5915,-5.33537,7.13415
672.861,87.3645,0.5421,0,9.78605,0.332908,-0.330513,0.121951,1.25,-1.70732,-39.1873,-2.62015,0.435894,-16.311,-3.44512,6.15854
672.871,87.3651,0.537042,0,9.78844,0.342488,-0.342488,0.396341,1.03659,-1.70732,-39.3119,-2.57225,0.273032,-16.9512,-3.32317,7.37805
672.881,87.3626,0.516156,0,9.79323,0.354463,-0.296982,0.426829,0.823171,-1.79878,-39.2256,-2.41897,-0.00479004,-16.3415,-3.35366,7.68293
672.892,87.3646,0.519403,0,9.76689,0.342488,-0.356858,0.365854,0.914634,-1.61585,-39.1681,-2.43813,0.397573,-16.0976,-3.35366,7.46951
672.901,87.3647,0.518509,0,9.77168,0.337698,-0.340093,0.304878,0.853659,-1.79878,-39.2352,-2.48603,0.330513,-15.2744,-2.86585,7.43902
672.911,87.3615,0.498308,0,9.78605,0.361648,-0.431104,0.152439,0.426829,-1.76829,-39.2065,-2.52435,-0.00479004,-15.7622,-3.10976,7.56098
672.921,87.3519,0.503283,0,9.77168,0.390388,-0.373623,-0.243902,0.396341,-1.92073,-39.1969,-2.45729,0.416733,-14.7866,-2.9878,6.7378
672.931,87.3504,0.522266,0,9.79803,0.373623,-0.359253,-0.0609756,0.365854,-1.52439,-39.264,-2.62015,0.665815,-14.7561,-2.2561,7.56098
672.942,87.3469,0.518421,0,9.77886,0.383203,-0.368833,-0.0914634,-0.213415,-1.55488,-39.4556,-2.66805,0.282612,-14.1159,-2.9878,6.67683
672.951,87.3455,0.530928,0,9.81479,0.371228,-0.335303,-0.182927,-0.304878,-1.55488,-39.5609,-2.47645,0.570015,-14.1768,-1.76829,8.23171
672.961,87.3447,0.561371,0,9.81,0.371228,-0.397573,-0.304878,-0.487805,-1.52439,-39.3789,-2.51477,0.886157,-14.8171,-2.13415,8.38415
672.971,87.3431,0.56806,0,9.82437,0.383203,-0.368833,-0.0304878,-0.609756,-1.43293,-39.4651,-2.64889,0.493374,-14.7866,-2.83537,8.32317
672.982,87.3475,0.589055,0,9.81,0.340093,-0.361648,-0.457317,-0.670732,-1.52439,-39.4843,-2.52435,0.742456,-14.3293,-4.2378,9.05488
672.991,87.3429,0.586518,0,9.82437,0.373623,-0.380808,-0.701219,-0.762195,-1.76829,-39.3598,-2.41897,0.349673,-15.0305,-3.23171,7.9878
673.002,87.3445,0.577462,0,9.79563,0.337698,-0.313748,-0.640244,-0.579268,-1.7378,-39.149,-2.51477,0.234712,-14.2378,-2.89634,8.71951
673.011,87.3464,0.579995,0,9.79563,0.337698,-0.397573,-0.27439,-0.579268,-1.70732,-39.034,-2.40939,0.426313,-13.3232,-3.17073,7.9878
673.021,87.3469,0.575213,0,9.76449,0.352068,-0.452659,-0.396341,-0.152439,-1.64634,-38.9286,-2.46687,0.301772,-14.2988,-3.04878,7.71341
673.031,87.3498,0.571666,0,9.78366,0.328118,-0.387993,-0.579268,-0.182927,-1.7378,-38.9765,-2.35191,0.320933,-14.0854,-2.80488,7.46951
673.041,87.3462,0.569326,0,9.7597,0.368833,-0.445474,-0.548781,-0.243902,-1.7378,-39.0628,-2.29443,0.340093,-14.8476,-2.77439,7.9878
673.051,87.3475,0.574908,0,9.82677,0.368833,-0.328118,-0.426829,-0.0609756,-1.40244,-39.2065,-2.36149,0.483794,-14.878,-0.670732,7.5
673.061,87.3478,0.594148,0,9.79803,0.366438,-0.399968,-0.0609756,0.182927,-1.4939,-39.1969,-2.39981,0.723296,-14.939,-0.731707,7.28659
673.072,87.3456,0.565775,0,9.81719,0.376018,-0.426313,-0.335366,-0.213415,-1.55488,-39.2448,-2.29443,-0.0814307,-15.6707,0.701219,7.2561
673.081,87.3494,0.566095,0,9.84353,0.354463,-0.411943,-0.396341,-0.304878,-1.40244,-39.4747,-2.18905,0.397573,-15.4573,0.640244,7.04268
673.091,87.3492,0.576501,0,9.81719,0.368833,-0.438289,-0.27439,-0.213415,-1.4939,-39.3214,-2.30401,0.570015,-15.5183,0.335366,5.64024
673.102,87.3503,0.587929,0,9.82916,0.361648,-0.450264,-0.213415,-0.121951,-1.4939,-39.3406,-2.39981,0.589175,-15.8841,-1.43293,5.57927
673.111,87.3515,0.590603,0,9.8076,0.373623,-0.373623,-0.335366,-0.0914634,-1.34146,-39.4939,-2.31359,0.445474,-15.4878,-1.85976,5.51829
673.121,87.3479,0.574979,0,9.79084,0.376018,-0.411943,-0.0914634,-0.121951,-1.64634,-39.5609,-2.45729,0.129331,-15.5793,-1.76829,5
673.131,87.3542,0.583089,0,9.79803,0.342488,-0.471819,0.0304878,0,-1.37195,-39.5322,-2.46687,0.531694,-16.3415,-1.85976,5.94512
673.141,87.3587,0.579377,0,9.81479,0.354463,-0.385598,0.0914634,0.243902,-1.34146,-39.3406,-2.37107,0.330513,-15.8232,-1.61585,5.70122
673.151,87.3625,0.57728,0,9.81719,0.354463,-0.428708,-0.0304878,0.213415,-1.37195,-39.3693,-2.33275,0.359253,-15.6402,-0.731707,6.31098
673.161,87.3629,0.589962,0,9.81479,0.347278,-0.419128,0.0304878,-0.0609756,-1.67683,-39.5226,-2.46687,0.608335,-17.1951,-3.17073,5.85366
673.171,87.3632,0.582907,0,9.8124,0.342488,-0.402363,0.304878,0.0914634,-1.7378,-39.3119,-2.30401,0.273032,-17.2866,-2.80488,5.82317
673.182,87.3601,0.586905,0,9.82197,0.371228,-0.474214,0.243902,0.579268,-1.64634,-39.6088,-2.47645,0.464634,-16.8293,-2.37805,6.31098
673.191,87.359,0.590188,0,9.80521,0.354463,-0.364043,0.304878,0.457317,-1.70732,-39.4843,-2.39023,0.455054,-16.189,-1.92073,5.2439
673.201,87.3578,0.589617,0,9.81958,0.376018,-0.402363,0,0.579268,-1.46341,-39.446,-2.60099,0.387993,-16.2195,-2.46951,4.48171
673.211,87.3612,0.579237,0,9.8124,0.354463,-0.385598,0.243902,0.457317,-1.40244,-39.4939,-2.38065,0.215552,-16.3415,-2.9878,4.26829
673.221,87.3594,0.562185,0,9.78126,0.368833,-0.385598,0.182927,0.487805,-1.58537,-39.3598,-2.47645,0.0910107,-15.4268,-3.2622,4.35976
673.231,87.3649,0.548681,0,9.8124,0.330513,-0.414338,0.0304878,0.365854,-1.52439,-39.3981,-2.43813,0.138911,-16.128,-3.87195,4.17683
673.241,87.3695,0.532897,0,9.80042,0.335303,-0.356858,0.243902,0.335366,-1.52439,-39.3693,-2.31359,0.0910107,-15.1829,-3.56707,3.56707
673.251,87.3787,0.524592,0,9.83395,0.318538,-0.349673,0.365854,0.0609756,-1.40244,-39.4076,-2.41897,0.205972,-16.372,-4.78659,4.2378
673.261,87.3784,0.517077,0,9.78605,0.354463,-0.397573,0.365854,0.213415,-1.61585,-39.2544,-2.50519,0.215552,-16.4634,-4.08537,4.69512
673.272,87.3821,0.50341,0,9.80281,0.337698,-0.426313,0.304878,-0.121951,-1.52439,-39.1969,-2.50519,0.100591,-16.7988,-5.03049,4.57317
673.281,87.389,0.493147,0,9.79084,0.318538,-0.376018,-0.0914634,0.152439,-1.52439,-39.4172,-2.51477,0.158071,-16.1585,-2.92683,5.06098
673.291,87.39,0.483898,0,9.82437,0.344883,-0.404758,0.27439,0.152439,-1.61585,-39.1681,-2.50519,0.167651,-15.8841,-2.89634,4.7561
673.301,87.3873,0.476567,0,9.81719,0.337698,-0.354463,0.0609756,0,-1.95122,-39.2256,-2.45729,0.196392,-15.4573,-2.40854,4.54268
673.311,87.3898,0.482837,0,9.8124,0.349673,-0.325723,0.121951,0.182927,-1.46341,-39.216,-2.28485,0.426313,-15.6707,-2.43902,4.20732
673.321,87.3891,0.475153,0,9.79323,0.335303,-0.352068,0.0304878,-0.0609756,-1.82927,-39.3885,-2.47645,0.186812,-14.6951,-3.44512,4.02439
673.331,87.3873,0.455943,0,9.82677,0.359253,-0.376018,-0.121951,-0.152439,-1.64634,-39.2735,-2.44771,-0.0143701,-15.1524,-2.22561,3.17073
673.341,87.3852,0.443427,0,9.78126,0.368833,-0.392783,-0.0304878,-0.213415,-1.55488,-39.2256,-2.57225,0.0910107,-14.3293,-1.40244,4.2378
673.351,87.3828,0.443264,0,9.81,0.347278,-0.416733,-0.152439,-0.304878,-1.82927,-39.4076,-2.50519,0.292192,-15.3963,-2.92683,4.39024
673.361,87.3781,0.444685,0,9.82197,0.378413,-0.335303,-0.243902,-0.304878,-1.64634,-39.4556,-2.38065,0.320933,-14.8171,-2.65244,3.68902
673.371,87.3757,0.432319,0,9.80281,0.356858,-0.390388,-0.182927,-0.548781,-1.7378,-39.3119,-2.50519,0.0814307,-15.9756,-2.77439,4.20732
673.381,87.3726,0.450615,0,9.79084,0.366438,-0.385598,-0.457317,-0.426829,-1.67683,-39.3023,-2.42855,0.608335,-14.9085,-1.52439,3.10976
673.391,87.3722,0.466362,0,9.77168,0.342488,-0.364043,-0.27439,-0.518293,-1.76829,-39.5035,-2.48603,0.579595,-14.6341,-1.55488,3.44512
673.401,87.37,0.48215,0,9.81719,0.359253,-0.387993,-0.548781,-0.457317,-1.70732,-39.2256,-2.34233,0.589175,-15.9146,-0.914634,2.71341
673.411,87.3695,0.489003,0,9.79084,0.359253,-0.392783,-0.243902,-0.396341,-1.58537,-39.4268,-2.36149,0.445474,-15.7317,-1.58537,3.35366
673.421,87.3678,0.511572,0,9.77647,0.368833,-0.371228,-0.152439,-0.243902,-1.55488,-39.2735,-2.34233,0.713716,-15.8841,-3.59756,3.23171
673.431,87.3597,0.512227,0,9.83156,0.402363,-0.404758,0.0914634,-0.396341,-1.64634,-39.2927,-2.43813,0.349673,-15.2439,-3.68902,4.39024
673.441,87.3572,0.514487,0,9.81,0.373623,-0.404758,-0.243902,-0.121951,-1.58537,-39.4747,-2.56267,0.378413,-15.7317,-4.05488,3.2622
673.451,87.3505,0.531404,0,9.8076,0.390388,-0.414338,0.0304878,-0.396341,-1.70732,-39.5322,-2.43813,0.637075,-14.6341,-3.71951,4.2378
673.461,87.3474,0.543755,0,9.79563,0.387993,-0.419128,-0.0609756,-0.121951,-1.46341,-39.446,-2.59141,0.570015,-14.9695,-3.10976,4.54268
673.471,87.3482,0.548628,0,9.83395,0.347278,-0.438289,-0.213415,-0.579268,-1.67683,-39.1969,-2.56267,0.445474,-15.3659,-3.17073,5.09146
673.481,87.3519,0.54696,0,9.81479,0.354463,-0.399968,-0.0304878,-0.152439,-1.40244,-39.0053,-2.36149,0.340093,-15.7927,-1.40244,4.35976
673.491,87.3541,0.549744,0,9.8124,0.354463,-0.440684,0.213415,-0.487805,-1.4939,-39.1203,-2.39023,0.416733,-15.2439,-1.40244,4.17683
673.501,87.3555,0.538882,0,9.8076,0.361648,-0.407153,0.0304878,-0.548781,-1.46341,-39.0723,-2.39023,0.186812,-15.3049,-0.304878,3.71951
673.511,87.3492,0.53582,0,9.82916,0.390388,-0.380808,0.0304878,-0.457317,-1.67683,-39.331,-2.47645,0.311353,-16.311,-1.61585,3.17073
673.521,87.3507,0.540256,0,9.82677,0.359253,-0.402363,-0.0304878,-0.518293,-1.4939,-39.2448,-2.49561,0.435894,-16.6159,-2.31707,4.11585
673.531,87.3485,0.540596,0,9.80521,0.385598,-0.431104,-0.152439,-0.304878,-1.43293,-39.2352,-2.45729,0.368833,-15.2439,-2.07317,2.89634
673.542,87.3488,0.528585,0,9.8076,0.371228,-0.364043,0.365854,-0.121951,-1.43293,-39.3693,-2.29443,0.158071,-15.9451,-1.46341,3.07927
673.551,87.3494,0.546251,0,9.82916,0.359253,-0.447869,0.0304878,-0.121951,-1.55488,-39.3789,-2.45729,0.665815,-16.0671,-1.21951,4.08537
673.561,87.3581,0.541962,0,9.8076,0.340093,-0.455054,-0.0609756,0.27439,-1.25,-39.1969,-2.71595,0.301772,-15.6707,0.640244,3.75
673.571,87.3716,0.538499,0,9.84114,0.330513,-0.383203,0.0609756,0.0609756,-1.06707,-39.2352,-2.66805,0.311353,-15.8232,0.0304878,4.05488
673.582,87.381,0.545335,0,9.8124,0.335303,-0.419128,-0.243902,-0.426829,-1.21951,-39.2831,-2.58183,0.493374,-15.6402,1.70732,3.17073
673.591,87.3817,0.544484,0,9.8076,0.371228,-0.414338,-0.0914634,-0.27439,-1.34146,-39.1681,-2.44771,0.359253,-15.7012,0.335366,3.87195
673.602,87.3838,0.529161,0,9.78366,0.349673,-0.426313,-0.182927,-0.0914634,-1.4939,-39.1298,-2.22737,0.110171,-16.128,0.762195,3.04878
673.611,87.393,0.525098,0,9.77407,0.337698,-0.421523,0.0609756,0.0304878,-1.18902,-39.1777,-2.30401,0.292192,-15.5488,0.152439,2.56098
673.621,87.3966,0.520685,0,9.79323,0.347278,-0.402363,0.0914634,0.0304878,-1.40244,-39.4172,-2.41897,0.282612,-15.1829,-0.579268,3.87195
673.631,87.3931,0.508846,0,9.82916,0.383203,-0.414338,0.0304878,0.243902,-1.46341,-39.4172,-2.59141,0.148491,-14.7866,-1.18902,4.29878
673.641,87.3926,0.497195,0,9.81479,0.383203,-0.407153,0.182927,0.243902,-1.25,-39.4172,-2.68721,0.148491,-14.6037,0.243902,4.78659
673.651,87.3964,0.507082,0,9.83395,0.337698,-0.416733,0.152439,0.182927,-1.4939,-39.3885,-2.59141,0.512534,-15.7317,-0.27439,4.57317
673.661,87.4025,0.503951,0,9.83156,0.337698,-0.426313,0.0304878,-0.0609756,-1.34146,-39.5322,-2.58183,0.292192,-16.128,-0.914634,4.81707
673.671,87.4139,0.48876,0,9.83874,0.328118,-0.447869,-0.0609756,-0.335366,-1.12805,-39.5609,-2.54351,0.0814307,-15.9146,-0.487805,4.72561
673.682,87.411,0.482036,0,9.81,0.380808,-0.493374,-0.365854,-0.335366,-1.40244,-39.4843,-2.38065,0.215552,-16.2195,-1.25,4.20732
673.691,87.416,0.477908,0,9.80521,0.330513,-0.433499,-0.0304878,-0.152439,-1.46341,-39.513,-2.52435,0.253872,-15.4878,-1.95122,3.62805
673.701,87.4183,0.457135,0,9.78844,0.337698,-0.423918,0.0304878,0.0304878,-1.55488,-39.4268,-2.59141,-0.0431104,-16.311,-3.23171,4.48171
673.711,87.4141,0.440441,0,9.82677,0.368833,-0.392783,0.0304878,0.243902,-1.64634,-39.3502,-2.39981,0.0143701,-15.7012,-2.95732,4.2378
673.721,87.4169,0.439334,0,9.81719,0.337698,-0.402363,-0.243902,0.426829,-1.52439,-39.3789,-2.62973,0.273032,-15.9146,-3.07927,4.72561
673.731,87.4274,0.444766,0,9.78844,0.316143,-0.387993,-0.0304878,0.335366,-1.28049,-39.3214,-2.60099,0.387993,-16.0061,-2.2561,5.57927
673.741,87.4323,0.438148,0,9.81,0.328118,-0.385598,-0.0304878,0.0914634,-1.46341,-39.3406,-2.67763,0.186812,-16.8598,-1.12805,4.42073
673.752,87.4351,0.433074,0,9.80042,0.323328,-0.423918,-0.0304878,0.213415,-1.64634,-39.2256,-2.48603,0.215552,-15.9146,0.97561,5.4878
673.762,87.4431,0.408876,0,9.78844,0.308958,-0.428708,-0.487805,0.121951,-1.46341,-39.2448,-2.33275,-0.119751,-15.5793,0.640244,3.59756
673.772,87.4487,0.379585,0,9.82437,0.320933,-0.421523,-0.0304878,0.0609756,-1.46341,-39.1203,-2.41897,-0.215552,-16.4634,3.04878,2.59146
673.781,87.4531,0.352057,0,9.81,0.316143,-0.376018,-0.182927,0.0609756,-1.58537,-39.216,-2.39981,-0.205972,-16.9207,2.95732,3.44512
673.791,87.4541,0.33603,0,9.78366,0.328118,-0.435894,-0.213415,-0.152439,-1.67683,-39.1969,-2.47645,-0.0239502,-16.4939,3.56707,3.71951
673.801,87.4577,0.315714,0,9.76689,0.308958,-0.387993,-0.335366,-0.152439,-1.70732,-39.2065,-2.60099,-0.110171,-15.3354,3.23171,1.82927
673.812,87.4537,0.319671,0,9.78126,0.344883,-0.361648,-0.304878,0,-1.82927,-39.1969,-2.46687,0.292192,-16.4024,2.31707,2.2561
673.821,87.4481,0.312905,0,9.80042,0.356858,-0.421523,-0.213415,0.0304878,-1.82927,-39.0532,-2.53393,0.110171,-16.0366,2.59146,2.80488
673.831,87.447,0.301694,0,9.8124,0.352068,-0.419128,-0.121951,0.0304878,-1.55488,-39.3598,-2.69679,0.0335303,-16.7073,3.84146,4.32927
673.841,87.4421,0.303887,0,9.80281,0.337698,-0.404758,-0.335366,0.121951,-2.0122,-39.331,-2.62015,0.263452,-16.2195,5.39634,4.7561
673.851,87.4442,0.283121,0,9.82916,0.311353,-0.407153,-0.27439,0,-1.79878,-39.2448,-2.56267,-0.129331,-14.9695,6.40244,3.90244
673.861,87.444,0.284051,0,9.83874,0.342488,-0.378413,-0.213415,0,-1.61585,-39.2448,-2.67763,0.234712,-16.372,7.28659,4.35976
673.871,87.4423,0.273183,0,9.79323,0.330513,-0.414338,-0.396341,-0.152439,-1.85976,-39.3214,-2.50519,0.0335303,-15.4878,7.92683,4.48171
673.881,87.4382,0.269242,0,9.78605,0.335303,-0.426313,-0.579268,-0.182927,-1.98171,-39.4076,-2.60099,0.148491,-16.189,8.53659,4.05488
673.891,87.4346,0.261473,0,9.78844,0.332908,-0.414338,-0.548781,-0.304878,-1.98171,-39.1777,-2.34233,0.0814307,-16.0671,9.29878,4.17683
673.901,87.4278,0.233622,0,9.79323,0.354463,-0.433499,-0.457317,-0.182927,-1.98171,-39.1969,-2.57225,-0.263452,-17.5305,11.4634,3.59756
673.911,87.4223,0.235972,0,9.78366,0.347278,-0.387993,-0.609756,-0.0304878,-1.98171,-39.0628,-2.41897,0.244292,-18.4146,13.2012,3.71951
673.921,87.4126,0.213669,0,9.79084,0.364043,-0.383203,-0.823171,-0.0609756,-2.13415,-38.9957,-2.48603,-0.177231,-18.0793,13.5061,2.80488
673.931,87.4057,0.201939,0,9.82197,0.352068,-0.383203,-0.914634,0.0304878,-2.07317,-38.7562,-2.68721,-0.00479004,-19.6951,15.2439,1.85976
673.941,87.4076,0.190029,0,9.81479,0.304167,-0.392783,-0.457317,0.121951,-1.95122,-38.7754,-2.67763,-0.00479004,-19.0244,18.5366,1.58537
673.951,87.4015,0.181958,0,9.83874,0.342488,-0.378413,-0.792683,0.0914634,-2.13415,-38.7849,-2.60099,0.0622705,-19.3293,21.372,1.82927
673.961,87.3932,0.156079,0,9.83395,0.361648,-0.383203,-1.09756,-0.213415,-2.10366,-38.4305,-2.62015,-0.234712,-19.5732,24.5732,1.15854
673.971,87.389,0.100592,0,9.80521,0.349673,-0.431104,-0.945122,0.0609756,-1.92073,-38.3443,-2.48603,-0.732876,-19.5122,30.3354,0.0304878
673.981,87.382,0.0337942,0,9.82677,0.359253,-0.397573,-1.52439,-0.121951,-2.04268,-38.191,-2.25611,-0.943638,-20.5183,34.5122,0.548781
673.991,87.3748,0.00739415,0,9.7621,0.373623,-0.409548,-1.37195,-0.0609756,-1.89024,-38.2293,-2.39023,-0.292192,-19.878,39.3902,1.46341
674.001,87.3638,-0.0290486,0,9.77886,0.387993,-0.380808,-1.28049,0.0304878,-2.04268,-38.1814,-2.36149,-0.474214,-20.5793,40.6707,0.518293
674.011,87.353,-0.057319,0,9.78366,0.416733,-0.347278,-1.21951,0.396341,-1.67683,-38.3443,-2.29443,-0.349673,-19.939,44.5427,-0.884146
674.022,87.3523,-0.0783439,0,9.79803,0.387993,-0.340093,-1.37195,0.548781,-1.28049,-38.5742,-2.54351,-0.234712,-21.8902,48.4146,-2.04268
674.031,87.3543,-0.121537,0,9.82677,0.368833,-0.371228,-1.25,0.365854,-1.34146,-38.4784,-2.54351,-0.608335,-21.9207,53.2012,-2.65244
674.041,87.3566,-0.16909,0,9.8603,0.359253,-0.423918,-1.46341,0.152439,-1.43293,-38.6125,-2.36149,-0.704136,-22.3171,56.0976,-3.90244
674.051,87.3648,-0.211063,0,9.83156,0.371228,-0.383203,-1.89024,-0.548781,-0.914634,-38.3538,-2.25611,-0.627495,-23.9024,58.9329,-3.62805
674.061,87.3668,-0.260639,0,9.86269,0.416733,-0.361648,-2.34756,-0.609756,-0.670732,-38.3922,-2.60099,-0.771196,-23.7195,63.0793,-3.65854
674.071,87.3712,-0.30046,0,9.81479,0.385598,-0.364043,-2.37805,-0.487805,-0.945122,-38.5933,-2.85965,-0.637075,-24.7866,64.7561,-5.18293
674.082,87.3664,-0.34891,0,9.77647,0.421523,-0.380808,-2.71341,-0.0914634,-1.06707,-38.3251,-2.67763,-0.790356,-25.6098,69.2073,-4.93902
674.091,87.36,-0.421178,0,9.77886,0.438289,-0.392783,-2.83537,-0.243902,-0.914634,-38.5071,-2.54351,-1.22146,-24.6341,72.1341,-3.96341
674.101,87.3637,-0.556611,0,9.78605,0.404758,-0.383203,-2.62195,0.152439,-0.731707,-38.3538,-2.80217,-2.31359,-22.6829,78.6281,-3.23171
674.111,87.3704,-0.692036,0,9.99202,0.414338,-0.423918,-2.31707,1.09756,-0.426829,-37.7982,-2.85007,-2.33275,-22.0427,89.8781,-1.82927
674.122,87.3498,-0.764608,0,9.78126,0.510139,-0.445474,-3.10976,-2.04268,-0.27439,-39.0436,-3.33866,-1.40348,-22.8659,94.1463,-4.2378
674.131,87.3765,-0.832571,0,9.88904,0.373623,-0.328118,-3.29268,-1.06707,-0.0304878,-39.0532,-3.08958,-1.36516,-24.3293,96.7378,-5.12195
674.141,87.4164,-0.892951,0,9.93933,0.325723,-0.349673,-4.2378,-0.945122,0.0609756,-39.1298,-2.74469,-1.27894,-26.372,98.0488,-6.4939
674.151,87.4654,-0.976823,0,9.92975,0.287402,-0.366438,-5.06098,-0.609756,0.0914634,-39.4364,-2.46687,-1.73878,-29.2683,98.2622,-5.94512
674.161,87.498,-1.04852,0,9.86269,0.337698,-0.325723,-5.15244,-0.579268,0.0304878,-39.149,-2.54351,-1.56634,-30.5183,100.244,-4.57317
674.172,87.5252,-1.15285,0,9.85311,0.340093,-0.387993,-5.2439,-2.28659,0.640244,-39.149,-2.53393,-2.17947,-32.8049,100.366,-3.20122
674.181,87.5506,-1.30482,0,9.8603,0.342488,-0.426313,-4.84756,-4.63415,0.701219,-39.0723,-2.62973,-3.06083,-32.2256,103.293,-0.335366
674.191,87.559,-1.49258,0,9.71659,0.404758,-0.421523,-4.87805,-5.82317,0.579268,-38.2964,-3.33866,-3.69312,-31.0366,108.689,2.10366
674.201,87.5533,-1.67434,0,9.63995,0.426313,-0.407153,-5.45732,-5.42683,0.0304878,-38.6125,-3.43446,-3.74102,-29.1159,110.793,2.92683
674.211,87.5703,-1.85429,0,9.53936,0.340093,-0.445474,-5.2439,-3.84146,-0.457317,-38.6796,-3.7506,-3.83682,-26.5549,111.86,5.30488
674.222,87.5693,-2.00429,0,9.42201,0.368833,-0.371228,-4.02439,-2.68293,-0.945122,-38.8616,-3.72186,-3.4632,-24.2988,111.067,6.52439
674.231,87.5813,-2.16624,0,9.39566,0.308958,-0.301772,-3.2622,-2.62195,-1.06707,-39.0149,-3.57816,-3.78892,-22.0122,110.518,8.01829
674.241,87.6057,-2.32645,0,9.51541,0.229922,-0.285007,-1.79878,-3.81098,-1.25,-38.6029,-3.2716,-3.83682,-20.7927,108.293,12.378
674.251,87.6471,-2.51519,0,9.72378,0.253872,-0.328118,-0.335366,-7.2561,-0.365854,-39.2544,-3.21412,-4.50743,-20.5488,109.543,14.4512
674.261,87.6815,-2.73312,0,9.89383,0.275427,-0.476609,-0.304878,-7.43902,-0.243902,-39.3789,-3.26202,-5.15887,-19.2988,112.104,14.6341
674.271,87.7066,-2.96989,0,9.95131,0.316143,-0.529299,-1.64634,-8.04878,0.548781,-39.0819,-2.98419,-5.5804,-19.6341,118.415,12.9878
674.281,87.7429,-3.2132,0,10.0136,0.268242,-0.512534,-3.10976,-8.59756,0.27439,-39.4843,-2.72553,-5.89654,-20.9146,125.335,12.7744
674.291,87.7679,-3.43851,0,10.0806,0.304167,-0.61552,-3.71951,-6.95122,0.365854,-39.0915,-2.63931,-5.6762,-20.7927,129.512,13.1098
674.301,87.7972,-3.672,0,10.0303,0.280217,-0.656235,-3.96341,-4.93902,0.792683,-38.7083,-2.70637,-5.9157,-20.122,130.427,12.1037
674.311,87.8164,-3.88607,0,9.94891,0.330513,-0.641865,-3.81098,-3.17073,0.97561,-39.4939,-2.65847,-5.84864,-22.378,132.165,10.2744
674.321,87.831,-4.10707,0,9.93933,0.349673,-0.62031,-3.9939,-1.92073,0.914634,-39.3885,-2.62015,-6.1073,-22.622,131.951,8.59756
674.332,87.8528,-4.3234,0,9.87467,0.306563,-0.711321,-3.78049,-1.58537,0.762195,-39.0915,-2.70637,-6.13604,-23.811,131.189,7.46951
674.341,87.8845,-4.56958,0,9.85311,0.258662,-0.728086,-3.32317,-0.731707,1.21951,-38.4017,-2.31359,-6.69168,-25.3963,132.409,9.11585
674.351,87.9262,-4.84055,0,9.91778,0.196392,-0.713716,-3.04878,-0.548781,1.40244,-37.9132,-2.68721,-7.20901,-26.7073,130.549,11.128
674.361,87.9737,-5.09147,0,9.98005,0.150886,-0.694556,-2.19512,0.27439,1.43293,-37.9706,-2.49561,-7.05573,-25.6402,131.372,16.128
674.371,88.0217,-5.33497,0,9.98005,0.148491,-0.701741,-1.58537,1.28049,0.884146,-38.191,-2.52435,-7.14195,-24.6341,130.945,19.7866
674.381,88.0488,-5.56091,0,9.98005,0.249082,-0.637075,-0.731707,2.22561,0.335366,-38.6029,-3.13748,-7.08447,-23.7805,129.543,21.4939
674.391,88.0527,-5.80915,0,9.92496,0.340093,-0.718506,0.213415,2.59146,0.457317,-39.0915,-3.34824,-7.72633,-21.2195,131.22,22.1951
674.401,88.0307,-6.04664,0,9.86269,0.440684,-0.740061,-0.152439,3.35366,0.457317,-39.4939,-2.96503,-7.77423,-19.0854,135.396,22.1951
674.411,88.0109,-6.2361,0,9.82677,0.471819,-0.787961,-1.61585,4.57317,0.853659,-40.107,-2.82133,-7.18985,-14.2073,134.909,23.689
674.422,88.0254,-6.40114,0,9.86509,0.366438,-0.711321,-1.79878,3.84146,1.85976,-40.4423,-2.68721,-6.95993,-10.1829,129.116,24.7866
674.431,88.0319,-6.60266,0,9.98484,0.519719,-0.725691,-1.18902,3.17073,2.89634,-40.7201,-2.67763,-7.82213,-6.25,124.543,26.6768
674.441,88.0372,-6.80715,0,10.1142,0.673001,-0.929268,-2.13415,3.68902,4.35976,-41.3524,-2.45729,-8.16702,-1.40244,120.122,27.5915
674.451,88.0897,-6.99098,0,10.5189,0.364043,-1.01309,-2.5,4.05488,5.39634,-41.2183,-2.65847,-7.92751,2.31707,113.659,26.7683
674.461,88.1547,-7.21252,0,10.5501,0.253872,-1.04902,-1.52439,3.47561,5.54878,-41.1416,-2.49561,-8.77056,1.95122,111.372,25.8232
674.471,88.2104,-7.42561,0,9.99202,0.320933,-0.725691,-2.95732,0.670732,5.67073,-40.9692,-2.05493,-8.76098,0.152439,105.671,23.5671
674.481,88.2698,-7.62286,0,9.62798,0.316143,-0.661025,-2.31707,0.457317,6.25,-40.6243,-1.74836,-8.57896,-4.17683,97.439,23.872
674.491,88.3415,-7.80215,0,9.8076,0.265847,-0.656235,-0.152439,2.80488,6.95122,-39.925,-1.26936,-8.2724,-9.08537,89.8171,20.4268
674.501,88.4177,-7.98229,0,9.78126,0.201182,-0.579595,2.04268,6.67683,6.79878,-39.2927,-0.905317,-8.3203,-11.7378,79.8171,18.2317
674.511,88.4758,-8.1514,0,9.63756,0.335303,-0.55325,2.71341,11.372,6.76829,-38.8712,-1.23104,-8.20534,-13.2927,67.3171,13.9634
674.521,88.5402,-8.35178,0,9.64474,0.277822,-0.488584,2.5,15.4878,6.82927,-38.2197,-1.45138,-8.77056,-11.5549,58.0488,9.66463
674.531,88.6206,-8.59081,0,9.73096,0.0886157,-0.55804,1.67683,17.9573,6.28049,-38.1622,-1.51844,-9.60403,-12.1951,52.8963,5.30488
674.542,88.7028,-8.84034,0,9.92017,0.0119751,-0.65863,1.28049,20.061,5.70122,-38.4017,-1.89207,-10.0351,-11.0366,49.939,0.640244
674.551,88.7811,-9.08781,0,10.0639,0.0502954,-0.811912,1.09756,20.3963,5.91463,-38.4592,-1.92081,-10.2076,-11.128,45.4878,-0.518293
674.561,88.8491,-9.33595,0,10.0088,0.0431104,-0.64905,0.457317,19.6951,4.93902,-38.7179,-1.99745,-10.4854,-13.7195,40.5793,-0.335366
674.572,88.9132,-9.50693,0,9.68785,-0.0574805,-0.337698,1.06707,17.9573,3.23171,-40.2986,-2.15073,-9.68067,-16.0671,29.4817,0.0609756
674.581,88.9961,-9.70628,0,9.35255,-0.179626,0.0287402,2.86585,14.878,1.89024,-40.9596,-1.91123,-10.562,-17.9268,16.4329,0.640244
674.591,89.1485,-9.90288,0,9.19927,-0.210762,0.213157,4.20732,12.622,0.518293,-41.4865,-1.83458,-10.8399,-16.7988,5.64024,1.70732
674.601,89.298,-10.0774,0,9.12742,-0.232317,0.256267,5.27439,12.4695,-0.518293,-41.7356,-1.86333,-10.6674,-19.4207,-5.73171,1.79878
674.611,89.3979,-10.2741,0,9.13221,-0.210762,0.229922,5.57927,11.8902,-0.853659,-40.7105,-1.65256,-11.0123,-21.5244,-18.2927,1.61585
674.621,89.4866,-10.4958,0,9.12502,-0.160466,0.215552,6.03659,10.0305,-0.701219,-39.9825,-1.64298,-11.4721,-25.5183,-27.8049,-0.914634
674.631,89.5699,-10.7545,0,9.31663,-0.126936,0.0119751,6.70732,7.80488,-0.335366,-39.0053,-1.5855,-12.0565,-27.1951,-29.6646,-3.5061
674.642,89.6314,-11.0368,0,9.48907,-0.0766406,-0.105381,7.46951,6.31098,0.152439,-38.4688,-1.48012,-12.526,-29.4207,-31.0061,-6.43293
674.651,89.6552,-11.3089,0,9.63516,0.00239502,-0.182021,7.40854,4.93902,0.0304878,-38.5263,-1.7292,-12.5643,-29.878,-31.2195,-9.08537
674.661,89.6508,-11.5225,0,9.8555,0.0455054,-0.201182,7.95732,4.35976,-0.762195,-39.1107,-2.33275,-11.8649,-29.0244,-34.9695,-10.7317
674.671,89.6408,-11.7314,0,9.97286,0.0407153,-0.150886,8.17073,4.20732,-1.37195,-39.5705,-2.68721,-12.0948,-26.8598,-40.122,-12.5305
674.681,89.6362,-11.9089,0,10.1453,-0.0455054,-0.117356,7.7439,5.57927,-1.98171,-39.8962,-2.99377,-11.7787,-23.8415,-47.3476,-12.9878
674.692,89.6394,-12.0598,0,10.2124,-0.162861,-0.198787,7.37805,7.83537,-2.56098,-40.2028,-3.09916,-11.5296,-20.6098,-57.0427,-13.4756
674.701,89.6431,-12.2059,0,10.3297,-0.203577,-0.150886,6.21951,9.78659,-2.86585,-40.2315,-3.20454,-11.5967,-17.0427,-66.8293,-13.4146
674.711,89.6437,-12.3081,0,10.5046,-0.201182,-0.0287402,4.63415,12.1037,-3.04878,-40.289,-2.99377,-10.9165,-16.4939,-75.7317,-12.7134
674.721,89.6398,-12.4413,0,10.4686,-0.172441,0.129331,2.5,12.8049,-3.17073,-39.7717,-2.77343,-11.4626,-15.2439,-81.7988,-10.7622
674.732,89.6364,-12.5588,0,10.2962,-0.165256,0.112566,2.22561,10.2744,-3.10976,-39.4172,-2.46687,-11.1847,-15.122,-87.5,-8.14024
674.741,89.6388,-12.7034,0,9.97526,-0.220342,-0.00239502,1.85976,7.16463,-3.29268,-38.7658,-2.47645,-11.5967,-13.9939,-89.5732,-7.77439
674.751,89.6269,-12.8587,0,9.63516,-0.201182,0,0.884146,7.34756,-4.48171,-38.3347,-2.52435,-11.7691,-14.3902,-89.6037,-5.2439
674.761,89.6112,-12.9749,0,9.44596,-0.251477,0.102986,0.213415,9.87805,-5.51829,-38.0569,-2.49561,-11.0889,-14.2683,-91.189,-3.56707
674.772,89.5804,-13.0833,0,9.24717,-0.208367,0.205972,0.457317,12.4085,-6.58537,-37.9419,-2.68721,-11.0027,-12.622,-92.8354,-1.28049
674.781,89.533,-13.1531,0,9.18011,-0.158071,0.232317,1.03659,12.5305,-7.71341,-38.1622,-2.76385,-10.4567,-12.8963,-96.189,0.27439
674.792,89.4751,-13.1801,0,9.2304,-0.112566,0.308958,2.34756,10.4573,-8.29268,-38.3634,-2.79259,-9.80521,-11.5244,-101.372,1.09756
674.801,89.3989,-13.1923,0,9.29747,0.0119751,0.383203,3.53659,7.34756,-8.68902,-39.0436,-3.05125,-9.74773,-12.3476,-107.378,1.61585
674.811,89.3092,-13.1765,0,9.40285,0.131726,0.414338,4.26829,4.90854,-8.75,-39.5514,-3.00335,-9.38369,-12.2866,-111.921,1.43293
674.821,89.218,-13.129,0,9.52978,0.186812,0.500559,3.96341,2.28659,-8.41463,-40.0016,-3.11832,-8.91426,-11.7378,-117.957,-0.670732
674.831,89.1219,-13.0788,0,9.77407,0.318538,0.455054,2.83537,0.396341,-7.59146,-40.3944,-3.01293,-8.93342,-13.5061,-123.293,-2.65244
674.841,89.0387,-13.0045,0,10.0088,0.316143,0.455054,0.731707,-0.487805,-6.58537,-40.8159,-3.02251,-8.56938,-11.372,-132.439,-3.35366
674.852,88.9602,-12.8663,0,10.0687,0.330513,0.364043,0.121951,-3.20122,-6.12805,-40.8926,-2.92671,-7.37187,-10,-142.226,-3.59756
674.861,88.8876,-12.7252,0,9.98963,0.347278,0.328118,0.243902,-6.67683,-5.45732,-41.1416,-2.91713,-7.30481,-10.2439,-154.634,-2.40854
674.871,88.808,-12.5854,0,9.9082,0.373623,0.232317,-0.0914634,-8.29268,-5.97561,-40.9596,-2.81175,-7.22817,-9.02439,-164.238,-0.762195
674.881,88.7357,-12.4139,0,9.75252,0.349673,0.210762,-0.792683,-7.04268,-5.60976,-41.1129,-2.95545,-6.59588,-8.68902,-173.811,2.43902
674.892,88.6716,-12.2625,0,9.68785,0.270637,0.177231,-1.37195,-4.48171,-5.85366,-41.0937,-3.04167,-6.87371,-8.9939,-182.5,5.91463
674.901,88.6229,-12.1147,0,9.6639,0.196392,0.155676,-1.21951,-2.22561,-5.30488,-40.701,-3.20454,-6.77791,-7.89634,-186.951,8.38415
674.911,88.5758,-11.9651,0,9.68306,0.174836,0.167651,-1.09756,-2.92683,-5.51829,-40.6914,-3.30992,-6.65336,-6.37195,-191.86,11.0366
674.921,88.52,-11.7947,0,9.68306,0.229922,0.0766406,-0.213415,-4.96951,-5.82317,-40.701,-3.18538,-6.18394,-4.29878,-197.591,13.1707
674.931,88.4571,-11.6069,0,9.70462,0.289797,0.0646655,0.426829,-6.46341,-5.94512,-40.8638,-3.4632,-5.79116,-0.457317,-204.878,14.6951
674.942,88.3845,-11.3766,0,9.63277,0.354463,0.126936,0.548781,-8.41463,-6.25,-41.0267,-3.20454,-4.92895,3.07927,-213.841,15.9451
674.952,88.3071,-11.1403,0,9.69983,0.397573,0.189207,0.945122,-10.7927,-6.40244,-41.0842,-3.56858,-4.68945,6.98171,-222.561,18.1707
674.962,88.2261,-10.8969,0,9.71899,0.416733,0.196392,0.914634,-12.561,-6.70732,-41.18,-3.3674,-4.43079,9.90854,-232.134,19.4817
674.972,88.1492,-10.6367,0,9.75012,0.409548,0.198787,-0.152439,-12.8354,-6.55488,-41.247,-3.45362,-3.98052,14.3293,-239.36,20.7317
674.982,88.0802,-10.3433,0,9.71899,0.366438,0.114961,-0.792683,-12.0732,-6.40244,-41.3332,-3.21412,-3.2237,14.2683,-249.207,23.5061
674.991,88.0255,-10.0833,0,9.74294,0.299377,0.0407153,-1.52439,-10.8232,-5.91463,-41.3332,-3.03209,-3.6548,13.5976,-257.378,26.0061
675.001,87.9802,-9.76845,0,9.67348,0.280217,0.0119751,-1.7378,-10.4573,-5.27439,-41.8602,-2.27527,-2.54351,13.9939,-271.768,28.4146
675.011,87.942,-9.48565,0,9.67827,0.203577,-0.00479004,-1.58537,-11.0061,-5.57927,-42.8948,-2.86923,-2.94587,11.311,-263.018,28.0793
675.021,87.9029,-9.36529,0,9.64474,0.205972,0.0119751,-1.79878,-11.8902,-5.70122,-39.4939,-2.19863,-5.33131,8.53659,-250.884,28.9024
675.031,87.8524,-9.13928,0,9.62798,0.273032,-0.0359253,-2.34756,-13.5976,-6.12805,-41.0363,-2.58183,-3.52068,9.69512,-251.646,30.5183
675.041,87.7907,-8.88755,0,9.60642,0.304167,-0.0239502,-2.5,-15.122,-6.98171,-42.1476,-3.2237,-2.97461,8.81098,-253.506,27.4695
675.051,87.7298,-8.72736,0,9.64953,0.263452,-0.0383203,-2.89634,-15.3659,-7.53049,-39.8292,-2.97461,-4.2296,8.59756,-246.341,26.0671
675.062,87.6651,-8.53669,0,9.75012,0.273032,-0.102986,-2.9878,-15.3659,-7.95732,-39.8388,-3.19496,-3.56858,10.6402,-243.72,24.0549
675.071,87.6071,-8.28898,0,9.88425,0.213157,-0.0934058,-2.83537,-15.0305,-8.17073,-39.925,-3.26202,-2.43813,15.1829,-245.122,22.2866
675.081,87.5528,-7.99791,0,10.0279,0.201182,-0.220342,-2.34756,-15.2744,-8.07927,-40.1549,-3.35782,-1.51844,20.7317,-247.835,23.0183
675.091,87.4978,-7.6579,0,10.1621,0.253872,-0.275427,-2.0122,-16.4329,-7.68293,-40.2507,-3.07042,-0.464634,23.6585,-252.47,24.6951
675.101,87.4435,-7.25192,0,10.2818,0.282612,-0.268242,-2.9878,-17.1951,-7.43902,-40.0016,-3.57816,0.914897,28.4146,-259.39,25.6402
675.111,87.3902,-6.84329,0,10.3225,0.332908,-0.344883,-4.87805,-16.7073,-6.89024,-41.1416,-2.78301,1.2502,31.4024,-268.018,28.811
675.122,87.3397,-6.44031,0,10.3369,0.325723,-0.337698,-7.19512,-14.2988,-6.79878,-43.8432,0.426313,1.48012,25.2744,-282.744,32.4695
675.131,87.2893,-6.11679,0,10.1022,0.296982,-0.349673,-9.11585,-11.9207,-7.13415,-39.628,-2.62973,0.301772,38.872,-261.28,35.7317
675.142,87.2262,-5.85502,0,9.86988,0.323328,-0.440684,-11.128,-9.54268,-8.14024,-38.6987,-1.84417,-0.483794,39.6951,-244.421,39.939
675.151,87.1516,-5.51232,0,9.56092,0.340093,-0.414338,-11.9817,-8.78049,-9.11585,-38.8041,-1.60466,1.11608,35.9146,-232.622,43.2622
675.161,87.0703,-5.0858,0,9.44356,0.340093,-0.395178,-12.1341,-9.20732,-9.90854,-38.6317,-1.2981,2.76385,30.2134,-235.64,42.6524
675.171,86.9829,-4.65213,0,9.44117,0.320933,-0.495769,-11.5244,-9.42073,-10.9146,-38.3826,-1.08734,3.13748,25.2744,-240.915,40.3049
675.181,86.9044,-4.17353,0,9.59205,0.294587,-0.534089,-10.6098,-10,-10.5793,-39.3119,-0.934058,4.26792,22.7134,-250.03,36.7378
675.191,86.8312,-3.65559,0,9.7118,0.246687,-0.519719,-9.48171,-10.0915,-10.8232,-39.7142,-0.589175,5.32173,20.4878,-257.348,33.2927
675.201,86.7652,-3.1082,0,9.96807,0.249082,-0.584385,-8.41463,-9.57317,-10.2744,-40.0495,-0.483794,6.26058,14.5122,-259.177,28.7195
675.211,86.6995,-2.56871,0,10.1501,0.316143,-0.58678,-7.68293,-8.53659,-9.66463,-40.0112,-0.445474,6.50966,8.87195,-257.47,26.0061
675.221,86.6229,-2.04762,0,10.1477,0.414338,-0.675395,-8.71951,-7.89634,-9.78659,-39.216,-0.0718506,6.45218,5.18293,-251.921,25.8537
675.231,86.5374,-1.54104,0,10.0447,0.469424,-0.704136,-9.87805,-7.28659,-10.1524,-38.9286,0.167651,6.52882,-1.98171,-247.378,28.0793
675.242,86.4444,-1.04355,0,9.84593,0.524509,-0.677791,-10.7012,-7.07317,-10.3354,-38.009,-0.0143701,6.5863,-6.61585,-240.64,30.2744
675.251,86.3444,-0.549149,0,9.85311,0.565225,-0.574805,-10.0305,-7.37805,-10.7622,-37.5779,-0.359253,6.79707,-7.59146,-240.122,33.1402
675.261,86.2419,5.30556e-05,0,9.73096,0.603545,-0.641865,-8.56707,-4.72561,-10.6707,-37.712,-0.819097,8.09038,-8.56707,-244.756,31.6768
675.271,86.1285,0.57079,0,9.8076,0.730481,-0.732876,-7.2561,-2.68293,-10.5488,-37.7407,-1.346,8.83762,-9.60366,-249.177,26.6463
675.281,86.0276,1.12536,0,9.80521,0.706531,-0.756826,-5.97561,-1.79878,-9.78659,-38.0856,-1.5855,9.01964,-10,-252.866,20.0915
675.292,85.9347,1.69685,0,9.98244,0.713716,-1.02028,-4.42073,-0.731707,-9.2378,-38.1239,-1.62382,9.71899,-9.42073,-253.567,15.5793
675.301,85.8608,2.29573,0,10.0351,0.627495,-1.06339,-3.62805,0.0609756,-8.53659,-37.7982,-1.54718,10.5333,-7.83537,-252.226,13.0793
675.311,85.797,2.90158,0,10.0591,0.58199,-1.06578,-3.56707,-0.548781,-8.20122,-37.1372,-1.346,10.8973,-6.98171,-250.793,14.3598
675.321,85.7388,3.45667,0,9.9058,0.514929,-0.890947,-4.66463,-2.22561,-8.44512,-36.9743,-1.5376,10.38,-6.25,-250.061,18.5366
675.331,85.6784,3.78871,0,9.66869,0.488584,-0.874182,-4.69512,-2.40854,-8.96341,-36.0738,-3.06083,6.77791,-2.71341,-242.5,24.0549
675.341,85.6013,4.40318,0,9.64714,0.579595,-0.907712,-3.5061,-2.16463,-9.66463,-35.5086,-1.09692,11.6063,2.53049,-243.506,29.5122
675.352,85.5043,5.05377,0,9.72378,0.749641,-0.934058,-1.79878,-0.152439,-9.87805,-34.7613,-0.493374,12.3918,-0.579268,-244.878,33.1402
675.361,85.4035,5.68205,0,9.78126,0.823887,-1.06099,0.335366,2.46951,-9.63415,-35.3361,-0.617915,12.6601,-0.731707,-244.055,34.4207
675.372,85.3033,6.26934,0,10.0184,0.893342,-1.01309,2.31707,5.45732,-9.20732,-35.8822,-0.426313,12.5834,-2.16463,-239.939,33.0793
675.381,85.2075,6.88988,0,10.095,0.953218,-0.948428,3.75,5.60976,-8.35366,-36.275,-0.771196,13.7618,-0.945122,-235.213,28.3841
675.391,85.1237,7.53514,0,10.0399,0.900527,-0.919688,3.59756,5.57927,-7.86585,-35.6331,-0.828677,14.4228,-1.79878,-231.951,24.2683
675.401,85.0603,8.19127,0,10.0399,0.778381,-0.831072,2.89634,6.82927,-7.37805,-35.4511,-0.809517,15.0168,-2.92683,-231.768,21.128
675.411,85.0031,8.83878,0,9.93215,0.684976,-0.732876,2.2561,7.5,-7.86585,-35.0487,-0.914897,15.1701,-4.45122,-229.939,18.0793
675.421,84.9398,9.48647,0,9.89862,0.699346,-0.696951,1.43293,7.37805,-8.41463,-34.5601,-1.08734,15.4287,-5.30488,-229.756,18.1707
675.431,84.8811,10.1342,0,9.83874,0.66342,-0.65384,1.46341,7.9878,-8.44512,-34.062,-1.11608,15.6874,-6.52439,-225.061,19.5732
675.441,84.817,10.7575,0,9.78605,0.716111,-0.682581,2.34756,8.41463,-8.44512,-33.4297,-0.914897,15.4287,-7.95732,-222.134,21.5244
675.452,84.7438,11.3745,0,9.8124,0.799937,-0.665815,3.07927,8.62805,-8.53659,-32.6058,-0.704136,15.4,-7.37805,-213.598,24.0854
675.461,84.6688,12.0184,0,9.89143,0.912502,-0.711321,3.75,8.78049,-7.62195,-32.3567,-0.598755,16.2047,-8.10976,-208.354,26.2195
675.471,84.58,12.6389,0,9.8076,1.03225,-0.64905,3.9939,9.05488,-7.68293,-32.6154,-0.723296,16.3867,-7.5,-204.36,27.0427
675.481,84.4964,13.2575,0,9.71899,1.0107,-0.522114,3.53659,8.93293,-7.46951,-32.8261,-0.493374,16.9232,-6.31098,-199.573,25.9451
675.491,84.4093,13.8813,0,9.62079,1.07297,-0.407153,1.61585,8.53659,-7.13415,-32.5004,-0.387993,17.316,-5.12195,-194.329,23.1098
675.502,84.3273,14.5105,0,9.54655,1.0083,-0.191602,0.426829,7.68293,-7.46951,-32.7495,-0.560435,18.0345,-4.60366,-188.049,20.4573
675.511,84.2554,15.1273,0,9.49865,0.914897,-0.122146,-0.0609756,7.28659,-7.68293,-32.5483,-0.493374,18.1782,-6.46341,-182.439,19.0549
675.521,84.1884,15.7483,0,9.56571,0.905317,-0.215552,0.365854,7.37805,-7.53049,-32.4334,-0.570015,18.6764,-8.35366,-176.555,17.5305
675.531,84.1185,16.3915,0,9.58247,0.962798,-0.222737,1.0061,2.46951,-7.28659,-32.1843,-0.608335,19.4523,-10.1524,-170.183,16.311
675.541,84.0422,17.0256,0,9.8124,1.10171,-0.455054,1.92073,5.12195,-6.70732,-32.0214,-0.522114,19.6919,-11.25,-164.39,16.2195
675.551,83.9656,17.6422,0,9.80521,1.16398,-0.495769,1.70732,5.36585,-6.15854,-31.8777,-0.282612,19.7685,-10.7317,-159.939,16.25
675.561,83.8914,18.2577,0,9.83156,1.19751,-0.380808,0.426829,4.60366,-5.70122,-31.6478,-0.426313,20.0942,-11.8293,-155.762,16.9512
675.572,83.8247,18.8463,0,9.77886,1.14242,-0.261057,-0.97561,3.59756,-5.67073,-31.3221,-0.263452,19.8643,-10.9756,-149.665,15.4573
675.581,83.7595,19.4349,0,9.65193,1.12566,-0.114961,-1.85976,2.9878,-5.67073,-31.5328,-0.282612,20.4678,-12.2866,-145.518,15.4878
675.591,83.6951,19.9982,0,9.62319,1.16877,-0.193997,-1.92073,3.14024,-5.15244,-31.5903,-0.0143701,20.487,-12.5915,-140.732,15.3049
675.601,83.6335,20.5196,0,9.65672,1.17116,-0.330513,-1.92073,4.39024,-5.03049,-31.4562,-0.215552,20.0367,-12.4695,-135.03,14.5427
675.611,83.573,21.0923,0,9.62798,1.21188,-0.376018,-0.579268,4.69512,-4.48171,-30.8143,0.110171,21.0426,-12.5305,-132.012,13.6585
675.621,83.5225,21.6546,0,9.67109,1.19272,-0.443079,-0.579268,4.29878,-3.87195,-30.7568,0.397573,21.2534,-11.7378,-130.488,13.5061
675.632,83.4791,22.1913,0,9.60642,1.17835,-0.332908,-1.12805,3.41463,-3.29268,-31.0921,-0.0718506,21.4258,-13.5671,-129.055,13.1707
675.641,83.4403,22.7189,0,9.65672,1.19032,-0.232317,-1.70732,1.43293,-2.80488,-31.3125,0.0431104,21.8282,-12.9268,-128.049,12.439
675.651,83.4139,23.2302,0,9.69025,1.09692,-0.215552,-1.52439,1.31098,-2.92683,-31.3125,0.177231,21.9432,-14.4207,-122.988,11.9512
675.661,83.3986,23.7407,0,9.75252,1.07536,-0.285007,-0.914634,1.7378,-2.28659,-30.9676,0.110171,22.1156,-16.0671,-118.689,9.84756
675.672,83.3887,24.2528,0,9.74054,1.04662,-0.342488,-0.670732,1.0061,-2.19512,-30.6994,0.225132,22.3839,-17.8049,-116.189,8.87195
675.681,83.3699,24.7333,0,9.76449,1.07536,-0.342488,-0.579268,0.426829,-2.68293,-31.0251,0.129331,22.403,-18.1098,-112.104,8.44512
675.691,83.3561,25.2178,0,9.71659,1.0562,-0.320933,-0.792683,-0.304878,-2.43902,-30.3736,0.148491,22.4126,-18.2012,-109.787,8.53659
675.701,83.3496,25.6629,0,9.72378,1.02028,-0.244292,-0.792683,-0.640244,-2.28659,-30.3545,-0.0622705,22.0006,-18.6585,-105.915,7.56098
675.711,83.3483,26.1104,0,9.68306,1.0107,-0.287402,-0.304878,-0.548781,-1.98171,-30.3162,-0.110171,22.403,-18.5061,-101.28,8.44512
675.721,83.3483,26.5461,0,9.69504,1.0083,-0.306563,-0.0914634,-1.03659,-1.92073,-30.1341,-0.00479004,22.403,-18.5976,-97.8049,9.42073
675.731,83.3493,26.96,0,9.67827,1.00351,-0.390388,0.182927,-1.64634,-1.89024,-30.3066,-0.158071,22.4605,-18.9939,-91.8902,10.1829
675.742,83.3536,27.3518,0,9.73096,1.01788,-0.294587,-0.0609756,-1.61585,-1.55488,-30.3066,-0.225132,22.3647,-17.7744,-86.6463,9.54268
675.751,83.3566,27.7311,0,9.74054,1.00591,-0.227527,-0.213415,-1.92073,-1.76829,-30.2299,-0.0431104,22.3839,-16.311,-83.0488,10.0915
675.762,83.3616,28.1017,0,9.79323,0.996328,-0.285007,0.0609756,-1.7378,-1.76829,-30.2587,-0.273032,22.5563,-13.5671,-78.2317,10.3963
675.771,83.373,28.4629,0,9.77647,0.972378,-0.263452,0.731707,-1.61585,-1.58537,-30.182,-0.119751,22.6234,-13.0488,-74.6951,9.69512
675.781,83.3791,28.8232,0,9.73096,1.00351,-0.366438,0.945122,-1.70732,-1.55488,-30.4311,-0.292192,23.1024,-13.3232,-72.1341,11.4939
675.791,83.3857,29.1762,0,9.75252,1.00351,-0.347278,0.609756,-2.43902,-1.52439,-30.7377,-0.273032,23.4856,-11.6463,-71.6768,11.3415
675.801,83.3887,29.5102,0,9.74533,1.00351,-0.320933,0.182927,-3.2622,-1.7378,-30.5269,-0.493374,23.2269,-10.9756,-69.4207,10.7622
675.811,83.3933,29.8167,0,9.76689,0.981958,-0.318538,-0.0304878,-3.59756,-1.85976,-30.5652,-0.340093,22.9778,-11.311,-63.9634,9.93902
675.821,83.407,30.133,0,9.7621,0.946033,-0.340093,0.487805,-3.17073,-1.64634,-29.9138,-0.234712,22.9587,-10.7317,-60.0915,10.3963
675.831,83.411,30.4385,0,9.74773,1.0083,-0.421523,0.884146,-2.71341,-1.58537,-29.6072,-0.0431104,22.7862,-10.3659,-53.628,10.122
675.841,83.4111,30.7443,0,9.71899,1.04662,-0.438289,0.426829,-2.80488,-1.37195,-29.6935,-0.368833,23.1215,-9.78659,-51.4634,10.4573
675.851,83.4127,31.0488,0,9.72138,1.0562,-0.366438,-0.121951,-3.20122,-1.15854,-30.479,-0.215552,23.9741,-10.3354,-49.2683,5.18293
675.861,83.4227,31.3334,0,9.7621,1.02028,-0.349673,-0.121951,-3.32317,-1.09756,-30.3162,-0.0431104,23.6963,-9.96951,-45.4268,5.18293
675.871,83.4335,31.5883,0,9.83395,1.01549,-0.308958,-0.182927,-2.7439,-1.12805,-31.0442,-0.531694,23.8783,-11.6463,-40.9146,3.84146
675.881,83.4466,31.8477,0,9.83635,0.998723,-0.354463,-0.335366,-2.2561,-1.15854,-30.0288,-0.253872,23.4281,-8.81098,-36.0366,2.68293
675.891,83.4615,32.1136,0,9.79803,0.993933,-0.371228,-0.731707,-2.65244,-1.06707,-30.115,-0.445474,23.8688,-10.8537,-32.9268,3.68902
675.901,83.4748,32.3554,0,9.73336,0.996328,-0.390388,-1.06707,-3.32317,-1.06707,-30.0671,-0.416733,23.543,-10.7012,-31.8598,3.04878
675.911,83.4896,32.5994,0,9.77168,0.955613,-0.411943,-1.21951,-3.47561,-1.37195,-30.182,-0.416733,23.8975,-10.7317,-29.1768,3.17073
675.921,83.4941,32.8191,0,9.74773,1.0107,-0.464634,-0.884146,-2.83537,-1.37195,-30.3162,-0.349673,23.6963,-9.20732,-27.2256,2.65244
675.931,83.5056,33.0391,0,9.77168,0.996328,-0.447869,-0.792683,-2.28659,-1.12805,-30.1246,-0.474214,23.7442,-8.07927,-26.4634,1.89024
675.941,83.5098,33.2615,0,9.78605,1.02028,-0.423918,-0.823171,-2.65244,-1.28049,-29.8563,-0.340093,23.7825,-6.92073,-23.3537,2.89634
675.951,83.518,33.4732,0,9.8124,1.03944,-0.426313,-0.97561,-3.2622,-0.823171,-29.818,-0.205972,23.7251,-7.56098,-20.0305,2.53049
675.961,83.5237,33.6859,0,9.80521,1.02986,-0.459844,-1.15854,-3.14024,-1.06707,-29.7414,-0.205972,23.8783,-8.23171,-16.9207,1.18902
675.972,83.536,33.8884,0,9.81958,1.01549,-0.510139,-0.579268,-2.43902,-0.853659,-29.6743,-0.0143701,23.8017,-7.40854,-13.5976,1.37195
675.981,83.5421,34.0805,0,9.77168,1.03704,-0.546064,-0.518293,-2.0122,-0.884146,-29.6456,-0.0239502,23.7346,-7.07317,-11.7378,0.701219
675.991,83.5562,34.2693,0,9.73815,1.02507,-0.495769,-0.701219,-2.13415,-0.548781,-29.7414,-0.0239502,23.9071,-7.2561,-11.0366,1.12805
676.001,83.5593,34.4605,0,9.74773,1.04183,-0.534089,-0.853659,-2.2561,-0.945122,-29.7414,0.0335303,24.1274,-7.28659,-9.69512,0.27439
676.011,83.5695,34.6583,0,9.68306,1.01788,-0.462239,-0.548781,-2.16463,-0.762195,-29.7797,-0.167651,24.4723,-6.95122,-8.2622,-0.426829
676.021,83.5737,34.8281,0,9.69025,1.05381,-0.455054,-0.823171,-2.59146,-0.579268,-29.8276,-0.167651,24.0795,-9.02439,-6.89024,0.304878
676.031,83.5934,34.972,0,9.75731,0.998723,-0.493374,-0.792683,-2.19512,-0.548781,-29.8755,0.0335303,23.7059,-9.5122,-6.09756,0.0609756
676.041,83.6095,35.1265,0,9.75731,0.981958,-0.543669,-0.27439,-1.55488,-0.853659,-30.0958,-0.205972,24.2328,-9.84756,-6.37195,-0.0609756
676.051,83.6184,35.2639,0,9.8076,1.01309,-0.61073,0.27439,-1.18902,-0.884146,-30.3257,-0.167651,24.1849,-11.311,-5.18293,-0.365854
676.061,83.6271,35.375,0,9.80281,1.02746,-0.546064,-0.304878,-1.37195,-0.701219,-30.4694,-0.340093,23.84,-13.6585,-5.60976,-3.04878
676.072,83.6345,35.5202,0,9.77647,1.02267,-0.510139,-0.457317,-1.82927,-0.792683,-29.3773,0.349673,23.8017,-12.1951,-5.57927,-1.0061
676.081,83.6542,35.6253,0,9.79803,0.972378,-0.534089,-0.0914634,-1.0061,-0.731707,-30.1533,-0.378413,23.6963,-14.1463,-2.43902,0
676.091,83.6613,35.7143,0,9.75491,1.01549,-0.56762,0.731707,0.0914634,-0.823171,-30.3545,0.138911,23.5814,-13.2317,-6.03659,-2.86585
676.101,83.6682,35.7982,0,9.7597,1.01549,-0.560435,0.487805,-0.457317,-0.823171,-30.3162,0.196392,23.5143,-15.5488,-6.98171,-3.35366
676.111,83.674,35.8797,0,9.73096,1.01309,-0.464634,-0.0609756,-0.792683,-0.884146,-30.297,0.368833,23.5143,-14.5732,-8.17073,-2.31707
676.121,83.6859,35.9481,0,9.65672,0.979563,-0.378413,-0.304878,-1.4939,-0.884146,-31.7532,-0.541274,24.4148,-16.25,-10.061,-2.37805
676.131,83.6906,36.0063,0,9.65193,1.01549,-0.349673,-0.823171,-1.92073,-0.792683,-31.0826,-0.311353,23.7346,-17.378,-10.7317,-3.71951
676.142,83.7093,36.0418,0,9.67588,0.996328,-0.383203,-0.152439,-1.25,-0.335366,-31.0251,-0.0335303,23.2652,-17.8049,-7.37805,-1.67683
676.151,83.7206,36.0974,0,9.74773,1.0083,-0.512534,0.487805,-0.609756,-0.548781,-30.5557,0.158071,23.3706,-16.5244,-7.0122,1.15854
676.162,83.7388,36.1248,0,9.79803,1.01549,-0.514929,0.27439,-0.487805,-0.121951,-31.6478,-0.0814307,23.6388,-17.4085,-6.70732,1.21951
676.172,83.7647,36.1324,0,9.79563,0.977168,-0.474214,-0.0609756,-1.21951,-0.243902,-31.5232,0.0143701,23.1407,-17.3171,-6.79878,0.213415
676.181,83.7997,36.1491,0,9.87227,0.967588,-0.462239,-0.823171,-1.85976,0.0304878,-31.4849,0.0910107,23.3131,-15.9756,-7.62195,-0.335366
676.191,83.8578,36.1408,0,9.87946,0.890947,-0.462239,-0.640244,-1.7378,0,-31.4753,-0.0718506,22.7766,-17.4695,-9.63415,-0.945122
676.202,83.9114,36.156,0,9.8124,0.895737,-0.447869,-1.18902,-2.13415,0,-31.4274,0.205972,23.2173,-18.0488,-14.0244,-2.62195
676.211,83.9524,36.1364,0,9.81,0.914897,-0.457449,-1.76829,-2.04268,0.182927,-31.4274,-0.752036,22.4892,-17.378,-14.8171,-2.0122
676.221,83.998,36.1245,0,9.78366,0.888552,-0.517324,-1.31098,-0.853659,-0.121951,-31.3891,-0.761616,22.5946,-16.9817,-17.8963,-0.365854
676.231,84.0375,36.133,0,9.76689,0.881367,-0.627495,-1.25,-0.457317,-0.27439,-31.6957,-0.819097,23.2365,-15.1524,-18.75,-0.243902
676.241,84.062,36.1322,0,9.72857,0.919688,-0.57241,-1.67683,-1.09756,-0.335366,-31.5424,-1.03944,22.9395,-13.9634,-17.3476,1.43293
676.251,84.0872,36.1357,0,9.73815,0.876577,-0.531694,-1.52439,-1.4939,-0.701219,-31.255,-0.828677,22.8054,-10.7927,-21.25,4.29878
676.261,84.1217,36.1379,0,9.77168,0.840652,-0.550855,-1.0061,-1.55488,-0.640244,-31.6382,-0.866997,23.0545,-11.7988,-22.4085,3.2622
676.271,84.1459,36.1692,0,9.74773,0.857417,-0.55804,-0.487805,-1.70732,-0.823171,-31.3508,-0.493374,23.4568,-9.29878,-24.9695,3.44512
676.281,84.1703,36.1771,0,9.73336,0.845442,-0.495769,-0.457317,-1.70732,-0.884146,-31.4753,-0.426313,23.0736,-9.54268,-25.5183,4.48171
676.291,84.19,36.1943,0,9.75252,0.804727,-0.486189,-0.823171,-2.19512,-1.40244,-31.8681,-0.330513,23.5622,-9.69512,-26.8293,2.2561
676.301,84.1992,36.2319,0,9.80042,0.857417,-0.502954,-0.731707,-2.0122,-1.46341,-31.2742,-0.244292,23.5622,-9.08537,-30.0305,3.17073
676.311,84.2035,36.2494,0,9.86269,0.888552,-0.505349,0.0609756,-1.55488,-1.46341,-31.4083,0.00479004,23.2556,-9.7561,-31.7683,4.35976
676.321,84.1995,36.2618,0,9.84353,0.922083,-0.608335,0.152439,-0.914634,-1.64634,-31.6095,-0.646655,23.294,-10.122,-35.2744,3.2622
676.331,84.1924,36.3083,0,9.80521,0.953218,-0.546064,0.365854,-0.823171,-1.46341,-31.1305,-0.0335303,23.658,-10.4878,-40.7927,3.68902
676.341,84.1852,36.327,0,9.80521,0.929268,-0.61552,-0.243902,-0.548781,-1.79878,-32.2897,-0.790356,23.9454,-11.8293,-44.3902,4.08537
676.351,84.1738,36.367,0,9.77407,0.926873,-0.60115,0.27439,-0.121951,-2.16463,-31.8106,-0.455054,24.0604,-9.84756,-47.4085,3.71951
676.361,84.1648,36.4066,0,9.7118,0.914897,-0.589175,0.0304878,-0.396341,-2.07317,-31.3125,-0.474214,23.6867,-11.1585,-52.8049,3.56707
676.372,84.1548,36.4513,0,9.64235,0.895737,-0.519719,0.182927,-0.823171,-2.34756,-30.7089,-0.0814307,23.361,-11.6463,-55.4573,2.2561
676.381,84.1349,36.4938,0,9.63037,0.943638,-0.435894,0.0304878,-1.0061,-2.62195,-31.0442,-0.0526904,23.5909,-12.6524,-59.2683,0.823171
676.391,84.116,36.5204,0,9.65193,0.972378,-0.378413,0.731707,-0.762195,-2.22561,-30.9389,0.0239502,23.1886,-12.0732,-63.4756,1.79878
676.401,84.0953,36.5606,0,9.60163,0.969983,-0.517324,1.18902,-0.243902,-2.40854,-30.2874,0.0526904,23.0066,-16.5549,-63.5061,-0.121951
676.411,84.0788,36.6056,0,9.6184,0.993933,-0.524509,1.21951,-0.640244,-1.70732,-31.3316,0.0910107,23.9167,-17.4085,-69.0854,0.182927
676.421,84.0678,36.6355,0,9.59684,0.991538,-0.464634,1.43293,-2.22561,-1.21951,-31.5328,-0.368833,23.7538,-15.5488,-74.4817,-1.06707
676.431,84.0587,36.661,0,9.59684,0.965193,-0.464634,2.28659,-3.68902,-1.52439,-31.7532,-0.598755,23.8304,-16.0976,-79.1463,-0.457317
676.441,84.0539,36.6998,0,9.54894,0.898132,-0.337698,2.2561,-5.57927,-2.04268,-30.958,-0.646655,23.5143,-15.6707,-85.6098,0.640244
676.451,84.0573,36.7028,0,9.59205,0.802332,-0.325723,3.32317,-7.10366,-2.5,-30.9484,-0.809517,22.7671,-14.5122,-88.0183,1.55488
676.461,84.0586,36.5793,0,9.48667,0.744851,-0.356858,3.84146,-9.48171,-3.17073,-31.4274,-1.14482,20.5062,-7.53049,-92.9268,3.71951
676.472,84.0556,36.4479,0,9.46033,0.735271,-0.320933,4.02439,-10.9146,-3.59756,-31.0538,-0.924478,20.008,6.92073,-94.3598,6.40244
676.481,84.0552,36.3993,0,9.59924,0.747246,-0.261057,4.96951,-10.7317,-3.35366,-31.7053,-0.886157,21.9527,21.189,-105.152,7.5
676.491,84.0329,36.4058,0,9.73815,0.972378,-0.225132,5.82317,-11.0976,-2.83537,-32.395,0.253872,23.5143,26.8598,-119.116,8.10976
676.501,83.9966,36.4224,0,9.9058,1.16398,-0.311353,5.51829,-12.5915,-1.79878,-32.7591,0.962798,23.9741,28.7195,-126.677,9.29878
676.512,83.9698,36.5141,0,10.0471,1.15919,-0.438289,4.96951,-12.378,-0.731707,-32.6441,1.40348,25.5836,24.7866,-131.616,8.41463
676.521,83.9989,36.6075,0,10.277,0.962798,-0.519719,5,-9.63415,0.0914634,-32.7112,1.19272,25.7465,17.8963,-135.061,5.73171
676.531,84.0442,36.6887,0,10.3632,0.886157,-0.560435,4.7561,-8.10976,0.0914634,-31.9735,0.694556,24.9801,10.4878,-132.927,5.70122
676.541,84.0974,36.7881,0,10.5333,0.826282,-0.65863,2.89634,-9.32927,-0.0914634,-31.3125,-0.0718506,24.9609,0.640244,-129.085,6.7378
676.552,84.1383,36.887,0,10.1884,0.773591,-0.826282,0.945122,-9.39024,-0.823171,-31.1688,-0.761616,24.9034,-6.12805,-133.445,8.35366
676.561,84.168,36.9555,0,9.9537,0.680186,-0.835862,-1.67683,-10.3963,-1.92073,-31.3412,-1.13524,24.4244,-10.4878,-138.872,8.5061
676.572,84.214,36.9791,0,9.44117,0.404758,-0.881367,-3.44512,-10.9451,-3.07927,-31.3316,-1.35558,23.476,-12.0732,-143.323,7.68293
676.581,84.2545,36.9973,0,9.13221,0.342488,-0.996328,-3.62805,-10.9756,-3.87195,-31.5807,-0.847837,23.5335,-9.69512,-150.549,5.30488
676.591,84.3056,36.9905,0,9.07233,0.258662,-1.02028,-3.84146,-11.25,-3.87195,-31.6382,0.100591,23.0353,-2.2561,-155.03,5.39634
676.601,84.327,37.0335,0,9.29507,0.488584,-0.912502,-4.78659,-9.20732,-3.71951,-31.7915,0.713716,24.1945,3.59756,-162.226,6.98171
676.611,84.3405,37.1594,0,9.61361,0.63468,-0.869392,-5.54878,-7.9878,-2.95732,-31.619,0.771196,25.9476,9.2378,-169.878,7.62195
676.622,84.3374,37.3101,0,9.77407,0.65863,-0.931663,-5.12195,-8.87195,-4.11585,-31.37,0.244292,26.4075,10.4268,-176.341,8.56707
676.631,84.3419,37.4718,0,9.92257,0.447869,-1.152,-3.81098,-9.2378,-5.85366,-31.1305,-0.215552,26.5991,9.7561,-178.476,8.65854
676.641,84.3502,37.656,0,9.97286,0.148491,-1.47054,-1.76829,-9.48171,-8.96341,-30.5461,-0.924478,26.7619,6.64634,-181.677,8.53659
676.651,84.349,37.8501,0,10.1237,0.0455054,-1.76034,-0.97561,-9.81707,-11.128,-29.933,-1.37474,26.6087,5.2439,-186.341,9.17683
676.661,84.3249,38.0759,0,10.3441,0.131726,-1.94476,-1.7378,-8.2622,-12.5,-29.6551,-1.31726,27.2505,7.37805,-196.311,10.4573
676.671,84.2929,38.2594,0,10.2674,0.131726,-1.92799,-0.579268,-2.71341,-13.3537,-29.3773,-0.838257,26.168,11.25,-205.366,11.4634
676.681,84.259,38.5297,0,10.1669,0.114961,-1.91841,4.20732,2.2561,-13.7805,-29.0803,0.138911,28.1223,9.87805,-211.067,14.3902
676.691,84.2165,38.9471,0,10.2004,0.0838257,-2.09325,6.7378,7.9878,-15.0915,-29.5689,1.40348,32.7687,3.04878,-228.598,17.622
676.702,84.1235,39.3963,0,11.0482,0.390388,-2.75188,3.44512,14.0549,-17.1646,-30.1054,3.08958,34.7326,-5.21341,-244.238,22.0732
676.711,83.961,39.8282,0,12.0996,0.771196,-3.8943,-9.78659,18.7805,-21.128,-30.0575,4.78525,34.6751,-19.0244,-247.348,30.8537
676.722,83.6669,40.3242,0,12.799,1.53521,-4.05956,-33.2317,28.4451,-28.3841,-29.6072,5.71452,36.7156,-37.5,-249.726,39.7256
676.731,83.3718,40.818,0,12.3775,0.838257,-2.12438,-42.439,33.5366,-35.122,-29.521,4.77567,37.1372,-47.3171,-257.47,45.7012
676.741,83.0878,41.2432,0,11.6949,0.387993,-0.296982,-32.9573,33.3537,-38.628,-30.1533,2.75427,36.275,-44.0854,-260.823,44.5122
676.751,82.8225,41.6975,0,11.5655,0.222737,0.467029,-28.811,41.5244,-38.9329,-28.6875,0.129331,36.0067,-30.2744,-254.817,37.7439
676.761,82.6077,42.1708,0,10.4614,-0.241897,0.704136,-24.5732,47.3171,-39.2683,-27.5188,-1.71004,35.7768,-18.1402,-245.457,30.1524
676.771,82.3886,42.6653,0,9.11305,-0.275427,-0.0646655,-24.8171,48.4756,-40.9756,-25.7465,-2.36149,34.838,-8.5061,-227.165,23.2012
676.782,82.2478,43.2332,0,9.10347,-0.919688,-0.217947,-13.9329,37.4695,-41.6768,-23.9167,-2.39023,35.4223,-3.56707,-208.476,21.5854
676.791,82.033,43.8711,0,9.87227,-0.431104,0.0574805,-3.62805,16.9512,-42.8354,-20.7169,-1.6334,33.7075,1.21951,-185.366,25.3659
676.802,81.7021,44.5717,0,9.99442,0.474214,0.249082,-2.92683,2.9878,-44.4817,-19.1937,-0.780776,34.2248,4.39024,-171.28,34.6037
676.811,81.3059,45.2663,0,9.9537,0.766406,-0.165256,-2.19512,16.8598,-48.3841,-18.9254,0.608335,34.6272,3.5061,-155.671,45.4573
676.821,80.8507,45.9627,0,9.16334,1.17835,0.56283,1.76829,13.872,-49.2378,-18.3123,1.2502,34.6943,-3.81098,-137.165,56.6159
676.831,80.3758,46.6354,0,9.58247,1.55197,0.519719,5.79268,-1.89024,-48.3537,-18.1207,1.57592,34.5506,-9.96951,-126.22,61.9817
676.841,79.8971,47.2392,0,9.2304,1.58311,0.107776,8.44512,-8.04878,-48.628,-18.7243,1.97829,34.2152,-13.7805,-115.701,64.9085
676.851,79.4262,47.8511,0,9.29268,1.57353,0.196392,10.5488,-13.3537,-49.0549,-16.4729,1.74836,31.2167,-11.8902,-103.659,62.6829
676.862,78.9166,48.3313,0,9.07233,1.90404,-0.232317,14.6037,-13.872,-49.3902,-20.7265,1.2502,35.1541,-6.55488,-101.037,60.3963
676.871,78.358,48.8134,0,9.18729,2.45729,-0.62989,15.3659,-7.2561,-49.0549,-19.6631,1.02028,34.1386,-6.64634,-89.939,54.2073
676.881,77.7971,49.3073,0,9.64235,2.76625,-0.732876,17.5,-7.89634,-48.3232,-19.3565,0.340093,34.7709,-6.40244,-78.7805,46.189
676.891,77.2198,49.8133,0,9.60882,2.95785,-0.902922,17.5305,-11.7683,-48.9024,-18.8392,0.589175,35.0104,-5.51829,-74.939,40.4573
676.901,76.6242,50.2941,0,9.5202,3.10634,-0.318538,15.7317,-9.90854,-49.9695,-19.4428,0.340093,35.9397,-3.44512,-74.2988,38.4451
676.911,76.0176,50.7382,0,9.88904,3.3674,-0.301772,15.4573,-1.70732,-50.8232,-19.5386,0.713716,35.499,-2.86585,-68.1707,40.1524
676.921,75.3776,51.1988,0,9.82197,3.60211,-0.0694556,13.75,3.90244,-52.7439,-19.5386,0.694556,36.8306,-1.92073,-63.5061,43.0183
676.931,74.7517,51.6334,0,10.3177,3.71468,-0.675395,13.2012,8.65854,-53.2927,-19.8356,1.0107,37.0989,-0.823171,-62.0427,44.5427
676.941,74.1211,52.0269,0,10.3465,3.87514,-0.969983,13.1402,6.58537,-53.5671,-20.0846,1.16398,36.6582,-1.06707,-57.7744,44.878
676.951,73.4825,52.4154,0,9.93215,3.85598,-0.505349,9.81707,2.77439,-54.2683,-20.123,1.36516,37.1659,-2.59146,-54.9085,43.4451
676.961,72.8444,52.7958,0,9.72378,3.83682,-0.256267,11.8902,-2.5,-54.878,-20.2283,1.13524,37.6353,-1.76829,-56.0671,41.7073
676.971,72.1961,53.1388,0,9.63516,3.94939,-0.766406,11.7988,-1.58537,-55.6707,-20.5062,0.953218,37.2521,2.46951,-58.3841,38.0488
676.981,71.5134,53.4673,0,9.05557,4.01884,-0.392783,11.1585,-4.17683,-57.1646,-20.6594,0.311353,37.5204,4.35976,-55.3354,36.372
676.991,70.8028,53.804,0,8.90468,4.29187,0.0215552,12.4085,-10.8841,-57.7134,-20.5636,0.253872,38.1814,7.9878,-55.5183,33.5671
677.001,70.1401,54.1179,0,9.62798,3.93502,-0.680186,15.6402,-11.3415,-61.4329,-20.669,0.225132,38.0185,9.87805,-52.9573,31.0061
677.011,69.3819,54.4629,0,9.19448,4.90979,-0.60594,15.2744,-12.0732,-60.5488,-20.1613,1.06818,38.8616,10.3354,-50.6707,29.9085
677.021,68.6537,54.78,0,9.34297,4.79722,-0.270637,13.5976,-14.2988,-60.9146,-20.4199,1.45138,38.7466,9.20732,-52.3476,29.5732
677.031,67.9432,55.0547,0,9.5226,4.79483,-0.859812,12.7439,-11.4024,-61.5244,-20.5732,1.57592,37.8461,8.53659,-49.5427,27.4695
677.041,67.2291,55.2866,0,9.73575,4.90979,-1.32205,8.65854,-0.396341,-63.2622,-20.8415,1.62382,37.0989,8.84146,-48.1098,26.0976
677.051,66.5142,55.4791,0,9.37171,4.79243,-0.838257,5.15244,-1.03659,-64.1463,-20.602,1.92081,35.5756,8.59756,-44.939,23.1707
677.061,65.8222,55.6962,0,9.34058,4.60083,-0.802332,2.86585,-2.92683,-65.0305,-20.1613,1.91123,35.9971,10.0915,-43.0793,21.5244
677.071,65.1297,55.9684,0,8.77535,4.31582,-0.706531,3.10976,-4.48171,-66.5549,-19.5002,2.00703,37.2042,13.4146,-46.7988,20.2439
677.082,64.4367,56.2378,0,8.74422,4.28469,-1.06578,3.81098,-4.63415,-68.2012,-19.0691,1.7771,36.6869,18.2012,-47.5915,21.0366
677.091,63.7457,56.5038,0,8.66758,4.20326,-1.22864,7.28659,-3.87195,-69.8781,-18.9159,1.71004,36.7348,23.8415,-40.6098,21.372
677.101,63.0455,56.7811,0,8.74182,4.26792,-1.55916,9.20732,-5.73171,-71.9207,-18.5231,1.825,36.8881,26.7988,-34.2073,22.8354
677.111,62.3451,56.9965,0,9.01006,4.40684,-1.82261,11.0976,-5.09146,-73.2927,-19.3278,1.86333,36.457,27.5305,-30.5183,25.2439
677.121,61.6303,57.1744,0,8.93103,4.57209,-1.53281,13.4146,-5.09146,-74.0549,-18.7051,2.16031,34.2823,26.128,-21.4634,26.2805
677.131,60.9212,57.3125,0,8.86157,4.64394,-1.44659,16.189,-2.95732,-73.811,-18.9542,2.40939,33.5925,23.0793,-19.4512,27.1037
677.142,60.2195,57.4211,0,8.7035,4.70861,-1.36995,18.8415,0.457317,-72.9573,-19.2128,2.56267,33.2093,20.4268,-21.311,28.628
677.151,59.5497,57.5256,0,8.54303,4.63676,-1.32445,21.311,-1.92073,-70.9756,-18.7626,2.92671,32.4142,16.5244,-24.7256,29.6951
677.161,58.8998,57.6981,0,8.43047,4.70861,-0.828677,20.7927,-4.87805,-68.9024,-17.8237,3.95178,33.2093,11.9817,-21.0671,31.2805
677.171,58.2994,57.9118,0,8.3682,4.5194,-0.716111,22.5915,-5.27439,-66.8293,-17.0573,4.66071,33.4776,5.03049,-19.1463,33.2317
677.181,57.707,58.1176,0,8.08559,4.48108,-0.696951,20.4573,-3.04878,-65.9756,-16.5496,5.32173,32.5483,-1.76829,-12.4085,34.5732
677.191,57.1439,58.3345,0,7.94667,4.36133,-0.61073,18.7805,-2.62195,-64.6646,-16.1568,6.13604,32.5196,-11.5244,-2.77439,35.7012
677.201,56.5778,58.5714,0,7.86764,4.40923,-0.60115,17.2256,-0.182927,-65.0915,-16.1664,6.251,33.6309,-20.7012,2.07317,36.5244
677.211,56.0183,58.739,0,7.75986,4.42839,-0.0119751,15.5183,-1.15854,-64.6646,-16.5687,5.66662,32.2992,-27.7134,7.71341,33.9024
677.221,55.4832,58.8455,0,8.18618,4.5697,-0.148491,15.8232,-4.87805,-64.4207,-16.904,5.10139,31.1592,-32.8354,18.4756,27.8049
677.231,54.9567,58.9233,0,8.38496,4.70621,-0.287402,13.5061,-1.64634,-64.3598,-17.134,4.10506,30.8622,-36.311,30.8537,20.2439
677.242,54.3984,59.0225,0,8.10475,4.91937,-0.0886157,11.4329,1.37195,-64.6951,-17.0669,3.30992,31.5903,-40.122,38.689,14.8171
677.252,53.7957,59.1249,0,7.76465,5.25946,-0.0718506,9.14634,2.59146,-64.5427,-16.8466,2.85965,31.4849,-40.8232,48.5366,9.05488
677.261,53.2159,59.2455,0,7.80297,5.37682,-0.0191602,8.44512,-0.152439,-62.5,-16.6071,2.60099,31.849,-43.0488,58.7805,7.92683
677.271,52.6509,59.3468,0,7.91793,5.5301,-0.416733,8.9939,0.518293,-61.4329,-16.8657,2.44771,31.8969,-45.7622,66.4939,7.95732
677.281,52.0911,59.4094,0,7.86285,5.80074,-0.325723,6.18902,-0.884146,-59.0244,-17.3639,2.36149,31.6957,-48.0488,72.1646,10.6707
677.292,51.5431,59.4467,0,7.73112,5.83187,-0.167651,4.11585,0.121951,-57.7134,-17.5555,2.65847,31.3316,-49.1463,78.1707,13.0183
677.301,50.9552,59.4693,0,7.21619,6.04982,-0.299377,2.2561,3.96341,-56.8902,-17.8525,2.79259,31.4562,-49.5427,81.7073,15.5488
677.311,50.335,59.4424,0,6.80186,6.32285,-0.392783,0.304878,2.59146,-55.3963,-18.3985,2.45729,30.9005,-46.7073,89.0854,17.2561
677.321,49.7323,59.4067,0,6.72761,6.41626,-0.524509,-0.487805,-2.07317,-53.3841,-18.6859,2.13157,31.1209,-42.3476,96.4024,17.1037
677.331,49.249,59.3489,0,7.39103,5.99952,-1.28373,0.304878,-4.2378,-51.7683,-18.9733,2.08367,30.9101,-40.5183,103.201,16.9512
677.342,48.8376,59.2462,0,7.84848,5.73368,-1.54958,2.13415,-1.79878,-51.372,-19.2991,2.03577,30.0767,-41.4939,112.53,14.4512
677.351,48.367,59.1843,0,7.06291,5.98276,-0.486189,2.40854,-2.56098,-49.8476,-19.05,2.05493,30.8143,-45.061,119.421,12.0732
677.362,47.8521,59.1566,0,6.57193,6.15999,-0.112566,-2.31707,-6.4939,-49.4512,-18.7913,2.15073,31.3891,-43.3537,122.866,11.128
677.372,47.4253,59.1097,0,7.24254,6.05221,-0.855022,-2.56098,-9.90854,-48.1707,-18.935,2.22737,31.0442,-38.1098,131.067,12.1037
677.382,47.0359,59.0301,0,7.63772,6.15999,-1.18314,-1.89024,-11.5854,-47.2561,-19.5002,2.15073,30.9772,-36.2805,143.201,13.6585
677.391,46.6297,58.9654,0,7.33115,6.21029,-0.974773,-1.58537,-10.7317,-46.9512,-19.826,1.98787,31.8969,-40.2134,149.695,15.3963
677.401,46.1768,58.8599,0,6.98388,6.49769,-0.931663,-3.93293,-11.8598,-47.1037,-20.19,2.19863,31.1496,-43.2927,151.189,16.7073
677.411,45.7177,58.7468,0,6.88329,6.52643,-0.931663,-4.48171,-11.2195,-47.561,-20.372,2.35191,31.073,-43.2927,151.067,18.9024
677.422,45.2735,58.6058,0,6.96232,6.59349,-0.965193,-2.7439,-11.4634,-47.0427,-20.4008,2.20821,30.1725,-39.6037,151.433,20.6402
677.431,44.8203,58.4278,0,6.8761,6.74677,-1.01549,-3.35366,-12.1646,-46.7988,-20.8319,2.09325,29.6264,-38.3537,156.768,21.311
677.441,44.365,58.2501,0,6.81623,6.91203,-1.26457,-3.17073,-9.7561,-46.0061,-21.2917,1.76752,30.1246,-38.3537,162.896,19.8171
677.452,43.9069,58.074,0,6.62462,7.08447,-1.16877,-4.26829,-10.7012,-44.1159,-21.3396,1.87291,30.0671,-38.4146,168.11,19.2988
677.461,43.4547,57.8714,0,6.58391,7.36947,-0.924478,-4.54268,-13.9329,-41.7988,-21.742,2.18905,29.7318,-41.4939,175,17.9573
677.471,43.0476,57.6374,0,6.75395,7.41259,-0.946033,-3.23171,-15.8841,-39.2683,-22.0869,2.39981,29.1665,-45.2744,182.5,17.561
677.481,42.6537,57.3821,0,6.71563,7.53713,-1.16158,-3.17073,-13.628,-37.439,-22.4988,2.77343,28.9079,-47.7134,184.726,18.3232
677.491,42.2606,57.1157,0,6.46416,7.53473,-1.27894,-4.78659,-11.9512,-35.9756,-23.294,3.04167,29.339,-51.0976,181.555,15.1829
677.502,41.8844,56.8391,0,6.33962,7.42456,-1.29092,-4.90854,-12.9573,-34.7866,-23.5239,3.10874,29.0707,-51.9512,179.665,13.5366
677.511,41.5442,56.5541,0,6.41865,7.3575,-1.36756,-3.78049,-12.5915,-33.1098,-23.5622,3.15664,28.6109,-52.439,178.75,9.66463
677.521,41.227,56.296,0,6.54559,7.41259,-1.55676,-3.75,-9.72561,-32.1646,-23.3802,3.49194,28.8121,-55.7012,182.866,6.46341
677.531,40.9452,56.058,0,6.64139,7.23056,-1.29571,-2.31707,-7.31707,-31.4939,-23.6676,2.95545,29.454,-57.4695,187.805,2.10366
677.541,40.6677,55.8049,0,6.65815,7.24733,-1.12805,-1.09756,-6.76829,-31.6463,-23.4185,2.56267,28.5534,-59.2683,197.165,0.426829
677.552,40.3991,55.5567,0,6.64857,7.26888,-1.21667,-0.731707,-6.61585,-31.0366,-23.6867,2.38065,28.7738,-62.7134,202.348,-2.71341
677.561,40.1443,55.3011,0,6.66055,7.18745,-1.43941,-2.71341,-6.52439,-30.9451,-23.5526,1.84417,28.1798,-67.5,204.116,-4.90854
677.571,39.8829,55.0197,0,6.4905,7.05573,-1.31487,-1.25,-4.60366,-31.7073,-23.3323,1.65256,27.0494,-68.9024,206.738,-2.31707
677.581,39.5841,54.763,0,6.21029,7.0198,-1.26936,-0.335366,-3.53659,-33.7805,-23.1024,1.6334,27.1164,-68.1707,209.024,1.92073
677.591,39.2487,54.4935,0,5.9612,6.98388,-1.00351,-0.182927,-1.09756,-36.0671,-23.1982,1.50886,26.6949,-69.3293,212.317,5.27439
677.601,38.8776,54.2319,0,5.59716,6.81383,-0.926873,1.31098,-1.0061,-38.1707,-23.8879,1.48012,27.4134,-69.9085,210.64,9.05488
677.611,38.4833,53.9411,0,5.59237,7.17308,-1.21427,3.68902,-0.640244,-38.3232,-23.8209,1.69088,26.3883,-70.5488,209.97,10.4573
677.621,38.0783,53.6322,0,5.54687,7.32636,-1.27176,4.45122,-2.13415,-38.5671,-23.9358,1.55676,25.8423,-71.1585,212.774,8.29268
677.631,37.6753,53.3349,0,5.68817,7.41738,-1.55916,5.2439,-3.65854,-39.9085,-24.3861,1.28852,26.3404,-74.2683,218.598,4.72561
677.641,37.3049,53.0286,0,5.7217,7.37666,-1.46096,7.95732,-6.70732,-38.0488,-24.9513,1.31726,26.465,-76.7988,219.482,-1.70732
677.652,36.8995,52.6974,0,5.76481,7.9323,-1.62861,7.9878,-4.35976,-38.7195,-25.4112,1.19272,26.0818,-81.4634,218.567,-8.32317
677.661,36.4269,52.3387,0,5.26425,8.27479,-1.32205,5.21341,-4.87805,-39.1768,-25.3058,1.21188,25.0663,-81.4024,219.543,-11.9817
677.671,35.9072,51.9641,0,4.78764,8.5119,-0.984353,3.38415,-10.5183,-38.5976,-25.574,1.25978,24.6831,-79.7256,223.689,-12.9268
677.681,35.3534,51.5415,0,4.40923,8.25803,-1.08494,3.23171,-19.8171,-40.5793,-26.5608,0.799937,24.2615,-73.9024,225.518,-12.8049
677.691,34.8442,51.1284,0,4.83075,7.76465,-1.33882,3.14024,-23.9329,-44.878,-27.0398,0.387993,24.549,-71.5244,227.317,-11.0061
677.701,34.3362,50.716,0,4.99362,7.31678,-1.36516,2.65244,-23.9329,-50.7622,-27.4038,-0.177231,24.5394,-70.8841,228.384,-10.4573
677.711,33.7776,50.2866,0,4.81638,7.20901,-1.23344,2.04268,-24.6037,-55.7927,-27.5763,-0.292192,23.9837,-71.6768,230.671,-11.5549
677.722,33.1881,49.8691,0,4.80201,7.31439,-1.02746,1.34146,-23.9329,-59.1463,-27.2697,0.0622705,23.6101,-73.0793,230.884,-11.1585
677.731,32.5748,49.452,0,5.01757,7.3599,-1.39151,0.243902,-18.1402,-64.8171,-26.6853,0.0143701,22.7671,-75.2744,229.146,-9.93902
677.741,31.9373,49.0842,0,5.23791,8.18857,-1.2023,-4.45122,-20.9451,-65.1219,-26.0722,0.263452,22.8916,-75.1524,225.945,-9.17683
677.752,31.3615,48.6824,0,5.75523,8.7035,-1.06099,-2.28659,-25.3049,-61.8902,-25.986,0.0431104,21.8474,-74.5427,225.671,-9.26829
677.761,30.7861,48.287,0,5.59477,9.17772,-1.02986,-5.85366,-21.7378,-58.7195,-26.4362,0.100591,22.0581,-71.7378,231.128,-11.189
677.771,30.1858,47.8582,0,5.12774,9.20406,-0.938848,-7.65244,-15.8232,-57.8659,-26.9919,-0.0718506,21.5791,-69.8171,238.963,-14.7256
677.781,29.6236,47.3626,0,5.02236,8.81607,-1.12087,-7.40854,-12.6829,-56.311,-27.2122,-0.464634,20.1804,-67.0732,245.854,-21.6463
677.791,29.0627,46.8773,0,4.65352,8.68913,-1.24062,-6.85976,-12.439,-54.2683,-28.4289,-0.397573,20.9085,-65.6098,247.927,-25.1829
677.801,28.5222,46.3894,0,4.54335,8.52387,-1.2502,-5.7622,-14.6037,-53.1098,-28.8312,-0.914897,20.784,-61.3415,248.415,-30.4878
677.811,28.0075,45.9066,0,4.46911,8.48316,-1.28613,-5.21341,-18.1707,-51.0061,-29.0803,-1.03944,20.6978,-58.689,251.22,-31.6768
677.821,27.514,45.4235,0,4.49066,8.54303,-1.27176,-6.37195,-20.5793,-49.7866,-29.3869,-1.16398,20.5445,-58.628,252.561,-31.4024
677.831,27.0388,44.9144,0,4.57928,8.45202,-1.32684,-7.56098,-20.5488,-50.3963,-29.1282,-1.36516,19.5194,-54.878,254.817,-28.9329
677.841,26.5702,44.3863,0,4.43797,8.29395,-1.30768,-5.45732,-20,-50.0915,-29.1282,-1.74836,18.8296,-50.3659,262.866,-25.2134
677.852,26.0955,43.8806,0,4.38768,8.70829,-1.50886,-4.96951,-17.7134,-48.7805,-29.3198,-1.92081,19.0021,-47.5,268.567,-21.6159
677.861,25.614,43.3718,0,3.9925,8.69392,-1.72681,-11.5549,-17.6524,-46.2195,-29.1953,-1.98787,18.5039,-45.1829,269.97,-17.9878
677.871,25.1389,42.8805,0,3.8967,8.32269,-1.31008,-15.4268,-18.9024,-47.4085,-29.7701,-2.23695,18.8201,-43.2622,269.543,-15.3659
677.881,24.6555,42.3753,0,3.76018,8.38496,-1.02507,-14.9695,-21.25,-47.3171,-30.1341,-1.71004,18.4369,-42.3171,270.091,-16.3415
677.891,24.184,41.8361,0,3.7506,8.49513,-0.967588,-13.872,-26.4024,-46.4024,-30.7185,-1.59508,17.8237,-40.4573,275.579,-16.2805
677.901,23.7301,41.2654,0,3.79132,8.47358,-1.28373,-12.5305,-25.2134,-46.1585,-31.4083,-1.24062,17.2777,-37.6524,281.037,-17.5915
677.911,23.2388,40.6826,0,3.55181,8.92863,-1.52084,-12.2561,-23.0183,-45.9756,-31.3795,-0.780776,16.6645,-33.5061,287.683,-18.689
677.921,22.7582,40.1294,0,3.42727,9.06754,-1.56395,-11.7683,-24.5122,-43.872,-31.9639,-0.637075,17.1052,-34.6646,290.64,-20.9451
677.932,22.2867,39.5601,0,3.30034,9.43638,-1.69807,-12.8354,-28.4146,-41.0061,-32.7974,-0.579595,16.837,-35.4268,287.226,-22.9878
677.941,21.8589,38.9706,0,3.38416,9.14658,-1.82021,-13.689,-31.0061,-39.6037,-32.8453,-0.464634,16.0802,-35.5488,284.939,-22.9268
677.952,21.4418,38.3551,0,3.53026,9.03162,-1.82261,-15.7012,-32.439,-41.5244,-33.5159,-0.934058,15.5149,-33.2012,285.793,-23.2012
677.961,21.0303,37.7322,0,3.47996,8.89031,-1.51844,-17.0122,-30.9756,-41.8598,-33.65,-1.1544,15.0168,-31.8598,287.591,-24.5122
677.971,20.549,37.0757,0,2.91234,9.29986,-1.53281,-14.2988,-25.3963,-41.6768,-33.7362,-1.1065,14.0396,-34.6951,291.037,-26.5854
677.981,20.0493,36.4522,0,2.62973,9.18969,-1.36995,-16.0671,-23.3537,-41.6463,-33.3914,-1.2023,14.0204,-39.2683,292.226,-25.5488
677.991,19.546,35.82,0,2.46927,9.51781,-1.30529,-13.0183,-25.3354,-40.122,-32.7878,-1.54718,13.2061,-39.2378,293.232,-25.0305
678.001,19.0856,35.1915,0,2.61297,9.16095,-1.52084,-13.9329,-27.8659,-39.5732,-32.7208,-2.12199,12.8325,-36.8293,296.067,-24.4207
678.011,18.6434,34.6012,0,2.6944,8.80888,-1.54718,-17.8049,-30,-40.8841,-32.6441,-2.05493,13.0241,-36.4329,296.189,-22.0732
678.021,18.2121,33.9985,0,2.72793,8.64363,-1.3939,-17.2561,-33.1402,-41.7073,-33.5351,-2.19863,12.7655,-37.9878,294.726,-20.9146
678.031,17.7922,33.3894,0,2.8357,8.69153,-1.34121,-13.75,-32.0427,-42.561,-33.8416,-1.88249,12.3631,-38.5061,293.049,-19.6037
678.041,17.4174,32.7811,0,3.11592,8.89989,-1.76992,-10.7622,-28.3537,-41.311,-34.244,-1.66214,12.1044,-37.9573,290.549,-16.189
678.052,17.0602,32.1717,0,3.21891,9.33579,-2.27048,-11.0061,-26.372,-39.7256,-35.384,-2.12199,12.0565,-34.3902,287.561,-14.878
678.061,16.7185,31.5157,0,3.16143,9.70941,-2.44052,-14.2683,-26.1585,-36.8598,-36.0738,-2.67763,11.041,-29.4817,285.396,-15.5183
678.071,16.432,30.8927,0,3.35303,9.49146,-2.11959,-15.061,-22.7439,-34.8171,-36.0738,-2.44771,11.156,-27.1037,283.201,-17.2256
678.081,16.121,30.2513,0,2.86684,9.18969,-1.77471,-12.9268,-14.6646,-33.5671,-36.0355,-3.07042,10.38,-26.311,277.439,-18.5366
678.091,15.7906,29.6271,0,2.53393,9.11065,-1.36037,-8.14024,-9.54268,-32.5305,-36.045,-2.99377,10.2267,-27.0732,272.988,-18.75
678.101,15.4213,28.9706,0,2.22497,9.36213,-1.27655,-5.54878,-9.54268,-32.7439,-35.7481,-3.06083,9.17292,-25.0915,270.945,-17.0732
678.111,15.0001,28.3458,0,1.75076,9.5202,-1.40109,-6.43293,-14.2683,-32.7744,-35.5086,-3.11832,9.19209,-24.2988,267.165,-16.7073
678.121,14.6205,27.7137,0,1.94955,9.30944,-1.4921,-9.32927,-18.689,-32.2561,-36.0929,-3.04167,8.78972,-24.0854,263.415,-15.122
678.131,14.2745,27.1226,0,2.14115,9.05557,-1.54479,-10.0915,-20.6098,-32.622,-36.524,-3.24286,9.15376,-22.4085,259.055,-12.1341
678.141,13.9444,26.5373,0,2.16749,8.88313,-1.54239,-8.84146,-20.4573,-32.5305,-36.7348,-3.25244,8.88552,-21.4939,253.384,-10.9756
678.152,13.5941,25.9319,0,1.94476,9.02443,-1.57592,-9.26829,-20.4573,-32.1037,-36.1983,-2.64889,8.01374,-20.7622,249.207,-8.62805
678.161,13.2783,25.3384,0,2.03816,9.1346,-1.47773,-8.47561,-21.0366,-30.1524,-36.3612,-2.88839,7.83171,-21.0366,244.726,-5.97561
678.172,13.0063,24.7773,0,2.213,9.22083,-1.48491,-9.2378,-20.7927,-28.2012,-36.5911,-2.78301,8.01374,-19.0244,239.268,-4.20732
678.181,12.7929,24.1866,0,2.38783,9.26394,-1.4418,-9.05488,-18.3232,-24.7256,-36.8498,-2.89797,7.17069,-18.3841,232.744,-2.16463
678.191,12.6179,23.6065,0,2.47885,9.10586,-1.24302,-7.10366,-14.6341,-22.8354,-37.1947,-3.48236,6.99825,-16.372,225.61,-1.64634
678.201,12.4557,23.008,0,2.40939,9.24478,-1.09452,-7.40854,-11.8598,-20.6098,-37.2809,-3.45362,6.28932,-13.3841,218.963,-2.59146
678.211,12.3034,22.4256,0,2.29203,9.13221,-1.02507,-5,-7.16463,-18.872,-38.1718,-3.10874,6.27974,-11.5244,210.305,-3.53659
678.221,12.1369,21.8562,0,2.0669,9.2831,-1.24302,-2.5,-3.47561,-17.5,-39.446,-3.14706,6.27974,-11.128,202.012,-5.64024
678.231,11.9589,21.2706,0,1.89686,9.39806,-1.27655,-2.62195,-4.08537,-16.6768,-40.107,-3.06083,5.66662,-9.26829,196.341,-5.64024
678.241,11.7625,20.6621,0,1.65735,9.50344,-1.24062,-3.35366,-4.57317,-15.8232,-40.0112,-3.09916,4.80441,-8.65854,190.64,-7.56098
678.252,11.5707,20.066,0,1.60227,9.51062,-1.38432,-4.08537,-4.90854,-15.0915,-40.701,-2.74469,4.65113,-8.53659,183.75,-8.35366
678.262,11.3937,19.5188,0,1.71962,9.59205,-1.57832,-4.7561,-5.82317,-15.1829,-41.065,-2.62973,5.13013,-8.93293,176.494,-9.14634
678.271,11.2245,18.9521,0,1.81063,9.59684,-1.54,-5.73171,-6.4939,-15.8232,-40.7297,-2.25611,4.32541,-10.2744,172.317,-7.7439
678.281,11.0701,18.4245,0,1.9711,9.56331,-1.33642,-4.08537,-7.31707,-16.6159,-40.9692,-2.43813,4.64155,-8.75,168.72,-8.96341
678.291,10.9111,17.8747,0,1.97589,9.60642,-1.22864,-2.31707,-6.67683,-17.3476,-40.9596,-2.62015,3.8464,-10.6707,166.829,-9.39024
678.301,10.7468,17.3541,0,1.88488,9.68306,-1.29092,-1.85976,-4.69512,-16.9817,-40.7393,-3.01293,3.9422,-10.8841,161.159,-9.87805
678.311,10.5706,16.8205,0,1.76992,9.70462,-1.34121,-0.335366,-2.71341,-17.1341,-40.3465,-2.42855,3.28118,-14.2378,155.793,-11.1585
678.321,10.3899,16.3201,0,1.69807,9.68546,-1.35319,0.426829,-2.22561,-17.1646,-39.3693,-2.14115,3.39614,-15,150.396,-9.14634
678.331,10.2146,15.816,0,1.75794,9.7118,-1.31247,0.518293,-2.28659,-17.622,-39.3214,-2.39023,2.96503,-15.122,146.189,-6.12805
678.341,10.0337,15.2986,0,1.71962,9.63756,-1.35079,0.487805,-2.2561,-18.2622,-39.0723,-2.54351,2.36149,-13.9939,143.018,-2.40854
678.352,9.83784,14.7705,0,1.63101,9.60403,-1.32205,0.152439,-1.76829,-19.1768,-39.0436,-2.30401,1.80584,-13.2622,138.445,1.03659
678.361,9.62975,14.2824,0,1.54239,9.55134,-1.24541,-0.182927,0,-19.878,-38.6796,-2.73511,2.10283,-13.2927,134.665,2.16463
678.371,9.4104,13.7671,0,1.42983,9.49146,-1.05141,0.518293,1.03659,-20.2134,-38.8712,-2.61057,1.30768,-12.5915,132.591,2.0122
678.381,9.1803,13.2454,0,1.33403,9.5226,-0.972378,1.98171,1.89024,-20.5488,-39.2927,-2.45729,0.847837,-12.7439,129.97,1.12805
678.391,8.93842,12.7259,0,1.17356,9.52978,-1.06578,2.28659,1.37195,-20.2744,-39.331,-1.90165,0.522114,-14.2378,128.14,0.518293
678.401,8.72658,12.1991,0,1.42983,9.52739,-1.11608,0.853659,1.70732,-20.7927,-39.4747,-1.89207,0.0431104,-13.2927,129.299,1.55488
678.411,8.50608,11.6756,0,1.28613,9.38848,-0.967588,0.426829,0.335366,-20.6098,-39.7238,-2.08367,-0.263452,-14.1463,129.39,0.97561
678.421,8.29976,11.1092,0,1.25978,9.47709,-1.02986,1.4939,-0.731707,-19.1463,-39.4364,-1.88249,-1.36516,-14.5122,130.274,-1.15854
678.431,8.08524,10.5887,0,1.14242,9.52978,-0.972378,0.97561,-1.79878,-18.9024,-39.8579,-2.01661,-0.972378,-15.6098,128.902,-1.28049
678.441,7.87041,10.0682,0,1.06578,9.6663,-1.1041,1.7378,-2.10366,-18.2622,-39.7717,-2.82133,-1.346,-13.0183,124.726,-2.28659
678.451,7.64413,9.5059,0,0.962798,9.77647,-1.17835,1.67683,-1.64634,-18.5061,-40.0495,-3.42488,-2.45729,-11.4939,125.213,-4.57317
678.461,7.41579,9.02639,0,0.946033,9.81719,-1.14961,1.76829,-2.7439,-18.9329,-40.8063,-3.11832,-1.41306,-9.32927,125.183,-7.9878
678.471,7.19435,8.52989,0,0.958008,9.8124,-1.2502,1.03659,-3.96341,-18.8415,-40.5285,-3.49194,-2.06451,-6.89024,120.305,-9.32927
678.481,6.98418,8.07584,0,0.986748,9.71659,-1.20469,-0.152439,-6.34146,-18.5976,-41.0554,-3.559,-1.70046,-3.56707,113.994,-9.45122
678.491,6.80271,7.60809,0,1.09931,9.49386,-1.12326,-0.457317,-7.31707,-17.7439,-40.883,-3.53984,-2.27527,1.03659,111.25,-8.62805
678.501,6.65347,7.14877,0,1.25499,9.63277,-1.09931,-0.640244,-7.68293,-16.4939,-39.8675,-3.63564,-2.40939,5.45732,107.561,-7.65244
678.511,6.51602,6.72844,0,1.28613,9.68546,-1.02507,-0.426829,-5.94512,-15.8841,-40.0591,-3.44404,-2.06451,8.90244,104.146,-5.94512
678.521,6.40803,6.35627,0,1.43222,9.60403,-1.06099,-0.762195,-4.66463,-15.0305,-39.9633,-3.59732,-1.50886,12.4695,102.561,-3.93293
678.531,6.32435,6.01525,0,1.49928,9.55613,-1.06818,-0.701219,-4.14634,-13.6585,-40.3944,-3.02251,-1.24062,15.1829,100.244,-4.14634
678.542,6.26,5.70662,0,1.51365,9.61361,-0.912502,-1.28049,-4.60366,-11.9207,-40.6147,-3.04167,-0.914897,16.8598,98.5976,-3.47561
678.551,6.22787,5.34942,0,1.59508,9.67827,-1.09931,-1.06707,-3.07927,-9.60366,-40.6052,-3.1758,-2.00703,19.1463,97.7744,-3.75
678.562,6.21129,5.00384,0,1.57832,9.69025,-1.13284,-1.52439,-1.40244,-7.86585,-40.883,-2.91713,-2.06451,19.2073,98.2622,-4.05488
678.572,6.21286,4.69153,0,1.59269,9.6663,-1.25499,-1.12805,-0.396341,-6.28049,-40.6339,-2.66805,-1.71004,22.9268,95.5488,-5.88415
678.582,6.2233,4.39574,0,1.49689,9.64474,-1.23344,-1.18902,0.487805,-4.39024,-40.9788,-2.93629,-1.65256,23.0488,94.6646,-6.21951
678.591,6.266,4.08305,0,1.4921,9.616,-1.27176,-1.4939,-0.365854,-2.16463,-41.2279,-2.63931,-2.19863,25,90.5183,-7.77439
678.601,6.41641,3.79015,0,1.4897,9.55852,-1.2981,-0.548781,-1.18902,-0.0914634,-41.1033,-2.51477,-2.07409,27.4695,85.7927,-9.7561
678.611,6.4866,3.51503,0,1.39151,9.54176,-1.28613,0.0609756,-0.762195,1.52439,-41.247,-2.58183,-1.98787,27.7744,80.4573,-11.0671
678.621,6.5384,3.21394,0,1.26457,9.49865,-1.27415,1.25,0.304878,2.71341,-40.9884,-2.05493,-2.66805,28.1707,73.5366,-8.93293
678.631,6.58214,2.91989,0,1.1999,9.5705,-1.33163,1.98171,2.28659,3.10976,-40.6626,-1.73878,-2.76385,27.8354,65.2744,-8.07927
678.641,6.61422,2.63561,0,1.12566,9.58487,-1.346,1.70732,3.84146,3.01829,-40.6435,-1.49928,-2.82133,25.4268,58.2012,-4.87805
678.652,6.62791,2.35279,0,1.03225,9.56092,-1.2023,2.28659,4.14634,2.5,-40.6626,-1.26936,-3.02251,21.9207,51.5549,-2.59146
678.661,6.61161,2.07907,0,0.912502,9.66151,-1.02746,2.56098,4.39024,1.76829,-40.701,-1.38432,-3.08958,16.8902,44.1159,-1.98171
678.671,6.57291,1.79218,0,0.790356,9.64714,-0.969983,2.62195,3.78049,1.64634,-40.7393,-1.62382,-3.54942,13.4756,37.622,-0.853659
678.681,6.51812,1.5125,0,0.730481,9.76928,-1.11368,2.37805,3.93293,1.37195,-40.4519,-1.89207,-3.62606,9.69512,29.939,-0.884146
678.691,6.42008,1.21994,0,0.637075,9.79323,-0.991538,2.62195,4.39024,0.762195,-40.4231,-2.06451,-4.07632,7.28659,23.6585,-2.77439
678.701,6.31641,0.926591,0,0.512534,9.7597,-1.12326,3.04878,4.35976,1.06707,-40.0878,-2.33275,-4.2775,3.56707,19.6646,-3.32317
678.711,6.2101,0.629335,0,0.536484,9.83156,-1.18314,2.65244,3.9939,0.823171,-40.1836,-2.64889,-4.58407,1.52439,14.5122,-3.38415
678.721,6.10701,0.331811,0,0.570015,9.75491,-1.26697,2.19512,3.75,0.731707,-40.1453,-3.18538,-4.80441,1.76829,12.0122,-3.75
678.731,6.00509,0.0156623,0,0.64905,9.73815,-1.26457,1.40244,4.2378,0.396341,-40.0687,-3.62606,-5.35047,1.70732,9.26829,-5.12195
678.741,5.93548,-0.274016,0,0.785566,9.67109,-1.22864,1.61585,4.69512,-0.365854,-39.8292,-3.82724,-5.08223,4.32927,5.60976,-5.7622
678.752,5.91669,-0.556662,0,0.950823,9.61121,-1.20709,2.37805,4.96951,-0.762195,-39.9058,-4.11464,-5.18761,5.70122,0.97561,-5.33537
678.761,5.90598,-0.802178,0,1.0107,9.53218,-1.28852,3.14024,8.04878,-1.52439,-39.8579,-4.25834,-4.72777,5.91463,-1.61585,-5.45732
678.772,5.88028,-1.0655,0,0.941243,9.55852,-1.3484,3.14024,10.2439,-1.85976,-39.6184,-4.0859,-5.19719,7.16463,-4.39024,-5.18293
678.781,5.87316,-1.31893,0,1.01549,9.5226,-1.35558,3.29268,11.5854,-1.40244,-39.4843,-4.16254,-5.19719,7.13415,-6.7378,-3.56707
678.791,5.88309,-1.55731,0,1.14482,9.44596,-1.42504,4.20732,12.8963,-1.89024,-39.513,-3.95178,-5.12055,8.65854,-9.11585,-2.0122
678.802,5.89184,-1.80251,0,1.18793,9.44117,-1.49689,4.87805,12.2561,-2.34756,-39.8388,-4.01884,-5.45585,11.5549,-9.90854,0.365854
678.811,5.89771,-2.03268,0,1.21427,9.5226,-1.47054,5.39634,11.1585,-2.65244,-40.5764,-4.14338,-5.46543,12.1341,-11.372,-0.792683
678.822,5.90622,-2.22521,0,1.2981,9.61361,-1.66933,5.03049,11.4329,-3.10976,-40.8638,-4.16254,-4.99601,10.9146,-15.3354,-3.2622
678.832,5.89987,-2.40471,0,1.30529,9.63756,-1.75555,4.08537,13.9329,-4.42073,-40.586,-3.95178,-4.87147,8.5061,-17.439,-3.44512
678.841,5.86867,-2.59684,0,1.16398,9.68306,-1.88009,3.62805,14.878,-5.15244,-40.4806,-3.62606,-5.22593,7.19512,-20.0915,-2.31707
678.851,5.81409,-2.76107,0,1.02028,9.76928,-1.81782,2.13415,13.2012,-5.7622,-40.4136,-3.66438,-4.86189,5.60976,-23.4451,-2.22561
678.861,5.74197,-2.92454,0,0.881367,9.80042,-1.84417,1.0061,11.5244,-5.97561,-39.8867,-3.56858,-4.90979,0,-25.8841,-1.64634
678.871,5.65495,-3.09387,0,0.778381,9.75731,-1.66214,0.396341,9.39024,-6.46341,-39.4939,-3.7985,-5.08223,-2.04268,-26.7378,-1.40244
678.881,5.58108,-3.24759,0,0.859812,9.69025,-1.7795,-0.426829,6.64634,-6.34146,-39.2544,-4.25834,-4.90021,-3.38415,-28.2622,-1.46341
678.891,5.53635,-3.39147,0,1.00351,9.64474,-1.74597,-1.46341,4.45122,-5.30488,-39.1011,-4.64155,-4.82357,-5.12195,-30.6098,-2.43902
678.901,5.51943,-3.54568,0,1.16877,9.71659,-1.67412,-3.01829,1.85976,-4.48171,-38.9957,-4.98643,-5.09181,-4.90854,-31.0671,-3.10976
678.911,5.5369,-3.68778,0,1.32205,9.70462,-1.65017,-4.29878,0.182927,-3.14024,-39.0149,-5.51333,-4.99601,-6.15854,-32.9268,-3.59756
678.921,5.58961,-3.82529,0,1.41306,9.63516,-1.6813,-5.06098,0.121951,-1.92073,-39.264,-5.42711,-5.05349,-4.60366,-35.122,-3.68902
678.931,5.69704,-3.98783,0,1.4897,9.51062,-1.82021,-5.57927,0.97561,-0.97561,-38.737,-5.33131,-5.51333,-3.35366,-34.4512,-1.12805
678.941,5.83279,-4.1511,0,1.47294,9.41482,-1.80105,-5.64024,2.5,-0.609756,-38.0952,-5.48459,-5.54208,-2.95732,-33.628,2.19512
678.952,5.97643,-4.30839,0,1.42025,9.43398,-1.80824,-5.03049,4.02439,-0.27439,-38.6125,-5.6762,-5.61872,-6.18902,-31.5854,3.5061
678.962,6.07234,-4.45951,0,1.37235,9.51062,-1.88249,-5.39634,4.48171,-0.487805,-38.7275,-5.26425,-5.6283,-7.37805,-29.1768,5.06098
678.971,6.13383,-4.61221,0,1.36516,9.60882,-1.85854,-6.4939,2.80488,-0.914634,-39.1873,-5.42711,-5.82948,-7.40854,-29.4207,6.15854
678.981,6.20968,-4.74843,0,1.4418,9.62319,-1.73399,-7.59146,0.640244,-0.884146,-38.8999,-4.90021,-5.60914,-9.08537,-30.9146,8.10976
678.991,6.27963,-4.90882,0,1.46336,9.59924,-1.67651,-8.5061,-0.365854,-1.09756,-38.1335,-4.69903,-6.00192,-10.1829,-29.4512,8.47561
679.001,6.33103,-5.09122,0,1.42264,9.56092,-1.71483,-8.90244,0.243902,-1.40244,-38.2772,-4.88105,-6.50008,-11.9207,-24.878,8.9939
679.012,6.35859,-5.24386,0,1.36995,9.58487,-1.7795,-8.20122,0.152439,-1.92073,-38.4017,-4.98643,-6.1073,-13.811,-18.3232,8.5061
679.021,6.36925,-5.38998,0,1.34121,9.59924,-1.84656,-8.81098,0.0914634,-2.62195,-38.7083,-4.66071,-6.13604,-16.4024,-14.9085,7.77439
679.031,6.3796,-5.48445,0,1.38672,9.62558,-1.79626,-9.26829,-0.579268,-3.01829,-39.0628,-4.57449,-5.38879,-20.6402,-15.9451,6.61585
679.041,6.39609,-5.5894,0,1.50168,9.59684,-1.82021,-9.72561,-0.945122,-3.68902,-38.9382,-4.60323,-5.60914,-24.7866,-12.5915,6.82927
679.051,6.42004,-5.66596,0,1.55916,9.54415,-1.79387,-11.189,-1.28049,-3.71951,-39.1203,-4.67987,-5.21635,-29.7256,-14.6341,6.61585
679.061,6.45076,-5.73294,0,1.64777,9.46991,-1.64298,-11.6159,-0.548781,-4.14634,-39.0915,-4.76609,-5.10139,-33.9329,-15.6707,8.32317
679.071,6.49078,-5.85177,0,1.73878,9.3789,-1.50407,-11.0976,0.304878,-4.42073,-38.5646,-4.87147,-5.97318,-37.439,-14.2988,9.02439
679.081,6.52867,-5.93399,0,1.76273,9.41722,-1.59987,-10.2134,1.55488,-4.69512,-38.6604,-5.01517,-5.42711,-40,-12.7439,8.96341
679.091,6.57297,-5.99857,0,1.80345,9.4244,-1.62622,-10,2.56098,-4.48171,-38.7945,-5.07265,-5.19719,-45.4878,-13.2317,9.08537
679.101,6.63109,-6.04829,0,1.86812,9.43877,-1.69328,-10.1524,2.34756,-3.90244,-38.5933,-5.27383,-4.95769,-48.811,-13.3232,8.47561
679.112,6.71729,-6.10587,0,2.03816,9.43398,-1.71962,-10.3963,2.04268,-3.35366,-38.5167,-5.46543,-5.11097,-50.0915,-11.4024,6.52439
679.121,6.87109,-6.13903,0,2.29203,9.40045,-1.75794,-10.7622,0.97561,-2.07317,-38.2006,-5.54208,-4.68945,-53.9024,-11.128,5.97561
679.131,7.17756,-6.17776,0,2.53393,9.43159,-1.74357,-11.8598,-0.213415,-0.670732,-37.7886,-5.34089,-4.74693,-56.25,-8.65854,5.33537
679.141,7.49646,-6.19885,0,2.77583,9.44356,-1.73878,-12.622,-1.25,0.884146,-37.2713,-5.13971,-4.40205,-60.3659,-5.15244,7.43902
679.152,7.75271,-6.20673,0,3.0273,9.38608,-1.72441,-13.1707,-1.79878,2.7439,-36.936,-4.92895,-4.15296,-64.4817,-3.53659,7.92683
679.161,8.03338,-6.21537,0,3.20933,9.27352,-1.63819,-13.5366,-2.22561,5.30488,-36.8594,-4.81399,-4.15296,-68.2012,-0.701219,9.32927
679.172,8.36659,-6.22234,0,3.45601,9.22562,-1.54479,-14.2073,-1.61585,8.47561,-36.9935,-4.50743,-4.14338,-72.1341,0.121951,9.63415
679.181,8.75396,-6.21041,0,3.68833,9.1849,-1.48491,-15.7927,-2.07317,11.9512,-36.6486,-4.35415,-3.7985,-74.7866,0.762195,10.9451
679.191,9.2247,-6.19076,0,4.02124,8.95019,-1.31966,-16.2195,-3.47561,16.5244,-36.821,-4.16254,-3.68354,-75.9451,0.27439,12.622
679.201,9.76894,-6.18722,0,4.19128,8.85199,-1.33642,-16.0671,-5.79268,22.6524,-36.9935,-3.87514,-3.96136,-77.2256,-2.16463,13.7195
679.211,10.4015,-6.17827,0,4.4236,8.75619,-1.48491,-15.1829,-6.58537,29.7866,-37.1755,-3.8464,-3.8943,-79.2988,-3.84146,16.2805
679.221,11.1124,-6.1503,0,4.65831,8.71069,-1.61664,-15.6402,-2.62195,36.3415,-37.5108,-4.01884,-3.61648,-79.0854,-7.07317,17.439
679.231,11.901,-6.17502,0,4.83554,8.69153,-1.56634,-16.311,3.47561,43.7805,-37.53,-4.11464,-4.48827,-77.2866,-9.11585,19.1159
679.241,12.7714,-6.1865,0,5.01517,8.55262,-1.49689,-17.1037,9.2378,51.0976,-37.6353,-3.7506,-4.29667,-74.2683,-9.69512,22.6524
679.252,13.7368,-6.22378,0,5.21156,8.19336,-1.3963,-16.25,14.7866,58.3232,-38.0377,-3.83682,-4.79483,-67.6524,-11.4329,26.9817
679.261,14.8124,-6.27078,0,5.52771,7.81255,-1.25978,-13.628,20.7012,65.7927,-38.3443,-3.88472,-5.02475,-59.0549,-11.1585,30.2744
679.271,16.0017,-6.31669,0,5.87977,7.42456,-1.36277,-7.62195,29.2073,73.2622,-38.9095,-3.83682,-5.12055,-48.9939,-13.5061,31.0671
679.281,17.2685,-6.36146,0,6.1576,7.17548,-1.61424,1.4939,39.3902,78.9939,-39.4076,-3.82724,-5.21635,-36.4939,-18.8415,32.8963
679.291,18.5429,-6.4353,0,6.17676,7.17787,-2.19863,13.3537,53.0488,82.1951,-39.5897,-3.67396,-5.81032,-21.3415,-24.878,35.7317
679.301,19.7488,-6.52342,0,5.97557,7.81974,-2.87642,23.6585,69.3598,84.6037,-40.222,-3.13748,-6.23184,-6.18902,-29.6341,39.4817
679.311,20.8367,-6.64732,0,5.70254,9.11544,-3.1255,29.2073,84.5427,85.9451,-40.8638,-3.11832,-7.06531,11.2805,-31.7378,45.0305
679.322,21.8177,-6.8562,0,5.46304,10.7872,-3.08718,28.3232,94.3902,87.8049,-41.4195,-3.77934,-8.82804,28.7805,-22.1951,47.5915
679.331,22.7162,-7.10983,0,5.17564,12.2194,-2.5507,23.1098,95.4878,89.3598,-41.8793,-4.40205,-9.91059,41.6463,-10.6707,47.0427
679.341,23.5404,-7.39893,0,4.59604,13.0217,-1.70286,16.8902,87.561,90.7927,-41.3237,-4.1817,-10.6099,50.9451,2.10366,44.7561
679.351,24.3093,-7.70752,0,4.11943,12.7774,-1.25978,16.189,75.8841,90.0305,-40.0495,-3.37698,-10.8399,51.9512,9.45122,42.9573
679.361,25.0078,-8.00429,0,3.26202,12.3559,-0.517324,21.0671,66.8598,90.7012,-39.9058,-2.50519,-10.792,54.3902,13.9329,41.0976
679.371,25.6111,-8.24106,0,1.89686,11.9009,1.07536,24.3902,49.3293,94.1159,-39.9633,-1.2981,-9.92017,51.7683,8.56707,41.2805
679.381,26.103,-8.47532,0,0.677791,11.3452,2.89558,23.8415,15.5793,95.4878,-40.0687,0.100591,-10.1022,52.561,1.21951,43.3841
679.391,26.4952,-8.69967,0,0.0574805,10.9955,3.14945,22.1646,-11.5244,92.6829,-40.3082,1.18314,-10.1693,53.4146,-3.81098,45.3354
679.401,26.8429,-8.91506,0,-0.416733,11.2638,1.42264,23.3537,-16.3415,93.8719,-41.2949,1.22146,-10.4279,53.9634,-6.7378,48.5671
679.411,27.239,-9.11289,0,0.253872,11.2255,-0.713716,19.6646,-2.16463,92.561,-42.0901,1.13524,-10.4567,55.1524,-8.29268,50.4878
679.421,27.6279,-9.29209,0,0.747246,10.7177,-1.5855,17.5305,5.51829,87.1341,-42.435,0.828677,-10.3417,52.1646,-11.7378,51.0061
679.431,28.0181,-9.46245,0,1.26457,10.107,-1.4418,12.5,-4.87805,81.6463,-42.138,0.244292,-10.2651,51.311,-19.6037,51.6159
679.441,28.4529,-9.57789,0,2.0693,9.4268,-1.00112,7.07317,-22.7744,76.2805,-41.4865,0.435894,-9.21125,51.0061,-28.3841,54.0854
679.452,28.9254,-9.66331,0,2.58902,8.83044,-0.443079,5.82317,-42.3476,72.9268,-41.0937,-0.0526904,-8.68434,51.4634,-39.9695,56.4024
679.461,29.4296,-9.74865,0,3.22609,8.26761,-0.517324,8.78049,-53.689,66.9817,-40.7872,0.129331,-8.72266,53.5976,-51.0976,60.4878
679.472,29.9591,-9.82586,0,3.76976,8.06882,-1.23583,10.7927,-49.6951,62.9878,-40.4806,0.301772,-8.6077,56.189,-61.8293,63.9634
679.481,30.5008,-9.86517,0,4.19607,7.95625,-1.43462,10.7622,-32.8354,59.6646,-39.81,0.0239502,-7.86045,58.3232,-70.8841,66.6768
679.492,31.0522,-9.92125,0,4.5673,7.90596,-1.38432,11.311,-11.4634,57.2561,-38.4784,-0.0431104,-7.93709,59.8171,-75.5488,67.2561
679.501,31.5969,-9.95733,0,4.8571,7.57066,-1.14003,11.7378,3.23171,52.2561,-37.4916,-0.0622705,-7.42935,59.878,-75.9756,65.3963
679.511,32.1575,-9.97885,0,5.50136,7.27846,-0.979563,12.5305,11.0366,46.0061,-36.8115,-0.282612,-7.07489,60.3049,-76.4634,62.0122
679.521,32.7232,-10.0006,0,6.1049,6.96232,-0.984353,15.3963,16.4329,39.1768,-36.2079,-0.148491,-6.96951,59.3598,-74.2378,55.6402
679.531,33.2829,-10.0082,0,6.56954,6.61265,-1.20469,19.4512,22.9268,32.439,-35.8151,0.378413,-6.67252,54.7256,-72.8963,50.9756
679.541,33.7243,-10.0352,0,6.04982,6.75156,-1.31966,22.6829,28.4756,27.5305,-35.863,1.22146,-6.99825,51.7073,-71.1585,48.3232
679.552,34.0802,-10.0509,0,5.57561,6.83778,-1.41546,26.6463,35.4268,25.1524,-36.2941,1.825,-6.90245,49.0854,-67.8354,44.5732
679.561,34.3694,-10.0597,0,5.09421,6.64618,-1.57832,29.0854,39.7866,22.5915,-36.5432,2.59141,-6.83539,43.9329,-64.8476,45.7012
679.571,34.5961,-10.0622,0,4.73974,6.41147,-1.69567,32.2256,38.9634,18.8415,-37.1276,2.73511,-6.83539,38.872,-62.4695,43.9634
679.581,34.7343,-10.0614,0,4.44755,6.46416,-1.66693,36.25,34.3902,14.2378,-37.5204,2.98419,-6.85455,33.7195,-62.8354,41.3415
679.591,34.8253,-10.0467,0,4.43079,6.45697,-1.67891,38.9939,31.128,9.84756,-37.8269,2.74469,-6.66294,29.8171,-60.4268,34.1159
679.601,34.8584,-10.0817,0,4.44755,6.56714,-1.61664,41.7073,31.5549,4.96951,-37.1851,2.79259,-7.37187,23.2622,-57.1341,26.0061
679.611,34.6777,-10.1281,0,4.39486,6.5863,-1.46815,41.372,30.8537,-0.548781,-36.4857,2.80217,-7.42935,17.5305,-51.8902,16.0976
679.621,34.5811,-10.2041,0,4.29667,6.69168,-1.26936,39.4817,28.4451,-5.67073,-35.9971,2.76385,-7.82213,8.81098,-43.2012,9.08537
679.631,34.4149,-10.3091,0,4.24397,7.02699,-0.931663,37.6524,23.5366,-9.90854,-35.2212,2.84049,-8.15744,0.0609756,-36.9817,4.81707
679.641,34.1918,-10.423,0,4.28229,7.36469,-0.646655,34.4817,14.6341,-14.1159,-34.905,2.54351,-8.2724,-6.03659,-29.939,2.16463
679.651,33.9401,-10.5314,0,4.48587,7.60419,-0.387993,31.9207,8.2622,-18.2317,-35.1828,2.10283,-8.30114,-10.7622,-23.2317,-1.25
679.661,33.6873,-10.6661,0,4.68705,7.43175,-0.146096,30.4878,3.75,-22.3171,-35.6427,1.93997,-8.90468,-16.5244,-18.872,-2.68293
679.671,33.4353,-10.8094,0,4.90979,7.25212,0.0550855,31.128,0.0304878,-26.5549,-36.342,1.346,-9.29747,-21.3415,-13.5366,-2.56098
679.681,33.2037,-10.9393,0,5.15169,6.94795,0.0431104,32.5,-3.71951,-30,-36.9072,0.579595,-9.29747,-23.2622,-9.87805,-3.38415
679.691,32.9875,-11.0665,0,5.37442,6.7827,0,34.8476,-7.56098,-32.6524,-37.415,0.589175,-9.46033,-22.9573,-7.9878,-5.33537
679.701,32.8282,-11.1827,0,5.82469,6.65336,-0.232317,35.6098,-13.75,-33.0183,-38.0856,0.263452,-9.52739,-22.1037,-8.78049,-6.09756
679.711,32.7522,-11.2595,0,6.48811,6.51206,-0.330513,35.8841,-19.2988,-32.378,-38.8328,0.273032,-9.09628,-17.8049,-12.378,-6.67683
679.721,32.746,-11.2973,0,7.10363,6.46176,-0.471819,37.1646,-24.2988,-31.1585,-39.7717,0.455054,-8.67476,-13.3841,-17.9268,-7.04268
679.731,32.7696,-11.3391,0,7.68801,6.7324,-0.656235,38.4146,-29.5732,-30.3354,-39.9441,0.608335,-8.83762,-8.01829,-25.061,-6.58537
679.741,32.8132,-11.3591,0,8.15504,6.96472,-0.706531,36.7683,-32.5305,-29.6951,-39.5705,0.627495,-8.40652,-3.59756,-30.4573,-9.02439
679.752,32.9305,-11.3752,0,8.71308,6.98867,-0.560435,31.5244,-34.2988,-25.7012,-39.6184,0.838257,-8.3682,-2.62195,-32.1037,-9.2378
679.762,33.0805,-11.3909,0,8.82804,7.28804,-0.364043,26.0671,-36.25,-20.4573,-39.6855,1.35558,-8.39694,-3.41463,-35.4268,-9.02439
679.772,33.2565,-11.4361,0,8.87594,7.69759,-0.536484,21.7988,-37.3171,-14.6646,-39.5609,1.7292,-8.92384,-6.79878,-36.3415,-8.78049
679.782,33.4646,-11.4794,0,8.8472,7.95625,-0.831072,15.8537,-35.5183,-8.93293,-39.3119,2.09325,-8.86636,-11.5244,-36.4939,-6.70732
679.791,33.698,-11.5517,0,8.65321,7.99218,-1.11368,11.5549,-32.439,-4.45122,-39.4556,2.53393,-9.46033,-17.1951,-36.0976,-4.02439
679.801,33.9499,-11.6286,0,8.36101,7.87961,-1.57592,9.02439,-28.4756,-2.0122,-40.0495,3.18538,-9.73815,-24.7561,-35,-1.82927
679.811,34.2644,-11.7211,0,8.01374,7.70238,-1.77471,10.6098,-26.0061,-0.426829,-40.7201,3.77934,-10.2459,-33.7195,-32.0122,0.884146
679.821,34.5508,-11.8715,0,7.76226,7.57545,-1.90165,13.9024,-26.311,1.06707,-40.6626,4.30625,-11.3955,-41.6768,-27.2561,6.06707
679.831,34.8799,-12.0592,0,7.66167,7.38624,-2.1172,15.7317,-28.5061,0.548781,-40.6818,4.84273,-12.2098,-47.0427,-19.1463,8.10976
679.842,35.1151,-12.2113,0,7.62335,7.2593,-2.09564,17.0122,-28.872,-2.0122,-40.7489,4.66071,-11.6446,-50.6707,-9.72561,9.63415
679.851,35.2568,-12.2422,0,7.54431,7.45091,-2.44052,16.6463,-25.3659,-6.46341,-41.6398,4.50743,-9.64235,-49.0549,-9.60366,6.98171
679.861,35.221,-12.2325,0,7.13716,8.64842,-2.55788,13.5061,-16.8293,-12.378,-42.4158,4.06674,-9.0867,-36.2195,-18.75,5.27439
679.871,34.9603,-12.2455,0,6.33243,9.99442,-3.24765,11.128,-11.8902,-20.7622,-44.7629,3.24286,-10.0543,-18.0488,-20.0915,3.2622
679.881,34.559,-12.2335,0,5.54926,10.1932,-3.7051,9.66463,-19.7866,-27.8963,-46.746,1.76752,-9.91059,-0.518293,-5.39634,1.4939
679.891,34.1382,-12.1869,0,5.23072,9.69264,-3.63564,3.9939,-26.0976,-30.2744,-47.9818,0.234712,-9.31663,9.48171,13.872,2.16463
679.901,33.795,-12.0785,0,5.92528,9.76689,-2.65608,-3.10976,-18.7195,-29.1159,-48.4321,-1.21188,-7.92751,16.0061,30.8232,5.09146
679.911,33.5252,-11.9532,0,6.71084,9.89143,-2.30161,4.87805,-3.53659,-28.2622,-48.7674,-2.62015,-7.47725,23.9939,40.0305,6.34146
679.921,33.2595,-11.8626,0,7.63532,10.9357,-3.0273,14.8171,15.7012,-29.9695,-49.2177,-4.55533,-8.1766,34.6951,47.0732,1.03659
679.931,32.9931,-11.6998,0,8.10714,11.5727,-3.55421,2.59146,40.2744,-30.7622,-48.7003,-5.16845,-6.38512,42.439,56.6463,-10.8537
679.941,32.689,-11.4739,0,6.84736,10.6794,-1.95913,-7.04268,59.4817,-30.3659,-47.6657,-3.99968,-4.71819,44.4512,69.1463,-19.9695
679.951,32.1994,-11.1465,0,4.16254,9.91299,-0.632285,-3.71951,55.2134,-29.7256,-46.3245,-2.55309,-2.25611,34.6037,84.6037,-23.2317
679.961,31.4384,-10.7043,0,1.38911,9.86988,-0.479004,-3.38415,42.3171,-28.2927,-45.6155,-1.64298,0.368833,21.0976,89.5732,-23.4451
679.971,30.4436,-10.2297,0,-0.857417,9.55613,-0.308958,-3.23171,31.6768,-26.8902,-44.7438,-0.799937,1.32684,9.2378,84.6037,-23.811
679.981,29.266,-9.64141,0,-2.47406,9.47709,-0.275427,0.335366,9.81707,-28.1707,-45.0982,-0.292192,3.92304,3.5061,69.6341,-26.0061
679.991,28.0359,-8.96537,0,-2.95306,9.99202,-1.84177,-4.63415,-17.378,-32.1951,-45.3473,0.282612,6.12646,-3.38415,53.3232,-33.2012
680.001,26.8229,-8.24921,0,-2.33514,10.2483,-3.53505,-15.9756,-42.561,-40.3659,-44.7533,0.617915,7.34313,-14.1768,40.0915,-42.7744
680.011,25.6152,-7.48132,0,-1.63101,10.1429,-3.94699,-20.3354,-57.0122,-49.8476,-44.054,1.48012,8.76098,-27.8659,21.372,-46.5244
680.021,24.471,-6.89709,0,-0.62031,10.4351,-4.15296,-21.0976,-62.9878,-57.5305,-42.32,1.27894,5.42711,-48.2927,7.22561,-48.9329
680.031,23.4021,-6.04522,0,0.344883,10.2291,-3.95418,-21.5244,-58.9024,-63.0793,-43.3451,3.76018,11.2901,-63.8415,-3.10976,-44.7256
680.041,22.4274,-5.37357,0,1.23823,9.87467,-3.63564,-18.9024,-47.3171,-66.2805,-39.8004,2.58183,7.65927,-78.4146,-4.60366,-36.0976
680.052,21.5272,-4.77343,0,1.89686,9.6639,-3.75539,-17.8963,-34.7256,-68.75,-38.6508,2.57225,6.64378,-92.3781,-5.64024,-26.6768
680.061,20.6191,-4.2628,0,1.73639,9.21125,-3.61648,-15.2744,-25.9756,-70.5183,-38.3059,2.31359,5.42711,-103.11,-11.5854,-18.4146
680.071,19.7471,-3.83371,0,2.01182,8.86636,-3.48954,-12.1646,-19.0244,-72.9878,-37.9994,1.42264,4.31582,-107.927,-18.811,-13.3537
680.081,18.8309,-3.46819,0,1.50647,8.63644,-3.13987,-7.68293,-17.1646,-73.3841,-38.1239,-0.205972,3.52068,-111.098,-24.3293,-12.8049
680.091,17.8422,-3.15576,0,0.814307,8.88552,-3.23807,-6.18902,-18.5671,-73.1402,-38.2964,-1.92081,2.86923,-108.811,-27.622,-16.0671
680.101,16.8834,-2.92509,0,0.838257,8.8975,-3.16861,-6.7378,-20.5183,-72.4085,-38.2676,-3.92304,1.6813,-105.762,-31.0671,-24.4207
680.112,15.9332,-2.73995,0,0.711321,9.14658,-2.85247,-7.80488,-22.622,-71.5854,-37.894,-5.43669,1.0586,-98.4756,-30.2744,-36.311
680.121,15.0366,-2.58606,0,0.914897,9.25915,-2.70877,-8.32317,-26.3415,-70.4878,-37.6066,-6.35638,0.656235,-90.1829,-29.5732,-44.4207
680.131,14.2582,-2.50699,0,1.67651,9.21364,-2.67763,-9.05488,-29.3293,-69.7866,-37.1755,-7.69759,-0.474214,-81.0366,-28.5976,-51.311
680.141,13.427,-2.46262,0,1.09692,9.25436,-2.34472,-8.84146,-33.5061,-69.5122,-36.8115,-8.15744,-0.972378,-71.9207,-25.5793,-58.2317
680.152,12.5747,-2.42232,0,0.744851,9.46512,-2.27527,-9.57317,-39.8476,-68.75,-36.2845,-8.16702,-0.991538,-62.8659,-24.3293,-61.4634
680.161,11.7988,-2.41328,0,1.18793,9.42919,-2.36867,-9.54268,-47.5305,-68.1707,-35.9588,-7.73591,-1.45138,-53.2927,-23.689,-63.9634
680.171,11.0165,-2.41645,0,0.874182,9.18969,-2.55549,-10.5488,-56.7988,-66.8293,-35.4032,-7.19943,-1.62382,-44.6037,-26.8293,-64.6646
680.181,10.2851,-2.44325,0,1.03944,9.05557,-2.70877,-11.7683,-62.7134,-65.5183,-34.9817,-6.1552,-1.97829,-36.6463,-29.0244,-64.3902
680.191,9.64435,-2.47515,0,1.59269,8.943,-2.81175,-10.1524,-66.0366,-65,-34.3685,-5.11097,-2.04535,-25.7012,-31.6768,-63.1402
680.201,9.04942,-2.50204,0,1.84177,8.84481,-2.78062,-8.5061,-66.0366,-65.0305,-33.6117,-4.58407,-1.94955,-19.2378,-33.4146,-57.1037
680.211,8.47741,-2.53168,0,1.93757,8.90947,-2.78062,-8.68902,-63.1707,-64.939,-33.4393,-3.86556,-2.00703,-13.6585,-37.2561,-52.439
680.221,7.90156,-2.58015,0,1.6837,8.73703,-2.62973,-9.93902,-61.1585,-63.7195,-33.5925,-3.99968,-2.32317,-8.10976,-40.4878,-47.8659
680.231,7.30298,-2.63785,0,1.31008,8.66518,-2.48124,-10.8537,-61.128,-62.5,-33.6117,-4.57449,-2.49561,-3.29268,-42.2561,-46.1585
680.242,6.70979,-2.66083,0,1.21906,8.658,-2.4549,-11.9817,-60.2744,-61.9817,-34.0524,-4.67987,-2.04535,0.335366,-44.2683,-45.7317
680.252,6.10911,-2.69186,0,0.960403,8.658,-2.44052,-14.4512,-59.5732,-60.5183,-34.5506,-4.85231,-2.21779,1.12805,-46.1585,-46.4024
680.261,5.53793,-2.74732,0,0.946033,8.78972,-2.54112,-17.5,-61.3415,-58.3537,-34.8571,-4.72777,-2.63931,1.03659,-48.0183,-44.939
680.271,4.9321,-2.83066,0,0.900527,9.30465,-2.73511,-16.4634,-63.0488,-61.7988,-34.723,-4.89063,-3.08958,2.07317,-47.0427,-41.5244
680.281,4.33745,-2.965,0,1.29331,9.50104,-3.02012,-14.2683,-62.5305,-66.4329,-34.0811,-5.22593,-3.8464,2.0122,-43.628,-38.3232
680.291,3.78188,-3.12582,0,1.78429,9.66869,-3.20693,-14.5427,-59.4512,-69.1768,-33.4488,-5.36963,-4.23918,4.45122,-39.7866,-34.8476
680.301,3.25118,-3.33934,0,1.99026,9.48907,-3.30034,-19.3902,-55,-70.6098,-32.8836,-5.35047,-5.02475,3.20122,-34.3293,-30.7012
680.312,2.81899,-3.58835,0,2.41178,8.7538,-2.9818,-22.7134,-53.1098,-68.9024,-32.7687,-5.69536,-5.63788,2.68293,-27.2561,-26.2805
680.321,2.51341,-3.86656,0,3.03209,8.47358,-2.95306,-22.5,-52.4085,-65.6098,-32.51,-5.23551,-6.1552,2.16463,-21.6463,-20.061
680.331,2.27123,-4.19559,0,3.33626,8.5119,-2.75906,-23.3232,-46.8293,-63.2622,-32.4046,-5.29299,-7.03657,2.68293,-15.3354,-12.1646
680.341,2.08621,-4.54179,0,3.56858,8.63644,-2.32077,-22.6829,-39.9085,-60.061,-32.3855,-5.27383,-7.46767,3.65854,-9.48171,-5.2439
680.352,1.94731,-4.944,0,3.63803,8.61968,-2.02379,-20.6402,-32.561,-56.6159,-32.2418,-5.15887,-8.464,7.16463,-2.13415,1.15854
680.362,1.85414,-5.38232,0,3.57337,8.6053,-1.98547,-16.4634,-25.7927,-51.5549,-32.1651,-4.85231,-9.21125,10.6707,6.55488,9.32927
680.371,1.79535,-5.86585,0,3.45841,8.69871,-2.19863,-11.5854,-21.7378,-46.4634,-32.0693,-4.54575,-10.1118,17.622,18.628,17.9268
680.381,1.77552,-6.33972,0,3.53505,8.98372,-2.48124,-9.02439,-16.189,-42.1951,-31.9544,-4.2296,-10.1884,23.7805,29.8476,29.4817
680.391,1.75767,-6.67904,0,3.38177,9.31902,-2.70398,-8.14024,-11.0061,-38.9024,-32.625,-4.11464,-8.57896,26.6463,35.4573,38.4146
680.401,1.7676,-6.87118,0,3.53744,9.43398,-3.07281,-8.62805,-6.89024,-37.3476,-33.8129,-4.80441,-6.78749,25.5793,36.4939,44.7561
680.411,1.80388,-6.94128,0,3.86556,9.36932,-3.26441,-9.84756,-1.95122,-38.4451,-35.5852,-5.69536,-5.30257,18.75,33.5366,45.1829
680.421,1.82355,-6.94601,0,3.81048,9.14897,-3.24286,-10.4573,3.41463,-40.4573,-38.2006,-5.88696,-4.62239,5,32.5915,38.6585
680.431,1.78802,-6.98318,0,3.39374,8.91426,-2.99138,-9.96951,9.7561,-42.439,-39.3981,-5.16845,-5.33131,-7.71341,36.0366,33.1402
680.441,1.69354,-7.05496,0,2.85965,8.73464,-2.63931,-6.98171,14.6037,-42.9878,-40.3273,-3.48236,-6.08814,-14.6341,42.5915,30.7927
680.452,1.51775,-7.1373,0,2.05014,8.7059,-2.38304,-2.59146,16.4634,-41.5244,-40.7489,-1.95913,-6.37554,-19.0549,48.8415,36.8598
680.461,1.32414,-7.16901,0,1.55916,8.7993,-2.28006,0,13.4451,-37.1646,-41.9464,-2.17947,-5.65704,-22.6829,52.0122,41.7988
680.471,1.13324,-7.20255,0,1.19751,9.02922,-2.5507,0.609756,8.96341,-32.1951,-42.8756,-2.82133,-5.83906,-30.1524,52.6524,42.7134
680.481,0.943626,-7.32047,0,0.759221,9.45793,-2.87163,-0.792683,2.71341,-26.4024,-43.1151,-4.02842,-7.52515,-37.9268,56.5854,36.4024
680.491,0.758856,-7.56429,0,0.318538,10.1142,-3.06083,-4.39024,-5.39634,-20.6098,-42.8277,-4.97685,-10.016,-41.0061,63.5366,25.3963
680.501,0.60469,-7.9157,0,0.0790356,10.8973,-3.18298,-11.311,-14.878,-15.0305,-42.4829,-6.28932,-12.2386,-40.7012,74.2683,13.5366
680.511,0.511633,-8.26367,0,0.129331,11.5296,-3.32908,-20.5488,-28.4146,-9.57317,-42.1955,-7.58263,-12.3152,-33.811,87.3476,2.07317
680.521,0.511763,-8.4441,0,0.598755,11.5608,-3.6045,-28.689,-41.6768,-5,-43.0289,-8.78972,-9.45075,-28.628,87.3781,-7.16463
680.531,0.627632,-8.55753,0,1.27655,11.4506,-3.67396,-32.9878,-48.0183,-1.0061,-44.4372,-10.5429,-8.5598,-22.561,81.8598,-13.3841
680.542,0.829474,-8.6597,0,1.82021,11.4985,-3.57816,-33.0488,-47.8354,3.41463,-46.7173,-11.4817,-8.82804,-21.7683,88.2317,-20.2439
680.552,1.10862,-8.81642,0,2.09325,11.5296,-3.65719,-31.4024,-43.1402,9.17683,-48.8728,-11.8362,-10.4854,-19.939,102.713,-27.3171
680.561,1.51249,-8.92289,0,2.73511,11.35,-3.753,-29.6951,-36.6768,15.8232,-50.5397,-10.3896,-9.72857,-18.2012,123.11,-32.0732
680.571,2.09911,-8.86343,0,3.81527,11.1201,-3.96855,-29.6037,-31.8293,24.2988,-52.2258,-9.39327,-6.19352,-14.7256,132.957,-35.061
680.581,2.92509,-8.78678,0,5.19719,10.5884,-3.93502,-31.4024,-24.0244,35.2134,-52.6665,-9.10586,-5.80074,-11.2195,129.848,-34.5122
680.591,3.96594,-8.76315,0,6.22466,10.3513,-3.56379,-31.6159,-18.628,48.872,-52.0917,-8.52148,-6.85455,-3.47561,140.152,-32.8354
680.601,5.22805,-8.68593,0,7.27846,10.1908,-3.04646,-33.5671,-17.4085,64.3598,-50.3864,-7.15153,-5.36005,6.55488,149.726,-29.5427
680.611,6.6534,-8.5019,0,8.03769,10.0974,-2.21539,-38.2012,-15.5488,77.5,-48.5183,-4.61281,-2.81175,15.4573,145.854,-20.9756
680.622,8.2015,-8.18973,0,8.19576,9.70941,-1.15679,-45.4268,-4.60366,89.5732,-46.2766,-1.79626,-0.0143701,13.872,121.433,-10.4878
680.631,9.803,-7.74345,0,7.6449,9.33818,0.0407153,-48.2012,12.3476,99.939,-43.8815,-0.215552,2.69679,15.122,88.2622,1.95122
680.641,11.4443,-7.08994,0,6.52164,8.33467,0.771196,-43.0793,26.1585,109.848,-44.7725,1.93997,7.11321,22.2561,54.1463,9.20732
680.651,13.0281,-6.47433,0,4.5697,7.53952,-0.443079,-27.9878,43.5061,121.25,-41.7164,1.18314,6.31806,28.628,31.6159,17.0122
680.661,14.5798,-5.80372,0,3.3171,6.7324,-1.01788,-13.811,61.0366,131.402,-41.6302,2.22737,7.76465,38.9634,21.1585,23.6585
680.672,15.9673,-5.2446,0,1.73399,6.3468,-1.14961,3.78049,75.3659,140.152,-40.3273,3.40572,5.98276,41.0671,24.8476,26.128
680.681,17.2181,-4.67965,0,0.680186,6.75395,-1.69567,17.1951,85.8232,148.476,-44.2839,-1.65256,7.08447,56.7988,13.628,19.5122
680.691,18.3046,-4.16235,0,-0.66342,8.19097,-1.8777,20.6707,84.2988,155.457,-43.2684,-2.74469,6.4426,59.9695,17.2561,7.2561
680.701,19.3187,-3.72013,0,-1.7292,9.98723,-1.65256,17.561,70.3354,160.884,-42.5212,-4.37331,5.27383,60.5488,13.2012,-8.84146
680.711,20.3235,-3.34134,0,-2.53633,11.9248,-1.41546,14.7866,51.4024,166.463,-41.7931,-5.20677,4.30625,60.7012,7.59146,-25.8841
680.721,21.4415,-3.02687,0,-1.82261,14.806,-2.11241,12.2561,38.811,169.878,-39.6567,-4.83315,3.20454,59.1768,4.05488,-33.2622
680.731,22.6176,-2.77203,0,-0.502954,17.1843,-3.45841,12.0732,27.2866,167.195,-36.8019,-3.93262,2.19863,57.378,2.10366,-29.3293
680.741,23.7567,-2.58426,0,1.35079,18.3794,-4.92177,13.9024,10.0305,153.811,-35.0487,-2.68721,1.2023,55.0915,-0.97561,-13.2927
680.751,24.8362,-2.44185,0,3.07281,16.8657,-5.54447,8.56707,-11.8293,137.561,-34.7517,-2.16989,0.598755,55.3049,-5.06098,9.20732
680.761,25.8512,-2.31479,0,3.43446,14.2863,-4.19847,5.27439,-25.3354,126.677,-34.7038,-1.7292,0.435894,53.9939,-9.48171,31.372
680.771,26.81,-2.25143,0,2.7423,12.2553,-2.28964,8.78049,-25.8537,124.848,-35.384,-0.934058,-0.474214,49.7561,-10.7317,54.2378
680.781,27.7611,-2.2345,0,2.3567,10.8015,-1.14961,17.1341,-14.7561,126.646,-36.5815,-0.407153,-1.19272,46.372,-8.78049,68.8415
680.792,28.6967,-2.25852,0,2.04774,10.2698,-0.701741,25.061,6.21951,129.116,-36.4761,0.148491,-1.825,41.4939,-4.69512,77.3171
680.801,29.5899,-2.35862,0,1.96392,9.93694,-0.902922,34.9695,29.6341,126.89,-36.8689,0.790356,-3.09916,34.3902,-3.75,81.8293
680.811,30.4306,-2.4973,0,2.3088,10.2148,-1.17356,42.1951,55.0305,120.183,-36.8785,0.962798,-3.78892,32.561,-1.12805,80.0305
680.821,31.1144,-2.6617,0,1.59269,10.2267,-1.38672,46.3415,72.8659,113.811,-36.4857,1.08734,-4.25834,33.1707,-1.64634,75
680.831,31.7796,-2.82872,0,2.06211,10.0495,-1.50647,47.7744,84.8781,107.713,-35.7576,1.13524,-4.32541,32.0732,-3.59756,68.2927
680.841,32.2216,-2.98222,0,0.483794,10.6219,-1.13524,48.6585,92.3781,104.634,-35.02,0.665815,-4.1338,31.9817,-5.4878,62.1646
680.851,32.6463,-3.12278,0,0.61073,9.6184,-0.991538,45.2134,92.1037,101.677,-34.3015,0.0814307,-3.95178,30.7317,-8.10976,55.1524
680.861,32.9792,-3.25342,0,0.320933,8.82325,-0.507744,44.7866,91.6768,96.3415,-33.6309,-0.148491,-3.81766,29.7256,-11.0366,51.7683
680.871,33.2806,-3.41004,0,0.368833,8.14546,-0.457449,43.4451,89.939,92.7744,-33.0369,-0.253872,-4.22002,27.378,-14.3293,48.5976
680.881,33.5575,-3.57687,0,0.670605,7.62335,-0.110171,45.0305,87.8354,85.9146,-32.5675,-0.292192,-4.40205,23.3841,-15.122,48.75
680.891,33.7664,-3.76138,0,0.799937,7.3575,-0.179626,47.9573,84.5122,77.1341,-32.8549,0.263452,-4.80441,20.2439,-16.7988,51.0671
680.901,33.8246,-3.96727,0,0.541274,7.18985,-0.419128,48.7195,79.9695,66.0671,-33.3626,0.502954,-5.31215,16.3415,-17.4695,55.0305
680.911,33.6993,-4.17017,0,0.174836,7.22577,-0.747246,49.2683,71.9512,53.4146,-33.6309,0.914897,-5.43669,11.8902,-18.5671,58.1402
680.921,33.3593,-4.40539,0,-0.392783,7.19224,-0.936453,47.8659,64.9085,40.4573,-34.0236,1.42264,-6.12646,7.59146,-19.6951,58.9939
680.931,32.8507,-4.65424,0,-0.732876,7.10363,-1.00112,44.939,57.9268,28.2012,-34.4739,1.81542,-6.56714,3.01829,-19.3598,58.0488
680.941,32.1578,-4.97347,0,-1.21906,7.10123,-1.19511,42.378,50.5183,16.2195,-34.8667,1.7771,-7.91793,-3.87195,-15.9146,54.1463
680.952,31.2353,-5.30534,0,-1.91123,7.3096,-1.56634,39.7561,37.6524,5.85366,-35.2786,1.4418,-8.4161,-7.13415,-12.8659,45.1829
680.961,26.3456,-5.76173,0,-2.98898,7.37906,-1.62382,32.4085,20.9451,1.09756,-35.1828,0.809517,-10.6674,-7.19512,-7.46951,32.3476
680.972,24.1053,-6.26303,0,-3.9422,6.7827,-1.47533,28.6585,-6.15854,-2.56098,-34.9625,-0.694556,-11.635,-4.14634,2.86585,14.7866
680.982,23.0392,-6.74211,0,-2.96264,7.10842,-1.00591,23.5671,-19.7866,-13.4146,-34.541,-1.33642,-11.4338,-0.335366,9.11585,-0.609756
680.991,22.0029,-7.16912,0,-2.03577,6.81623,0.102986,18.2927,-25.061,-24.7866,-34.6368,-1.81542,-10.9069,6.12805,9.35976,-15.7317
681.001,20.9518,-7.55703,0,-1.61424,7.0677,0.308958,19.1463,-46.4329,-36.0976,-34.244,-2.24653,-10.4375,11.7378,2.80488,-27.5305
681.011,20.0591,-7.92318,0,-0.232317,8.14546,0.155676,17.1646,-82.561,-45,-34.244,-2.42855,-10.3609,18.811,-6.18902,-37.0732
681.021,19.4159,-8.19331,0,2.10043,8.5598,0.740061,15.2134,-97.4695,-52.8354,-34.6176,-1.95913,-9.16334,23.4756,-16.4634,-43.1098
681.031,19.072,-8.43543,0,4.83554,8.76338,1.24541,13.6585,-101.189,-54.4207,-35.1924,-1.21188,-9.04838,23.9939,-22.561,-45.3049
681.041,19.0099,-8.5946,0,8.15983,8.93821,0.313748,15.3659,-110.823,-53.9329,-36.3995,-0.253872,-8.11912,21.5549,-24.1159,-40.8232
681.051,19.1476,-8.74584,0,11.6326,8.93103,-2.28724,15.8537,-116.098,-54.2683,-38.2676,1.08734,-8.49274,13.2927,-20.0305,-32.7439
681.061,19.3341,-8.86522,0,12.8421,9.09628,-5.06786,3.68902,-118.689,-53.5061,-40.6722,1.87291,-8.5119,1.85976,-12.0732,-19.4207
681.071,19.5517,-8.97321,0,13.2085,8.17181,-5.73368,-7.89634,-111.921,-57.2256,-42.0997,2.31359,-8.6556,-8.14024,-5.21341,-5.30488
681.082,19.9007,-9.0862,0,13.6325,7.2138,-4.8068,-6.12805,-91.0061,-51.25,-43.2588,2.00703,-9.0388,-15.3659,4.96951,6.0061
681.091,20.3222,-9.19211,0,13.678,7.09165,-4.21044,9.08537,-61.0671,-44.1159,-44.1689,1.65256,-9.1346,-19.3902,15.3659,14.4817
681.101,20.8343,-9.35793,0,13.9462,7.41498,-3.87754,20.3049,-33.9634,-32.8049,-43.9103,1.41306,-10.3417,-23.75,25.5793,20.061
681.111,21.4519,-9.62225,0,14.2384,7.28565,-3.77695,22.2256,-11.1585,-22.8354,-42.8565,1.32684,-12.1619,-29.6646,38.3232,22.378
681.121,22.164,-9.99104,0,13.8935,6.56475,-3.39614,21.8902,12.6524,-15.6098,-41.7548,1.48012,-14.1067,-37.5915,54.1463,22.6524
681.132,22.8879,-10.4078,0,12.2673,5.97797,-2.77822,21.0061,37.8963,-11.5549,-40.7872,1.90165,-14.9785,-45.3049,70.5793,23.75
681.141,23.4225,-10.7681,0,9.43159,6.47374,-2.14354,20.1829,65.0305,-12.0732,-40.4998,2.63931,-14.03,-56.4024,80.7622,21.0366
681.151,23.538,-10.9197,0,6.11209,8.28198,-1.51365,15.1829,91.0671,-14.7561,-42.6936,2.93629,-10.8111,-66.2195,77.8354,17.7439
681.161,23.1553,-11.0665,0,3.00814,10.9883,-1.0586,12.2256,124.848,-22.2561,-44.9833,2.87881,-11.4242,-75.0915,76.4329,12.7439
681.171,22.3655,-11.2602,0,0.184417,13.4768,-1.42264,21.0976,145.945,-34.939,-46.928,2.21779,-13.0241,-80.2744,90.4573,7.43902
681.182,21.4084,-11.352,0,-1.14482,14.6408,0.555645,7.89634,108.232,-42.8963,-49.2081,0.579595,-11.3955,-83.3232,108.841,2.65244
681.191,20.5477,-11.3474,0,-1.20948,13.6971,2.67284,-22.6829,28.7195,-33.8415,-50.5684,-1.00112,-9.52739,-82.3171,114.39,2.95732
681.201,20.0179,-11.272,0,1.23344,13.2397,1.47533,-29.7561,-59.2683,-22.9878,-51.3253,-2.20821,-8.01374,-74.9085,115.061,10.061
681.211,19.6942,-11.1237,0,4.02603,12.0206,-2.03337,-29.2683,-99.2073,-29.9695,-52.2258,-3.14706,-6.3947,-58.5366,110.091,19.4817
681.221,19.4283,-10.8859,0,4.5218,9.59924,-5.36724,-18.872,-82.7134,-38.4146,-52.5994,-3.98052,-4.25834,-38.9329,99.1463,30.8232
681.231,19.0668,-10.511,0,3.54702,9.1825,-6.29411,0.335366,-47.3476,-40.3354,-52.2737,-4.84273,-0.924478,-19.3598,82.2256,40.1829
681.241,18.4627,-10.0186,0,1.45378,10.0974,-5.11097,5.45732,-4.57317,-39.4512,-51.4594,-6.02108,1.98787,-10.0915,58.0183,40.8537
681.251,17.6582,-9.36704,0,-0.64426,11.1776,-2.41178,4.90854,15.3354,-37.6829,-49.8978,-6.71084,5.74326,-10.5793,26.5549,35.3049
681.262,16.7666,-8.60738,0,-1.88249,11.5416,-0.622705,1.52439,-0.670732,-36.0366,-48.0393,-6.71084,8.2724,-16.311,-9.2378,23.1707
681.271,15.8892,-7.85911,0,-1.57832,10.9476,-1.37953,-2.40854,-22.4085,-38.5671,-45.8167,-5.99234,8.15744,-26.372,-38.9939,16.7073
681.281,14.9591,-7.12454,0,-1.40109,10.3393,-2.44292,-5.45732,-31.6463,-46.7378,-43.7857,-4.75651,8.05206,-39.5122,-54.6341,15.1829
681.291,13.915,-6.41572,0,-1.7292,10.3321,-2.79738,-7.37805,-39.3598,-56.6159,-42.023,-2.46687,7.76465,-60.7012,-61.9207,19.2073
681.301,12.8502,-5.8338,0,-1.23104,10.1142,-3.53265,-15.7012,-50.6707,-66.0976,-40.6626,-0.464634,5.6762,-82.3781,-67.1951,27.5915
681.311,11.8614,-5.25244,0,-0.299377,9.54176,-4.37331,-23.2317,-53.3537,-71.0061,-39.5418,-0.330513,5.93486,-91.5854,-62.8659,35.9451
681.321,11.064,-4.76328,0,1.20948,9.23759,-4.6655,-24.878,-42.1646,-72.3781,-39.4939,0.253872,4.69903,-102.591,-63.5976,41.1585
681.332,10.371,-4.41721,0,1.87291,9.08191,-4.25834,-22.3476,-34.2683,-71.9207,-39.6951,0.167651,2.54351,-109.634,-62.5305,38.9329
681.341,9.69728,-4.15309,0,2.00224,9.05796,-3.97094,-19.1463,-23.1098,-73.0183,-39.9346,-0.253872,1.35558,-109.207,-62.3171,28.3537
681.351,8.96597,-3.97823,0,1.42743,8.78972,-3.5087,-13.872,-16.8598,-73.6585,-40.0783,-1.02986,-0.0335303,-104.604,-62.7134,11.0671
681.361,8.1901,-3.88364,0,0.914897,8.82086,-3.35782,-10.3659,-10.8537,-72.9573,-39.8004,-2.02619,-1.31726,-98.2622,-61.8598,-10.7012
681.371,7.47314,-3.88543,0,1.10889,8.76577,-3.00814,-8.93293,-9.39024,-71.1585,-39.2065,-3.67396,-2.88839,-88.2012,-57.4695,-30
681.382,6.76457,-3.90896,0,1.02986,8.6077,-2.6465,-8.23171,-12.1646,-70.9756,-37.8653,-5.40795,-3.14706,-77.4695,-54.8476,-46.1585
681.391,6.01304,-3.92011,0,0.522114,8.7538,-2.52435,-5.60976,-15.061,-69.8476,-37.118,-6.84497,-2.89797,-67.0732,-55.3354,-57.4085
681.401,5.31696,-3.98989,0,0.723296,8.8496,-2.61536,-3.17073,-20.4878,-68.2927,-36.0546,-8.32988,-3.76018,-56.7683,-54.878,-66.311
681.411,4.63439,-4.08972,0,0.613125,8.94779,-2.51717,-1.58537,-28.1402,-66.7988,-35.6906,-8.9909,-4.23918,-45.2439,-53.1098,-72.8659
681.421,3.9691,-4.21106,0,0.565225,8.92624,-2.4046,-2.62195,-37.5,-65.8232,-34.9338,-9.42201,-4.55533,-34.878,-55.6707,-75.8841
681.431,3.31127,-4.32637,0,0.481399,8.86876,-2.48843,-2.95732,-48.9634,-65.3659,-34.6272,-9.37411,-4.52659,-27.439,-65.5793,-74.0854
681.442,2.67425,-4.43876,0,0.495769,8.93582,-2.46927,-5.82317,-58.7195,-64.7256,-34.9242,-8.8951,-4.61281,-17.1341,-72.6524,-68.6585
681.451,2.07143,-4.55623,0,0.58678,8.93821,-2.32317,-10.1829,-68.1707,-63.7195,-34.9433,-8.33946,-4.78525,-8.04878,-79.3293,-63.7805
681.461,1.53633,-4.66225,0,0.888552,8.9933,-2.42615,-13.9329,-75.0915,-61.8902,-35.02,-8.07122,-4.69903,3.35366,-82.6219,-57.9878
681.471,1.05296,-4.74155,0,1.02986,9.01964,-2.4525,-16.6768,-79.0549,-59.4817,-35.0487,-6.91203,-4.35415,12.561,-84.2073,-53.1098
681.481,0.570371,-4.82763,0,0.754431,9.0412,-2.53154,-18.872,-78.4146,-56.8293,-34.608,-6.18394,-4.44995,18.6585,-83.1707,-48.1707
681.491,0.201885,-4.9583,0,1.50647,8.95977,-2.75906,-20.2134,-75.6098,-55.9146,-34.0524,-4.60323,-5.10139,25.8841,-79.3598,-41.5244
681.501,-0.122101,-5.10212,0,1.76273,8.72985,-2.82612,-22.1646,-70.9451,-55.9451,-34.0141,-4.50743,-5.36005,29.3902,-73.7805,-36.0061
681.511,-0.447851,-5.25268,0,1.6837,8.74422,-2.90755,-22.378,-68.2012,-55.7317,-33.9853,-3.35782,-5.52291,32.4085,-65.8841,-33.4756
681.521,-0.755003,-5.44106,0,1.87291,8.87115,-2.9818,-21.3415,-64.0854,-56.5854,-33.4105,-1.85375,-6.07856,32.1341,-60.9756,-27.7439
681.531,-1.06567,-5.64571,0,1.9232,8.97414,-2.97222,-21.0366,-58.9939,-57.9268,-33.0561,-1.71004,-6.35638,28.9939,-55.6707,-23.0793
681.541,-1.38995,-5.9162,0,1.99026,9.02683,-2.98659,-20.3354,-52.0732,-60.6402,-32.3567,-1.84417,-7.30481,23.9634,-49.5732,-20.5183
681.551,-1.74577,-6.17872,0,2.00463,9.15137,-2.84768,-18.9024,-45.6402,-64.3598,-31.6669,-1.96871,-7.17069,16.0976,-43.1402,-17.7744
681.561,-2.15655,-6.45516,0,1.69567,9.10347,-2.78062,-17.0122,-40.4268,-67.0122,-31.1879,-1.93039,-7.39103,8.20122,-34.878,-12.8963
681.571,-2.56444,-6.74098,0,1.82021,9.09628,-2.65608,-16.189,-35.9146,-69.1159,-31.073,-2.15073,-7.64011,-1.06707,-28.4756,-8.62805
681.582,-2.95321,-6.99828,0,1.96871,8.93103,-2.71595,-15.3354,-32.7134,-70.2744,-31.3412,-2.42855,-7.43893,-10.9146,-22.9573,-2.28659
681.591,-3.30225,-7.26252,0,2.22497,8.74901,-2.76146,-14.7561,-29.5427,-70.7622,-31.552,-2.62973,-7.72633,-18.2012,-17.9268,2.5
681.601,-3.55978,-7.52776,0,2.7878,8.61728,-2.83331,-14.3902,-26.5854,-69.6037,-31.916,-2.99377,-7.97542,-26.6768,-14.0854,7.53049
681.612,-3.70823,-7.7863,0,3.38416,8.50232,-2.81654,-14.7866,-23.7195,-66.7073,-32.3088,-3.4153,-8.1287,-31.1585,-13.2622,13.5366
681.621,-3.74437,-8.03811,0,3.95418,8.40891,-2.79499,-15.9756,-18.7805,-62.6524,-32.6537,-4.14338,-8.26282,-35.1829,-11.0976,18.5061
681.631,-3.68571,-8.28405,0,4.36373,8.39933,-2.75667,-17.3476,-10.3049,-57.6829,-32.8261,-5.18761,-8.3682,-38.3232,-10.7012,22.5915
681.641,-3.59046,-8.52766,0,4.35894,8.46879,-2.57225,-17.9268,0.0609756,-53.3841,-32.6441,-5.82948,-8.42568,-40.3963,-7.40854,29.0854
681.651,-3.49126,-8.73471,0,4.12183,8.54543,-2.49801,-17.2256,10.7317,-49.7561,-33.1519,-6.62462,-8.1287,-43.7805,-4.17683,33.3232
681.661,-3.43045,-8.88714,0,3.65959,8.70829,-2.33514,-15.5793,19.1768,-47.439,-33.4201,-7.14195,-7.46767,-48.0183,-2.37805,38.5976
681.671,-3.40676,-8.97719,0,3.29076,8.90468,-2.27766,-13.5671,24.1463,-45.9756,-34.5506,-7.39103,-6.81623,-53.0183,0.182927,43.5671
681.682,-3.4396,-9.042,0,2.73511,8.99569,-2.25371,-10.3659,24.878,-44.8171,-35.6331,-7.33355,-6.66294,-63.4451,4.54268,47.561
681.691,-3.55839,-9.08488,0,2.04056,9.24478,-2.72074,-8.68902,19.6951,-44.5427,-36.8594,-6.48092,-6.55756,-72.8049,7.5,48.3232
681.701,-3.75018,-9.12609,0,1.46815,9.48667,-3.14706,-9.60366,17.6524,-44.7866,-38.5742,-4.81399,-6.85455,-78.3841,9.96951,50.7927
681.711,-4.00125,-9.18188,0,0.977168,9.58487,-3.08,-9.60366,18.2622,-45.1524,-39.8292,-3.11832,-7.36229,-78.1707,12.561,54.1463
681.721,-4.28451,-9.16541,0,0.60594,9.6663,-2.86444,-8.81098,16.0671,-44.3902,-41.8889,-2.92671,-6.41386,-81.7683,12.2561,56.5244
681.731,-4.54788,-9.12372,0,0.517324,9.77886,-2.84289,-9.48171,10.9146,-41.7988,-43.6899,-3.11832,-6.2031,-87.7744,6.43293,52.7439
681.741,-4.77544,-9.16813,0,0.447869,9.86748,-2.99377,-11.9512,3.78049,-37.8049,-43.9869,-3.95178,-7.92751,-95,5.79268,42.378
681.751,-4.95047,-9.37513,0,0.416733,9.95131,-3.19017,-15.4878,-0.640244,-32.5,-43.7953,-4.88105,-11.1943,-96.6159,11.5854,27.7744
681.761,-5.07297,-9.75513,0,0.246687,10.2124,-3.12071,-18.7805,-4.45122,-25.4268,-42.32,-5.81032,-14.442,-88.1098,25.9756,13.8415
681.772,-5.11992,-10.2387,0,0.311353,10.5381,-2.89558,-23.2012,-10.5488,-18.5976,-41.0746,-6.90245,-16.3867,-75.0305,43.9329,3.71951
681.781,-5.04318,-10.8096,0,0.797541,10.7465,-2.77343,-28.0183,-16.9512,-11.2805,-40.2411,-8.464,-18.1974,-61.128,64.939,-5.27439
681.791,-4.84193,-11.3743,0,1.37953,10.9333,-2.8836,-31.5549,-20.3963,-4.54268,-39.8004,-10.0926,-18.2644,-43.9024,85,-11.1585
