time,angle1,angle2,intgangle,accX1,accY1,accZ1,gyroX1,gyroY1,gyroZ1,accX2,accY2,accZ2,gyroX2,gyroY2,gyroZ2
437.356,89.0171,0.396608,0,9.83635,0.119751,0.318538,0.0304878,0.243902,-1.18902,-39.3789,-2.77343,0.455054,-14.7866,-2.46951,4.69512
437.366,89.0194,0.403058,0,9.86269,0.0910107,0.361648,0.121951,0.243902,-1.21951,-39.4651,-2.85007,0.378413,-14.5732,-2.04268,3.84146
437.376,89.0187,0.408876,0,9.83156,0.0981958,0.318538,0.182927,0.426829,-1.34146,-39.3406,-2.83091,0.368833,-14.1159,-2.59146,5.2439
437.386,89.0167,0.408864,0,9.84832,0.0934058,0.340093,0,0.487805,-1.4939,-39.3789,-2.68721,0.273032,-15.5488,-2.28659,3.9939
437.396,89.0144,0.402089,0,9.8603,0.0981958,0.356858,0,0.121951,-1.46341,-39.3598,-2.74469,0.158071,-15.4268,-1.55488,4.7561
437.406,89.0097,0.398413,0,9.8603,0.100591,0.352068,-0.182927,0.426829,-1.61585,-39.3119,-2.85965,0.205972,-16.5549,-1.82927,4.29878
437.416,89.0114,0.401014,0,9.86509,0.0910107,0.299377,-0.243902,0.457317,-1.28049,-39.2544,-2.77343,0.311353,-16.9207,-1.95122,4.08537
437.426,89.0134,0.385835,0,9.84353,0.0814307,0.354463,-0.152439,0.0914634,-1.37195,-39.3214,-2.60099,0.00479004,-15.3963,-2.16463,4.54268
437.436,89.0111,0.386813,0,9.82677,0.0910107,0.340093,-0.0609756,-0.0914634,-1.55488,-39.2448,-2.55309,0.273032,-15.7317,-2.40854,4.93902
437.446,89.0124,0.387151,0,9.83395,0.0934058,0.366438,0.0609756,0.213415,-1.28049,-39.2735,-2.60099,0.263452,-15.6707,-2.22561,4.45122
437.456,89.0186,0.390187,0,9.84114,0.0598755,0.342488,0.396341,-0.152439,-1.34146,-39.4364,-2.68721,0.311353,-14.9695,-2.31707,5.27439
437.466,89.0134,0.372012,0,9.83395,0.114961,0.325723,0.152439,0.121951,-1.46341,-39.331,-2.70637,-0.0526904,-14.878,-1.61585,4.26829
437.476,89.0157,0.350317,0,9.8579,0.0766406,0.320933,0.27439,0.213415,-1.40244,-39.2735,-2.79259,-0.129331,-14.7561,-2.59146,3.84146
437.486,89.0166,0.349668,0,9.87227,0.0838257,0.352068,0.121951,-0.182927,-1.40244,-39.4651,-2.85007,0.225132,-14.8476,-1.43293,3.90244
437.496,89.0214,0.338232,0,9.87227,0.0718506,0.373623,0.0304878,-0.182927,-1.28049,-39.2448,-2.79259,0.0335303,-13.2012,-2.40854,3.20122
437.506,89.0244,0.334064,0,9.83635,0.0790356,0.373623,0.182927,-0.182927,-1.31098,-39.331,-2.74469,0.158071,-15.7622,-0.548781,4.02439
437.516,89.0305,0.325848,0,9.83156,0.0646655,0.397573,0.213415,-0.640244,-1.28049,-39.1969,-2.71595,0.0814307,-15,-1.52439,3.56707
437.526,89.0305,0.334055,0,9.83395,0.0766406,0.318538,0.213415,-0.335366,-1.52439,-39.2544,-2.81175,0.359253,-15.2439,-1.76829,3.81098
437.536,89.0254,0.325469,0,9.84593,0.102986,0.368833,0.0609756,-0.27439,-1.58537,-39.3885,-2.78301,0.0814307,-15.3963,0.243902,3.68902
437.546,89.0249,0.316763,0,9.82197,0.0838257,0.361648,0.304878,-0.0609756,-1.4939,-39.2065,-2.75427,0.0718506,-15.5183,-0.121951,2.95732
437.556,89.0234,0.304079,0,9.86988,0.0814307,0.376018,-0.182927,-0.457317,-1.58537,-39.2256,-2.68721,-0.00479004,-14.8476,-0.701219,4.11585
437.566,89.0258,0.302339,0,9.8603,0.0766406,0.347278,-0.121951,-0.213415,-1.37195,-39.4268,-2.83091,0.177231,-16.5854,-0.518293,2.9878
437.576,89.0277,0.286252,0,9.87227,0.0814307,0.323328,-0.27439,-0.27439,-1.34146,-39.2831,-2.65847,-0.0718506,-15.0915,-0.182927,3.56707
437.586,89.0373,0.27902,0,9.88904,0.0598755,0.364043,-0.182927,-0.457317,-1.09756,-39.3789,-2.81175,0.0718506,-15,0.182927,3.87195
437.596,89.0442,0.277789,0,9.86988,0.0479004,0.308958,-0.0609756,-0.548781,-1.37195,-39.149,-2.81175,0.167651,-14.6037,-0.518293,2.40854
437.606,89.0554,0.253894,0,9.85072,0.0407153,0.344883,0,-0.579268,-1.18902,-39.3406,-2.73511,-0.225132,-14.7866,-0.457317,2.7439
437.616,89.0531,0.246209,0,9.85311,0.0886157,0.335303,0,-0.396341,-1.4939,-39.2352,-2.80217,0.0335303,-14.0549,-2.19512,4.11585
437.626,89.0497,0.25174,0,9.83635,0.0790356,0.335303,-0.365854,-0.304878,-1.70732,-39.3406,-2.74469,0.253872,-14.2683,-3.2622,3.04878
437.636,89.0481,0.239033,0,9.83156,0.0958008,0.323328,0.213415,-0.396341,-1.37195,-39.3693,-2.75427,-0.0526904,-14.7866,-1.52439,3.38415
437.646,89.0441,0.250744,0,9.83156,0.0958008,0.289797,-0.152439,-0.304878,-1.55488,-39.4939,-2.82133,0.359253,-15.4573,-2.7439,2.77439
437.656,89.0413,0.264172,0,9.84593,0.0910107,0.318538,-0.182927,-0.243902,-1.52439,-39.4364,-2.85965,0.397573,-15.4878,-2.46951,3.14024
437.666,89.0478,0.261691,0,9.8603,0.0383203,0.316143,0.0304878,-0.121951,-1.4939,-39.3598,-2.64889,0.129331,-14.7256,-2.68293,3.01829
437.676,89.0549,0.268174,0,9.87467,0.0479004,0.292192,-0.304878,-0.365854,-1.34146,-39.5226,-2.80217,0.282612,-15.061,-3.17073,3.9939
437.686,89.0601,0.271613,0,9.85072,0.0742456,0.313748,-0.213415,-0.518293,-1.15854,-39.3502,-2.79259,0.234712,-15.9451,-2.68293,3.10976
437.696,89.0636,0.290121,0,9.8579,0.0742456,0.304167,-0.0609756,-0.487805,-1.25,-39.4268,-2.72553,0.493374,-14.5732,-4.45122,3.78049
437.706,89.0695,0.279143,0,9.83874,0.0502954,0.352068,-0.396341,-0.518293,-1.37195,-39.1586,-2.84049,-0.00479004,-14.1159,-4.02439,3.87195
437.716,89.0712,0.270657,0,9.86509,0.0622705,0.296982,0.0304878,-0.213415,-1.4939,-39.2065,-2.68721,0.0335303,-15.3049,-3.20122,3.96341
437.726,89.078,0.259832,0,9.8555,0.0455054,0.337698,0.0304878,-0.548781,-1.34146,-39.264,-2.84049,-0.0143701,-15.122,-3.68902,3.68902
437.736,89.0792,0.262706,0,9.88425,0.0742456,0.280217,-0.121951,-0.0609756,-1.37195,-39.4268,-2.91713,0.215552,-14.3902,-3.87195,4.14634
437.746,89.0779,0.24891,0,9.86748,0.0598755,0.273032,0.335366,0.0304878,-1.70732,-39.2735,-2.89797,-0.0718506,-14.6341,-3.87195,3.5061
437.756,89.0746,0.254995,0,9.85072,0.102986,0.304167,-0.121951,0.121951,-1.34146,-39.216,-2.76385,0.263452,-15.0305,-3.56707,2.77439
437.766,89.0766,0.260289,0,9.82916,0.0838257,0.277822,0,0,-1.21951,-39.1873,-2.75427,0.253872,-14.0549,-3.53659,3.9939
437.776,89.0749,0.252872,0,9.87706,0.0910107,0.316143,0.213415,0.121951,-1.37195,-39.3693,-2.90755,0.0431104,-15,-2.07317,3.07927
437.786,89.0791,0.248056,0,9.87227,0.0598755,0.275427,-0.0304878,-0.121951,-1.34146,-39.3023,-2.77343,0.0814307,-14.4817,-2.53049,4.05488
437.796,89.0809,0.245223,0,9.80521,0.0694556,0.292192,0.0609756,0.182927,-1.40244,-39.1777,-2.75427,0.110171,-14.3293,-3.10976,4.17683
437.806,89.0815,0.240803,0,9.83874,0.0670605,0.342488,-0.396341,-0.0304878,-1.4939,-39.3598,-2.77343,0.0814307,-15.3049,-3.04878,3.90244
437.816,89.0778,0.208384,0,9.82677,0.0958008,0.318538,-0.152439,0,-1.46341,-39.3214,-2.75427,-0.407153,-14.3293,-3.10976,3.56707
437.826,89.0737,0.209826,0,9.82437,0.0910107,0.387993,-0.213415,-0.243902,-1.55488,-39.3502,-2.76385,0.158071,-15.2744,-2.95732,3.93293
437.836,89.0648,0.200152,0,9.82437,0.105381,0.313748,-0.0609756,0,-1.76829,-39.4843,-2.56267,-0.0335303,-14.2683,-2.86585,3.5061
437.846,89.0591,0.198158,0,9.8555,0.105381,0.330513,0.0304878,-0.0914634,-1.52439,-39.4172,-2.93629,0.0910107,-13.9329,-3.53659,2.62195
437.856,89.0596,0.197426,0,9.86748,0.0814307,0.354463,-0.0609756,-0.152439,-1.37195,-39.2544,-2.83091,0.110171,-13.872,-3.81098,3.10976
437.866,89.0614,0.203952,0,9.86988,0.0790356,0.371228,0.0304878,-0.426829,-1.31098,-39.4076,-2.90755,0.234712,-14.7866,-4.2378,3.47561
437.876,89.0603,0.209206,0,9.82916,0.0958008,0.342488,-0.121951,-0.518293,-1.31098,-39.2927,-2.74469,0.215552,-14.3902,-4.5122,2.59146
437.886,89.0622,0.200546,0,9.83156,0.0790356,0.308958,-0.365854,-0.640244,-1.31098,-39.2256,-2.78301,-0.0239502,-14.2378,-5.15244,2.65244
437.896,89.0658,0.192097,0,9.81958,0.0694556,0.335303,-0.27439,-0.518293,-1.31098,-39.3598,-2.70637,-0.0239502,-13.872,-4.45122,3.41463
437.906,89.0692,0.196775,0,9.82197,0.0670605,0.292192,-0.304878,-0.670732,-1.34146,-39.1873,-2.86923,0.196392,-13.7805,-4.66463,3.32317
437.916,89.07,0.191882,0,9.8124,0.0766406,0.390388,-0.213415,-0.640244,-1.40244,-39.264,-2.91713,0.0335303,-14.5122,-4.90854,3.75
437.926,89.0706,0.193239,0,9.83395,0.0718506,0.328118,-0.0914634,-0.426829,-1.46341,-39.2831,-2.93629,0.138911,-14.4207,-4.7561,2.68293
437.936,89.0684,0.200817,0,9.83635,0.0910107,0.301772,-0.0914634,-0.335366,-1.43293,-39.4076,-2.81175,0.244292,-13.811,-5.94512,3.87195
437.946,89.0695,0.199496,0,9.89383,0.0622705,0.325723,0,-0.701219,-1.52439,-39.5514,-2.93629,0.0910107,-14.4207,-7.19512,4.29878
437.956,89.067,0.190456,0,9.86748,0.0694556,0.304167,-0.152439,-0.853659,-1.70732,-39.3693,-2.88839,-0.0431104,-14.5427,-6.85976,3.93293
437.966,89.0713,0.198619,0,9.86269,0.0718506,0.261057,-0.0304878,-0.823171,-1.21951,-39.2831,-2.82133,0.244292,-14.6341,-8.14024,3.41463
437.976,89.0758,0.194831,0,9.87467,0.0694556,0.301772,-0.426829,-0.670732,-1.21951,-39.2256,-2.84049,0.0431104,-14.6646,-8.07927,2.71341
437.986,89.074,0.185467,0,9.87706,0.0766406,0.330513,-0.609756,-0.914634,-1.55488,-39.0819,-2.85007,-0.0526904,-15.6707,-7.19512,2.34756
437.996,89.0748,0.184616,0,9.8603,0.0646655,0.289797,-0.396341,-0.426829,-1.52439,-39.149,-2.83091,0.0910107,-14.1159,-6.21951,2.95732
438.006,89.08,0.184795,0,9.88664,0.0479004,0.311353,-0.243902,-0.396341,-1.40244,-39.149,-2.81175,0.110171,-14.3902,-5.64024,3.14024
438.016,89.0818,0.177655,0,9.84353,0.0574805,0.356858,-0.457317,-0.213415,-1.52439,-39.149,-3.00335,-0.0143701,-12.3171,-5.15244,3.84146
438.026,89.0824,0.16201,0,9.82677,0.0670605,0.273032,-0.0609756,-0.426829,-1.4939,-39.1777,-3.05125,-0.167651,-13.9329,-5.60976,4.29878
438.036,89.0889,0.169837,0,9.8124,0.0502954,0.258662,-0.335366,-0.0914634,-1.31098,-39.2735,-2.83091,0.225132,-13.4451,-6.31098,2.59146
438.046,89.0876,0.176637,0,9.82437,0.0670605,0.277822,-0.213415,-0.579268,-1.61585,-39.3981,-2.85965,0.215552,-12.6524,-5.67073,2.89634
438.056,89.09,0.187031,0,9.80281,0.0455054,0.325723,0,-0.396341,-1.61585,-39.4364,-2.84049,0.282612,-12.8963,-5.7622,2.83537
438.066,89.0852,0.194136,0,9.83874,0.0886157,0.385598,-0.121951,-0.487805,-1.61585,-39.3885,-2.80217,0.234712,-13.9634,-5.06098,3.59756
438.076,89.0875,0.204339,0,9.8579,0.0502954,0.301772,0.0914634,-0.365854,-1.55488,-39.216,-2.73511,0.292192,-14.4207,-5.03049,3.65854
438.086,89.0819,0.204162,0,9.88904,0.0934058,0.289797,0.121951,-0.335366,-1.61585,-39.2831,-2.91713,0.119751,-14.6341,-5.09146,2.86585
438.096,89.0785,0.202833,0,9.88664,0.0910107,0.241897,-0.182927,-0.213415,-1.4939,-38.9095,-3.01293,0.100591,-14.5732,-4.54268,3.2622
438.106,89.0747,0.215875,0,9.8603,0.105381,0.282612,-0.396341,-0.579268,-1.34146,-38.9382,-3.01293,0.349673,-14.6951,-3.56707,2.83537
438.116,89.0769,0.212757,0,9.85311,0.0694556,0.306563,-0.426829,-0.152439,-1.37195,-39.149,-3.03209,0.0814307,-13.3232,-3.62805,3.53659
438.126,89.077,0.222501,0,9.82677,0.0790356,0.261057,-0.27439,-0.152439,-1.40244,-39.1777,-2.93629,0.301772,-14.7866,-3.53659,4.42073
438.136,89.0741,0.244055,0,9.82677,0.100591,0.268242,-0.335366,-0.121951,-1.34146,-39.2927,-2.89797,0.512534,-14.1463,-3.93293,4.20732
438.146,89.0709,0.247054,0,9.84832,0.0814307,0.323328,-0.182927,0.0609756,-1.61585,-39.4747,-2.86923,0.205972,-14.2378,-4.20732,4.7561
438.156,89.065,0.247568,0,9.85311,0.0910107,0.270637,0.0914634,-0.182927,-1.70732,-39.5322,-2.95545,0.167651,-15.1829,-3.44512,4.20732
438.166,89.061,0.252746,0,9.83874,0.0958008,0.237107,-0.0914634,-0.0914634,-1.52439,-39.4172,-3.03209,0.244292,-15.5183,-4.69512,5.33537
438.176,89.054,0.266511,0,9.88664,0.126936,0.282612,-0.0609756,-0.579268,-1.34146,-39.3981,-2.98419,0.397573,-14.8171,-4.48171,5.73171
438.186,89.0477,0.268796,0,9.86988,0.117356,0.253872,-0.27439,-0.457317,-1.43293,-39.1298,-3.14706,0.205972,-16.4939,-4.57317,6.06707
438.196,89.0516,0.277679,0,9.87946,0.0742456,0.225132,-0.121951,-0.304878,-1.25,-39.1203,-2.95545,0.320933,-15.4573,-4.66463,6.31098
438.206,89.0542,0.300004,0,9.83156,0.0790356,0.268242,-0.243902,-0.487805,-1.28049,-39.1777,-2.82133,0.560435,-16.189,-4.42073,6.0061
438.216,89.0546,0.308563,0,9.82197,0.0838257,0.282612,-0.121951,-0.213415,-1.37195,-39.1969,-2.92671,0.340093,-14.7561,-3.84146,6.09756
438.226,89.0528,0.307775,0,9.85311,0.0886157,0.277822,-0.152439,-0.0914634,-1.46341,-39.1873,-2.81175,0.186812,-15.4878,-3.14024,5.4878
438.236,89.054,0.307596,0,9.83395,0.0742456,0.270637,-0.396341,-0.213415,-1.43293,-39.1298,-2.96503,0.196392,-14.8476,-3.17073,6.21951
438.246,89.0613,0.309599,0,9.84832,0.0574805,0.263452,-0.0304878,-0.182927,-1.21951,-39.3023,-2.81175,0.234712,-14.878,-3.23171,5.12195
438.256,89.0725,0.298081,0,9.8555,0.0287402,0.308958,-0.182927,0.0609756,-1.28049,-39.3023,-2.83091,0.00479004,-14.8171,-2.37805,4.5122
438.266,89.0736,0.29303,0,9.88185,0.0622705,0.261057,-0.152439,-0.0609756,-1.52439,-39.3119,-3.07042,0.110171,-15.8537,-2.0122,4.45122
438.276,89.0792,0.283395,0,9.86988,0.0574805,0.285007,-0.152439,0.304878,-1.28049,-39.1298,-3.06083,0.0239502,-15.5183,-2.95732,5.15244
438.286,89.0823,0.2802,0,9.8555,0.0550855,0.241897,0.121951,0.365854,-1.46341,-39.1777,-2.85007,0.129331,-15.7317,-2.7439,5.64024
438.296,89.0882,0.278248,0,9.84832,0.0263452,0.258662,0,0.487805,-1.58537,-39.1203,-2.85965,0.148491,-16.6463,-2.71341,6.18902
438.306,89.0914,0.291338,0,9.87706,0.0383203,0.253872,-0.0304878,0.304878,-1.61585,-39.0819,-2.85965,0.407153,-15.2744,-2.40854,6.4939
438.316,89.0907,0.300843,0,9.85311,0.0622705,0.217947,0.121951,0.670732,-1.61585,-38.9574,-2.80217,0.359253,-16.4634,-0.609756,5.73171
438.326,89.0964,0.306998,0,9.84353,0.0143701,0.289797,0.213415,0.823171,-1.70732,-39.2927,-3.04167,0.311353,-16.372,-0.457317,6.58537
438.336,89.0931,0.306444,0,9.86988,0.0622705,0.275427,0.426829,1.09756,-1.79878,-39.1681,-3.03209,0.196392,-17.439,-1.15854,5.79268
438.346,89.0924,0.312195,0,9.8603,0.0622705,0.323328,0.27439,1.06707,-1.61585,-39.4556,-2.82133,0.311353,-17.3171,0.0914634,6.79878
438.356,89.0938,0.316588,0,9.8603,0.0407153,0.273032,0.426829,0.914634,-1.70732,-39.4939,-2.85965,0.292192,-17.1646,0.152439,6.34146
438.366,89.0909,0.310545,0,9.86269,0.0598755,0.299377,0.335366,0.701219,-1.79878,-39.2927,-2.96503,0.110171,-17.2866,-0.670732,5.60976
438.376,89.0861,0.315281,0,9.84114,0.0886157,0.296982,0,1.06707,-1.61585,-39.2352,-2.91713,0.292192,-16.1585,-0.701219,6.06707
438.386,89.0888,0.321542,0,9.84114,0.0622705,0.265847,0.0609756,0.731707,-1.40244,-39.4076,-2.91713,0.320933,-16.7073,-1.37195,4.66463
438.396,89.0855,0.316535,0,9.84832,0.0838257,0.299377,0.182927,0.640244,-1.55488,-39.1969,-2.95545,0.129331,-16.6159,-1.21951,6.43293
438.406,89.0841,0.298893,0,9.84593,0.0814307,0.263452,0.152439,0.914634,-1.46341,-39.2831,-3.04167,-0.0910107,-16.7988,-0.762195,5.21341
438.416,89.0794,0.31284,0,9.8579,0.0958008,0.337698,0.243902,0.853659,-1.52439,-39.446,-2.94587,0.445474,-16.5549,-0.823171,6.37195
438.426,89.078,0.308573,0,9.85311,0.0766406,0.296982,0.335366,1.06707,-1.52439,-39.446,-3.00335,0.138911,-16.5854,-0.670732,6.79878
438.436,89.0783,0.304704,0,9.87227,0.0694556,0.263452,0.0609756,1.12805,-1.4939,-39.4364,-2.96503,0.138911,-17.0427,-1.82927,7.59146
438.446,89.0766,0.298492,0,9.86269,0.0958008,0.299377,0.396341,0.823171,-1.31098,-39.4268,-2.83091,0.100591,-15.2744,-0.335366,6.4939
438.457,89.0709,0.296364,0,9.86269,0.0981958,0.294587,-0.213415,0.945122,-1.58537,-39.3693,-2.86923,0.167651,-16.7988,-0.152439,6.82927
438.466,89.0694,0.290538,0,9.83874,0.0790356,0.340093,-0.0304878,0.762195,-1.52439,-39.2544,-2.78301,0.100591,-16.4024,-0.487805,6.55488
438.476,89.0617,0.26889,0,9.85311,0.110171,0.287402,0.0304878,0.609756,-1.61585,-39.2065,-2.74469,-0.177231,-15.1524,-0.579268,5.73171
438.486,89.0593,0.272886,0,9.82916,0.0790356,0.277822,0.121951,0.548781,-1.61585,-39.3406,-2.77343,0.244292,-16.311,-2.83537,7.13415
438.496,89.0552,0.285572,0,9.85311,0.0790356,0.347278,0.0914634,0.426829,-1.7378,-39.3693,-2.84049,0.397573,-15.7927,-2.95732,6.15854
438.506,89.0537,0.280624,0,9.84353,0.0766406,0.368833,-0.0609756,0.853659,-1.58537,-39.4364,-2.89797,0.100591,-16.0671,-2.92683,6.76829
438.516,89.0554,0.266978,0,9.8603,0.0622705,0.366438,-0.0304878,0.365854,-1.52439,-39.5418,-2.85007,-0.0526904,-16.25,-2.5,6.34146
438.526,89.0547,0.267047,0,9.87227,0.0838257,0.342488,0.121951,0.365854,-1.43293,-39.264,-2.71595,0.177231,-16.0061,-2.04268,6.52439
438.536,89.0544,0.263214,0,9.8555,0.0718506,0.320933,0.121951,0.304878,-1.55488,-39.1969,-2.85965,0.110171,-14.9085,-1.85976,6.25
438.546,89.055,0.269297,0,9.84832,0.0742456,0.356858,0.27439,0.243902,-1.46341,-39.4172,-2.80217,0.282612,-15,-1.21951,6.40244
438.556,89.052,0.258871,0,9.82916,0.100591,0.347278,-0.0914634,0,-1.40244,-39.3981,-2.79259,-0.00479004,-15.5488,-2.62195,5.79268
438.566,89.0608,0.251589,0,9.81719,0.0479004,0.337698,-0.0609756,-0.0304878,-1.25,-39.264,-2.81175,0.0431104,-14.8171,-2.43902,6.09756
438.576,89.0609,0.24279,0,9.82677,0.0790356,0.376018,-0.182927,-0.304878,-1.43293,-39.3023,-2.87881,0.0143701,-13.9024,-1.70732,4.7561
438.586,89.0648,0.21219,0,9.83874,0.0455054,0.340093,-0.0914634,-0.365854,-1.55488,-39.2065,-2.79259,-0.368833,-14.4512,-1.82927,4.96951
438.596,89.0685,0.203888,0,9.81479,0.0407153,0.337698,-0.27439,-0.152439,-1.61585,-39.3981,-2.88839,-0.00479004,-15.0915,-1.92073,4.84756
438.606,89.0651,0.180952,0,9.8603,0.0862207,0.364043,-0.213415,0.121951,-1.58537,-39.3023,-2.76385,-0.263452,-14.7561,-1.76829,5.09146
438.616,89.0689,0.171731,0,9.83874,0.0670605,0.359253,-0.0914634,0.182927,-1.31098,-39.3502,-2.67763,-0.0431104,-15.122,-2.19512,3.35366
438.626,89.0677,0.160593,0,9.84353,0.0670605,0.344883,-0.152439,-0.121951,-1.64634,-39.3981,-2.83091,-0.0814307,-14.3293,-1.79878,3.84146
438.636,89.0751,0.169284,0,9.86509,0.0455054,0.323328,-0.0304878,-0.213415,-1.31098,-39.446,-2.82133,0.253872,-15.061,-2.28659,4.29878
438.646,89.0744,0.176448,0,9.84593,0.0814307,0.320933,-0.335366,-0.335366,-1.43293,-39.4747,-2.69679,0.234712,-15.5488,-1.92073,4.29878
438.656,89.082,0.173005,0,9.84593,0.0383203,0.268242,-0.0914634,-0.487805,-1.37195,-39.446,-2.94587,0.0526904,-15.122,-2.62195,4.11585
438.666,89.0863,0.183156,0,9.83635,0.0479004,0.313748,-0.152439,-0.548781,-1.46341,-39.5609,-2.90755,0.292192,-15.5183,-1.25,4.20732
438.676,89.0833,0.183175,0,9.84593,0.0646655,0.328118,0.0609756,-0.335366,-1.76829,-39.4076,-2.77343,0.119751,-16.128,-1.92073,3.84146
438.686,89.086,0.187105,0,9.83874,0.0598755,0.335303,0.0304878,-0.396341,-1.43293,-39.3693,-2.65847,0.186812,-15.5488,-2.13415,4.87805
438.696,89.0874,0.182324,0,9.84832,0.0718506,0.328118,0.152439,-0.152439,-1.37195,-39.4364,-2.73511,0.0335303,-16.372,-3.56707,3.68902
438.706,89.0838,0.183817,0,9.8579,0.0790356,0.292192,0,-0.182927,-1.64634,-39.331,-2.96503,0.138911,-15.2439,-3.56707,4.29878
438.716,89.0825,0.183376,0,9.86988,0.0622705,0.311353,0,-0.152439,-1.67683,-39.3406,-2.85965,0.110171,-14.3598,-2.46951,4.05488
438.726,89.092,0.186531,0,9.86269,0.0311353,0.376018,0,-0.457317,-1.31098,-39.264,-2.82133,0.167651,-14.5427,-3.71951,3.07927
438.736,89.1,0.197509,0,9.84353,0.0359253,0.311353,-0.0304878,-0.243902,-1.34146,-39.3885,-2.94587,0.311353,-14.6037,-2.19512,3.53659
438.746,89.0981,0.185377,0,9.82916,0.0742456,0.301772,0.213415,-0.243902,-1.55488,-39.4651,-3.03209,-0.0814307,-14.6341,-1.89024,3.44512
438.756,89.1008,0.169905,0,9.83635,0.0622705,0.268242,0.0304878,-0.579268,-1.37195,-39.2735,-2.83091,-0.148491,-15.061,-2.28659,4.42073
438.766,89.0969,0.162695,0,9.82916,0.0934058,0.347278,0.0609756,-0.457317,-1.46341,-39.3598,-2.88839,-0.0143701,-14.5122,-1.76829,4.32927
438.776,89.0903,0.171125,0,9.85072,0.107776,0.296982,0.0609756,-0.396341,-1.4939,-39.2544,-2.75427,0.244292,-13.9329,-3.84146,4.35976
438.786,89.0825,0.16495,0,9.81719,0.100591,0.258662,-0.213415,-0.335366,-1.70732,-39.1873,-2.70637,-0.00479004,-14.0549,-4.48171,4.48171
438.796,89.0835,0.152208,0,9.86269,0.0694556,0.306563,0.121951,-0.365854,-1.43293,-39.4651,-2.82133,-0.119751,-14.878,-3.44512,3.14024
438.806,89.087,0.159883,0,9.84114,0.0574805,0.354463,-0.182927,-0.213415,-1.40244,-39.1394,-2.92671,0.225132,-15.3963,-3.32317,3.96341
438.816,89.0868,0.15069,0,9.8603,0.0598755,0.277822,0.121951,0.0304878,-1.61585,-39.149,-2.99377,-0.0622705,-15.2134,-3.81098,3.71951
438.826,89.0867,0.148032,0,9.88185,0.0670605,0.292192,-0.152439,-0.548781,-1.52439,-39.1777,-2.99377,0.0431104,-14.5427,-4.14634,3.81098
438.836,89.0911,0.141625,0,9.9058,0.0694556,0.316143,0.243902,-0.426829,-1.18902,-39.1681,-3.06083,-0.0239502,-13.3537,-4.29878,4.08537
438.846,89.1024,0.118017,0,9.86509,0.0407153,0.332908,0.335366,-0.853659,-1.09756,-39.216,-2.97461,-0.320933,-13.7805,-2.89634,3.78049
438.856,89.1081,0.10018,0,9.8603,0.0550855,0.287402,-0.182927,-1.06707,-1.25,-39.331,-2.88839,-0.234712,-13.3537,-1.92073,4.45122
438.866,89.1085,0.0953831,0,9.8124,0.0694556,0.263452,0.0304878,-1.18902,-1.43293,-39.3981,-2.90755,-0.0239502,-13.7195,-2.80488,4.90854
438.876,89.1127,0.0937169,0,9.81,0.0814307,0.376018,-0.518293,-1.0061,-1.03659,-39.4939,-2.90755,0.0239502,-13.2012,-3.75,5.70122
438.886,89.1168,0.0845051,0,9.77886,0.0766406,0.328118,-0.335366,-1.03659,-1.09756,-39.4076,-2.90755,-0.110171,-14.1768,-4.29878,4.87805
438.896,89.1169,0.0746301,0,9.8579,0.0814307,0.421523,-0.335366,-1.43293,-1.28049,-39.331,-2.88839,-0.129331,-14.2988,-4.7561,5.73171
438.906,89.1142,0.0726659,0,9.8555,0.112566,0.289797,0.152439,-1.79878,-1.06707,-39.4268,-2.95545,-0.00479004,-13.2622,-6.46341,3.90244
438.916,89.1197,0.0519539,0,9.88904,0.0790356,0.277822,0.487805,-1.67683,-0.945122,-39.3693,-3.08,-0.330513,-12.3171,-6.18902,4.42073
438.926,89.1164,0.0578327,0,9.86988,0.124541,0.217947,-0.0914634,-1.52439,-0.914634,-39.3119,-3.01293,0.110171,-12.622,-8.04878,3.75
438.936,89.115,0.0700984,0,9.86988,0.119751,0.208367,-0.365854,-1.25,-0.853659,-39.5035,-3.24286,0.225132,-11.5854,-8.29268,5.12195
438.946,89.1097,0.0651786,0,9.84114,0.105381,0.229922,-0.914634,-1.12805,-1.37195,-39.6663,-3.19496,-0.0718506,-11.8902,-10.0305,4.87805
438.956,89.1102,0.0697543,0,9.79563,0.0742456,0.306563,-0.640244,-1.21951,-1.37195,-39.7813,-2.81175,0.0910107,-11.8598,-10.0305,5.42683
438.966,89.1121,0.0751172,0,9.81958,0.0550855,0.270637,-0.609756,-1.58537,-1.4939,-39.9633,-2.95545,0.100591,-10.9146,-12.3171,6.7378
438.976,89.1339,0.0899742,0,9.84593,0.00718506,0.294587,-0.182927,-2.13415,-0.884146,-39.8675,-2.82133,0.263452,-10.8232,-14.4817,6.46341
438.986,89.1484,0.0687831,0,9.92017,0.0383203,0.249082,0.365854,-1.70732,-0.853659,-39.7909,-2.76385,-0.359253,-9.7561,-14.5732,7.07317
438.996,89.1587,0.0620702,0,9.91299,0.0311353,0.301772,0.609756,-1.92073,-1.12805,-39.6567,-3.11832,-0.119751,-9.14634,-14.6037,5.85366
439.006,89.1657,0.0598927,0,9.91538,0.0502954,0.299377,0.701219,-1.40244,-1.09756,-39.5322,-2.84049,-0.0431104,-8.71951,-14.0549,6.31098
439.016,89.1709,0.0559547,0,9.8603,0.0550855,0.239502,0.640244,-1.28049,-1.15854,-39.4172,-3.20454,-0.0718506,-9.35976,-13.1098,6.95122
439.026,89.1818,0.046171,0,9.8555,0.0407153,0.292192,0.213415,-1.34146,-0.97561,-39.3885,-3.08,-0.177231,-10,-13.4756,5.79268
439.036,89.1925,0.0243095,0,9.85072,0.0287402,0.294587,0.304878,-1.15854,-1.09756,-39.216,-3.01293,-0.387993,-7.40854,-12.3171,7.04268
439.046,89.2033,0.00961135,0,9.82916,0.00958008,0.282612,0.762195,-1.31098,-1.28049,-39.3693,-2.92671,-0.282612,-8.59756,-13.0183,6.92073
439.056,89.2166,-0.00450097,0,9.79323,-0.0239502,0.277822,0.701219,-1.70732,-1.46341,-39.4364,-2.83091,-0.282612,-7.62195,-12.8963,5.85366
439.066,89.2232,0.01027,0,9.8124,-0.0239502,0.237107,1.12805,-1.34146,-1.82927,-39.4172,-2.63931,0.205972,-7.53049,-13.9634,5.97561
439.076,89.2279,0.00490736,0,9.83395,0.0215552,0.213157,1.31098,-0.945122,-1.46341,-39.6759,-2.75427,-0.138911,-8.23171,-15.2439,7.2561
439.086,89.2309,0.0220189,0,9.82677,0.0167651,0.184417,1.12805,-1.09756,-1.61585,-39.6376,-2.75427,0.244292,-8.53659,-16.9512,6.15854
439.096,89.2305,0.0338505,0,9.88664,0.0359253,0.229922,0.762195,-1.25,-1.61585,-39.7238,-2.85965,0.158071,-9.78659,-18.75,5.36585
439.106,89.2254,0.0669551,0,9.9058,0.0479004,0.244292,0.243902,-1.09756,-1.82927,-39.7909,-2.76385,0.531694,-11.4024,-21.0671,5.73171
439.116,89.2212,0.0830865,0,9.92496,0.0479004,0.280217,0.304878,-0.792683,-1.76829,-39.8771,-2.85965,0.253872,-11.4939,-22.1341,5
439.126,89.2236,0.101217,0,9.90101,0.0359253,0.323328,0.335366,-1.09756,-1.43293,-39.6376,-2.87881,0.301772,-11.5854,-21.1585,5.30488
439.136,89.2259,0.120814,0,9.90101,0.0143701,0.344883,0.0609756,-1.4939,-1.67683,-39.5705,-2.97461,0.340093,-12.1646,-20.9451,5.4878
439.146,89.226,0.135939,0,9.82916,0.0215552,0.251477,0.335366,-1.18902,-1.76829,-39.331,-3.03209,0.273032,-10.6707,-21.2195,5.91463
439.156,89.2285,0.1715,0,9.8076,0.0119751,0.0958008,0.396341,-0.670732,-1.70732,-38.9286,-3.07042,0.627495,-11.1585,-22.3171,7.22561
439.166,89.2237,0.197232,0,9.80281,0.0407153,0.114961,0.243902,-0.152439,-1.92073,-38.8137,-2.84049,0.474214,-12.2561,-24.5122,7.0122
439.176,89.2178,0.220065,0,9.83635,0.0263452,0.143701,-0.0914634,0.27439,-2.16463,-39.0436,-2.85965,0.445474,-12.2256,-24.2683,5.97561
439.186,89.2151,0.254341,0,9.84593,0.00718506,0.193997,-0.27439,0.487805,-2.13415,-38.9957,-2.86923,0.665815,-13.2012,-21.7073,5.73171
439.196,89.2084,0.269829,0,9.87467,0.0383203,0.251477,-0.579268,0.27439,-2.10366,-38.9382,-2.93629,0.368833,-14.1159,-20.7622,6.43293
439.206,89.2016,0.301572,0,9.87706,0.0239502,0.237107,-0.701219,0.731707,-2.28659,-39.0628,-2.86923,0.665815,-13.628,-19.1768,6.28049
439.216,89.1964,0.35965,0,9.87946,0.0359253,0.201182,-0.640244,0.914634,-2.04268,-39.264,-2.73511,1.14482,-14.7256,-19.8171,6.18902
439.226,89.1862,0.40565,0,9.91538,0.0502954,0.196392,-0.335366,1.4939,-2.28659,-39.264,-2.92671,0.972378,-13.5671,-20.7317,6.09756
439.236,89.168,0.426057,0,9.92017,0.0886157,0.117356,0,1.79878,-2.56098,-39.3502,-2.81175,0.560435,-13.3841,-21.2195,4.69512
439.246,89.1507,0.479013,0,9.92257,0.110171,0.136516,0.0609756,1.98171,-2.2561,-39.3885,-3.02251,1.13524,-12.9268,-22.7134,5.64024
439.256,89.1337,0.524489,0,9.90341,0.107776,0.201182,-0.152439,1.67683,-2.28659,-39.5897,-2.86923,1.03944,-12.5915,-24.939,5.51829
439.266,89.1237,0.581108,0,9.86269,0.0574805,0.138911,-0.213415,1.67683,-2.31707,-39.5418,-2.78301,1.26936,-12.3171,-23.3537,5.33537
439.276,89.123,0.619909,0,9.82197,0.0191602,0.234712,0.213415,1.85976,-2.04268,-39.3885,-2.89797,0.991538,-12.6829,-24.0244,5.60976
439.286,89.116,0.660396,0,9.82437,0.0383203,0.229922,0.213415,2.10366,-2.31707,-39.2735,-2.68721,1.04902,-12.8659,-22.6829,5
439.296,89.1087,0.712467,0,9.85311,0.0646655,0.203577,0.884146,2.31707,-2.04268,-38.967,-2.68721,1.26936,-13.4756,-22.1341,6.0061
439.306,89.0991,0.763214,0,9.84832,0.0670605,0.129331,1.12805,2.71341,-2.22561,-38.9286,-2.66805,1.27894,-12.8963,-22.6829,5.36585
439.316,89.0843,0.821548,0,9.88425,0.0934058,0.205972,1.55488,2.7439,-2.37805,-39.0915,-2.74469,1.45138,-12.9268,-22.2256,6.70732
439.326,89.0702,0.888472,0,9.89143,0.105381,0.220342,1.37195,2.59146,-2.19512,-39.1873,-2.76385,1.64298,-13.5671,-22.378,6.06707
439.336,89.0514,0.951855,0,9.86748,0.146096,0.241897,1.37195,2.31707,-2.13415,-39.3406,-2.67763,1.6334,-13.2927,-22.5305,6.89024
439.346,89.0402,1.00888,0,9.82197,0.0981958,0.328118,0.945122,2.31707,-2.10366,-39.216,-2.74469,1.56634,-14.3293,-21.128,7.19512
439.356,89.0334,1.04783,0,9.87946,0.0718506,0.330513,0.97561,2.59146,-2.07317,-39.0723,-2.87881,1.28852,-13.7805,-20.9756,7.92683
439.366,89.0209,1.09712,0,9.85311,0.105381,0.340093,0.853659,2.7439,-2.16463,-38.9765,-2.77343,1.4897,-14.7256,-20.9451,7.04268
439.376,89.0098,1.13855,0,9.83635,0.107776,0.287402,1.25,2.80488,-2.04268,-39.1969,-2.65847,1.3939,-14.2073,-21.5244,6.64634
439.386,88.9993,1.17445,0,9.81719,0.102986,0.246687,1.12805,3.07927,-2.07317,-39.0149,-2.77343,1.31726,-15.8232,-22.5,5.88415
439.396,88.9869,1.2143,0,9.84832,0.124541,0.380808,0.609756,2.5,-1.98171,-38.9765,-2.67763,1.41306,-15.7622,-21.0976,6.52439
439.406,88.9788,1.25731,0,9.83156,0.102986,0.373623,0.457317,1.58537,-1.92073,-39.0149,-2.90755,1.49928,-15.6707,-20.1524,5.57927
439.416,88.9725,1.28961,0,9.80521,0.105381,0.387993,0.518293,1.31098,-1.76829,-38.9957,-2.75427,1.346,-15.2134,-19.4207,6.18902
439.426,88.9678,1.33315,0,9.80042,0.0886157,0.342488,0.670732,0.853659,-1.85976,-39.264,-2.53393,1.57592,-14.4817,-18.3537,6.03659
439.436,88.9648,1.35923,0,9.80521,0.0886157,0.323328,0.701219,1.58537,-1.7378,-39.3406,-2.76385,1.30768,-14.0854,-17.7439,5.42683
439.446,88.9496,1.39837,0,9.78366,0.155676,0.308958,0.884146,1.64634,-1.89024,-39.2065,-2.56267,1.54718,-13.5976,-17.7134,5.91463
439.456,88.9401,1.43737,0,9.80281,0.141306,0.376018,0.701219,1.40244,-1.61585,-39.446,-2.69679,1.57592,-14.8171,-19.2988,6.4939
439.466,88.9364,1.47126,0,9.81479,0.102986,0.356858,0.640244,1.21951,-1.67683,-39.3885,-2.64889,1.50886,-14.7256,-20.0915,5.64024
439.476,88.9357,1.51217,0,9.81719,0.112566,0.361648,0.121951,0.426829,-1.34146,-39.3119,-2.89797,1.65256,-14.6037,-19.6037,6.76829
439.486,88.9352,1.53066,0,9.8555,0.0910107,0.387993,0.335366,0.213415,-1.58537,-39.2352,-2.91713,1.28852,-15.1829,-19.8171,5.67073
439.496,88.9299,1.58963,0,9.8579,0.105381,0.409548,0.121951,-0.0914634,-1.76829,-39.331,-2.77343,2.00703,-15.7317,-19.939,6.09756
439.506,88.9265,1.61636,0,9.84353,0.110171,0.349673,0.243902,0.152439,-1.58537,-39.2544,-2.88839,1.48012,-14.9085,-21.2805,6.34146
439.516,88.9274,1.65761,0,9.89143,0.0910107,0.282612,0.365854,0.213415,-1.4939,-39.3406,-2.66805,1.75794,-15.2744,-20.061,6.03659
439.526,88.9194,1.7049,0,9.8124,0.129331,0.330513,0.0304878,0.213415,-1.70732,-39.3119,-2.79259,1.89207,-15,-19.4817,5.45732
439.536,88.9143,1.76535,0,9.81958,0.117356,0.325723,0.121951,-0.0914634,-1.64634,-39.4364,-2.81175,2.16031,-13.689,-19.3902,6.52439
439.546,88.9084,1.79151,0,9.80281,0.0934058,0.352068,-0.396341,-0.304878,-2.0122,-39.3789,-2.76385,1.60466,-13.1707,-18.689,5.67073
439.556,88.9081,1.8124,0,9.81719,0.0838257,0.361648,-0.365854,-0.548781,-1.70732,-39.1586,-2.89797,1.52802,-12.3171,-17.0427,5.18293
439.566,88.9109,1.84389,0,9.82197,0.0814307,0.361648,-0.243902,-0.609756,-1.52439,-39.0819,-2.81175,1.71962,-12.1646,-17.8049,5.54878
439.576,88.9116,1.87793,0,9.82677,0.0886157,0.306563,0.121951,-0.27439,-1.58537,-38.9286,-2.84049,1.7771,-13.2927,-18.1402,4.42073
439.586,88.91,1.91632,0,9.87706,0.0766406,0.332908,-0.0304878,-0.640244,-1.85976,-38.8616,-2.69679,1.87291,-12.3171,-17.8049,5
439.596,88.9081,1.95046,0,9.82916,0.0910107,0.383203,-0.121951,-0.945122,-1.7378,-39.0149,-2.72553,1.83458,-13.7195,-17.4085,5.27439
439.606,88.9082,1.99273,0,9.83395,0.0790356,0.352068,0,-1.06707,-1.7378,-39.1011,-2.74469,2.00703,-13.3232,-16.0976,4.54268
439.616,88.9143,2.02225,0,9.81719,0.0407153,0.356858,-0.213415,-0.97561,-1.7378,-39.0628,-2.74469,1.81542,-13.4756,-15.6098,5.15244
439.626,88.9175,2.05414,0,9.8555,0.0598755,0.323328,-0.27439,-0.579268,-1.70732,-38.8712,-2.66805,1.87291,-14.5427,-13.9329,4.78659
439.636,88.9202,2.07056,0,9.85311,0.0479004,0.287402,-0.243902,-0.243902,-1.85976,-38.8807,-2.75427,1.6334,-13.0183,-12.7744,4.32927
439.646,88.9238,2.09981,0,9.87946,0.0502954,0.332908,-0.27439,-0.0914634,-1.76829,-38.8233,-2.83091,1.86333,-13.5366,-12.4085,4.60366
439.656,88.9191,2.14027,0,9.86748,0.0981958,0.311353,-0.0304878,0.182927,-1.82927,-38.8999,-2.90755,2.08367,-11.9207,-11.189,5.18293
439.666,88.923,2.17588,0,9.87706,0.0574805,0.299377,-0.365854,0.0914634,-1.67683,-39.0149,-2.85007,2.03577,-12.1951,-10.6402,4.63415
439.676,88.9155,2.19085,0,9.88425,0.0910107,0.265847,-0.426829,-0.0609756,-2.13415,-39.0436,-2.69679,1.71004,-12.5915,-9.26829,5.03049
439.686,88.9111,2.22986,0,9.85311,0.0934058,0.299377,-0.0914634,-0.0914634,-1.89024,-39.0628,-2.81175,2.14115,-13.5366,-7.80488,3.2622
439.696,88.9047,2.27197,0,9.86509,0.0886157,0.311353,-0.396341,-0.0914634,-2.10366,-39.1107,-2.68721,2.21779,-13.0488,-9.66463,3.14024
439.706,88.8969,2.31302,0,9.86509,0.114961,0.241897,-0.0609756,-0.335366,-1.92073,-39.3214,-2.94587,2.23695,-12.7134,-10.6098,3.78049
439.716,88.8948,2.34909,0,9.82677,0.0838257,0.292192,-0.0304878,-0.152439,-1.85976,-39.149,-2.76385,2.16989,-13.75,-10.3963,4.02439
439.726,88.8922,2.37855,0,9.85311,0.102986,0.241897,0.0914634,-0.396341,-1.67683,-39.3023,-2.77343,2.09325,-13.1098,-8.96341,4.7561
439.736,88.8874,2.41075,0,9.8603,0.114961,0.301772,-0.121951,-0.609756,-1.70732,-39.1394,-2.59141,2.15073,-13.6585,-9.39024,4.57317
439.746,88.8874,2.45648,0,9.88185,0.0981958,0.316143,-0.0914634,-0.426829,-1.55488,-39.0053,-2.77343,2.39981,-13.4146,-9.05488,4.66463
439.756,88.8813,2.48452,0,9.8603,0.126936,0.237107,-0.335366,-0.0304878,-1.67683,-38.9574,-2.63931,2.12199,-13.5366,-9.45122,4.87805
439.766,88.8808,2.51398,0,9.86509,0.110171,0.325723,-0.426829,0.243902,-1.46341,-38.9478,-2.69679,2.16989,-13.5061,-7.9878,5.36585
439.776,88.8783,2.55597,0,9.87467,0.122146,0.287402,-0.182927,0.548781,-1.46341,-38.9957,-2.69679,2.40939,-13.9939,-7.83537,4.81707
439.786,88.8759,2.58585,0,9.87467,0.119751,0.261057,0.152439,0.701219,-1.4939,-38.9478,-2.72553,2.22737,-14.6341,-7.56098,4.69512
439.796,88.8772,2.63016,0,9.8603,0.100591,0.296982,0.0304878,0.335366,-1.46341,-39.0244,-2.77343,2.50519,-14.1463,-6.40244,4.66463
439.806,88.8725,2.63964,0,9.8555,0.122146,0.328118,-0.0914634,0.365854,-1.64634,-38.9286,-2.58183,1.93039,-14.6646,-6.18902,4.39024
439.816,88.8769,2.67156,0,9.8555,0.0910107,0.328118,-0.365854,-0.0304878,-1.37195,-39.1681,-2.84049,2.34233,-13.811,-4.7561,4.7561
439.826,88.8798,2.69113,0,9.82437,0.0838257,0.285007,-0.152439,-0.579268,-1.55488,-39.034,-2.71595,2.14115,-14.3902,-5.2439,4.29878
439.836,88.875,2.71706,0,9.81958,0.131726,0.323328,0.27439,-0.396341,-1.52439,-39.2448,-2.61057,2.27527,-14.9695,-5.64024,4.69512
439.846,88.8778,2.73145,0,9.84353,0.100591,0.229922,0.457317,-0.182927,-1.37195,-39.1681,-2.67763,2.08367,-14.1463,-7.13415,4.84756
439.856,88.8754,2.74413,0,9.83874,0.136516,0.251477,0.548781,0,-1.28049,-38.9957,-2.69679,2.05493,-14.6037,-7.10366,4.72561
439.866,88.877,2.76433,0,9.82677,0.134121,0.311353,0.884146,-0.0609756,-1.03659,-39.0915,-2.67763,2.19863,-14.7866,-7.07317,3.5061
439.876,88.8766,2.80239,0,9.86988,0.143701,0.275427,0.396341,0.396341,-1.03659,-39.3023,-2.73511,2.53393,-14.6037,-7.40854,3.96341
439.886,88.879,2.83874,0,9.83874,0.131726,0.325723,0.884146,0.243902,-1.0061,-39.331,-2.85007,2.52435,-16.311,-9.69512,3.81098
439.896,88.8822,2.86745,0,9.85311,0.138911,0.320933,0.731707,-0.365854,-0.853659,-39.5705,-2.71595,2.42855,-17.0427,-10.4268,3.75
439.906,88.8924,2.8793,0,9.84832,0.117356,0.287402,0.701219,-1.0061,-0.701219,-39.5226,-2.75427,2.15073,-16.6768,-10.4878,4.17683
439.916,88.9111,2.89916,0,9.86988,0.0742456,0.323328,0.548781,-1.52439,-0.731707,-39.5226,-2.71595,2.29443,-16.311,-11.7683,4.39024
439.926,88.925,2.88982,0,9.8603,0.0981958,0.337698,0.792683,-1.52439,-0.670732,-39.5801,-2.94587,1.80584,-15,-10.3354,3.96341
439.936,88.9387,2.86968,0,9.82916,0.0790356,0.330513,0.396341,-1.21951,-0.884146,-39.4747,-2.67763,1.60466,-14.3598,-10.7622,3.23171
439.946,88.9522,2.86106,0,9.84353,0.0934058,0.282612,0.609756,-0.792683,-0.701219,-39.4268,-2.75427,1.78668,-12.2561,-11.5854,2.80488
439.956,88.9576,2.84606,0,9.82437,0.124541,0.280217,0.518293,-0.457317,-0.731707,-39.5801,-2.89797,1.67172,-13.1098,-12.8963,2.9878
439.966,88.9682,2.84157,0,9.84114,0.114961,0.299377,0.823171,-0.701219,-0.548781,-39.6567,-2.64889,1.83458,-12.9878,-16.9817,2.22561
439.976,88.97,2.83876,0,9.83635,0.141306,0.318538,0.97561,-1.25,-0.670732,-39.8962,-2.77343,1.86333,-12.622,-19.5122,2.22561
439.986,88.9761,2.84308,0,9.82437,0.129331,0.292192,0.884146,-1.98171,-0.579268,-40.0783,-2.85965,1.97829,-12.1341,-24.6341,1.21951
439.996,88.9948,2.85681,0,9.80042,0.100591,0.318538,1.25,-2.2561,-0.304878,-40.107,-2.76385,2.13157,-12.0122,-29.7866,1.92073
440.006,89.013,2.88738,0,9.79803,0.0790356,0.347278,1.40244,-2.77439,-0.548781,-40.0399,-2.84049,2.42855,-11.5244,-31.8902,1.55488
440.016,89.027,2.90905,0,9.81479,0.110171,0.296982,1.95122,-2.95732,-0.304878,-40.107,-2.87881,2.28485,-11.5549,-35.1829,2.28659
440.026,89.0391,2.92457,0,9.8076,0.122146,0.299377,2.16463,-2.92683,-0.182927,-40.1357,-2.84049,2.18905,-12.1646,-36.189,2.65244
440.036,89.0635,2.93209,0,9.84114,0.0886157,0.294587,2.10366,-2.2561,0.335366,-40.1549,-2.99377,2.05493,-12.5305,-37.3476,3.53659
440.046,89.0885,2.9341,0,9.82437,0.0838257,0.265847,2.37805,-2.62195,0.243902,-40.1836,-2.78301,1.95913,-11.9512,-38.75,2.53049
440.056,89.1097,2.95212,0,9.82677,0.0934058,0.277822,2.53049,-3.2622,0.701219,-40.1262,-2.85965,2.23695,-11.8598,-40.0305,5.09146
440.066,89.1399,2.99342,0,9.89383,0.0479004,0.241897,2.89634,-3.53659,0.97561,-40.0687,-2.84049,2.63931,-12.0122,-45.7622,4.29878
440.076,89.1617,2.99961,0,10.0447,0.0910107,0.153281,3.38415,-2.86585,1.21951,-40.0878,-2.90755,2.03577,-12.1951,-49.0244,5.79268
440.086,89.1812,2.9761,0,9.99681,0.114961,0.143701,4.29878,-1.34146,1.4939,-40.2411,-3.00335,1.50886,-12.6829,-52.2256,5.36585
440.096,89.2003,3.0093,0,9.83156,0.124541,0.174836,3.35366,-0.884146,1.70732,-41.0075,-2.85965,2.53393,-12.1646,-56.311,4.17683
440.106,89.2051,3.03549,0,9.80042,0.275427,0.100591,2.71341,-0.457317,2.43902,-40.4998,-2.85007,2.38065,-11.25,-61.9512,4.48171
440.116,89.2371,3.0688,0,9.7597,0.0574805,0.184417,0.853659,-1.03659,2.10366,-40.6147,-3.15664,2.51477,-12.8354,-67.3781,1.52439
440.126,89.3618,3.10205,0,9.75731,-0.337698,0.244292,0.335366,-0.884146,0.579268,-40.8351,-3.3195,2.53393,-12.7744,-72.2561,2.2561
440.136,89.4704,3.14091,0,9.74054,-0.229922,0.304167,0.579268,-0.243902,-0.182927,-40.8159,-3.18538,2.63931,-13.7195,-77.4695,2.62195
440.146,89.5384,3.16271,0,9.82437,-0.158071,0.371228,0.609756,-0.640244,-0.304878,-40.4519,-3.15664,2.33275,-11.4024,-79.0244,2.19512
440.156,89.5732,3.19607,0,9.90341,-0.143701,0.450264,-0.304878,-1.95122,-0.945122,-40.2794,-3.25244,2.53393,-11.0976,-81.9207,3.07927
440.166,89.5839,3.26331,0,9.82916,-0.102986,0.471819,-0.792683,-3.17073,-1.7378,-40.2794,-3.29076,3.14706,-9.84756,-86.189,3.23171
440.176,89.5903,3.32733,0,9.77647,-0.141306,0.371228,-1.12805,-2.68293,-2.37805,-40.0878,-3.11832,3.10874,-9.72561,-90.0305,4.87805
440.186,89.5851,3.3316,0,9.71659,-0.0886157,0.359253,-1.52439,-2.59146,-2.71341,-39.6855,-3.2716,2.06451,-8.17073,-92.3781,6.09756
440.196,89.5739,3.3223,0,9.71659,-0.0407153,0.364043,-1.85976,-3.87195,-2.68293,-39.5609,-3.00335,1.825,-5.33537,-92.0427,5.64024
440.206,89.5517,3.33487,0,9.70701,0.0287402,0.373623,-2.31707,-5.18293,-2.86585,-39.5705,-2.98419,2.18905,-3.78049,-95.6098,5.30488
440.216,89.534,3.34808,0,9.69743,-0.0119751,0.404758,-2.62195,-6.40244,-2.9878,-39.7525,-2.85965,2.20821,-2.68293,-98.811,3.56707
440.226,89.517,3.38219,0,9.73336,-0.0191602,0.409548,-1.92073,-6.43293,-3.04878,-40.0112,-2.79259,2.58183,-0.884146,-104.512,0.792683
440.236,89.5025,3.44398,0,9.80042,-0.0215552,0.373623,-1.58537,-6.12805,-2.86585,-40.7297,-2.78301,3.1279,-1.03659,-111.372,-1.06707
440.246,89.4892,3.53095,0,9.84832,-0.0550855,0.299377,-1.79878,-6.15854,-3.17073,-40.95,-2.80217,3.62606,-0.487805,-117.134,-3.32317
440.256,89.476,3.61812,0,9.84353,-0.0622705,0.344883,-1.79878,-6.37195,-3.2622,-41.1895,-2.54351,3.7027,0.121951,-120.335,-4.69512
440.266,89.4594,3.74044,0,9.88425,-0.0119751,0.261057,-2.04268,-7.07317,-3.01829,-41.1608,-2.65847,4.38289,-1.21951,-127.073,-4.20732
440.276,89.4393,3.85177,0,9.88185,0.0239502,0.244292,-2.46951,-6.79878,-2.95732,-40.8351,-2.90755,4.22002,-1.7378,-131.646,-3.35366
440.286,89.4245,3.97808,0,9.86988,0.0167651,0.217947,-2.83537,-6.46341,-2.59146,-40.3848,-2.76385,4.50743,-2.2561,-135.945,-0.640244
440.296,89.4124,4.08909,0,9.87467,0.00239502,0.148491,-3.59756,-5.94512,-2.56098,-40.0878,-2.90755,4.2775,-2.43902,-139.543,1.7378
440.306,89.4082,4.20498,0,9.87706,-0.0790356,0.138911,-3.90244,-4.54268,-2.80488,-39.6951,-2.79259,4.39247,-1.98171,-141.677,2.95732
440.316,89.3975,4.34895,0,9.89862,-0.0934058,0.126936,-3.29268,-3.68902,-3.53659,-39.264,-3.03209,4.90979,-1.34146,-144.085,4.48171
440.326,89.3824,4.5215,0,9.88185,-0.0886157,0.110171,-3.07927,-2.80488,-3.90244,-39.2065,-3.10874,5.49417,0.609756,-147.317,4.17683
440.336,89.3582,4.72446,0,9.92257,-0.0598755,0.0263452,-2.9878,-2.16463,-4.48171,-39.2544,-2.95545,6.14562,0.121951,-151.28,3.62805
440.346,89.3316,4.95859,0,9.91059,-0.0622705,0.0526904,-3.14024,-2.2561,-4.78659,-39.4076,-3.04167,6.85455,0.335366,-155.457,1.18902
440.356,89.3137,5.17662,0,9.91538,-0.162861,0.0119751,-3.44512,-2.28659,-5.15244,-39.331,-2.68721,6.72042,-0.0914634,-155.183,0.0609756
440.366,89.2954,5.40029,0,9.92975,-0.160466,0.0574805,-2.83537,-2.80488,-5.18293,-39.1394,-2.59141,6.94077,-0.457317,-155.335,-1.12805
440.376,89.2732,5.64603,0,9.89862,-0.148491,0.0574805,-2.5,-3.38415,-5.4878,-38.7754,-2.62973,7.41977,-2.46951,-156.189,-3.29268
440.386,89.2472,5.89017,0,9.89862,-0.136516,0.0383203,-2.46951,-3.93293,-5.7622,-38.5742,-2.75427,7.51557,-1.03659,-158.872,-3.04878
440.396,89.21,6.1321,0,9.88185,-0.0814307,0.00958008,-1.92073,-3.81098,-6.31098,-38.3922,-2.85007,7.60179,-0.457317,-161.524,-2.86585
440.406,89.1694,6.35574,0,9.82916,-0.0670605,0,-2.07317,-3.2622,-6.55488,-38.0185,-2.83091,7.37187,-0.487805,-162.866,-0.487805
440.416,89.1153,6.5923,0,9.81958,0.00479004,-0.0215552,-1.98171,-3.44512,-7.16463,-37.779,-3.06083,7.69759,-1.18902,-164.238,1.76829
440.426,89.0563,6.86082,0,9.80521,0.0431104,-0.0191602,-1.58537,-2.68293,-7.31707,-37.9898,-3.05125,8.45442,0.121951,-167.012,3.2622
440.436,88.9893,7.15995,0,9.82197,0.0981958,-0.0191602,-1.12805,-2.43902,-7.59146,-38.2485,-3.44404,9.2304,1.18902,-171.128,5.73171
440.446,88.9219,7.4611,0,9.89143,0.126936,-0.0550855,-0.213415,-1.55488,-7.43902,-38.488,-3.47278,9.52739,2.04268,-173.963,6.58537
440.456,88.8563,7.79503,0,9.97526,0.160466,-0.165256,0.243902,-0.792683,-7.0122,-38.3538,-3.58774,10.2842,2.77439,-178.537,8.04878
440.466,88.7945,8.12777,0,9.97765,0.131726,-0.196392,0.731707,-0.335366,-7.10366,-37.9419,-3.32908,10.38,4.90854,-181.22,9.05488
440.476,88.746,8.465,0,9.98244,0.0550855,-0.182021,0.396341,0,-6.76829,-37.8174,-3.1279,10.6578,4.93902,-182.774,9.54268
440.486,88.6954,8.77717,0,9.96568,0.0862207,-0.162861,-0.304878,0.213415,-6.70732,-37.3575,-2.99377,10.3225,4.29878,-182.165,11.1585
440.496,88.6448,9.05361,0,9.91538,0.102986,-0.129331,-0.457317,0.823171,-6.61585,-36.9456,-2.76385,9.81479,3.9939,-177.927,13.0793
440.506,88.5908,9.3709,0,9.87706,0.117356,-0.210762,-0.304878,2.53049,-6.89024,-36.8019,-2.53393,10.6866,0.518293,-176.524,12.3476
440.516,88.5229,9.71736,0,9.83395,0.232317,-0.191602,0.487805,3.68902,-7.04268,-36.8498,-2.45729,11.4242,-1.70732,-180.884,11.9512
440.526,88.4528,10.0589,0,9.74294,0.265847,-0.215552,1.21951,3.96341,-6.98171,-37.4342,-2.51477,11.75,-1.4939,-184.848,10.6402
440.536,88.3847,10.4172,0,9.75252,0.263452,-0.148491,1.61585,3.84146,-6.95122,-37.6545,-2.60099,12.3631,-2.07317,-188.384,9.48171
440.546,88.3166,10.7803,0,9.81958,0.294587,-0.0383203,1.98171,3.23171,-6.7378,-37.5491,-2.73511,12.6601,-1.52439,-192.47,10.2134
440.556,88.258,11.1404,0,9.8603,0.253872,-0.0143701,2.34756,3.14024,-6.40244,-37.3479,-3.19496,12.8038,0.243902,-192.073,9.96951
440.566,88.2049,11.5258,0,9.95131,0.232317,-0.0191602,2.92683,2.86585,-6.25,-36.6486,-3.45362,13.2828,2.5,-192.226,11.6768
440.576,88.1547,11.8784,0,10.0543,0.244292,-0.0742456,3.29268,2.89634,-5.94512,-36.2079,-4.17212,12.8134,2.95732,-190.213,14.4207
440.586,88.0999,12.2752,0,10.1094,0.311353,0.00718506,2.95732,3.56707,-5.7622,-36.0259,-3.74102,13.7905,5.4878,-192.591,17.2561
440.596,88.0493,12.6844,0,10.1094,0.246687,0.0143701,2.07317,4.57317,-6.18902,-35.5469,-3.53026,14.1162,5.85366,-191.677,19.3598
440.606,87.9972,13.0975,0,10.0519,0.217947,0.0215552,1.55488,5.06098,-6.76829,-35.4128,-3.28118,14.442,4.72561,-187.713,20.1829
440.616,87.9512,13.5083,0,9.95131,0.153281,0.0335303,1.15854,6.67683,-6.98171,-35.087,-2.94587,14.5761,2.56098,-184.146,20.5183
440.626,87.9041,13.9082,0,9.86509,0.146096,0.0479004,1.18902,7.59146,-7.2561,-35.0104,-2.70637,14.6527,0.914634,-181.494,19.0549
440.636,87.8507,14.2993,0,9.80281,0.179626,0.00718506,1.09756,7.95732,-7.59146,-34.6559,-2.36149,14.6431,-1.58537,-177.317,17.2256
440.646,87.7856,14.7142,0,9.79084,0.275427,-0.0191602,1.15854,7.7439,-7.7439,-34.2057,-2.21779,15.1605,-6.21951,-176.25,16.0366
440.656,87.7316,15.1339,0,9.82197,0.220342,0.0479004,1.34146,7.9878,-7.40854,-34.7038,-2.23695,15.7736,-8.44512,-175.915,16.5549
440.666,87.6735,15.5618,0,9.83874,0.239502,0.0934058,1.4939,7.68293,-7.71341,-34.7709,-2.34233,16.2622,-9.5122,-176.402,14.6037
440.676,87.6174,15.9916,0,9.86988,0.253872,0.141306,2.56098,7.40854,-7.46951,-34.6368,-2.56267,16.5496,-8.41463,-177.561,14.8476
440.686,87.5599,16.4375,0,9.84593,0.285007,0.203577,3.01829,6.61585,-7.34756,-34.3302,-2.76385,17.019,-7.19512,-178.018,15.8537
440.696,87.4963,16.8864,0,9.90341,0.361648,0.165256,3.01829,6.85976,-7.19512,-33.7937,-2.91713,17.1435,-4.87805,-176.463,17.5915
440.706,87.4316,17.3158,0,9.93933,0.364043,0.131726,2.83537,7.46951,-7.43902,-33.4105,-3.16622,16.9328,-3.20122,-172.47,19.0244
440.716,87.3698,17.7653,0,9.91778,0.330513,0.112566,2.95732,8.01829,-7.65244,-32.8261,-2.95545,17.3352,-3.01829,-167.683,20.8841
440.726,87.293,18.2112,0,9.87227,0.481399,0.105381,3.75,8.44512,-7.5,-32.9794,-2.86923,17.68,-1.7378,-167.439,20.5183
440.736,87.2118,18.6728,0,9.8124,0.55325,0.122146,3.96341,9.39024,-7.22561,-33.1902,-2.57225,18.4273,-0.487805,-167.561,20.8841
440.746,87.1398,19.1294,0,9.78126,0.512534,0.110171,4.2378,9.45122,-6.92073,-33.4872,-2.28485,18.8488,1.4939,-167.561,18.9634
440.756,87.0648,19.5741,0,9.74054,0.529299,0.241897,4.2378,8.32317,-7.13415,-33.6213,-1.92081,19.05,1.95122,-166.28,18.2317
440.766,86.9883,20.0184,0,9.68785,0.522114,0.301772,3.87195,6.76829,-7.5,-33.4201,-1.88249,19.2799,2.04268,-164.207,17.9268
440.776,86.916,20.4777,0,9.72617,0.524509,0.359253,3.87195,5.82317,-7.22561,-33.171,-1.85375,19.7781,0.152439,-164.329,16.8598
440.786,86.837,20.9358,0,9.79563,0.651445,0.285007,4.32927,6.40244,-6.58537,-33.0944,-1.88249,20.0655,0.426829,-164.939,16.7988
440.796,86.7735,21.3886,0,9.9561,0.570015,0.275427,4.72561,6.92073,-6.25,-32.5292,-2.06451,19.9793,-0.884146,-164.177,17.3476
440.806,86.708,21.8405,0,9.91778,0.63468,0.311353,4.57317,6.70732,-5.79268,-32.3184,-2.10283,20.19,-1.61585,-162.988,17.7439
440.816,86.639,22.2841,0,9.81719,0.64905,0.378413,4.02439,6.40244,-6.03659,-31.5999,-2.10283,19.9409,-1.64634,-159.36,18.0488
440.826,86.5765,22.74,0,9.79803,0.598755,0.416733,3.41463,6.70732,-6.09756,-31.3987,-1.5855,20.4104,-1.34146,-155.549,20.5793
440.836,86.5193,23.2121,0,9.7118,0.531694,0.486189,3.93293,6.21951,-6.43293,-31.1784,-1.74836,20.9468,0.0914634,-154.909,21.9512
440.846,86.4567,23.6572,0,9.69983,0.59636,0.536484,3.65854,5.54878,-6.31098,-31.2742,-1.76752,20.8606,3.5061,-151.463,22.5305
440.856,86.3923,24.0843,0,9.73096,0.64426,0.502954,3.75,5.57927,-6.06707,-31.0059,-2.00703,20.6978,5.39634,-144.909,22.622
440.866,86.3326,24.5425,0,9.82197,0.673001,0.507744,4.35976,6.09756,-5.45732,-31.14,-1.81542,21.7707,7.62195,-140.579,22.1341
440.876,86.2758,24.9855,0,9.86748,0.708926,0.455054,4.84756,5.33537,-4.87805,-31.0826,-1.85375,21.809,9.05488,-136.098,22.3171
440.886,86.2314,25.417,0,9.84353,0.632285,0.543669,3.87195,3.90244,-4.63415,-31.1113,-1.84417,21.9719,8.17073,-131.463,20.7927
440.896,86.1876,25.8503,0,9.78366,0.61552,0.61552,2.92683,3.2622,-4.81707,-30.594,-1.75794,22.0102,7.19512,-126.494,18.5671
440.906,86.1489,26.2712,0,9.7621,0.579595,0.656235,2.5,3.32317,-4.81707,-30.5557,-1.88249,22.0965,5.27439,-122.561,18.1402
440.916,86.117,26.6455,0,9.74533,0.514929,0.725691,1.55488,2.53049,-4.96951,-30.6994,-1.79626,21.6174,5.27439,-115.671,17.9268
440.926,86.079,27.0464,0,9.65432,0.55325,0.696951,1.4939,1.89024,-5.12195,-30.3832,-1.96871,22.2497,6.89024,-111.707,17.1646
440.936,86.0285,27.4673,0,9.69504,0.684976,0.6251,1.82927,1.95122,-4.90854,-30.0958,-1.76752,22.7862,7.59146,-110.213,16.4329
440.946,85.9697,27.8765,0,9.65432,0.764011,0.598755,1.52439,1.98171,-4.84756,-30.2587,-1.62382,23.0161,6.76829,-109.482,16.0061
440.956,85.9107,28.2759,0,9.70222,0.802332,0.565225,1.25,1.55488,-4.57317,-29.9617,-1.59508,22.9395,8.84146,-105.701,15
440.966,85.8594,28.6412,0,9.78844,0.821492,0.570015,0.762195,0.670732,-3.71951,-29.8467,-1.3939,22.4892,9.02439,-102.012,14.1463
440.976,85.826,29.0292,0,9.75491,0.699346,0.627495,-0.27439,-0.914634,-3.5061,-29.6551,-1.346,23.1407,9.57317,-95.6098,12.622
440.986,85.7859,29.4355,0,9.69743,0.730481,0.771196,-1.98171,-2.22561,-3.81098,-29.4731,-1.13524,23.7155,10.4878,-94.2683,10.8537
440.996,85.74,29.8244,0,9.65911,0.747246,0.749641,-2.92683,-1.85976,-4.2378,-29.6456,-1.17356,23.84,8.10976,-91.1585,9.96951
441.006,85.6994,30.2143,0,9.74294,0.730481,0.66821,-2.31707,-0.762195,-4.08537,-29.5881,-1.12566,24.1657,7.80488,-87.1037,8.44512
441.016,85.6646,30.5933,0,9.84832,0.771196,0.481399,-1.37195,0.792683,-3.17073,-29.5498,-1.02028,24.2424,4.60366,-84.7561,9.08537
441.026,85.629,30.9532,0,9.9058,0.826282,0.371228,-1.09756,0.853659,-2.65244,-29.5498,-1.03944,24.1657,4.45122,-81.8902,8.96341
441.036,85.5927,31.3004,0,9.8555,0.855022,0.352068,-1.52439,-0.335366,-2.28659,-29.6647,-1.14482,24.2999,2.7439,-80.4573,9.17683
441.046,85.5611,31.6389,0,9.80042,0.835862,0.426313,-2.37805,-2.13415,-2.04268,-29.339,-1.0586,24.1562,4.20732,-77.3781,8.59756
441.056,85.5404,31.9826,0,9.76449,0.761616,0.55325,-3.23171,-3.35366,-2.07317,-29.2623,-1.02986,24.5106,5.03049,-73.9939,9.08537
441.066,85.527,32.3198,0,9.74533,0.708926,0.546064,-3.78049,-3.65854,-2.13415,-29.5114,-1.07776,24.8843,5.85366,-72.8049,8.01829
441.076,85.5148,32.66,0,9.58008,0.66342,0.555645,-4.45122,-4.20732,-2.5,-29.3581,-0.838257,25.1238,4.7561,-71.8902,6.92073
441.086,85.4938,32.9826,0,9.78126,0.732876,0.469424,-3.96341,-2.89634,-2.62195,-29.5689,-0.886157,25.2196,3.17073,-69.4512,6.18902
441.096,85.4824,33.2681,0,9.85311,0.699346,0.378413,-3.5061,-1.79878,-2.2561,-29.5306,-0.646655,24.6543,1.21951,-67.7744,4.93902
441.106,85.4775,33.561,0,9.8124,0.682581,0.304167,-3.14024,-1.98171,-1.92073,-28.9175,-0.579595,24.5585,1.03659,-65.6707,5.2439
441.116,85.4831,33.8787,0,9.79803,0.646655,0.376018,-3.29268,-3.32317,-1.58537,-28.7163,-0.665815,25.1908,-1.46341,-65.7927,5.88415
441.126,85.498,34.1833,0,9.77407,0.6251,0.366438,-3.5061,-4.39024,-1.25,-28.7642,-0.598755,25.2196,-2.43902,-66.1281,6.46341
441.136,85.5145,34.4635,0,9.76928,0.637075,0.450264,-3.41463,-5,-1.03659,-29.0899,-0.723296,25.2291,-3.87195,-65.6707,7.56098
441.146,85.5352,34.7278,0,9.82197,0.584385,0.474214,-3.23171,-5,-1.28049,-29.1186,-1.02028,25.1621,-5.88415,-62.0122,6.92073
441.156,85.5601,34.9883,0,9.83635,0.584385,0.462239,-2.7439,-4.5122,-1.06707,-28.9175,-0.972378,25.1429,-4.93902,-60.3963,9.08537
441.166,85.5707,35.2427,0,9.83874,0.608335,0.349673,-2.13415,-4.17683,-1.52439,-28.9462,-0.972378,25.2675,-5.79268,-59.5732,10.9756
441.176,85.5906,35.4893,0,9.88904,0.593965,0.258662,-2.2561,-3.9939,-1.15854,-28.5055,-0.991538,24.9417,-5.39634,-57.622,11.2195
441.186,85.602,35.7152,0,9.85311,0.61552,0.215552,-1.98171,-2.9878,-1.37195,-28.745,-1.07776,24.9034,-6.28049,-58.4146,12.0732
441.196,85.6076,35.9387,0,9.85311,0.66342,0.196392,-1.58537,-3.23171,-1.18902,-28.7738,-1.04902,25.0759,-5.36585,-57.8354,12.561
441.206,85.6172,36.1561,0,9.8555,0.66821,0.304167,-1.52439,-3.62805,-0.884146,-28.8025,-1.13524,25.1621,-5.91463,-58.628,13.3537
441.216,85.6528,36.3674,0,9.83395,0.55804,0.330513,-1.79878,-4.17683,-0.762195,-28.6971,-1.1065,25.1333,-4.84756,-56.2805,12.6524
441.226,85.6904,36.5852,0,9.84832,0.529299,0.347278,-1.46341,-4.42073,-0.853659,-28.8025,-1.07776,25.574,-5.88415,-53.3841,12.5915
441.236,85.7222,36.7867,0,9.84832,0.522114,0.265847,-1.61585,-3.32317,-1.06707,-28.8025,-1.19272,25.4112,-6.67683,-51.2195,12.0427
441.246,85.7534,36.9837,0,9.86988,0.498164,0.215552,-1.4939,-2.53049,-1.21951,-28.9462,-1.04902,25.6219,-8.71951,-50.0305,12.3171
441.256,85.7696,37.1923,0,9.8555,0.548459,0.138911,-1.37195,-1.55488,-1.46341,-28.4959,-1.12566,25.6602,-7.22561,-50.122,11.8293
441.266,85.7822,37.3924,0,9.87706,0.55804,0.0766406,-1.40244,-1.12805,-1.55488,-28.8696,-0.924478,25.986,-8.87195,-51.372,12.5
441.276,85.7967,37.5561,0,9.92017,0.550855,0.167651,-1.55488,-0.701219,-1.4939,-28.9462,-0.953218,25.4112,-9.5122,-49.939,10.6402
441.286,85.8094,37.7316,0,9.93694,0.546064,0.134121,-1.25,-1.0061,-1.61585,-28.5726,-0.857417,25.507,-9.26829,-47.3476,12.1037
441.296,85.8312,37.9023,0,9.96089,0.507744,0.193997,-1.28049,-0.579268,-1.43293,-28.6684,-0.895737,25.6507,-9.45122,-44.4512,10.7927
441.306,85.8434,38.0782,0,9.93215,0.519719,0.177231,-1.31098,-0.213415,-1.82927,-28.6588,-1.00112,25.9189,-8.44512,-44.4817,10.7317
441.316,85.8513,38.2576,0,9.92257,0.514929,0.172441,-1.52439,0.640244,-2.13415,-28.7259,-1.19272,26.2255,-7.92683,-43.1402,8.78049
441.326,85.8558,38.4287,0,9.94891,0.512534,0.150886,-0.853659,1.85976,-2.37805,-28.8121,-1.06818,26.2925,-9.48171,-39.7561,8.71951
441.336,85.8621,38.5895,0,9.98244,0.502954,0.105381,-0.640244,2.65244,-2.34756,-28.6875,-1.24062,26.1105,-10.4268,-36.6768,7.07317
441.346,85.8647,38.752,0,9.92017,0.524509,0.148491,-0.426829,2.10366,-2.37805,-28.4193,-1.07776,26.0626,-11.5854,-34.2378,7.80488
441.356,85.8666,38.9032,0,9.93215,0.514929,0.172441,-0.853659,1.7378,-2.53049,-28.5151,-1.12566,26.053,-10.3963,-31.1585,7.77439
441.366,85.8637,39.065,0,9.90341,0.500559,0.225132,-0.731707,1.64634,-3.04878,-28.199,-1.346,26.1488,-11.2195,-29.8476,7.46951
441.376,85.8567,39.2168,0,9.87467,0.526904,0.253872,-0.396341,1.7378,-3.10976,-28.199,-0.780776,26.0722,-9.69512,-28.9024,8.14024
441.386,85.8467,39.3825,0,9.89622,0.519719,0.213157,-0.487805,2.04268,-3.47561,-28.1702,-0.866997,26.5129,-9.5122,-27.7134,7.28659
441.396,85.827,39.5508,0,9.86269,0.57241,0.282612,-0.640244,2.65244,-3.78049,-27.8924,-0.752036,26.4745,-9.08537,-25.7927,7.37805
441.406,85.804,39.7013,0,9.8555,0.608335,0.304167,-0.945122,3.17073,-3.71951,-27.8158,-0.570015,26.1584,-10.122,-22.1341,7.19512
441.416,85.7833,39.8565,0,9.87946,0.62031,0.306563,-0.945122,3.62805,-3.41463,-27.5954,-0.502954,26.2063,-8.9939,-19.8476,7.77439
441.426,85.7616,40.0095,0,9.86269,0.63468,0.258662,-0.640244,3.96341,-3.38415,-27.6337,-0.378413,26.35,-10.8841,-16.7683,8.14024
441.436,85.7343,40.1726,0,9.78605,0.66821,0.376018,-0.487805,3.44512,-3.5061,-27.72,-0.0814307,26.8194,-12.0732,-14.8476,8.20122
441.446,85.7107,40.3189,0,9.7118,0.65384,0.364043,-0.823171,2.95732,-3.32317,-27.6337,-0.292192,26.5033,-13.689,-13.0183,7.5
441.456,85.6899,40.4785,0,9.69983,0.62989,0.459844,-0.823171,2.13415,-3.38415,-27.5667,-0.0814307,26.8961,-13.6585,-11.0366,6.46341
441.466,85.6732,40.6341,0,9.75731,0.62031,0.421523,-0.731707,2.31707,-3.20122,-27.4996,-0.292192,26.8961,-13.3841,-8.84146,6.46341
441.476,85.654,40.7687,0,9.76928,0.65863,0.376018,-0.792683,1.98171,-3.01829,-27.4709,-0.311353,26.532,-14.2073,-6.0061,6.89024
441.486,85.6323,40.9174,0,9.86269,0.687371,0.323328,-0.518293,1.92073,-3.01829,-27.2889,-0.435894,26.8194,-15.061,-3.81098,5.85366
441.496,85.614,41.0575,0,9.89143,0.701741,0.273032,0.0304878,2.04268,-2.59146,-27.1643,-0.435894,26.647,-15.061,-1.4939,4.69512
441.506,85.6058,41.1966,0,9.83395,0.64426,0.253872,0.335366,1.52439,-2.37805,-27.1835,-0.320933,26.7811,-15.7012,0.670732,4.26829
441.516,85.5972,41.3354,0,9.82437,0.63947,0.253872,-0.243902,1.03659,-2.46951,-27.3463,-0.378413,27.0781,-17.7439,3.20122,5.94512
441.526,85.5831,41.484,0,9.74773,0.677791,0.340093,-0.579268,0.396341,-2.46951,-27.2793,-0.138911,27.3942,-18.2317,6.61585,4.57317
441.536,85.5676,41.629,0,9.78844,0.725691,0.359253,-0.243902,1.18902,-2.04268,-27.011,-0.0239502,27.1931,-21.372,9.63415,4.14634
441.546,85.5533,41.7563,0,9.82916,0.696951,0.411943,-0.121951,1.82927,-2.37805,-27.1643,0.00479004,27.0877,-19.5427,15,2.71341
441.556,85.5503,41.8687,0,9.83635,0.65863,0.395178,-0.0304878,1.61585,-1.92073,-27.0685,-0.110171,26.7811,-18.0488,20,2.9878
441.566,85.5472,41.9759,0,9.86748,0.627495,0.438289,0.426829,0.731707,-2.28659,-26.9248,-0.598755,26.647,-16.2805,25.8232,2.62195
441.576,85.5376,42.086,0,9.86988,0.675395,0.378413,0.365854,-0.670732,-2.28659,-26.7715,-0.752036,26.6853,-14.6341,30.3659,2.77439
441.586,85.5224,42.1808,0,9.87946,0.706531,0.373623,0.548781,-1.03659,-2.43902,-26.7045,-1.1065,26.3787,-12.0732,34.0244,3.2622
441.596,85.5081,42.2678,0,9.78126,0.701741,0.416733,1.21951,-0.914634,-2.37805,-26.7524,-1.14482,26.35,-11.7988,38.0183,3.01829
441.606,85.4883,42.3446,0,9.80521,0.742456,0.399968,1.46341,-0.640244,-2.40854,-26.9344,-1.07776,26.3787,-11.2195,39.878,3.35366
441.616,85.4687,42.4155,0,9.75731,0.764011,0.368833,1.67683,-0.121951,-2.10366,-26.9727,-0.866997,26.3692,-11.0671,43.4146,4.72561
441.626,85.4483,42.4834,0,9.76449,0.790356,0.387993,1.67683,-0.304878,-1.82927,-27.0877,-0.857417,26.4937,-10.4268,47.5305,5.15244
441.636,85.4304,42.5471,0,9.7142,0.775986,0.392783,1.28049,-0.335366,-1.79878,-27.0973,-0.598755,26.4937,-10.5488,53.2927,5.06098
441.646,85.4062,42.5751,0,9.74773,0.833467,0.404758,1.09756,-0.213415,-1.55488,-27.3368,-0.560435,25.9764,-9.87805,57.1951,4.96951
441.656,85.3998,42.612,0,9.77886,0.754431,0.352068,1.25,-0.670732,-1.25,-27.2122,-0.378413,26.1009,-9.96951,60.6707,3.29268
441.666,85.3896,42.6183,0,9.80281,0.778381,0.335303,2.0122,-0.792683,-1.25,-27.6816,-0.158071,25.8997,-8.93293,65.2439,1.64634
441.676,85.3886,42.6426,0,9.79084,0.735271,0.244292,2.56098,-1.64634,-1.15854,-27.72,-0.244292,26.3596,-8.17073,66.4329,1.21951
441.686,85.4017,42.6454,0,9.75012,0.66342,0.249082,3.81098,-2.34756,-1.12805,-27.6625,-0.368833,25.8327,-2.77439,66.1281,1.09756
441.696,85.4453,42.6242,0,9.79563,0.474214,0.249082,6.46341,-4.35976,-1.31098,-27.5284,-0.799937,25.2004,7.71341,73.1707,0.731707
441.706,85.4993,42.5831,0,9.91778,0.459844,0.0718506,10.1829,-5.91463,-0.97561,-27.605,-1.346,24.8459,17.1037,81.25,0
441.716,85.5532,42.5031,0,10.0687,0.519719,-0.182021,11.5549,-6.76829,-0.518293,-28.1223,-1.94955,24.4627,24.2683,92.2256,-2.28659
441.726,85.5938,42.4209,0,10.1214,0.603545,-0.330513,11.0671,-6.21951,-0.27439,-28.8121,-2.04535,24.9705,24.2378,98.1707,-4.39024
441.736,85.6376,42.3634,0,10.2195,0.59157,-0.301772,10.122,-4.60366,0.518293,-28.8887,-1.81542,25.5165,17.378,98.1098,-4.93902
441.746,85.6853,42.3098,0,10.2219,0.55804,-0.193997,10.0305,-1.31098,0.670732,-28.9366,-1.0586,25.5836,5.97561,95.0305,-3.47561
441.756,85.731,42.2279,0,10.083,0.55325,-0.114961,10.5793,3.44512,1.25,-28.9749,-0.0526904,24.913,-6.31098,90.3049,-2.59146
441.766,85.7808,42.1045,0,9.84593,0.543669,-0.0718506,10.7012,8.75,0.701219,-29.4923,0.799937,24.3478,-15.5488,86.7988,-1.18902
441.776,85.8067,41.9664,0,9.60642,0.63947,0.158071,10.0305,12.0122,1.25,-30.1916,1.2023,24.4723,-24.6951,83.1707,0.97561
441.786,85.7973,41.7953,0,9.52978,0.799937,0.476609,8.20122,12.9573,1.21951,-30.7377,1.1065,24.0508,-33.6585,79.7866,2.04268
441.796,85.7667,41.5851,0,9.58726,0.917292,0.828677,6.92073,11.8598,1.21951,-31.4179,1.03944,23.5526,-38.5671,75,-0.243902
441.806,85.7012,41.3548,0,9.68785,1.04902,1.05141,6.03659,10.2744,0.823171,-31.7148,0.426313,23.1407,-37.4695,70.0915,-1.7378
441.816,85.6422,41.0957,0,9.79563,1.12566,1.18793,4.57317,8.07927,1.15854,-32.1939,-0.215552,22.6617,-38.2317,66.5549,-4.57317
441.826,85.6117,40.818,0,9.8603,1.00112,1.26697,2.92683,5.45732,1.25,-32.5579,-0.455054,22.2785,-37.1341,60.5183,-7.65244
441.836,85.5736,40.5663,0,9.94173,1.14721,1.17595,0.487805,2.62195,1.76829,-33.0848,-0.943638,22.9299,-39.0244,53.1098,-9.96951
441.846,85.5493,40.303,0,9.74294,1.11129,1.46815,-3.32317,-1.79878,2.43902,-33.3339,-1.07776,22.6042,-43.1402,45.061,-13.3537
441.856,85.5585,40.0266,0,9.74054,0.910107,1.60227,-5.03049,-3.04878,2.92683,-33.0465,-0.771196,21.8953,-45.9146,41.1585,-14.1463
441.866,85.5709,39.7102,0,9.69264,0.972378,1.52802,-5.97561,-4.20732,3.9939,-33.1135,-0.742456,20.8702,-49.6037,37.439,-11.6768
441.876,85.5868,39.3447,0,9.53218,1.02507,1.63101,-8.14024,-9.93902,5.15244,-33.8416,-0.656235,20.0367,-46.5854,29.9085,-8.17073
441.886,85.6168,38.9975,0,9.24957,0.907712,1.78189,-10.2134,-17.622,5.51829,-34.5697,-0.665815,20.5062,-45.9756,20.3354,-5.21341
441.896,85.6612,38.6197,0,9.04359,0.802332,2.03337,-10.6707,-26.189,5.94512,-35.4415,-0.953218,20.0559,-46.8293,9.48171,-3.5061
441.906,85.7129,38.2755,0,9.18729,0.809517,1.86333,-12.5,-29.1463,6.70732,-35.6618,-1.1065,20.5253,-46.5549,-1.09756,-4.42073
441.916,85.7907,37.9415,0,9.32621,0.63947,1.05141,-13.0488,-27.1037,7.19512,-35.9109,-1.04902,20.5445,-46.128,-13.4146,-5.57927
441.926,85.8839,37.5857,0,9.22322,0.481399,0.308958,-12.2866,-26.372,7.0122,-36.1504,-0.723296,19.9218,-44.6037,-19.8171,-8.01829
441.936,85.9634,37.2485,0,8.74661,0.431104,-0.00718506,-14.7256,-28.2317,5.39634,-36.045,-0.742456,19.9314,-43.5366,-26.5854,-9.02439
441.946,86.0459,36.9137,0,8.46639,0.308958,0.131726,-19.6951,-27.2256,3.07927,-36.5145,-1.12566,19.9122,-40.2744,-38.1707,-8.84146
441.956,86.2439,36.5529,0,8.658,0.0455054,0.56762,-21.2805,-20.3963,1.40244,-36.5049,-1.48012,19.05,-35.7317,-49.3293,-8.01829
441.966,86.3581,36.2131,0,9.40045,0.0862207,0.656235,-20.3049,-14.3293,1.76829,-36.5815,-2.01661,19.1745,-30.1524,-62.9573,-6.06707
441.976,86.4149,35.8862,0,10.1645,0.459844,0.665815,-18.5061,-15,3.56707,-36.8115,-2.82133,19.2224,-25.4573,-77.6524,-4.69512
441.986,86.4166,35.6077,0,10.8375,1.26936,0.368833,-17.5915,-22.8354,6.4939,-36.9647,-3.18538,19.9697,-20.9146,-95.9146,-3.41463
441.996,86.4952,35.3606,0,11.2302,0.543669,-0.00239502,-20.1829,-28.2317,6.37195,-36.7061,-3.32908,20.1804,-19.8171,-114.39,-2.2561
442.006,86.5834,35.1503,0,10.5141,0.170046,-0.124541,-22.7439,-33.3537,3.59756,-36.4666,-3.08958,20.5541,-20.6098,-129.97,-2.10366
442.016,86.705,34.9905,0,9.64953,0.0910107,-0.261057,-22.5915,-33.9024,0.884146,-36.2845,-3.14706,21.2821,-22.0427,-145.823,-0.97561
442.026,86.8119,34.7934,0,8.97893,-0.0502954,-0.61552,-22.3171,-27.0122,-1.82927,-36.1313,-2.53393,20.2188,-17.9878,-157.652,0
442.036,86.8602,34.5808,0,8.97653,0.237107,-0.898132,-22.4085,-16.8598,-1.58537,-36.1983,-1.76752,19.7302,-11.9817,-168.171,0.548781
442.046,86.8684,34.4331,0,9.31423,0.457449,-1.01549,-21.4634,-8.32317,-0.792683,-36.3803,-0.876577,20.966,-3.84146,-181.006,1.61585
442.056,86.8808,34.3786,0,9.63037,0.457449,-1.06099,-19.2378,-8.10976,-0.609756,-37.2042,-0.445474,23.2844,0.853659,-205.488,0.762195
442.066,86.9179,34.3278,0,10.1166,0.287402,-0.864602,-16.0061,-12.5305,-0.945122,-37.6162,-0.684976,23.4568,6.61585,-232.043,-2.37805
442.076,86.9302,34.3273,0,10.6339,0.402363,-0.809517,-13.7805,-17.7744,-1.12805,-37.1276,-1.12566,24.1562,9.02439,-256.006,-6.95122
442.086,86.9298,34.3586,0,11.0267,0.455054,-0.55325,-13.2622,-19.0854,-1.64634,-35.6139,-1.54718,23.7921,9.02439,-277.104,-6.95122
442.096,86.9504,34.3575,0,11.2973,0.244292,-0.546064,-14.8476,-15.122,-1.89024,-34.1003,-1.95913,22.0485,1.09756,-291.86,-3.75
442.106,87.0051,34.4054,0,11.1344,-0.126936,-0.795146,-14.1159,-10.2744,-2.34756,-32.4717,-1.75794,21.9623,-9.84756,-302.226,3.53659
442.116,87.0608,34.5309,0,10.4327,-0.342488,-1.27655,-11.6159,-5.67073,-4.39024,-31.6765,-1.98787,23.0257,-20.9146,-315.488,10.3354
442.126,87.0978,34.6614,0,9.62079,-0.399968,-1.7292,-12.1037,-1.31098,-7.10366,-31.2167,-1.76752,22.8629,-22.439,-324.482,18.3537
442.136,87.1397,34.7841,0,9.00048,-0.6251,-1.32445,-11.8902,-0.304878,-9.7561,-31.0921,-1.26936,22.7,-17.8354,-329.085,27.5305
442.146,87.2029,34.9365,0,8.69871,-0.878972,-0.61073,-8.65854,-3.10976,-11.1585,-31.1592,-0.790356,23.476,-1.85976,-330.64,37.0122
442.156,87.2538,35.0718,0,9.41961,-0.881367,-0.522114,-2.68293,-4.90854,-11.4329,-31.619,-0.273032,23.5814,20.3354,-330.701,44.0854
442.166,87.2414,35.323,0,10.9069,-0.383203,-1.32924,2.0122,-1.34146,-10.9756,-31.0155,-1.41306,25.8231,33.4146,-330.457,48.0793
442.176,87.1906,35.6462,0,12.5331,-0.201182,-2.79978,1.12805,5.97561,-12.6829,-31.2358,-2.51477,27.9499,34.2683,-335.64,46.128
442.186,87.0906,36.0308,0,13.7666,-0.244292,-4.36133,-8.75,17.0732,-18.0183,-31.3316,-3.8943,29.933,24.2378,-336.829,36.1585
442.196,86.9157,36.556,0,14.0588,-0.208367,-4.04758,-25.2744,29.4207,-25.5183,-30.8047,-3.68354,33.765,15.7012,-337.348,26.311
442.206,86.6808,37.1495,0,13.0074,-0.330513,-2.13157,-37.7134,32.8354,-33.2317,-29.9617,-3.20454,35.5469,13.628,-337.348,20.0915
442.216,86.4492,37.8091,0,11.7955,-0.831072,-0.656235,-41.25,31.0366,-38.628,-28.7642,-2.49561,37.0701,13.2012,-326.25,19.6341
442.226,86.2722,38.4952,0,11.1776,-1.62861,-0.234712,-40,40.6402,-42.2256,-27.6816,-0.828677,37.5204,4.2378,-313.75,28.811
442.236,86.1265,39.1846,0,9.60882,-1.79626,0.58199,-41.7988,56.4634,-44.0854,-27.1356,0.0910107,37.8844,-2.92683,-306.921,43.4146
442.246,86.0683,39.8196,0,8.27958,-2.29922,1.4442,-37.2256,59.8171,-45.5183,-26.1871,-0.359253,35.7002,2.07317,-299.055,55.5488
442.256,85.964,40.5531,0,8.71787,-2.01421,0.864602,-30,43.1707,-45.2134,-23.9358,-1.02028,36.7156,8.17073,-291.555,63.5976
442.266,85.7755,41.349,0,9.52978,-1.31726,0.546064,-23.9939,12.378,-43.5366,-23.3419,-1.27894,39.2352,1.31098,-283.262,63.9329
442.276,85.5546,42.1164,0,10.6411,-1.19511,-0.534089,-14.939,-1.34146,-44.2378,-22.0773,-1.87291,37.3671,-12.9573,-263.262,57.1951
442.286,85.275,42.9113,0,10.9764,-0.821492,-1.22146,-6.76829,5.64024,-46.3415,-19.5865,-0.704136,35.3936,-12.1341,-232.134,51.4634
442.296,84.9446,43.8054,0,10.3728,-0.311353,-0.816702,-4.39024,15.4573,-46.8598,-16.9903,0.886157,35.6331,-2.04268,-198.628,55.5488
442.306,84.6368,44.7464,0,9.92975,-0.308958,-0.114961,-1.25,11.6768,-45.3659,-15.1317,1.06818,35.1541,6.31098,-172.805,61.9512
442.316,84.3592,45.6623,0,9.68306,-0.464634,0.306563,6.40244,3.62805,-44.878,-14.5282,0.0910107,34.4452,7.31707,-150.64,63.4451
442.326,84.0511,46.5927,0,9.0412,-0.174836,0.467029,11.0366,-4.02439,-45.2134,-13.0912,-0.838257,33.3243,4.35976,-122.043,58.6585
442.336,83.7115,47.5716,0,9.21843,0.174836,0.294587,14.8476,-7.80488,-44.5732,-11.7691,-1.346,33.8512,0,-97.7744,53.0793
442.346,83.2927,48.6895,0,10.0088,0.962798,0.215552,15.4268,-5.06098,-44.3598,-7.93709,-1.22146,30.6419,-5.18293,-65.2439,46.2195
442.356,82.8111,49.6935,0,10.4231,1.53521,0.459844,12.7439,3.5061,-45.7317,-10.1788,-0.244292,35.0008,-6.95122,-51.9207,44.4512
442.366,82.3011,50.5491,0,10.4878,1.69328,0.65863,14.4817,8.01829,-47.9878,-12.5355,1.48012,36.6199,-6.85976,-40.061,47.5305
442.376,81.7315,51.123,0,9.91059,2.03577,0.802332,15.5183,6.61585,-50.1524,-17.1819,1.4897,36.6677,-2.71341,-29.9085,54.3902
442.386,81.1131,51.5303,0,9.86748,2.41657,0.742456,15.8232,3.38415,-51.8902,-19.6439,1.98787,35.8726,1.12805,-22.8049,55.2744
442.396,80.4727,51.864,0,9.98484,2.72314,0.292192,17.1037,4.2378,-52.3476,-20.4583,1.92081,35.2499,2.2561,-17.6829,55.0915
442.406,79.821,52.2099,0,9.40045,2.75906,0.170046,18.7805,4.84756,-52.561,-20.3241,1.57592,35.9301,0.762195,-18.872,54.2683
442.416,79.1555,52.5896,0,9.38369,2.93869,0.0694556,18.5671,8.65854,-53.2012,-19.9026,1.00112,36.9552,3.17073,-21.189,52.3171
442.426,78.4636,52.9571,0,9.31902,3.27639,0.6251,18.9634,6.25,-53.2012,-19.7398,0.292192,36.7635,6.34146,-20.3963,49.4512
442.436,77.7789,53.3299,0,9.33579,3.38656,0.613125,18.811,-3.62805,-52.7134,-19.2799,-0.464634,36.7061,6.40244,-16.5854,44.9085
442.446,77.1107,53.7317,0,9.5226,3.40093,0.316143,18.0793,-7.89634,-53.0183,-18.9733,-0.493374,37.894,4.45122,-14.939,42.378
442.456,76.4501,54.1389,0,9.76689,3.42009,-0.0934058,16.7378,-6.37195,-54.3293,-18.5614,-0.244292,37.9611,3.04878,-14.5122,44.6646
442.466,75.7729,54.5493,0,9.72617,3.5111,0.0550855,11.6463,-2.16463,-56.25,-17.9004,-0.244292,37.4533,8.20122,-9.72561,44.1463
442.476,75.0883,54.9096,0,9.6184,3.52307,0.232317,9.78659,0,-57.8354,-18.7243,-0.378413,37.712,11.8598,-10.4268,43.6585
442.486,74.3824,55.311,0,9.50823,3.68354,0.435894,8.01829,-0.304878,-59.2378,-17.1627,-0.570015,36.9072,11.7988,2.86585,41.0366
442.496,73.6452,55.6877,0,9.27112,3.95657,0.500559,10.2134,-4.11585,-59.939,-18.1016,-0.330513,38.5071,14.0244,-0.0914634,38.6585
442.506,72.9017,56.0244,0,9.48907,4.35415,0.126936,12.5915,-9.60366,-58.9329,-18.4273,0.225132,38.1048,12.4695,0.365854,35.5488
442.516,72.1662,56.3129,0,9.67588,4.46911,-0.359253,12.3476,-7.62195,-59.3598,-19.2703,0.838257,38.3443,12.0427,1.37195,33.9024
442.526,71.4271,56.5501,0,9.40524,4.50264,-0.251477,11.7683,-8.14024,-59.6037,-20.0846,1.07776,38.2772,11.25,2.16463,33.872
442.536,70.7068,56.7356,0,9.43638,4.40444,-0.100591,11.5244,-7.40854,-60.3354,-20.4487,1.24062,37.2713,10.9451,2.80488,32.5915
442.546,70.0186,56.9067,0,9.2831,4.0883,-0.0670605,13.5671,-9.54268,-61.0976,-20.5253,1.50886,37.1372,8.56707,3.41463,30
442.556,69.329,57.0576,0,9.34776,4.04519,-0.0910107,12.0732,-10.4268,-63.3841,-20.3625,1.78668,36.342,7.71341,4.11585,29.0549
442.566,68.6487,57.2394,0,9.10826,3.76018,0.280217,8.87195,-9.84756,-65.8232,-19.7206,1.56634,36.5815,8.78049,4.60366,25.9146
442.576,67.9583,57.4364,0,9.20646,3.77695,0.172441,8.17073,-5.64024,-68.5061,-19.1554,1.22146,36.3803,12.378,3.65854,23.5671
442.586,67.2505,57.6645,0,9.4747,3.99489,-0.0479004,7.13415,-7.68293,-70.5488,-18.6955,1.1544,37.0605,13.9024,6.64634,20.7927
442.596,66.5121,57.9064,0,9.20166,4.27271,-0.00479004,5.73171,-6.40244,-70.9451,-18.1782,1.2981,36.9456,13.628,5.91463,21.372
442.606,65.761,58.1322,0,8.91905,4.43318,0.289797,5.57927,-7.77439,-70.6402,-17.9004,1.13524,36.16,13.7805,11.2195,21.9512
442.616,65.0284,58.2696,0,9.14418,4.49545,-0.00479004,7.37805,-8.71951,-70.7927,-18.4752,1.19272,34.2919,13.9939,16.7073,23.6585
442.626,64.2793,58.3962,0,9.20166,4.74453,-0.131726,7.04268,-5.21341,-71.7378,-18.6764,1.17356,34.5218,11.7378,24.5122,26.2805
442.636,63.5367,58.5141,0,8.97893,4.67747,-0.0215552,6.31098,-3.75,-72.1037,-18.7147,1.76752,34.4548,9.42073,23.5061,30.122
442.646,62.8281,58.6266,0,8.89989,4.33978,-0.335303,8.38415,-3.90244,-73.2622,-18.4943,2.17947,34.0524,8.90244,27.8659,34.0854
442.656,62.1154,58.7405,0,8.72506,4.35175,0.0742456,8.90244,-7.68293,-74.0854,-18.3123,2.67763,33.9757,8.14024,35.061,40.3659
442.666,61.3967,58.8928,0,8.32988,4.25355,-0.0742456,8.9939,-10.0305,-75.0305,-17.8525,3.14706,34.723,6.70732,40.9756,45.061
442.676,60.6415,59.0388,0,8.13828,4.53377,-0.313748,8.84146,-6.52439,-76.0061,-17.8046,3.76976,34.6655,0.945122,47.6524,47.2256
442.686,59.879,59.1616,0,8.20294,4.88584,-0.265847,7.37805,-5.06098,-74.9085,-18.1495,4.00926,34.7134,0.0914634,52.0427,47.3476
442.696,59.1366,59.2618,0,8.44005,5.24988,-0.155676,8.62805,-7.13415,-72.1646,-18.4273,3.76018,34.6176,-2.0122,56.7073,44.0244
442.706,58.404,59.3316,0,8.43286,5.42232,-0.275427,9.08537,-0.0914634,-70.9146,-18.5422,3.43446,33.9374,-5.57927,66.0366,38.0488
442.716,57.6529,59.3703,0,8.04966,5.62111,-0.244292,7.95732,2.31707,-69.8476,-18.7147,3.2237,33.3147,-8.68902,73.75,31.7378
442.726,56.9588,59.3847,0,8.27479,5.57321,-0.234712,8.32317,-0.243902,-67.5305,-18.6476,3.19496,32.4717,-13.7195,80.3049,27.561
442.736,56.3073,59.4181,0,8.3682,5.43909,-0.251477,8.71951,-1.82927,-66.5244,-18.2644,3.2716,32.4813,-15.0915,85.3049,27.0122
442.746,55.6444,59.4381,0,8.10714,5.52052,-0.55325,6.61585,-1.15854,-66.4939,-18.3602,3.3674,32.2705,-16.189,89.1768,29.2073
442.756,54.9986,59.4667,0,7.95865,5.53968,-0.299377,4.2378,-2.7439,-64.9085,-18.389,3.66438,32.692,-16.189,97.3476,31.7378
442.766,54.3665,59.4647,0,7.97542,5.6738,-0.55804,3.35366,-2.31707,-63.628,-18.8105,3.47278,32.4908,-17.561,103.811,33.0488
442.776,53.7346,59.4571,0,7.79339,5.80792,-0.452659,5.03049,-0.853659,-62.3171,-18.7243,3.20454,32.1939,-17.4085,110.427,31.8902
442.786,53.1169,59.442,0,7.61377,5.8199,-0.373623,6.40244,-2.40854,-60.7317,-18.7626,2.73511,32.0502,-19.7866,116.494,28.1402
442.796,52.5272,59.4198,0,7.63053,5.85582,-0.227527,8.93293,-5.82317,-58.9024,-18.7817,2.84049,31.8585,-22.1037,120.793,26.0061
442.806,51.9299,59.3756,0,7.48923,6.10011,-0.205972,8.96341,-5.15244,-57.5,-18.7722,2.85007,31.1592,-28.5976,127.195,21.8598
442.816,51.3384,59.2879,0,7.20901,5.99952,-0.122146,8.5061,-3.29268,-56.8902,-19.2607,2.78301,30.594,-33.0793,130.549,17.561
442.826,50.7562,59.2035,0,7.07249,5.95641,-0.126936,7.40854,-5.45732,-56.4634,-19.2703,2.86923,30.6515,-34.8476,138.476,14.6037
442.836,50.1763,59.1313,0,7.03657,6.08574,-0.189207,7.37805,-6.55488,-55.8841,-19.4044,3.15664,31.1592,-33.75,143.262,10.0305
442.846,49.599,59.0209,0,7.05812,6.45458,-0.0718506,6.18902,-6.67683,-53.5671,-19.3949,3.3195,30,-33.5976,156.128,6.79878
442.856,49.0392,58.9232,0,6.98627,6.71324,0.0526904,5.18293,-8.35366,-50.061,-19.8356,3.53026,31.0059,-34.1463,169.512,3.71951
442.866,48.5236,58.8276,0,7.09165,6.82102,-0.258662,4.60366,-8.2622,-46.6463,-20.5253,3.35782,32.0406,-38.0793,171.159,-0.426829
442.876,48.0333,58.6704,0,7.12758,6.91203,-0.692161,2.77439,-7.04268,-44.6341,-21.2726,3.1279,31.2071,-39.3902,173.933,-4.29878
442.886,47.5713,58.5032,0,7.20182,6.94795,-0.682581,1.58537,-7.43902,-43.0488,-21.3588,2.97461,30.8718,-41.1585,176.86,-6.82927
442.896,47.1113,58.3159,0,7.02699,6.93119,-0.720901,3.23171,-4.48171,-42.5,-22.2785,2.76385,31.4179,-43.5671,178.841,-9.78659
442.906,46.6244,58.0816,0,6.79707,7.13955,-0.622705,2.10366,-5.30488,-42.5,-22.585,2.12199,30.3162,-44.5122,184.756,-14.0244
442.916,46.1196,57.8278,0,6.66773,7.26649,-0.608335,1.37195,-5.36585,-43.1707,-22.7383,1.64298,29.7701,-45.4573,193.232,-17.0427
442.926,45.6039,57.5505,0,6.44979,7.28565,-0.579595,0.487805,-7.95732,-43.2317,-22.997,1.42264,29.2528,-45.2439,202.5,-20.5183
442.936,45.094,57.301,0,6.4426,7.31199,-0.524509,1.12805,-12.3171,-43.4146,-23.3419,1.33642,30.1533,-45.5488,202.957,-21.7683
442.946,44.5839,57.041,0,6.37554,7.27367,-0.63947,1.64634,-14.5427,-44.1768,-22.997,1.59508,29.1761,-41.1585,206.341,-22.3171
442.956,44.0777,56.7521,0,6.37315,7.27128,-0.548459,0.487805,-15.7317,-44.8171,-23.7921,1.81542,29.1761,-40.9146,213.445,-22.1341
442.966,43.5814,56.4375,0,6.31806,7.17787,-0.476609,0.457317,-19.3598,-45.0915,-24.3669,1.80584,28.927,-45.5183,218.689,-22.622
442.976,43.1123,56.1036,0,6.40428,7.03896,-0.632285,1.55488,-22.2866,-45.2439,-24.8172,1.90165,28.6396,-50.5793,219.543,-24.0549
442.986,42.6368,55.7712,0,6.37554,7.11081,-0.857417,0.97561,-21.7073,-46.0061,-25.028,1.98787,28.5726,-55.2744,216.585,-27.378
442.996,42.1699,55.4025,0,6.44739,7.10842,-0.737666,-0.243902,-18.9024,-46.7683,-24.9705,2.17947,27.2793,-54.3598,216.098,-31.0061
443.006,41.7117,55.0168,0,6.52403,7.10363,-0.775986,2.10366,-15.7927,-47.561,-25.0663,2.36149,26.647,-51.8902,220,-31.189
443.016,41.1801,54.6487,0,6.25819,7.58024,-0.713716,2.89634,-14.1159,-49.8171,-24.8747,2.23695,26.5033,-52.7439,221.22,-31.4024
443.026,40.6356,54.2783,0,6.17915,7.87243,-0.785566,0.97561,-12.9878,-49.3293,-24.7022,1.85375,25.9381,-53.9024,222.805,-31.0976
443.036,40.0918,53.9013,0,5.9636,7.81495,-1.16158,-0.579268,-14.0549,-48.7805,-24.7885,1.48012,25.5549,-55.5183,225.03,-30.0305
443.046,39.5775,53.518,0,6.02587,7.68562,-1.14482,0.152439,-17.2256,-48.4146,-25.1908,0.857417,25.5165,-58.0488,231.311,-31.0976
443.056,39.0716,53.1373,0,5.98036,7.49881,-0.924478,2.62195,-21.7683,-49.5732,-24.9801,0.742456,25.0471,-59.7866,236.951,-32.5305
443.066,38.5753,52.7037,0,6.01868,7.08207,-0.871787,3.32317,-23.1402,-53.2622,-24.7214,0.972378,23.3802,-59.4817,245.396,-31.0061
443.076,38.114,52.2492,0,6.33962,6.47374,-0.809517,3.07927,-21.5244,-58.9634,-25.3249,0.866997,23.1694,-55.9451,248.262,-28.9634
443.086,37.6211,51.7683,0,6.2989,6.44021,-0.756826,5.73171,-19.3902,-63.0488,-25.21,0.598755,22.1827,-51.0976,250.518,-26.372
443.096,37.1028,51.3068,0,6.44979,6.80186,-1.00591,8.17073,-16.0671,-64.8476,-24.9322,0.387993,21.9623,-46.128,255.244,-22.7744
443.106,36.5321,50.8752,0,6.30609,7.48683,-1.01549,8.47561,-11.4329,-64.3598,-25.1621,-0.340093,22.4126,-46.9512,259.146,-19.3902
443.116,35.9611,50.4004,0,6.17676,7.63293,-0.878972,9.32927,-10.3659,-63.2622,-24.9705,-0.694556,21.1001,-49.0854,265.366,-18.9634
443.126,35.3989,49.9718,0,6.2031,7.6449,-1.1544,10.2744,-7.53049,-63.689,-25.2196,-0.905317,21.8569,-52.6524,270.091,-18.9329
443.136,34.8361,49.5474,0,6.23424,7.5994,-1.32684,10.122,-2.83537,-65.5183,-25.4399,-0.330513,21.7899,-55.0305,268.201,-17.5915
443.146,34.279,49.0911,0,6.10251,7.46528,-1.21906,8.53659,-3.9939,-65.8841,-25.4112,0.340093,20.851,-54.8476,271.707,-17.622
443.156,33.6918,48.5419,0,5.73128,7.34552,-1.06099,7.10366,-5.82317,-67.439,-25.871,0.455054,19.232,-53.2317,283.75,-17.9268
443.166,33.0471,47.964,0,5.36484,7.47007,-1.0107,7.34756,-3.38415,-69.8476,-25.9572,0.895737,18.4464,-51.3415,292.957,-16.9207
443.176,32.444,47.3927,0,5.37682,7.1635,-0.910107,8.87195,-0.945122,-69.3902,-26.5703,0.340093,18.5901,-46.8598,291.646,-17.7134
443.186,31.8248,46.791,0,5.1445,7.33355,-1.07057,16.189,4.45122,-68.5061,-26.9344,-0.119751,17.91,-42.5,287.561,-19.5427
443.196,31.1489,46.2001,0,4.65831,8.40412,-1.14721,10.5488,4.57317,-63.2012,-27.308,-0.359253,17.9291,-40.5488,286.463,-22.5
443.206,30.5822,45.6377,0,5.13492,8.51429,-0.433499,11.0366,-1.67683,-57.7134,-28.0265,-0.962798,18.4943,-42.2256,287.439,-25.7927
443.216,29.9546,45.0353,0,4.56251,8.78254,0.0981958,0.548781,-4.48171,-57.6524,-28.084,-1.43222,17.4693,-43.0793,294.146,-31.0671
443.226,29.3378,44.4095,0,4.24158,8.07122,0.0790356,-4.17683,-2.59146,-58.3841,-28.8983,-1.83458,17.1819,-45.1524,303.354,-36.5854
443.236,28.7503,43.8026,0,4.37091,8.06164,-0.416733,-1.28049,-3.56707,-58.1707,-29.2719,-1.70046,17.3064,-46.4329,305.213,-40.9146
443.246,28.2008,43.1835,0,4.45713,7.94188,-0.486189,-0.792683,-6.82927,-57.1951,-30.0958,-1.54718,17.1531,-44.5732,305.244,-44.4207
443.256,27.5831,42.5211,0,4.10267,8.64602,-0.431104,-3.90244,-14.9695,-57.2866,-31.2646,-1.35558,16.5975,-40.4878,304.543,-47.2256
443.266,26.967,41.8566,0,3.70989,8.464,-0.512534,-6.79878,-23.9329,-54.878,-31.9735,-1.14482,16.4729,-35.061,306.494,-47.2256
443.276,26.3218,41.15,0,3.19017,8.46879,-0.498164,-8.32317,-33.628,-52.9268,-32.5771,-1.23104,15.5533,-30.6098,304.756,-48.2927
443.286,25.6032,40.4613,0,2.70158,9.46033,-0.529299,-9.93902,-41.2195,-52.1341,-32.5579,-1.35558,15.3617,-26.9207,302.988,-48.8415
443.296,24.9625,39.7773,0,2.84768,9.2328,-1.05381,-15.061,-43.4756,-48.1098,-32.8549,-1.35558,15.0934,-22.6524,300.305,-47.2561
443.306,24.3679,39.1205,0,3.05844,8.97174,-0.881367,-17.378,-49.6951,-48.1402,-32.8261,-1.96871,15.0743,-16.8902,297.439,-47.4695
443.316,23.9051,38.4765,0,3.56858,8.48316,-1.11847,-18.7805,-53.811,-44.0549,-32.1843,-2.18905,14.5569,-14.6646,298.841,-49.6646
443.326,23.4789,37.83,0,3.76258,8.63644,-1.152,-15.2744,-57.439,-42.7439,-32.7112,-1.95913,14.3078,-15.9451,298.171,-49.878
443.336,23.0651,37.1961,0,3.8009,8.95498,-1.45378,-12.8049,-55.9756,-41.25,-32.7399,-1.79626,14.1067,-15.9756,300.183,-50.3963
443.346,22.6542,36.5878,0,3.82724,9.18729,-1.81303,-9.69512,-55.0305,-41.0061,-32.8453,-1.54718,14.1546,-13.628,298.933,-47.8963
443.356,22.2856,35.9438,0,3.88233,8.97653,-1.65017,-12.1646,-57.7439,-39.1159,-33.1231,-1.6813,13.2445,-12.0122,296.646,-45.3659
443.366,21.9606,35.3287,0,4.01884,8.86636,-1.65735,-14.2988,-56.0061,-37.439,-33.2956,-1.22146,13.3594,-9.54268,293.537,-42.8963
443.376,21.7407,34.7081,0,4.47869,8.37299,-1.50407,-14.939,-50.3049,-35.061,-33.6213,-1.4897,12.9762,-8.38415,292.47,-42.7134
443.386,21.4795,34.0835,0,4.07153,8.65081,-1.36516,-14.2378,-44.5732,-33.7195,-34.062,-1.14482,12.6505,-8.01829,290.427,-39.2073
443.396,21.2217,33.4918,0,4.13141,8.80888,-1.55676,-13.2927,-39.5122,-33.75,-34.7326,-0.981958,13.0337,-11.189,288.628,-37.9878
443.406,20.9708,32.8719,0,3.98531,8.73464,-1.63101,-12.2256,-31.8293,-32.3476,-34.6176,-1.32684,12.0853,-11.5244,284.055,-35.2439
443.416,20.7339,32.2242,0,3.9925,8.82804,-1.76752,-10.061,-26.1585,-31.0366,-34.7613,-1.1065,11.2326,-12.8354,281.372,-35.9146
443.426,20.4678,31.6099,0,3.7506,8.88313,-1.60945,-9.57317,-22.8354,-31.5549,-35.1349,-1.346,11.4817,-10.6098,279.634,-34.1768
443.436,20.152,30.9965,0,3.34105,8.85199,-1.40588,-7.40854,-23.2012,-32.6524,-35.2403,-1.23104,11.1081,-9.29878,277.896,-32.9268
443.446,19.8038,30.3895,0,3.1255,8.91905,-1.30768,-5.60976,-21.6463,-33.811,-35.0008,-1.27894,10.7249,-10.8841,276.463,-31.5854
443.456,19.4678,29.7938,0,3.2213,8.95019,-1.32445,-4.69512,-18.3841,-34.2683,-34.6847,-1.0586,10.4088,-12.5,274.482,-29.9085
443.466,19.1051,29.1834,0,2.96982,9.10586,-1.36756,-3.87195,-15.7012,-34.1463,-34.9529,-1.17356,9.84353,-15.2439,272.439,-27.2866
443.476,18.7369,28.5833,0,2.91234,9.2352,-1.35319,-4.57317,-15.8232,-34.2988,-36.1408,-1.13524,9.92017,-14.9695,266.677,-25.6707
443.486,18.3939,27.9686,0,2.97701,9.16095,-1.346,-4.20732,-19.2378,-33.5061,-37.0893,-1.28852,9.47949,-13.7805,257.957,-24.2073
443.496,18.0589,27.3612,0,2.96743,9.13939,-1.34361,-3.53659,-19.7866,-33.3537,-37.8748,-1.09692,9.35495,-14.0854,251.067,-20.3963
443.506,17.6827,26.779,0,2.57944,9.35495,-1.26936,-5,-19.6951,-32.9878,-37.7886,-1.35558,9.31663,-14.1768,240.762,-18.0488
443.516,17.3158,26.1767,0,2.57704,9.32142,-1.14242,-8.04878,-19.6646,-32.8963,-37.5108,-1.33642,8.47358,-15.5793,234.268,-14.7256
443.526,16.9619,25.596,0,2.44531,9.13939,-1.21188,-5.21341,-18.872,-31.3415,-37.7024,-1.50886,8.45442,-15.3354,227.622,-11.128
443.536,16.6233,25.032,0,2.42376,9.02683,-1.1041,-1.12805,-15.2744,-30.6098,-37.5491,-1.21188,8.29156,-17.1646,222.104,-7.95732
443.546,16.2885,24.4749,0,2.25371,9.3286,-1.2526,1.92073,-9.93902,-27.9573,-37.597,-1.27894,8.02332,-19.0854,218.659,-5.18293
443.556,15.9561,23.9045,0,2.15552,9.53457,-1.2502,1.52439,-10.3049,-26.6768,-37.5395,-1.4418,7.39103,-21.9207,215.701,-2.19512
443.566,15.6382,23.3422,0,2.16749,9.5705,-1.10171,-1.55488,-14.9695,-25.9146,-37.2426,-1.75794,7.06531,-23.4756,209.146,-4.02439
443.576,15.334,22.7968,0,2.23934,9.46751,-1.04902,-3.29268,-18.872,-26.2805,-37.5491,-1.78668,6.99825,-25.8841,199.787,-6.0061
443.586,15.0461,22.2668,0,2.33993,9.41961,-1.10171,-3.84146,-20.8537,-26.5549,-37.5204,-1.85375,6.85455,-27.1341,189.909,-4.20732
443.596,14.7739,21.7295,0,2.43334,9.32381,-1.1065,-4.17683,-21.6159,-26.9207,-38.2676,-1.87291,6.47134,-26.9207,181.616,-4.81707
443.606,14.5036,21.212,0,2.38544,9.26873,-1.04902,-3.78049,-22.2256,-26.8902,-39.1586,-2.02619,6.57672,-25.3049,176.372,-1.92073
443.616,14.2428,20.671,0,2.32317,9.30944,-1.25739,-3.87195,-18.5671,-25.6098,-38.4592,-1.825,5.6762,-27.0427,170.976,0.609756
443.626,13.9964,20.1278,0,2.35191,9.30226,-1.20948,-3.93293,-13.872,-25.0305,-39.6951,-2.50519,5.41753,-26.6768,165.122,1.4939
443.636,13.782,19.5781,0,2.48843,9.21603,-1.16637,-2.83537,-10.9146,-24.1463,-39.743,-2.69679,4.91937,-26.9207,163.628,2.19512
443.646,13.5909,19.0683,0,2.62734,9.14658,-1.14482,-1.52439,-9.87805,-24.0854,-39.8196,-2.31359,5.24509,-24.9695,161.341,2.65244
443.656,13.4394,18.5831,0,2.91713,9.2328,-1.2023,0.182927,-8.17073,-23.5061,-40.1357,-2.74469,5.33131,-22.1341,151.707,3.29268
443.666,13.3109,18.0696,0,3.07281,9.20646,-1.19272,0.670732,-4.11585,-23.3537,-39.3693,-3.02251,4.37331,-22.8049,146.25,3.23171
443.676,13.1909,17.5857,0,3.08718,9.10826,-1.11368,2.59146,3.01829,-23.2927,-38.488,-2.94587,4.42121,-22.4695,141.921,2.07317
443.686,13.055,17.1352,0,2.87642,9.19927,-1.13524,4.05488,7.65244,-22.378,-38.7849,-2.71595,4.67987,-25.1829,135.701,0.548781
443.696,12.8961,16.7109,0,2.62494,9.3286,-1.22146,4.5122,11.8598,-21.6463,-38.5454,-2.01661,4.77567,-27.5915,129.695,1.58537
443.706,12.7248,16.2374,0,2.4022,9.19687,-1.15679,5.12195,13.5061,-21.0366,-37.9994,-1.825,3.58774,-29.8171,129.299,3.10976
443.716,12.5331,15.75,0,2.12438,9.11305,-1.25499,6.58537,13.2622,-20.3659,-38.2772,-1.65256,3.06083,-32.2866,129.634,3.5061
443.726,12.3098,15.3123,0,1.79626,9.21364,-1.48731,5.39634,14.2988,-19.7256,-39.7717,-1.825,3.7027,-33.2927,125.945,3.78049
443.736,12.0841,14.8563,0,1.71244,9.27112,-1.65496,5.39634,15.4573,-19.2683,-39.6567,-1.88249,3.06083,-35.1524,124.177,2.53049
443.746,11.8442,14.397,0,1.54958,9.41003,-1.55916,5.57927,15.8537,-18.9024,-39.4747,-2.05493,2.66805,-36.372,122.988,2.40854
443.756,11.6144,13.9399,0,1.56395,9.56331,-1.61664,5.4878,14.8171,-18.2317,-40.0783,-2.59141,2.41897,-38.8415,121.341,-0.853659
443.766,11.3854,13.4888,0,1.50647,9.58247,-1.43701,4.39024,12.7439,-17.8963,-40.0112,-2.90755,2.18905,-39.0244,117.896,-3.96341
443.776,11.1774,13.0084,0,1.60945,9.66151,-1.42025,4.39024,13.4756,-17.2866,-40.0687,-3.48236,1.35558,-38.811,117.317,-3.93293
443.786,10.9642,12.5253,0,1.51126,9.65672,-1.3484,4.5122,14.7561,-17.1037,-40.107,-3.43446,0.972378,-37.2561,117.256,-6.21951
443.796,10.7432,12.0468,0,1.30529,9.70941,-1.346,5.12195,13.0488,-15.7927,-39.5514,-3.33866,0.704136,-35.8841,116.768,-5.60976
443.806,10.5343,11.5828,0,1.28613,9.73096,-1.54958,4.66463,10.9451,-14.7561,-39.3981,-3.3195,0.627495,-35.5183,117.348,-4.96951
443.816,10.3297,11.1415,0,1.28134,9.59445,-1.51844,4.08537,6.52439,-14.9085,-39.6376,-3.33866,0.704136,-35.3659,116.89,-2.83537
443.826,10.1425,10.7298,0,1.37714,9.53697,-1.52563,3.2622,3.53659,-14.7866,-39.4556,-3.03209,0.914897,-36.4634,118.14,-2.9878
443.836,9.97203,10.2969,0,1.48012,9.49146,-1.5376,2.86585,3.41463,-14.7866,-38.8424,-2.79259,0.263452,-35.5183,119.146,-0.426829
443.846,9.79255,9.86568,0,1.40109,9.49625,-1.50886,1.7378,3.35366,-15.0915,-38.8137,-2.93629,0.00479004,-35.6707,121.25,0.121951
443.856,9.6139,9.42055,0,1.40827,9.54894,-1.56874,2.34756,3.84146,-15.3659,-38.7083,-3.04167,-0.531694,-33.8415,118.811,-0.365854
443.866,9.42864,8.98816,0,1.35319,9.70222,-1.49928,2.07317,2.89634,-15.4878,-39.1107,-2.93629,-0.627495,-32.5915,117.043,-0.152439
443.876,9.23969,8.57204,0,1.33163,9.63516,-1.43701,1.4939,1.4939,-16.0976,-39.2831,-2.85965,-0.656235,-30.0915,113.72,-0.548781
443.886,9.04832,8.14644,0,1.32445,9.54176,-1.3963,2.28659,-0.365854,-16.7988,-39.4843,-2.89797,-1.12566,-29.1768,109.604,-3.14024
443.896,8.85261,7.73233,0,1.28613,9.50823,-1.3939,1.58537,-0.731707,-17.2256,-39.8675,-2.83091,-1.24062,-29.5427,106.738,-2.86585
443.906,8.66095,7.32119,0,1.27415,9.44835,-1.3005,2.10366,0.426829,-17.1646,-40.0016,-2.62015,-1.49928,-28.9939,101.738,-4.60366
443.916,8.46433,6.92415,0,1.19032,9.46751,-1.31487,3.47561,1.7378,-17.0122,-40.2699,-2.56267,-1.55676,-27.8659,99.2683,-7.04268
443.926,8.28108,6.54725,0,1.22386,9.54176,-1.4418,4.54268,2.77439,-16.3415,-40.6147,-2.55309,-1.50886,-28.9634,94.1463,-6.92073
443.936,8.1112,6.19305,0,1.23583,9.56571,-1.5855,3.41463,3.56707,-15.4573,-40.5381,-2.42855,-1.38432,-28.4756,89.1768,-8.65854
443.946,7.94973,5.80823,0,1.28373,9.62558,-1.4418,2.7439,3.38415,-15.4268,-40.4231,-2.20821,-2.18905,-30.4268,85.8232,-8.41463
443.956,7.79307,5.41908,0,1.28613,9.58008,-1.42264,3.01829,3.68902,-15.3659,-40.5285,-2.09325,-2.55309,-31.3415,83.7195,-9.96951
443.966,7.64058,5.056,0,1.32684,9.60882,-1.37953,3.65854,3.96341,-15.7012,-40.2794,-1.78668,-2.36149,-31.7378,79.6646,-10.2439
443.976,7.49692,4.69552,0,1.38911,9.60882,-1.37953,3.9939,4.48171,-15.8537,-40.6435,-2.18905,-2.61057,-33.9024,75.1219,-11.6768
443.986,7.34999,4.34341,0,1.346,9.63995,-1.31008,3.20122,4.20732,-15.9146,-41.1416,-2.10283,-2.77343,-34.7256,68.6281,-11.6463
443.996,7.2252,3.9955,0,1.43941,9.62558,-1.31726,2.46951,2.5,-15.0915,-41.1129,-2.40939,-2.97461,-34.6037,61.4024,-13.5366
444.006,7.11401,3.66199,0,1.49689,9.54655,-1.24541,1.92073,2.71341,-14.7866,-41.3332,-2.28485,-3.00335,-37.5915,54.6341,-12.0122
444.016,7.01221,3.33156,0,1.43462,9.5226,-1.1065,3.2622,3.84146,-13.3537,-41.5728,-2.68721,-3.2237,-37.561,50.1524,-12.5915
444.026,6.92172,2.99546,0,1.42264,9.63037,-1.18314,3.75,5.18293,-12.0732,-41.6302,-2.87881,-3.59732,-37.1037,43.872,-12.1646
444.036,6.83418,2.65354,0,1.346,9.69025,-1.40827,2.31707,6.31098,-10.9451,-41.362,-2.96503,-3.9422,-36.8293,39.2683,-12.378
444.046,6.76762,2.33129,0,1.38911,9.57289,-1.40109,2.28659,5.45732,-9.69512,-41.065,-3.33866,-3.82724,-36.0671,32.2561,-12.1341
444.056,6.71241,2.02418,0,1.40109,9.55852,-1.46096,2.0122,3.35366,-8.84146,-40.586,-3.25244,-3.7506,-34.6951,29.1159,-11.1585
444.066,6.67556,1.7074,0,1.47054,9.58487,-1.59508,1.46341,1.92073,-7.86585,-40.1453,-3.59732,-4.11464,-30.7927,24.9085,-7.80488
444.076,6.63816,1.41214,0,1.43941,9.58726,-1.52802,0.487805,0.243902,-7.62195,-40.0016,-3.61648,-3.95178,-27.7134,21.5854,-5.36585
444.086,6.60137,1.13292,0,1.41306,9.57289,-1.56155,0.426829,-0.670732,-7.34756,-40.1166,-3.82724,-3.8943,-24.939,19.0549,-2.95732
444.096,6.57263,0.858305,0,1.40348,9.50344,-1.56155,0.884146,-0.27439,-6.61585,-39.6759,-3.8943,-3.97094,-22.9268,17.439,-2.46951
444.106,6.53826,0.574754,0,1.34121,9.54176,-1.71004,1.92073,1.98171,-6.43293,-39.628,-3.97094,-4.32541,-21.4634,14.7256,-2.04268
444.116,6.50523,0.314512,0,1.32205,9.58487,-1.66933,1.4939,2.95732,-6.06707,-39.3119,-3.77934,-4.0859,-19.1768,12.7744,-3.04878
444.126,6.46957,0.0458681,0,1.25978,9.59684,-1.56634,1.06707,2.46951,-5.64024,-39.4843,-3.76976,-4.44037,-16.8598,10.7012,-1.79878
444.136,6.43322,-0.223519,0,1.23104,9.56571,-1.59748,0.396341,1.85976,-5.4878,-39.3981,-3.57816,-4.63197,-13.4451,10.3963,-1.52439
444.146,6.39953,-0.505264,0,1.21427,9.5681,-1.64059,-0.487805,1.40244,-5.09146,-39.7238,-3.44404,-5.07265,-11.8902,12.3476,-1.12805
444.156,6.36738,-0.830747,0,1.17835,9.51062,-1.54,-0.457317,-1.0061,-4.66463,-38.6987,-3.01293,-5.88696,-9.81707,15.122,0.609756
444.166,6.34701,-1.13838,0,1.23823,9.56331,-1.45857,-0.640244,-2.89634,-4.20732,-38.1527,-3.20454,-5.70494,-10.9451,19.1463,0.0304878
444.176,6.33256,-1.42741,0,1.27655,9.64714,-1.52563,-0.853659,-2.65244,-3.9939,-38.6412,-3.42488,-5.65704,-9.78659,21.8902,-2.89634
444.186,6.31965,-1.66287,0,1.29331,9.69264,-1.50647,-1.4939,-3.23171,-3.9939,-38.9574,-3.44404,-4.96727,-10.2134,21.6463,-4.02439
444.196,6.3186,-1.91386,0,1.38193,9.60403,-1.48731,-1.55488,-5.39634,-4.05488,-39.0532,-3.32908,-5.41753,-10.8841,20.8537,-4.29878
444.206,6.33529,-2.1519,0,1.51605,9.54655,-1.45617,-1.0061,-7.0122,-4.02439,-39.1394,-3.1758,-5.37921,-11.4634,20.061,-2.68293
444.216,6.37566,-2.38402,0,1.71004,9.53697,-1.42504,-0.487805,-6.28049,-3.9939,-38.8137,-3.39614,-5.39837,-11.5244,19.2988,-0.731707
444.226,6.42147,-2.586,0,1.77471,9.51541,-1.6334,-0.152439,-3.71951,-4.14634,-38.8999,-3.08958,-5.04391,-12.5,19.4817,2.28659
444.236,6.48054,-2.77937,0,1.87051,9.46991,-1.66214,0,-2.31707,-4.02439,-38.5263,-3.19496,-4.98643,-12.2256,19.0549,4.29878
444.246,6.55678,-2.97304,0,1.96631,9.43159,-1.64538,1.03659,-1.31098,-3.62805,-38.8041,-3.38656,-5.15887,-12.8049,19.6646,4.93902
444.256,6.64454,-3.15598,0,2.05253,9.4723,-1.67651,0.731707,0.548781,-3.38415,-38.5838,-3.11832,-5.07265,-13.0183,20.7927,6.98171
444.266,6.72824,-3.31278,0,1.95913,9.54415,-1.54,0.762195,4.14634,-2.77439,-38.7083,-3.10874,-4.75651,-13.1402,22.2256,7.31707
444.276,6.79685,-3.48517,0,1.81542,9.61361,-1.61903,0.640244,8.2622,-2.40854,-38.7562,-3.00335,-5.13971,-14.5427,22.622,6.85976
444.286,6.85519,-3.63143,0,1.67172,9.57529,-1.64777,0.945122,9.35976,-2.0122,-38.9286,-2.76385,-4.82357,-14.2073,23.2317,8.07927
444.296,6.91985,-3.77211,0,1.6334,9.49146,-1.60706,1.18902,8.23171,-1.67683,-38.9574,-2.44771,-4.83315,-16.311,22.622,8.23171
444.306,6.99237,-3.89496,0,1.62143,9.46272,-1.54718,1.67683,6.31098,-1.40244,-39.0819,-2.45729,-4.63197,-17.9878,23.2927,9.35976
444.316,7.06146,-4.02181,0,1.61903,9.51302,-1.58311,1.98171,5.67073,-1.34146,-38.8903,-2.27527,-4.76609,-21.7988,22.5,9.87805
444.326,7.09853,-4.13466,0,1.48012,9.60882,-1.60227,2.28659,6.55488,-1.37195,-39.1969,-2.17947,-4.65113,-24.1159,21.0671,9.32927
444.336,7.11665,-4.23624,0,1.35558,9.58966,-1.67412,2.7439,7.31707,-1.21951,-38.9765,-2.33275,-4.50743,-27.561,20.8841,9.45122
444.346,7.12634,-4.36055,0,1.26457,9.6184,-1.50407,3.10976,6.67683,-0.609756,-39.1394,-2.43813,-4.99601,-29.7561,20.4268,7.86585
444.356,7.12037,-4.50205,0,1.19751,9.63516,-1.57113,2.59146,5.7622,-0.426829,-39.1873,-2.49561,-5.38879,-30.9451,21.0061,6.34146
444.366,7.13722,-4.64954,0,1.2502,9.6184,-1.62622,2.10366,4.20732,0,-39.1203,-2.57225,-5.5804,-33.3537,21.8293,5.73171
444.376,7.17002,-4.79379,0,1.29571,9.55134,-1.65256,2.10366,3.14024,0.27439,-39.2448,-2.84049,-5.63788,-32.378,23.689,4.2378
444.386,7.2192,-4.93977,0,1.37235,9.55613,-1.66933,1.89024,3.41463,0.518293,-39.1969,-3.08958,-5.76242,-32.8659,23.5976,3.23171
444.396,7.27112,-5.07188,0,1.3939,9.54415,-1.75555,2.19512,4.60366,0.579268,-39.331,-3.4153,-5.63788,-32.439,23.9329,2.59146
444.406,7.30988,-5.21744,0,1.35558,9.56571,-1.63819,2.04268,6.82927,0.670732,-38.8999,-3.64522,-5.90612,-32.378,23.1098,2.07317
444.416,7.29737,-5.36787,0,1.17595,9.616,-1.63101,2.28659,7.10366,0.365854,-38.8424,-3.59732,-6.07856,-31.5854,24.6341,0.97561
444.426,7.26965,-5.51983,0,1.11129,9.63277,-1.62143,1.40244,5.85366,0.457317,-38.5646,-3.53984,-6.16478,-30.9451,24.8476,1.31098
444.436,7.26216,-5.65655,0,1.17835,9.58247,-1.64777,1.40244,3.78049,0.457317,-38.6891,-3.76976,-6.02108,-29.4817,25.5793,1.46341
444.446,7.2796,-5.8217,0,1.26457,9.55373,-1.65735,1.58537,2.56098,0.548781,-38.67,-3.86556,-6.60546,-26.5244,26.9817,1.79878
444.456,7.29711,-5.96539,0,1.26936,9.56571,-1.65496,1.37195,2.65244,0.579268,-38.8616,-3.67396,-6.37554,-25.3049,26.9512,1.58537
444.466,7.30664,-6.1019,0,1.23823,9.54894,-1.55916,1.55488,2.31707,0.579268,-39.1203,-3.90388,-6.3947,-22.6524,26.0366,-0.121951
444.476,7.31513,-6.23763,0,1.22625,9.57529,-1.62622,1.0061,2.9878,0.914634,-39.1969,-3.76018,-6.4905,-20,25.7622,-0.426829
444.486,7.32278,-6.35972,0,1.21906,9.60163,-1.65496,0.0304878,2.95732,1.06707,-39.4172,-3.7985,-6.38512,-18.4756,24.0854,-0.701219
444.496,7.3461,-6.46189,0,1.29092,9.59445,-1.66693,-0.213415,2.2561,1.34146,-39.4747,-3.71228,-6.13604,-17.622,21.0976,-1.34146
444.506,7.38701,-6.57764,0,1.36037,9.43877,-1.61185,0.762195,2.19512,1.06707,-39.3598,-3.66438,-6.43302,-16.6463,20.7012,-2.28659
444.516,7.4113,-6.67386,0,1.30289,9.51781,-1.56634,1.67683,2.40854,1.0061,-39.5322,-3.40572,-6.2031,-16.8902,18.1098,-1.37195
444.526,7.42592,-6.76632,0,1.28134,9.62079,-1.62143,1.21951,2.7439,0.853659,-39.5514,-3.38656,-6.21268,-16.9207,16.5244,-1.0061
444.536,7.43074,-6.87219,0,1.22864,9.59684,-1.55437,1.55488,2.04268,0.97561,-39.3693,-3.44404,-6.50008,-16.9207,13.0183,-1.25
444.546,7.44606,-6.96395,0,1.28134,9.6184,-1.65017,1.52439,1.64634,1.03659,-39.3598,-3.26202,-6.32764,-16.8902,11.4024,-0.884146
444.556,7.45208,-7.04236,0,1.24541,9.64714,-1.70525,0.792683,1.21951,0.945122,-39.9346,-3.45362,-6.26058,-15.9451,6.89024,0.396341
444.566,7.45785,-7.11779,0,1.24781,9.59205,-1.68849,0.121951,1.06707,0.762195,-39.9633,-3.53026,-6.27974,-16.2805,3.44512,2.19512
444.576,7.46772,-7.17254,0,1.24781,9.54894,-1.67412,0.701219,1.21951,1.06707,-39.9633,-3.34824,-5.97318,-16.25,-0.121951,1.28049
444.586,7.48,-7.23738,0,1.2526,9.56092,-1.59987,0.457317,1.28049,1.28049,-39.8771,-3.54942,-6.19352,-16.0671,-3.75,2.62195
444.596,7.48678,-7.29953,0,1.21427,9.59205,-1.56395,0.762195,0,1.4939,-39.8196,-3.42488,-6.19352,-15.7317,-6.85976,3.5061
444.606,7.51,-7.37689,0,1.2981,9.59924,-1.56155,0.365854,-0.396341,1.79878,-39.4364,-3.47278,-6.45218,-14.7866,-7.83537,2.89634
444.616,7.53141,-7.46883,0,1.26218,9.60642,-1.55197,-0.213415,-1.28049,2.2561,-39.2927,-3.2716,-6.73958,-14.1159,-6.92073,3.38415
444.626,7.55753,-7.57462,0,1.30289,9.59205,-1.66454,-0.701219,-2.07317,2.16463,-39.2544,-3.2237,-7.03657,-12.0122,-4.5122,4.72561
444.636,7.59797,-7.6752,0,1.40109,9.59684,-1.6837,-1.03659,-1.52439,2.31707,-39.0436,-3.30992,-6.96951,-13.811,-1.31098,5.64024
444.646,7.63898,-7.77493,0,1.40109,9.60163,-1.55437,-1.18902,-1.76829,2.53049,-38.8712,-3.2237,-6.98867,-13.0793,0.27439,7.53049
444.656,7.67927,-7.85015,0,1.42983,9.61121,-1.61903,-1.18902,-2.28659,2.0122,-38.7945,-3.32908,-6.61504,-13.811,-0.487805,7.2561
444.666,7.7276,-7.91329,0,1.48731,9.55852,-1.62622,-1.0061,-2.56098,1.67683,-38.8233,-3.10874,-6.46176,-13.4756,-1.0061,8.04878
444.676,7.77506,-7.96874,0,1.49449,9.57768,-1.59269,-0.670732,-2.07317,1.46341,-38.488,-2.98419,-6.31806,-14.1159,-1.79878,7.92683
444.686,7.84165,-8.02669,0,1.56874,9.46033,-1.57113,-0.213415,-1.55488,1.15854,-38.5933,-3.11832,-6.41386,-14.9085,-0.762195,9.08537
444.696,7.89716,-8.07026,0,1.54,9.51781,-1.52802,0.609756,-0.0304878,1.21951,-38.4496,-2.90755,-6.18394,-15.7927,-1.98171,9.14634
444.706,7.93897,-8.11419,0,1.48252,9.55134,-1.55916,0.792683,-0.27439,1.06707,-38.4784,-3.00335,-6.23184,-15.5183,-3.9939,9.87805
444.716,7.98043,-8.1534,0,1.48252,9.51541,-1.61424,0.884146,-0.945122,1.21951,-38.7562,-3.18538,-6.22226,-16.311,-3.38415,9.84756
444.726,8.0264,-8.18203,0,1.52563,9.56571,-1.51126,-0.0304878,-1.7378,1.37195,-38.9095,-3.26202,-6.08814,-16.6159,-3.32317,11.7073
444.736,8.08506,-8.23071,0,1.59748,9.49625,-1.51365,0.426829,-0.152439,1.82927,-38.8137,-3.3195,-6.4426,-16.9207,-2.68293,10.8537
444.746,8.12054,-8.29687,0,1.46336,9.54655,-1.54239,0.914634,1.76829,1.98171,-38.5359,-3.42488,-6.73,-15.9146,-0.97561,11.4634
444.756,8.14484,-8.36915,0,1.38672,9.57768,-1.50886,1.0061,1.79878,2.19512,-38.4017,-3.25244,-6.85455,-14.8476,0.304878,11.2195
444.766,8.17187,-8.42661,0,1.36756,9.60882,-1.57832,0.579268,0.243902,2.86585,-38.5263,-3.19496,-6.66294,-14.6951,1.67683,11.311
444.776,8.20539,-8.49015,0,1.42264,9.59684,-1.65017,-0.121951,-0.579268,2.83537,-38.6029,-3.42488,-6.81623,-13.7195,3.5061,13.6585
444.786,8.24382,-8.53795,0,1.47533,9.58008,-1.62861,-0.426829,-0.945122,2.65244,-38.9574,-3.39614,-6.64378,-12.4695,3.90244,13.0183
444.796,8.27958,-8.59074,0,1.47773,9.52739,-1.52802,-0.701219,-0.884146,2.22561,-38.9286,-3.32908,-6.75875,-11.5854,4.35976,13.0183
444.806,8.29532,-8.64565,0,1.36516,9.55852,-1.51844,0.213415,0.0609756,2.0122,-38.852,-3.16622,-6.81623,-10.6098,5.36585,12.0732
444.816,8.30013,-8.68925,0,1.31247,9.59684,-1.59029,0.152439,-0.0609756,1.85976,-38.9957,-3.11832,-6.6821,-11.4634,4.66463,12.439
444.826,8.29581,-8.74047,0,1.30768,9.57289,-1.6837,-0.121951,-1.7378,1.25,-39.0244,-3.1758,-6.85455,-10.5488,4.14634,12.2866
444.836,8.29879,-8.78201,0,1.36037,9.52739,-1.69567,-0.457317,-2.62195,0.945122,-38.9861,-2.95545,-6.71084,-10.1524,4.57317,12.378
444.846,8.29615,-8.82733,0,1.34121,9.54894,-1.72681,-0.548781,-2.43902,0.884146,-38.9191,-2.94587,-6.79707,-11.3415,4.02439,13.1098
444.856,8.29557,-8.85676,0,1.37235,9.55613,-1.54479,-0.121951,-1.64634,0.518293,-38.9765,-2.99377,-6.55756,-11.2805,4.08537,14.0549
444.866,8.30089,-8.8996,0,1.39869,9.51781,-1.54239,0.243902,-0.609756,0.182927,-38.7275,-3.1279,-6.76833,-10.9451,5.09146,11.6463
444.876,8.28075,-8.92206,0,1.33882,9.60163,-1.59508,-0.0914634,0.0304878,0.0609756,-38.8328,-2.94587,-6.45218,-11.4024,6.70732,11.7988
444.886,8.28558,-8.94931,0,1.40109,9.54176,-1.66454,-0.762195,-0.579268,0.0609756,-39.0053,-2.96503,-6.5863,-10.2439,5.18293,11.0976
444.896,8.31019,-8.97127,0,1.46815,9.48188,-1.65017,-0.701219,-1.70732,-0.27439,-38.9765,-2.99377,-6.50008,-11.2195,7.2561,10.4573
444.906,8.32792,-8.99511,0,1.49928,9.50823,-1.6358,0.213415,-1.37195,-0.792683,-39.0244,-3.13748,-6.55756,-12.1951,7.0122,9.5122
444.916,8.33059,-9.03467,0,1.44899,9.48667,-1.53521,0.762195,-0.0609756,-1.03659,-38.9478,-3.1758,-6.83539,-10.6402,8.07927,9.29878
444.926,8.30589,-9.05415,0,1.3484,9.60642,-1.67891,0.579268,1.0061,-1.55488,-38.8807,-3.08958,-6.50008,-10.9451,7.19512,9.72561
444.936,8.27261,-9.08681,0,1.2981,9.56331,-1.65496,-0.121951,1.25,-1.85976,-39.0723,-3.2716,-6.77791,-10.7927,7.62195,7.65244
444.946,8.24154,-9.11488,0,1.29571,9.52978,-1.65496,0.121951,-0.0304878,-1.67683,-39.1873,-2.89797,-6.73958,-10.4878,7.5,8.5061
444.956,8.234,-9.12808,0,1.42504,9.5705,-1.57832,0.0914634,-0.701219,-1.46341,-39.3598,-3.10874,-6.52882,-8.65854,6.03659,8.44512
444.966,8.23325,-9.14116,0,1.46575,9.58247,-1.62622,-0.518293,-0.792683,-1.46341,-39.3693,-3.10874,-6.5384,-8.90244,5.82317,8.10976
444.976,8.21748,-9.15367,0,1.38193,9.56571,-1.60706,-0.304878,-1.0061,-1.58537,-39.3214,-3.2237,-6.52882,-6.95122,6.03659,7.28659
444.986,8.20265,-9.17765,0,1.37474,9.55613,-1.59748,-0.579268,-1.0061,-1.43293,-39.2448,-3.01293,-6.73,-7.83537,5.7622,6.98171
444.996,8.1944,-9.19355,0,1.39151,9.55852,-1.62143,-0.182927,-1.15854,-1.12805,-39.2448,-3.1279,-6.60546,-5.79268,5.03049,6.37195
445.006,8.19344,-9.20829,0,1.40827,9.52739,-1.62861,-0.640244,-1.4939,-0.914634,-39.2831,-3.18538,-6.60546,-5.2439,4.17683,4.48171
445.016,8.20596,-9.21627,0,1.46575,9.55852,-1.55437,-0.853659,-2.31707,-0.792683,-39.216,-3.18538,-6.4905,-5,2.5,4.26829
445.026,8.22508,-9.24267,0,1.49449,9.54176,-1.61664,-0.548781,-0.945122,-0.792683,-39.2831,-3.07042,-6.83539,-4.48171,2.40854,3.10976
445.036,8.21679,-9.27189,0,1.3939,9.53936,-1.57353,-0.823171,0.213415,-1.15854,-39.1107,-3.08,-6.87371,-3.59756,2.56098,3.47561
445.046,8.20133,-9.28146,0,1.36277,9.54176,-1.64059,0.0914634,0.670732,-1.31098,-38.9478,-2.89797,-6.51924,-2.34756,2.28659,3.65854
445.056,8.18177,-9.2877,0,1.36277,9.55852,-1.59269,-0.243902,-0.609756,-1.76829,-38.737,-2.74469,-6.43302,-4.14634,2.0122,3.35366
445.066,8.16494,-9.30055,0,1.36756,9.54655,-1.61664,-0.304878,-1.34146,-1.64634,-38.9957,-3.10874,-6.59588,-4.60366,2.37805,3.41463
445.076,8.14448,-9.32541,0,1.36277,9.59205,-1.61664,-0.670732,-1.4939,-1.89024,-38.7562,-2.98419,-6.77791,-4.69512,1.70732,3.29268
445.086,8.12134,-9.3585,0,1.33882,9.54415,-1.62861,-0.457317,-1.21951,-1.95122,-39.0149,-2.93629,-6.98867,-3.2622,1.09756,2.07317
445.096,8.10133,-9.35394,0,1.40109,9.54415,-1.72202,-0.426829,-0.487805,-2.59146,-39.2065,-3.08,-6.37554,-4.26829,1.46341,0.609756
445.106,8.08235,-9.37253,0,1.43222,9.46272,-1.5879,0.396341,0.213415,-3.07927,-39.2448,-3.21412,-6.78749,-4.54268,2.19512,0.426829
445.116,8.06019,-9.36405,0,1.43941,9.50823,-1.65017,1.06707,0.243902,-3.41463,-39.1394,-3.16622,-6.30848,-3.10976,0.457317,-0.213415
445.126,8.02813,-9.3664,0,1.38432,9.59445,-1.54718,0.762195,0.701219,-3.59756,-39.2352,-3.19496,-6.50966,-3.59756,0.609756,-0.518293
445.136,7.99969,-9.37098,0,1.3939,9.58247,-1.62143,0.0914634,0.426829,-3.44512,-39.5322,-3.25244,-6.60546,-2.19512,-0.792683,-1.79878
445.146,7.98153,-9.36317,0,1.45857,9.58247,-1.59987,-0.792683,0.27439,-3.29268,-39.6759,-3.26202,-6.41386,-1.70732,-1.82927,-3.38415
445.156,7.96865,-9.37082,0,1.53042,9.55134,-1.59987,-0.304878,0.701219,-3.71951,-39.4939,-3.1279,-6.66294,-2.16463,-3.96341,-4.11585
445.166,7.96643,-9.36666,0,1.60466,9.5226,-1.62143,-0.243902,1.43293,-3.65854,-39.2448,-2.93629,-6.42344,-4.2378,-6.03659,-3.2622
445.176,7.96465,-9.35668,0,1.62861,9.49625,-1.67172,-0.396341,3.2622,-3.93293,-38.8712,-2.76385,-6.26058,-6.4939,-7.0122,-1.79878
445.186,7.96097,-9.36548,0,1.62622,9.47949,-1.61424,0.304878,4.63415,-4.11585,-38.7658,-2.70637,-6.56714,-8.78049,-7.28659,-0.609756
445.196,7.95242,-9.35933,0,1.56634,9.46512,-1.44659,0.365854,5.60976,-3.93293,-38.67,-2.98419,-6.2989,-11.4329,-8.38415,-0.213415
445.206,7.9582,-9.35827,0,1.65017,9.45314,-1.44659,0.762195,7.0122,-3.62805,-38.6891,-3.2237,-6.38512,-12.2256,-7.83537,-0.335366
445.216,7.97206,-9.3564,0,1.71483,9.44596,-1.43222,0.914634,8.56707,-3.62805,-39.0628,-3.59732,-6.43302,-14.0549,-8.23171,-2.83537
445.226,7.99562,-9.34715,0,1.86333,9.4723,-1.3939,1.67683,11.5854,-4.2378,-39.4747,-3.71228,-6.37554,-14.878,-10.4878,-3.29268
445.236,7.99821,-9.33927,0,1.72681,9.56092,-1.52563,2.80488,14.5427,-4.42073,-39.8579,-3.7506,-6.46176,-14.7561,-12.1951,-2.68293
445.246,7.96253,-9.32839,0,1.41306,9.63756,-1.6358,2.62195,14.6341,-4.35976,-39.8675,-3.62606,-6.41386,-15.061,-15.122,-3.62805
445.256,7.91945,-9.30593,0,1.30529,9.6184,-1.70765,1.37195,13.4146,-3.90244,-39.925,-3.6548,-6.21268,-16.2195,-16.8902,-1.52439
445.266,7.87744,-9.28762,0,1.25499,9.59924,-1.96152,0.365854,12.0732,-3.2622,-39.81,-3.54942,-6.27016,-15.1829,-21.6768,0.0609756
445.277,7.85182,-9.27026,0,1.31966,9.55373,-1.98547,-0.640244,10.3049,-2.59146,-39.6567,-3.68354,-6.26058,-16.7073,-24.6341,2.34756
445.286,7.84498,-9.24062,0,1.43462,9.56331,-1.89686,-0.182927,8.71951,-2.34756,-39.5226,-3.77934,-6.02108,-16.8293,-28.3537,2.92683
445.296,7.84658,-9.22976,0,1.4418,9.58247,-1.86093,0.243902,7.7439,-1.76829,-39.2352,-3.7506,-6.2989,-16.7683,-31.1585,1.4939
445.306,7.85246,-9.2344,0,1.4442,9.54894,-1.69567,0.853659,6.40244,-1.58537,-38.9957,-3.8943,-6.52882,-15.9451,-31.8293,1.37195
445.316,7.85705,-9.24991,0,1.37714,9.55852,-1.72202,0.213415,4.90854,-0.853659,-38.7849,-4.21044,-6.69168,-16.6159,-32.9268,0.762195
445.326,7.86946,-9.27863,0,1.36037,9.55852,-1.67172,-0.701219,2.53049,-0.121951,-38.8712,-4.40205,-6.95035,-15.8232,-32.8049,-0.518293
445.336,7.87633,-9.30589,0,1.31966,9.58247,-1.7292,-2.19512,1.28049,0.823171,-38.8903,-4.49785,-6.94077,-14.2073,-30.7622,-0.304878
445.346,7.88534,-9.32927,0,1.30529,9.52978,-1.84896,-2.89634,0.823171,1.18902,-38.9861,-4.62239,-6.91203,-14.6646,-31.7988,-0.121951
445.356,7.89271,-9.34021,0,1.27655,9.46272,-1.81303,-2.86585,-0.884146,1.40244,-39.3789,-4.72777,-6.78749,-13.2317,-35.1524,-0.731707
445.366,7.89623,-9.33498,0,1.26457,9.49146,-1.80105,-2.22561,-2.46951,1.34146,-39.5226,-4.67029,-6.5384,-12.9268,-37.4695,0.884146
445.376,7.90023,-9.32969,0,1.27176,9.54655,-1.83219,-2.40854,-4.42073,1.37195,-39.3885,-4.57449,-6.51924,-11.8293,-39.6951,2.53049
445.386,7.92473,-9.33616,0,1.38911,9.62319,-1.85135,-4.02439,-5.70122,1.64634,-39.1969,-4.67029,-6.70126,-12.5,-42.1646,4.57317
445.396,7.98001,-9.33886,0,1.5879,9.61121,-1.85854,-4.96951,-6.61585,1.58537,-39.1203,-4.71819,-6.62462,-12.5,-41.7988,4.26829
445.406,8.06368,-9.33102,0,1.7292,9.53218,-1.84656,-5.36585,-5.64024,1.21951,-38.8712,-4.73735,-6.40428,-13.2012,-43.4451,3.84146
445.416,8.19225,-9.31813,0,1.8753,9.43398,-1.81303,-4.84756,-4.26829,0.823171,-38.9574,-4.78525,-6.32764,-15.7622,-44.4817,4.29878
445.426,8.32784,-9.31156,0,1.93997,9.43398,-1.825,-3.93293,-1.98171,0.853659,-39.1203,-4.45953,-6.46176,-16.0366,-45.8841,3.68902
445.436,8.49294,-9.30051,0,1.90165,9.46512,-1.94715,-4.02439,1.34146,0.121951,-38.967,-4.36373,-6.35638,-16.5854,-46.8902,5.57927
445.446,8.61978,-9.27024,0,1.81063,9.44596,-1.9232,-4.35976,4.08537,-0.152439,-39.1586,-4.64155,-6.04024,-19.5732,-46.9817,5.18293
445.456,8.70259,-9.27209,0,1.80105,9.40285,-1.85375,-4.5122,5.57927,-0.731707,-39.1777,-4.67987,-6.59588,-20.7317,-48.4146,5.91463
445.466,8.76793,-9.2461,0,1.78908,9.34537,-1.86333,-3.78049,6.85976,-1.06707,-39.4651,-4.72777,-6.16478,-23.9634,-53.0793,6.55488
445.476,8.8042,-9.21912,0,1.76273,9.42201,-1.80105,-4.05488,7.83537,-1.61585,-39.6855,-4.61281,-6.16478,-25.5183,-53.5366,6.18902
445.486,8.80905,-9.20102,0,1.65496,9.46991,-1.90404,-4.17683,9.42073,-2.2561,-39.6088,-4.75651,-6.2989,-28.1402,-55.3354,6.67683
445.496,8.80703,-9.18044,0,1.62622,9.49146,-1.94955,-4.32927,9.39024,-2.40854,-39.4076,-4.75651,-6.21268,-29.6341,-56.0976,5.91463
445.506,8.78584,-9.17526,0,1.50886,9.46751,-1.89925,-4.87805,9.14634,-2.7439,-39.1203,-4.71819,-6.42344,-31.5244,-55.5793,5.54878
445.516,8.7591,-9.15976,0,1.48012,9.49865,-1.92081,-4.84756,8.38415,-2.89634,-38.8041,-4.87147,-6.18394,-32.6524,-54.7256,6.37195
445.526,8.72148,-9.14259,0,1.42264,9.57289,-2.01182,-5.70122,8.14024,-3.17073,-38.6221,-4.92895,-6.11688,-34.5122,-55.2439,7.80488
445.536,8.67831,-9.12751,0,1.41546,9.5226,-2.13157,-6.79878,6.58537,-3.84146,-38.4401,-5.01517,-6.1073,-34.4512,-53.689,7.92683
445.546,8.63884,-9.11239,0,1.4442,9.51302,-1.96871,-7.40854,4.54268,-3.93293,-38.4688,-5.35047,-6.09772,-36.0366,-52.8354,9.48171
445.556,8.60044,-9.09699,0,1.47533,9.47709,-1.93039,-8.14024,2.95732,-4.35976,-38.5838,-5.60914,-6.1073,-35.2744,-54.7256,9.84756
445.566,8.56754,-9.09095,0,1.49689,9.51062,-1.82979,-9.54268,2.19512,-4.08537,-38.7562,-5.6283,-6.28932,-35.2439,-55.1829,9.35976
445.576,8.51998,-9.08627,0,1.38672,9.46991,-1.88249,-10.061,1.09756,-4.35976,-39.1777,-5.6762,-6.37554,-33.3841,-54.6037,8.75
445.586,8.47853,-9.09313,0,1.41067,9.46272,-1.88728,-10.9756,-0.823171,-4.14634,-39.446,-5.46543,-6.62462,-31.25,-55.3354,7.28659
445.596,8.44678,-9.0972,0,1.50647,9.48188,-1.89207,-11.4939,-3.44512,-4.39024,-39.2448,-5.5325,-6.5384,-32.4695,-53.1098,5.67073
445.606,8.43288,-9.09422,0,1.66454,9.50823,-1.86572,-12.2561,-5.45732,-4.5122,-39.2352,-5.40795,-6.41386,-33.1098,-53.0183,4.11585
445.616,8.4389,-9.06566,0,1.85854,9.52739,-1.86812,-12.9268,-6.12805,-4.78659,-39.0244,-5.31215,-5.92528,-34.4207,-52.622,2.9878
445.626,8.46714,-9.01473,0,2.04295,9.48667,-1.70046,-13.0793,-6.12805,-4.81707,-38.8233,-5.08223,-5.48459,-37.2866,-52.8354,2.86585
445.636,8.51222,-8.95741,0,2.21779,9.46033,-1.72681,-12.9573,-4.90854,-5.15244,-38.258,-4.98643,-5.26425,-40.8232,-54.0244,4.35976
445.646,8.57631,-8.89022,0,2.34472,9.3765,-1.70525,-12.7439,-3.01829,-4.90854,-37.9419,-4.79483,-5.01517,-45.061,-54.3293,7.40854
445.656,8.65706,-8.81783,0,2.50519,9.331,-1.67651,-12.3476,-0.97561,-5.09146,-37.8174,-4.67987,-4.86189,-48.1707,-53.2927,7.65244
445.666,8.74731,-8.76822,0,2.5986,9.27831,-1.72681,-11.8598,0.609756,-5.21341,-37.5683,-4.48827,-5.15887,-52.5,-51.311,9.69512
445.676,8.85834,-8.70865,0,2.7902,9.27112,-1.67172,-11.4939,2.37805,-5.18293,-37.7599,-4.36373,-4.97685,-56.6463,-49.3902,8.56707
445.686,8.98382,-8.6263,0,2.94348,9.2807,-1.65496,-11.3415,4.20732,-5.21341,-37.9323,-4.57449,-4.56491,-59.8476,-47.1037,8.9939
445.696,9.14323,-8.56473,0,3.15903,9.27831,-1.62622,-10.5488,6.58537,-4.26829,-38.2389,-4.61281,-4.89063,-64.6951,-43.811,7.04268
445.706,9.33857,-8.5041,0,3.28836,9.30226,-1.62622,-9.5122,9.57317,-2.95732,-38.373,-4.50743,-4.87147,-70,-40.6707,5.4878
445.716,9.62371,-8.42275,0,3.39853,9.28789,-1.55916,-8.78049,12.0427,-1.43293,-38.4688,-4.44037,-4.46911,-74.6951,-35.7317,4.35976
445.726,9.94918,-8.32022,0,3.5111,9.34297,-1.56155,-8.41463,14.6951,1.25,-38.9478,-4.09548,-4.0859,-79.6646,-31.3415,4.63415
445.736,10.2129,-8.21541,0,3.59013,9.38848,-1.45378,-8.41463,17.4085,3.81098,-38.6891,-3.76018,-3.9422,-85.0915,-29.2378,7.22561
445.746,10.5163,-8.10516,0,3.68833,9.22801,-1.41067,-8.5061,19.2073,7.31707,-38.191,-3.42488,-3.72186,-86.8293,-27.1951,9.84756
445.756,10.8729,-8.0113,0,3.78892,9.07952,-1.25739,-9.05488,21.7683,11.6159,-37.7599,-3.2716,-3.88472,-90.0305,-28.1098,13.689
445.766,11.2858,-7.92312,0,3.86317,8.92384,-1.05141,-9.05488,24.0854,16.5549,-37.3288,-3.18538,-3.86556,-91.189,-25.7927,16.8902
445.776,11.7682,-7.85126,0,3.98771,8.73224,-0.862207,-9.57317,26.5549,22.1646,-37.0797,-3.1279,-4.04758,-90.6098,-24.4817,18.9634
445.786,12.334,-7.77598,0,4.16973,8.57177,-0.713716,-9.84756,27.8049,28.811,-36.9935,-2.83091,-3.93262,-88.9634,-23.811,21.4939
445.796,12.9941,-7.72129,0,4.39726,8.4137,-0.574805,-10.6707,28.4756,36.2195,-37.3288,-3.13748,-4.26792,-80.8841,-25.7622,25.6402
445.806,13.783,-7.68738,0,4.73735,8.08798,-0.524509,-11.25,28.2012,45.061,-37.712,-3.39614,-4.63197,-68.6585,-27.7439,30.7622
445.816,14.6951,-7.65244,0,5.09181,7.87961,-0.407153,-12.1646,26.6463,54.1159,-38.0952,-4.04758,-4.64155,-55.7317,-28.628,32.9268
445.826,15.7327,-7.62537,0,5.51094,7.68322,-0.481399,-12.0122,25.4878,63.1098,-38.076,-4.22002,-4.75651,-36.6768,-30.6402,36.128
445.836,16.8768,-7.60917,0,5.9133,7.48923,-0.778381,-10.1829,24.3598,70.7012,-38.3251,-3.85598,-4.96727,-18.811,-34.0854,37.439
445.846,18.0998,-7.62134,0,6.26058,7.36469,-1.16637,-5.18293,26.4329,76.8598,-37.7407,-2.93629,-5.37921,0.640244,-39.4207,39.6951
445.856,19.3273,-7.63043,0,6.36117,7.42935,-1.81303,2.07317,35.6098,79.3902,-37.9802,-2.64889,-5.37921,18.9024,-42.5305,41.8598
445.866,20.4791,-7.67908,0,6.04024,7.96344,-2.22737,8.68902,48.2012,81.0976,-38.2006,-2.02619,-6.1073,34.8171,-45.3354,39.4817
445.876,21.4999,-7.74427,0,5.51333,9.05557,-2.32556,13.75,62.5,82.0122,-38.852,-1.90165,-6.52882,51.6463,-43.1707,38.4146
445.886,22.3966,-7.84883,0,5.05589,10.471,-2.15791,18.9329,75.7317,82.7744,-39.5801,-1.97829,-7.38145,64.6646,-36.2195,35.3963
445.896,23.1605,-8.00746,0,4.4715,11.9032,-1.94715,21.0671,84.0244,81.6463,-40.586,-1.93997,-8.6077,76.5549,-24.1463,32.0427
445.906,23.7536,-8.17668,0,3.1734,13.06,-1.21188,20.4573,82.6829,79.9085,-41.4578,-1.83458,-9.07712,82.9878,-13.9939,29.5732
445.916,24.2387,-8.34018,0,2.17228,13.5271,-0.217947,17.439,70.1829,79.3598,-42.32,-1.64298,-9.24957,88.0183,-4.72561,30.6707
445.926,24.6638,-8.48671,0,1.66214,12.9571,0.323328,14.3902,54.3902,77.9268,-42.7319,-1.36516,-9.10586,87.1341,2.2561,33.1098
445.936,25.0246,-8.60816,0,1.0586,12.2481,0.699346,13.3537,38.3232,77.0732,-42.8565,-0.847837,-8.7514,85,2.5,38.5366
445.946,25.3349,-8.69936,0,0.66821,11.2494,0.57241,14.3598,22.9573,75.7927,-41.9943,0.00479004,-8.09996,82.6829,-1.25,45.4268
445.956,25.632,-8.76309,0,0.855022,10.38,0.0838257,16.25,8.62805,72.4085,-41.2183,0.589175,-7.52515,78.7805,-7.65244,55.5183
445.966,25.8989,-8.81545,0,0.792751,10.1429,-0.280217,18.4756,-3.47561,70.4268,-40.4231,0.953218,-7.23775,76.4634,-13.2927,61.9207
445.976,26.2064,-8.84978,0,1.36756,9.87706,-0.661025,16.372,-13.1402,68.1402,-39.8675,1.09692,-6.86413,75.3659,-17.5,66.4024
445.986,26.565,-8.87247,0,2.01661,9.60642,-1.00112,12.9573,-21.5854,65.8841,-39.446,1.42264,-6.62462,72.3781,-22.378,68.6281
445.996,26.9933,-8.8628,0,2.79978,9.1346,-1.01309,8.81098,-29.0854,63.1402,-39.6472,1.42264,-6.12646,73.2012,-31.4634,70.5183
446.006,27.4868,-8.8703,0,3.49912,8.5574,-0.910107,7.31707,-36.6768,60.061,-39.264,1.31726,-6.3947,74.2378,-40,71.5549
446.016,28.0162,-8.87584,0,4.00926,8.30593,-1.03465,8.23171,-39.1463,57.5305,-39.1586,0.292192,-6.36596,76.4939,-45.1829,69.939
446.026,28.614,-8.85362,0,4.81399,8.22929,-1.03944,9.81707,-33.0488,56.2805,-38.7658,-0.148491,-5.82948,76.9512,-47.8963,67.7744
446.036,29.2253,-8.85077,0,5.18282,7.95146,-0.907712,12.0122,-21.6159,53.2317,-38.258,-0.886157,-6.07856,76.0366,-49.7561,63.2012
446.046,29.8434,-8.83697,0,5.64027,7.8868,-0.704136,13.9329,-7.95732,50.122,-37.6449,-1.2981,-5.79116,75.9451,-49.1768,59.2378
446.056,30.4526,-8.84725,0,5.93486,7.80776,-0.500559,15.7317,4.7561,47.0732,-36.9743,-1.35558,-6.07856,75,-48.3232,55.7012
446.066,31.0461,-8.8736,0,6.11928,7.80297,-0.440684,16.8293,13.872,44.939,-36.5145,-1.0586,-6.27016,74.1463,-46.7073,54.3293
446.076,31.6349,-8.8957,0,6.22705,7.6473,-0.579595,18.0488,19.1159,43.5366,-36.1408,-0.158071,-6.14562,71.4329,-44.2378,56.189
446.086,32.2248,-8.91451,0,6.22945,7.24493,-0.795146,21.5244,23.5061,41.7073,-36.3995,0.474214,-6.1552,70.3659,-45.8841,58.4451
446.096,32.801,-8.90168,0,6.19831,7.0701,-1.03225,27.8659,28.689,40.3963,-36.9839,0.991538,-5.74326,67.3476,-47.8049,60.3963
446.106,33.333,-8.83037,0,5.92767,7.08686,-1.16398,30.7317,32.6829,39.7866,-37.7599,1.40348,-4.87147,61.4634,-50.5793,59.1768
446.116,33.7698,-8.7934,0,5.20917,7.02938,-0.981958,30.2744,33.3841,38.0183,-38.076,1.88249,-5.45585,53.5671,-52.0427,54.0244
446.126,34.1395,-8.77108,0,4.8571,7.01741,-0.835862,32.0122,32.6829,35.8537,-38.2964,2.57225,-5.71452,44.9695,-51.9207,47.6524
446.136,34.4166,-8.77744,0,4.50982,7.18985,-1.12326,31.6159,32.0122,32.439,-38.0473,3.3195,-6.14562,34.939,-49.2683,40.0915
446.146,34.5898,-8.81456,0,4.25355,7.48683,-1.36995,29.2683,30.0305,27.5,-37.5491,3.53026,-6.5863,29.0854,-47.2561,32.6524
446.156,34.7099,-8.88438,0,4.25595,7.51078,-1.61424,25.1524,26.9512,22.561,-37.0222,3.42488,-7.05573,21.6768,-42.9573,26.9512
446.166,34.7541,-9.01363,0,4.01405,7.32636,-1.43462,21.0976,20.3963,16.7378,-36.1504,3.42488,-7.89877,13.689,-35.7622,20.061
446.176,34.754,-9.18477,0,3.8009,7.07728,-1.09931,17.6829,11.25,13.2927,-35.9684,2.74469,-8.62686,7.80488,-30.7012,14.1159
446.186,34.7582,-9.33469,0,4.01405,6.78988,-0.831072,17.4695,2.28659,8.93293,-36.0642,1.94955,-8.38736,1.70732,-24.6037,10.3963
446.196,34.8006,-9.4834,0,4.62478,6.71084,-0.725691,17.4695,-4.72561,4.7561,-36.5049,1.24062,-8.5598,-2.77439,-21.5244,5.27439
446.206,35.0041,-9.63855,0,5.10379,6.84018,-0.661025,16.25,-7.68293,0.518293,-36.6965,0.426313,-8.80888,-5.12195,-19.6037,1.55488
446.216,35.183,-9.80721,0,5.58279,6.50727,-0.56283,14.878,-9.14634,-2.16463,-36.9552,-0.167651,-9.20166,-4.84756,-17.0122,-2.59146
446.226,35.2958,-10.005,0,5.98755,6.45458,-0.60594,13.689,-8.01829,-4.81707,-37.2905,-0.368833,-9.90101,-7.0122,-13.628,-3.78049
446.236,35.4164,-10.2013,0,6.22226,6.36357,-0.579595,12.439,-7.83537,-6.34146,-37.4629,-0.387993,-10.0543,-8.47561,-12.1951,-3.68902
446.246,35.5493,-10.3708,0,6.50487,6.33483,-0.467029,11.0061,-7.89634,-7.59146,-38.1431,-0.0814307,-9.89143,-10.0305,-11.5854,-1.82927
446.256,35.6777,-10.4959,0,6.79707,6.27495,-0.308958,13.75,-6.52439,-10.8537,-38.8807,0.387993,-9.40285,-12.6829,-13.0793,2.56098
446.266,35.7754,-10.5924,0,7.01741,6.37794,-0.160466,16.6463,-4.20732,-14.6341,-39.5993,0.943638,-9.15376,-15.1829,-16.7988,4.93902
446.276,35.8567,-10.6378,0,7.29762,6.4929,0,20,-2.0122,-17.3476,-40.3082,2.05493,-8.464,-19.6037,-24.3902,6.64634
446.286,35.9262,-10.6617,0,7.66885,6.77312,-0.0550855,20.8841,0.0914634,-18.811,-40.6914,2.67763,-8.20534,-23.689,-32.3171,7.10366
446.296,36.022,-10.7066,0,8.11912,6.85455,-0.0550855,18.9939,1.67683,-18.5976,-40.95,3.52068,-8.68434,-27.5305,-35.5183,8.20122
446.306,36.133,-10.7305,0,8.39215,7.02699,-0.275427,16.6159,3.04878,-17.3171,-41.1416,3.98052,-8.35862,-32.9268,-35.6402,7.07317
446.316,36.2633,-10.7698,0,8.57177,7.15153,-0.603545,13.8415,5.73171,-15.3354,-41.1704,4.02842,-8.66518,-36.9207,-32.561,7.59146
446.326,36.4066,-10.8273,0,8.64363,7.2138,-0.819097,13.0793,9.02439,-13.7195,-41.0842,4.16254,-9.01006,-41.2195,-30.1524,6.82927
446.336,36.5249,-10.8817,0,8.25324,7.24254,-1.00351,15.122,9.90854,-13.0793,-41.0554,4.038,-8.98132,-44.1768,-27.9878,8.5061
446.346,36.6098,-10.9529,0,7.94188,7.44612,-1.24781,18.8415,7.31707,-12.4085,-40.5573,4.12422,-9.22083,-47.5305,-25.7012,9.93902
446.356,36.6613,-11.0332,0,7.73112,7.69999,-1.17835,21.4024,4.32927,-12.1037,-40.3273,3.88472,-9.38369,-50.7317,-24.1159,11.4939
446.366,36.7025,-11.1411,0,7.63053,7.70717,-1.09692,22.6829,2.86585,-12.2256,-40.1645,4.38289,-9.92017,-54.5122,-23.2927,14.3902
446.376,36.733,-11.3111,0,7.51797,7.63772,-1.00351,21.1585,2.28659,-12.8963,-40.107,4.45953,-11.1368,-57.6524,-17.1951,15.9451
446.386,36.751,-11.5607,0,7.18266,7.45091,-0.948428,17.7744,3.90244,-12.8963,-40.3561,4.42121,-12.8421,-60.0305,-7.7439,15.3354
446.396,36.7304,-11.8228,0,6.51206,7.15392,-0.732876,14.7866,5.06098,-13.4451,-40.586,4.15296,-13.3115,-60.6707,4.02439,14.939
446.406,36.6179,-11.9754,0,5.84624,7.27128,-0.864602,11.1585,7.83537,-15.7012,-41.3045,4.24876,-11.5679,-55.9451,6.67683,12.3171
446.416,36.3162,-12.0043,0,5.29539,8.39454,-1.1065,8.14024,9.69512,-21.8598,-43.5175,3.62606,-9.80521,-44.3293,1.09756,9.11585
446.426,35.7715,-12.0029,0,4.72537,10.186,-1.24541,7.53049,8.41463,-32.2561,-46.2766,2.43813,-9.80521,-27.8659,1.55488,3.5061
446.436,35.0283,-12.0649,0,3.92065,11.2973,-0.929268,8.32317,0.0304878,-41.8902,-48.1064,0.914897,-11.5392,-13.2317,16.128,-5
446.446,34.2207,-12.1159,0,3.28836,11.0482,0,3.47561,-19.2683,-44.7561,-48.7003,-0.675395,-11.4147,1.64634,32.7439,-12.8354
446.456,33.5672,-12.0508,0,4.038,10.5956,1.25739,-9.35976,-47.1037,-39.4207,-47.8285,-2.30401,-8.66518,12.9268,40.7012,-13.7195
446.466,33.1697,-11.8977,0,5.7696,10.2363,1.3963,-17.2561,-76.189,-32.0732,-47.0334,-2.93629,-6.61504,27.8354,36.0366,-11.0976
446.476,32.953,-11.627,0,7.4557,10.2028,-0.790356,-16.0061,-85.061,-28.2012,-46.8322,-3.08,-4.04758,46.5244,25.0305,-10.5488
446.486,32.8551,-11.2642,0,8.44723,10.0639,-3.19496,-9.17683,-68.3232,-24.3902,-47.6178,-3.34824,-1.97829,66.8902,17.0427,-12.8049
446.496,32.8105,-10.8138,0,8.6077,9.79084,-4.84273,-0.27439,-32.7134,-21.8293,-48.4608,-3.09916,0.138911,83.8719,11.4329,-18.4146
446.506,32.6275,-10.2821,0,6.67013,10.2148,-4.78764,4.48171,2.10366,-19.3598,-48.7674,-3.52068,2.27527,91.7073,11.5549,-23.1707
446.516,32.1658,-9.39824,0,3.4153,10.5381,-3.32668,2.92683,23.3841,-17.1646,-47.5411,-4.0859,10.1405,70.7622,0.701219,-24.8476
446.526,31.3014,-8.93088,0,-0.337698,10.3465,-1.17116,1.25,22.9573,-18.75,-46.4682,-3.7506,2.03577,89.4207,21.1585,-27.561
446.536,30.0785,-8.37543,0,-3.2213,9.68306,-0.313748,3.20122,7.07317,-23.3537,-43.642,-2.20821,3.99968,79.8476,28.4451,-27.7744
446.546,28.6782,-7.74488,0,-4.51701,9.35495,-1.23344,2.10366,-17.2561,-28.9024,-41.2279,-1.5855,5.56124,66.311,27.1951,-32.7744
446.556,27.3097,-6.9789,0,-3.76258,9.28549,-2.37107,-5,-50.0915,-36.0976,-41.5823,-0.617915,8.58854,50.8232,14.5427,-42.4695
446.566,26.1722,-6.1767,0,-1.3005,9.60882,-3.38895,-13.9634,-76.3415,-44.6037,-41.8027,0.253872,9.88185,32.4085,4.32927,-51.5854
446.576,25.2411,-5.41688,0,1.03704,9.92017,-3.64522,-22.9878,-84.2683,-53.7805,-41.3332,0.589175,9.53697,16.6768,-3.62805,-59.3293
446.586,24.4097,-4.66117,0,2.57465,10.3632,-3.65001,-25.0305,-80.5488,-61.7988,-41.2662,1.55676,9.98723,-4.35976,-12.439,-64.1463
