time,angle1,angle2,intgangle,accX1,accY1,accZ1,gyroX1,gyroY1,gyroZ1,accX2,accY2,accZ2,gyroX2,gyroY2,gyroZ2
95.441,90.8996,-15.7963,0,9.84353,-0.261057,0.287402,-0.152439,1.92073,-1.21951,-39.4172,0.186812,9.8124,4.93902,1.18902,1.64634
95.4576,90.9092,-17.1313,0,9.79563,-0.265847,0.323328,-0.304878,2.22561,-1.18902,-39.4412,-16.9615,-46.6909,-49.0244,-61.25,4.87805
95.475,90.9194,-17.1191,0,9.81,-0.265847,0.323328,-0.0304878,2.0122,-1.12805,-0.0718506,0.129331,0.00479004,4.96951,1.21951,1.67683
95.4809,90.9287,-16.3605,0,9.84114,-0.294587,0.395178,0.548781,1.37195,-1.43293,-39.6184,0.579595,1.41306,4.96951,1.21951,1.67683
95.4984,90.9373,-16.3483,0,9.8579,-0.287402,0.359253,0.609756,1.37195,-1.37195,-0.0718506,0.129331,0.00479004,4.96951,1.21951,1.67683
95.5041,90.944,-15.6452,0,9.79563,-0.294587,0.399968,1.15854,0.518293,-1.58537,-39.4172,0.244292,0.972378,4.93902,1.18902,1.64634
95.5206,90.9419,-16.9862,0,9.82437,-0.253872,0.450264,0.762195,0.304878,-1.70732,-39.4412,-16.9615,-46.6909,-49.0244,-61.25,4.87805
95.5381,90.9388,-16.974,0,9.78366,-0.232317,0.395178,0.609756,0.518293,-1.55488,-0.0718506,0.129331,0.00479004,4.96951,1.21951,1.67683
95.5443,90.9315,-16.2348,0,9.82437,-0.215552,0.407153,0.365854,0.731707,-1.64634,-39.2544,0.215552,1.16398,4.96951,1.21951,1.67683
95.5616,90.9266,-16.2226,0,9.8555,-0.232317,0.459844,0.0609756,0.701219,-1.67683,-0.0718506,0.129331,0.00479004,4.96951,1.21951,1.67683
95.5674,90.9234,-15.5803,0,9.84114,-0.229922,0.356858,0.182927,0.518293,-1.52439,-39.4172,0.270637,0.00239502,4.93902,1.18902,1.64634
95.5838,90.923,-16.9238,0,9.82437,-0.237107,0.443079,-0.0609756,0.365854,-1.43293,-39.4412,-16.9615,-46.6909,-49.0244,-61.25,4.87805
95.6015,90.9217,-16.9116,0,9.79563,-0.249082,0.505349,-0.0304878,0.0914634,-1.64634,-0.0718506,0.129331,0.00479004,4.96951,1.21951,1.67683
95.6075,90.9196,-16.1751,0,9.83635,-0.229922,0.447869,0.0609756,-0.213415,-1.46341,-39.3693,-0.0239502,1.16398,4.96951,1.21951,1.67683
95.6247,90.9162,-16.1629,0,9.84114,-0.234712,0.464634,0.121951,-0.304878,-1.61585,-0.0718506,0.129331,0.00479004,4.96951,1.21951,1.67683
95.6304,90.9092,-15.4529,0,9.82916,-0.191602,0.323328,-0.548781,0.0304878,-1.34146,-39.4939,0.0431104,1.22146,4.93902,1.18902,1.64634
95.6471,90.908,-16.8015,0,9.82197,-0.234712,0.364043,-0.731707,0.243902,-1.4939,-39.4412,-16.9615,-46.6909,-49.0244,-61.25,4.87805
95.6646,90.9077,-16.7893,0,9.83635,-0.246687,0.383203,-0.609756,-0.335366,-1.55488,-0.0718506,0.129331,0.00479004,4.96951,1.21951,1.67683
95.6704,90.9025,-16.07,0,9.88664,-0.222737,0.359253,-0.304878,-0.640244,-1.61585,-39.5322,-0.215552,0.953218,4.96951,1.21951,1.67683
95.6877,90.9,-16.0578,0,9.88664,-0.234712,0.376018,-0.0609756,-0.548781,-1.55488,-0.0718506,0.129331,0.00479004,4.96951,1.21951,1.67683
95.6936,90.8929,-15.3699,0,9.92496,-0.210762,0.344883,-0.548781,-0.609756,-1.61585,-39.7525,-0.0718506,0.914897,4.93902,1.18902,1.64634
95.7101,90.8817,-16.7218,0,9.90341,-0.174836,0.352068,-0.853659,0,-1.4939,-39.4412,-16.9615,-46.6909,-49.0244,-61.25,4.87805
95.7283,90.8782,-16.7096,0,9.9082,-0.213157,0.342488,-0.457317,0.213415,-1.40244,-0.0718506,0.129331,0.00479004,4.96951,1.21951,1.67683
95.7341,90.8843,-15.9774,0,9.82916,-0.268242,0.332908,-0.365854,0.548781,-1.43293,-39.8004,0.0526904,1.24062,4.96951,1.21951,1.76829
95.7505,90.8961,-17.3053,0,9.78844,-0.299377,0.397573,-0.518293,0.823171,-1.43293,-39.4412,-16.9615,-46.6909,-49.0244,-61.25,4.87805
95.7679,90.9114,-17.2931,0,9.8076,-0.306563,0.419128,-0.213415,0.853659,-1.28049,-0.0718506,0.129331,0.00479004,4.96951,1.21951,1.67683
95.7737,90.9209,-16.5274,0,9.85072,-0.313748,0.399968,0.243902,0.426829,-1.61585,-39.5418,0.598755,1.41306,4.96951,1.21951,1.67683
95.791,90.927,-16.5153,0,9.86509,-0.301772,0.376018,0.121951,0.182927,-1.67683,-0.0718506,0.129331,0.00479004,4.96951,1.21951,1.67683
95.797,90.9352,-15.8081,0,9.82197,-0.325723,0.428708,0.365854,-0.304878,-1.79878,-39.216,0.186812,0.922083,4.93902,1.18902,1.64634
95.8136,90.9481,-17.1427,0,9.79084,-0.344883,0.433499,0.518293,-0.27439,-1.70732,-39.4412,-16.9615,-46.6909,-49.0244,-61.25,4.87805
95.8308,90.954,-17.1305,0,9.77886,-0.342488,0.409548,0.0609756,-0.0304878,-2.10366,-0.0718506,0.129331,0.00479004,4.96951,1.21951,1.67683
95.8366,90.9527,-16.3572,0,9.81,-0.301772,0.407153,0.213415,-0.304878,-2.16463,-39.3981,0.397573,1.65256,4.96951,1.21951,1.67683
95.8541,90.9461,-16.345,0,9.84114,-0.265847,0.368833,0.365854,-0.121951,-2.16463,-0.0718506,0.129331,0.00479004,4.96951,1.21951,1.67683
95.8599,90.9373,-15.5918,0,9.84832,-0.241897,0.342488,0.365854,-0.487805,-2.07317,-39.331,0.387993,1.84177,4.93902,1.18902,1.64634
95.8764,90.9267,-16.9349,0,9.84832,-0.227527,0.395178,0.548781,-0.670732,-2.07317,-39.4412,-16.9615,-46.6909,-49.0244,-61.25,4.87805
95.8936,90.9168,-16.9227,0,9.88185,-0.222737,0.364043,0.731707,-0.701219,-1.95122,-0.0718506,0.129331,0.00479004,4.96951,1.21951,1.67683
95.8997,90.9114,-16.1486,0,9.87227,-0.208367,0.352068,0.914634,-0.304878,-1.43293,-39.4939,-0.186812,1.81542,4.96951,1.21951,1.67683
95.9172,90.9014,-16.1364,0,9.84593,-0.208367,0.414338,0.853659,-0.396341,-1.82927,-0.0718506,0.129331,0.00479004,4.96951,1.21951,1.67683
95.9229,90.8923,-15.4163,0,9.87467,-0.222737,0.387993,0.670732,0.0609756,-1.95122,-39.6759,-0.282612,1.42264,4.93902,1.18902,1.64634
95.9395,90.8809,-16.7663,0,9.87467,-0.193997,0.373623,0.609756,-0.213415,-1.79878,-39.4412,-16.9615,-46.6909,-49.0244,-61.25,4.87805
95.9569,90.8754,-16.7541,0,9.8579,-0.208367,0.402363,0.884146,-0.579268,-1.52439,-0.0718506,0.129331,0.00479004,4.96951,1.21951,1.67683
95.9628,90.8709,-15.9927,0,9.88664,-0.198787,0.395178,0.640244,-0.457317,-1.31098,-39.264,-0.512534,1.70046,4.96951,1.21951,1.67683
95.9804,90.8689,-15.9805,0,9.86509,-0.191602,0.352068,0.518293,-0.426829,-1.03659,-0.0718506,0.129331,0.00479004,4.96951,1.21951,1.67683
95.987,90.8784,-15.2413,0,9.81,-0.246687,0.416733,0.27439,-0.243902,-1.03659,-39.1681,-0.752036,1.84177,4.93902,1.18902,1.64634
96.0031,90.8917,-16.5983,0,9.81719,-0.253872,0.383203,0.518293,0.0304878,-0.884146,-39.4412,-16.9615,-46.6909,-49.0244,-61.25,4.87805
96.0204,90.8962,-16.5861,0,9.85072,-0.253872,0.428708,0.121951,-0.0914634,-1.34146,-0.0718506,0.129331,0.00479004,4.96951,1.21951,1.67683
96.0263,90.8989,-15.8364,0,9.8579,-0.237107,0.337698,-0.0609756,0,-1.25,-39.3214,-0.455054,1.61424,4.96951,1.21951,1.67683
96.0427,90.9075,-17.1698,0,9.8603,-0.256267,0.359253,-0.0609756,0.304878,-1.09756,-39.4412,-16.9615,-46.6909,-49.0244,-61.25,4.87805
96.0603,90.9159,-17.1576,0,9.8603,-0.268242,0.387993,-0.0914634,0.121951,-1.21951,-0.0718506,0.129331,0.00479004,4.96951,1.21951,1.67683
96.0661,90.9246,-16.3892,0,9.79563,-0.263452,0.349673,-0.27439,0.0609756,-1.18902,-39.331,-0.675395,1.54718,4.96951,1.21951,1.67683
96.0833,90.9326,-16.377,0,9.82916,-0.261057,0.337698,-0.335366,-0.121951,-1.15854,-0.0718506,0.129331,0.00479004,4.96951,1.21951,1.67683
96.0891,90.9438,-15.6526,0,9.80281,-0.299377,0.399968,-0.548781,0.121951,-1.37195,-39.264,-0.483794,1.31726,4.93902,1.18902,1.64634
96.1059,90.9509,-16.9933,0,9.83874,-0.282612,0.390388,-0.548781,0.0914634,-1.40244,-39.4412,-16.9615,-46.6909,-49.0244,-61.25,4.87805
96.1232,90.9524,-16.9811,0,9.86988,-0.261057,0.376018,-0.304878,-0.0609756,-1.4939,-0.0718506,0.129331,0.00479004,4.96951,1.21951,1.67683
96.129,90.9515,-16.2256,0,9.88664,-0.261057,0.335303,-0.396341,-0.0609756,-1.64634,-39.5322,-0.560435,1.45138,4.96951,1.21951,1.67683
96.1463,90.9485,-16.2134,0,9.87706,-0.244292,0.337698,-0.579268,-0.121951,-1.61585,-0.0718506,0.129331,0.00479004,4.96951,1.21951,1.67683
96.152,90.943,-15.4834,0,9.87467,-0.220342,0.275427,-0.518293,0.27439,-1.52439,-39.7813,-0.579595,1.54718,4.93902,1.18902,1.64634
96.1687,90.9353,-16.8308,0,9.86988,-0.210762,0.344883,-0.335366,0.823171,-1.58537,-39.4412,-16.9615,-46.6909,-49.0244,-61.25,4.87805
96.186,90.9387,-16.8186,0,9.87706,-0.273032,0.376018,-0.213415,0.792683,-1.52439,-0.0718506,0.129331,0.00479004,4.96951,1.21951,1.67683
96.192,90.9462,-16.0434,0,9.88425,-0.299377,0.376018,-0.0914634,0.182927,-1.52439,-39.5801,-0.464634,1.91123,4.96951,1.21951,1.67683
96.2094,90.9539,-16.0312,0,9.85311,-0.296982,0.340093,-0.0914634,0.27439,-1.4939,-0.0718506,0.129331,0.00479004,4.96951,1.21951,1.67683
96.2153,90.9539,-15.3137,0,9.86988,-0.282612,0.356858,0.152439,0.884146,-1.82927,-39.1873,-0.225132,1.43222,4.93902,1.18902,1.64634
96.2318,90.9518,-16.6678,0,9.84593,-0.275427,0.344883,-0.0609756,0.945122,-1.92073,-39.4412,-16.9615,-46.6909,-49.0244,-61.25,4.87805
96.2493,90.9525,-16.6556,0,9.83395,-0.299377,0.352068,-0.0609756,1.15854,-1.98171,-0.0718506,0.129331,0.00479004,4.96951,1.21951,1.67683
96.2553,90.95,-15.8853,0,9.86748,-0.270637,0.411943,0.182927,0.97561,-1.89024,-39.6567,-0.445474,1.93997,4.96951,1.21951,1.67683
96.2725,90.9477,-15.8732,0,9.82437,-0.275427,0.397573,0.487805,0.640244,-1.95122,-0.0718506,0.129331,0.00479004,4.96951,1.21951,1.67683
96.2785,90.9371,-15.1624,0,9.8124,-0.253872,0.387993,0.548781,0.304878,-2.37805,-39.4172,-0.205972,1.43222,4.93902,1.18902,1.64634
96.295,90.9301,-16.5225,0,9.83156,-0.246687,0.467029,0.579268,0.365854,-2.0122,-39.4412,-16.9615,-46.6909,-49.0244,-61.25,4.87805
96.3125,90.9246,-16.5103,0,9.83395,-0.227527,0.445474,0.365854,0.396341,-1.67683,-0.0718506,0.129331,0.00479004,4.96951,1.21951,1.67683
96.3184,90.92,-15.7228,0,9.82916,-0.225132,0.435894,0.0609756,0.609756,-1.58537,-39.4747,-0.483794,2.33275,4.96951,1.21951,1.67683
96.3356,90.9116,-15.7106,0,9.84114,-0.205972,0.435894,-0.213415,0.518293,-1.64634,-0.0718506,0.129331,0.00479004,4.96951,1.21951,1.67683
96.3414,90.9062,-14.9713,0,9.82916,-0.220342,0.368833,0.152439,0.304878,-1.61585,-39.6855,-0.675395,2.05493,4.93902,1.18902,1.64634
96.3579,90.9023,-16.339,0,9.80281,-0.229922,0.455054,-0.121951,0.182927,-1.64634,-39.4412,-16.9615,-46.6909,-49.0244,-61.25,4.87805
96.3752,90.9012,-16.3268,0,9.76689,-0.239502,0.443079,0.121951,0.0609756,-1.58537,-0.0718506,0.129331,0.00479004,4.96951,1.21951,1.67683
96.3809,90.9029,-15.5773,0,9.81,-0.258662,0.411943,-0.0304878,-0.609756,-1.58537,-39.264,-0.387993,1.78668,4.96951,1.21951,1.67683
96.3985,90.9019,-15.5651,0,9.80281,-0.237107,0.450264,0.152439,-0.670732,-1.52439,-0.0718506,0.129331,0.00479004,4.96951,1.21951,1.67683
96.4043,90.8958,-14.8188,0,9.8555,-0.184417,0.383203,-0.335366,-1.21951,-1.18902,-39.6184,-0.560435,2.27527,4.93902,1.18902,1.64634
96.4208,90.8936,-16.1925,0,9.86748,-0.203577,0.395178,0,-0.97561,-1.15854,-39.4412,-16.9615,-46.6909,-49.0244,-61.25,4.87805
96.4382,90.8961,-16.1803,0,9.84593,-0.208367,0.378413,-0.396341,-0.853659,-0.914634,-0.0718506,0.129331,0.00479004,4.96951,1.21951,1.67683
96.4439,90.9058,-15.4186,0,9.85072,-0.215552,0.445474,-0.792683,-0.670732,-0.548781,-39.4939,-0.186812,2.11241,4.96951,1.21951,1.67683
96.4613,90.9216,-15.4064,0,9.84832,-0.222737,0.421523,-0.518293,-0.579268,-0.304878,-0.0718506,0.129331,0.00479004,4.96951,1.21951,1.67683
96.4671,90.9426,-14.6882,0,9.78605,-0.217947,0.462239,-1.28049,-0.640244,0.0914634,-39.6088,-0.512534,1.89207,4.93902,1.18902,1.64634
96.4836,90.9605,-16.0671,0,9.80281,-0.213157,0.450264,-1.0061,-0.853659,0.182927,-39.4412,-16.9615,-46.6909,-49.0244,-61.25,4.87805
96.5008,90.9756,-16.0549,0,9.8555,-0.205972,0.385598,-1.28049,-0.884146,0.548781,-0.0718506,0.129331,0.00479004,4.96951,1.21951,1.67683
96.5067,91.0208,-15.312,0,9.82437,-0.325723,0.411943,-1.06707,-1.98171,0.487805,-39.9633,-0.876577,1.89207,4.96951,1.21951,1.67683
96.5242,91.084,-15.2998,0,9.80042,-0.361648,0.471819,-1.15854,-2.53049,0.0609756,-0.0718506,0.129331,0.00479004,4.96951,1.21951,1.67683
96.53,91.1105,-14.5348,0,9.81,-0.332908,0.428708,-1.25,-2.22561,-0.731707,-40.5094,-0.502954,2.85007,4.93902,1.18902,1.64634
96.5465,91.1284,-15.9197,0,9.79563,-0.349673,0.409548,-1.28049,-2.59146,-1.21951,-39.4412,-16.9615,-46.6909,-49.0244,-61.25,4.87805
96.5638,91.1445,-15.9075,0,9.78844,-0.426313,0.373623,-1.46341,-2.62195,-1.95122,-0.0718506,0.129331,0.00479004,4.96951,1.21951,1.67683
96.5695,91.143,-15.2274,0,9.82197,-0.313748,0.342488,-1.70732,-2.22561,-1.95122,-40.2699,-0.292192,0.895737,4.96951,1.21951,1.67683
96.5868,91.143,-15.2152,0,9.81719,-0.335303,0.378413,-1.61585,-2.46951,-2.07317,-0.0718506,0.129331,0.00479004,4.96951,1.21951,1.67683
96.5929,91.1399,-14.5566,0,9.82677,-0.330513,0.306563,-1.76829,-2.68293,-2.2561,-40.3561,-0.646655,1.00112,4.93902,1.18902,1.64634
96.6094,91.1346,-15.9407,0,9.8579,-0.313748,0.292192,-1.58537,-2.7439,-2.22561,-39.4412,-16.9615,-46.6909,-49.0244,-61.25,4.87805
96.6268,91.1244,-15.9285,0,9.84832,-0.282612,0.270637,-1.37195,-2.34756,-2.28659,-0.0718506,0.129331,0.00479004,4.96951,1.21951,1.67683
96.6326,91.1135,-15.2311,0,9.9058,-0.282612,0.306563,-1.28049,-1.58537,-2.34756,-39.7909,-0.981958,1.17356,4.96951,1.21951,1.67683
96.6499,91.0949,-15.2189,0,9.92496,-0.227527,0.244292,-1.43293,-1.92073,-2.37805,-0.0718506,0.129331,0.00479004,4.96951,1.21951,1.67683
96.6559,91.0866,-14.5389,0,9.96568,-0.268242,0.217947,-1.18902,-1.21951,-1.98171,-39.6376,-1.14482,1.35558,4.93902,1.18902,1.64634
96.6723,91.075,-15.9237,0,9.89622,-0.261057,0.203577,-0.945122,-1.12805,-2.22561,-39.4412,-16.9615,-46.6909,-49.0244,-61.25,4.87805
96.6898,91.063,-15.9115,0,9.82197,-0.268242,0.237107,-0.731707,-1.25,-2.40854,-0.0718506,0.129331,0.00479004,4.96951,1.21951,1.67683
96.6957,91.0499,-15.1446,0,9.83874,-0.258662,0.253872,-1.18902,-0.304878,-2.40854,-40.9596,-0.129331,2.47645,4.96951,1.21951,1.67683
96.713,91.0371,-15.1324,0,9.86509,-0.244292,0.268242,-1.70732,0,-2.22561,-0.0718506,0.129331,0.00479004,4.96951,1.21951,1.67683
96.719,91.0238,-14.4731,0,9.89862,-0.201182,0.253872,-1.46341,-0.457317,-1.70732,-39.0149,-1.0586,1.03704,4.93902,1.18902,1.64634
96.7353,91.0123,-15.8605,0,9.87227,-0.215552,0.215552,-1.15854,-0.548781,-1.79878,-39.4412,-16.9615,-46.6909,-49.0244,-61.25,4.87805
96.7526,91.0063,-15.8483,0,9.89383,-0.227527,0.201182,-1.31098,-0.487805,-1.4939,-0.0718506,0.129331,0.00479004,4.96951,1.21951,1.67683
96.7583,91.0012,-15.1288,0,9.89862,-0.261057,0.261057,-1.52439,0,-1.85976,-39.7334,-0.981958,1.61424,4.96951,1.21951,1.67683
96.7756,91.0042,-15.1166,0,9.9561,-0.304167,0.282612,-1.21951,0.396341,-1.70732,-0.0718506,0.129331,0.00479004,4.96951,1.21951,1.67683
96.7814,91.0012,-14.4422,0,9.78605,-0.294587,0.273032,-1.0061,0.365854,-2.13415,-39.3023,-0.934058,1.31726,4.93902,1.18902,1.64634
96.7978,90.9963,-15.8308,0,9.80521,-0.306563,0.234712,-0.640244,0.243902,-2.40854,-39.4412,-16.9615,-46.6909,-49.0244,-61.25,4.87805
96.815,90.9878,-15.8186,0,9.86269,-0.265847,0.229922,-0.792683,0.853659,-2.22561,-0.0718506,0.129331,0.00479004,4.96951,1.21951,1.67683
96.821,90.9891,-15.0976,0,9.83874,-0.318538,0.249082,-0.27439,0.152439,-2.07317,-39.513,-1.1544,1.65256,4.96951,1.21951,1.67683
96.8383,90.9875,-15.0854,0,9.8124,-0.337698,0.273032,0.152439,-0.0914634,-2.5,-0.0718506,0.129331,0.00479004,4.96951,1.21951,1.67683
96.8444,90.985,-14.3796,0,9.84353,-0.349673,0.234712,-0.121951,-0.518293,-2.68293,-39.8867,-0.962798,1.91123,4.93902,1.18902,1.64634
96.8608,90.9783,-15.7707,0,9.82437,-0.342488,0.270637,0.213415,-0.701219,-2.95732,-39.4412,-16.9615,-46.6909,-49.0244,-61.25,4.87805
96.8781,90.964,-15.7585,0,9.81,-0.323328,0.328118,0.365854,-0.27439,-3.44512,-0.0718506,0.129331,0.00479004,4.96951,1.21951,1.67683
96.8839,90.9457,-15.0061,0,9.8124,-0.335303,0.335303,0.0609756,0.365854,-3.96341,-39.743,-0.608335,2.25611,4.96951,1.21951,1.67683
96.9011,90.9283,-14.9939,0,9.83874,-0.344883,0.342488,0.27439,0.121951,-4.02439,-0.0718506,0.129331,0.00479004,4.96951,1.21951,1.67683
96.9069,90.9033,-14.2617,0,9.89622,-0.301772,0.244292,0.701219,-0.243902,-4.26829,-39.5322,-0.694556,2.41897,4.93902,1.18902,1.64634
96.9234,90.8721,-15.6574,0,9.89862,-0.227527,0.263452,0.884146,0,-4.05488,-39.4412,-16.9615,-46.6909,-49.0244,-61.25,4.87805
96.9407,90.841,-15.6452,0,9.8603,-0.237107,0.318538,0.670732,0.121951,-4.2378,-0.0718506,0.129331,0.00479004,4.96951,1.21951,1.67683
96.9465,90.8155,-14.8398,0,9.86748,-0.292192,0.263452,0.304878,0.762195,-4.39024,-39.446,-1.02028,3.24286,4.96951,1.21951,1.67683
96.9639,90.7932,-14.8276,0,9.85311,-0.304167,0.289797,0.731707,1.21951,-4.26829,-0.0718506,0.129331,0.00479004,4.96951,1.21951,1.67683
96.9698,90.7696,-14.0796,0,9.87467,-0.320933,0.318538,1.03659,0.426829,-4.63415,-39.1394,-1.33642,2.78301,4.93902,1.18902,1.64634
96.9863,90.7377,-15.4826,0,9.84832,-0.280217,0.277822,1.12805,0.152439,-5.03049,-39.4412,-16.9615,-46.6909,-49.0244,-61.25,4.87805
97.0037,90.6983,-15.4704,0,9.81,-0.220342,0.299377,0.853659,0.304878,-5.15244,-0.0718506,0.129331,0.00479004,4.96951,1.21951,1.67683
97.0098,90.6603,-14.6534,0,9.80521,-0.186812,0.328118,-0.0914634,1.15854,-4.69512,-39.3598,-1.1544,3.559,4.96951,1.21951,1.67683
97.0271,90.6328,-14.6412,0,9.79323,-0.246687,0.366438,0.121951,1.40244,-4.45122,-0.0718506,0.129331,0.00479004,4.96951,1.21951,1.67683
97.0331,90.6086,-13.8106,0,9.86269,-0.304167,0.359253,0.213415,1.37195,-4.81707,-39.3598,-0.886157,4.37331,4.93902,1.18902,1.64634
97.0494,90.5837,-15.2242,0,9.88904,-0.318538,0.313748,0.365854,0.731707,-5.09146,-39.4412,-16.9615,-46.6909,-49.0244,-61.25,4.87805
97.0668,90.5473,-15.212,0,9.91538,-0.292192,0.320933,0.701219,0.365854,-5.97561,-0.0718506,0.129331,0.00479004,4.96951,1.21951,1.67683
97.0726,90.4983,-14.3714,0,9.82677,-0.177231,0.318538,0.27439,1.21951,-6.0061,-38.4688,-1.30768,4.05716,4.96951,1.21951,1.67683
97.0898,90.4425,-14.3592,0,9.67588,-0.117356,0.289797,-0.121951,0.731707,-6.09756,-0.0718506,0.129331,0.00479004,4.96951,1.21951,1.67683
97.0957,90.3664,-13.5486,0,9.79803,0.0886157,0.222737,0.0304878,0.823171,-5.79268,-38.8328,-1.37474,4.16254,4.93902,1.18902,1.64634
97.112,90.2916,-14.9726,0,9.80042,0.102986,0.249082,-0.243902,1.28049,-5.64024,-39.4412,-16.9615,-46.6909,-49.0244,-61.25,4.87805
97.1294,90.228,-14.9604,0,9.82916,0.100591,0.292192,-1.12805,1.92073,-4.66463,-0.0718506,0.129331,0.00479004,4.96951,1.21951,1.67683
97.1352,90.1914,-14.0561,0,9.92257,-0.0407153,0.342488,-1.25,3.10976,-3.75,-39.9633,-1.14482,5.5325,4.96951,1.21951,1.67683
97.1526,90.1561,-14.0439,0,9.97286,-0.0886157,0.349673,-1.0061,2.9878,-4.26829,-0.0718506,0.129331,0.00479004,4.96951,1.21951,1.67683
97.1583,90.1233,-13.1438,0,10.0375,-0.119751,0.325723,-0.213415,2.31707,-4.45122,-39.628,-1.346,6.057,4.93902,1.18902,1.64634
97.175,90.0831,-14.5838,0,10.0016,-0.0742456,0.313748,-0.518293,2.28659,-4.72561,-39.4412,-16.9615,-46.6909,-49.0244,-61.25,4.87805
97.1924,90.0486,-14.5717,0,9.9537,-0.110171,0.292192,-0.426829,2.56098,-4.66463,-0.0718506,0.129331,0.00479004,4.96951,1.21951,1.67683
97.1986,90.0157,-13.6141,0,9.86269,-0.0910107,0.395178,-0.487805,3.35366,-4.35976,-37.8078,-0.646655,6.40428,4.96951,1.21951,1.67683
97.2161,89.9848,-13.6019,0,9.85311,-0.0886157,0.354463,-0.579268,3.84146,-4.20732,-0.0718506,0.129331,0.00479004,4.96951,1.21951,1.67683
97.2219,89.9511,-13.0634,0,9.78366,-0.0119751,0.426313,0,4.72561,-3.62805,-38.1335,-0.0263452,0.00239502,4.93902,1.18902,1.64634
97.2384,89.9192,-14.5066,0,9.77168,-0.0383203,0.426313,0.853659,4.42073,-3.84146,-39.4412,-16.9615,-46.6909,-49.0244,-61.25,4.87805
97.2558,89.8908,-14.4944,0,9.76928,-0.0215552,0.457449,1.34146,3.41463,-3.35366,-0.0718506,0.129331,0.00479004,4.96951,1.21951,1.67683
97.2616,89.873,-13.4673,0,9.76928,-0.124541,0.464634,1.79878,1.98171,-3.62805,-39.0053,-0.790356,7.89877,4.96951,1.21951,1.67683
97.2789,89.856,-13.4551,0,9.76928,-0.162861,0.483794,1.92073,1.43293,-4.02439,-0.0718506,0.129331,0.00479004,4.96951,1.21951,1.67683
97.2847,89.8289,-12.483,0,9.76689,-0.143701,0.471819,1.46341,0.945122,-4.81707,-38.2101,-1.07776,7.49641,4.93902,1.18902,1.64634
97.3011,89.7895,-13.9492,0,9.79084,-0.0694556,0.421523,1.7378,1.18902,-5.21341,-39.4412,-16.9615,-46.6909,-49.0244,-61.25,4.87805
97.3184,89.7343,-13.937,0,9.83874,0.0910107,0.325723,1.61585,1.46341,-4.96951,-0.0718506,0.129331,0.00479004,4.96951,1.21951,1.67683
97.3242,89.6789,-12.8572,0,9.8603,0.172441,0.352068,1.67683,2.53049,-4.11585,-39.1394,-0.483794,9.27831,4.96951,1.21951,1.67683
97.3417,89.6291,-12.845,0,9.8555,0.165256,0.354463,1.43293,2.59146,-3.71951,-0.0718506,0.129331,0.00479004,4.96951,1.21951,1.67683
97.3474,89.6083,-11.7816,0,9.92017,-0.0263452,0.402363,1.4939,3.14024,-3.2622,-39.3119,-0.866997,9.8124,4.93902,1.18902,1.64634
97.3639,89.5979,-13.2756,0,9.91538,-0.131726,0.404758,1.67683,2.07317,-3.53659,-39.4412,-16.9615,-46.6909,-49.0244,-61.25,4.87805
97.3811,89.5864,-13.2634,0,9.94652,-0.184417,0.457449,1.40244,0.884146,-4.2378,-0.0718506,0.129331,0.00479004,4.96951,1.21951,1.67683
97.3869,89.5633,-12.1482,0,9.90341,-0.117356,0.445474,1.28049,1.18902,-4.63415,-37.4916,-1.96871,9.97765,4.96951,1.21951,1.67683
97.4041,89.5358,-12.136,0,9.89143,-0.0790356,0.397573,1.15854,1.55488,-4.66463,-0.0718506,0.129331,0.00479004,4.96951,1.21951,1.67683
97.4098,89.4993,-11.1015,0,9.78605,-0.0311353,0.443079,1.25,1.79878,-5.06098,-36.3803,-1.4418,9.06754,4.93902,1.18902,1.64634
97.4262,89.4552,-12.6224,0,9.73575,0.0694556,0.423918,1.37195,2.13415,-4.69512,-39.4412,-16.9615,-46.6909,-49.0244,-61.25,4.87805
97.4438,89.4107,-12.6102,0,9.74294,0.0550855,0.486189,1.58537,2.31707,-5,-0.0718506,0.129331,0.00479004,4.96951,1.21951,1.67683
97.4496,89.3552,-11.4563,0,9.73575,0.0766406,0.541274,1.12805,2.07317,-5.94512,-38.1622,-1.2981,11.3284,4.96951,1.21951,1.67683
97.4668,89.2989,-11.4441,0,9.7597,0.100591,0.519719,1.03659,1.98171,-5.85366,-0.0718506,0.129331,0.00479004,4.96951,1.21951,1.67683
97.4726,89.2434,-10.2958,0,9.92496,0.0742456,0.546064,0.548781,1.52439,-6.21951,-39.5801,-0.934058,12.526,4.93902,1.18902,1.64634
97.4892,89.1945,-11.8486,0,10.0256,0.00718506,0.55325,0.396341,0.945122,-6.46341,-39.4412,-16.9615,-46.6909,-49.0244,-61.25,4.87805
97.5063,89.1374,-11.8364,0,10.0495,0.117356,0.534089,-0.121951,1.21951,-6.09756,-0.0718506,0.129331,0.00479004,4.96951,1.21951,1.67683
97.512,89.0749,-10.6399,0,9.88664,0.205972,0.519719,-0.914634,2.22561,-5.70122,-36.0738,-0.665815,11.9895,4.96951,1.21951,1.67683
97.5292,89.0101,-10.6277,0,9.82916,0.229922,0.531694,-1.15854,2.43902,-5.7622,-0.0718506,0.129331,0.00479004,4.96951,1.21951,1.67683
97.535,88.9618,-9.36403,0,9.64235,0.0910107,0.452659,-1.76829,3.78049,-5.85366,-35.6139,-0.148491,13.8767,4.93902,1.18902,1.64634
97.5516,88.9186,-10.9537,0,9.63277,0.0814307,0.531694,-2.40854,3.9939,-5.54878,-39.4412,-16.9615,-46.6909,-49.0244,-61.25,4.87805
97.5691,88.8831,-10.9415,0,9.72617,0.0455054,0.613125,-2.07317,4.35976,-5.30488,-0.0718506,0.129331,0.00479004,4.96951,1.21951,1.67683
97.5751,88.8463,-9.81487,0,9.77647,0.0263452,0.670605,-1.67683,1.4939,-5.73171,-35.4702,-1.19272,11.1943,4.96951,1.21951,1.67683
97.5927,88.8168,-9.80268,0,9.84593,-0.0143701,0.570015,-1.0061,0.792683,-5.54878,-0.0718506,0.129331,0.00479004,4.96951,1.21951,1.67683
97.5986,88.7747,-9.41457,0,9.82916,-0.0143701,0.428708,1.21951,-1.70732,-6.89024,-35.5565,-1.99505,0.00239502,4.93902,1.18902,1.64634
97.615,88.7124,-11.0023,0,9.88185,0.0502954,0.378413,1.7378,-1.46341,-8.2622,-39.4412,-16.9615,-46.6909,-49.0244,-61.25,4.87805
97.6326,88.6396,-10.9901,0,9.91778,0.167651,0.419128,1.58537,-0.0914634,-8.07927,-0.0718506,0.129331,0.00479004,4.96951,1.21951,1.67683
97.6386,88.56,-9.65091,0,9.93933,0.232317,0.332908,0.945122,2.62195,-8.17073,-37.0989,-0.752036,15.6203,4.96951,1.21951,1.67683
97.6559,88.483,-9.63872,0,9.87946,0.239502,0.383203,0.823171,3.04878,-7.95732,-0.0718506,0.129331,0.00479004,4.96951,1.21951,1.67683
97.6617,88.4108,-9.25711,0,9.87467,0.299377,0.447869,1.4939,2.83537,-6.92073,-36.2534,0.126936,0.00239502,4.93902,1.18902,1.64634
97.6781,88.3517,-10.851,0,9.9058,0.287402,0.529299,1.25,2.04268,-5.88415,-39.4412,-16.9615,-46.6909,-49.0244,-61.25,4.87805
97.6954,88.3079,-10.8389,0,9.84353,0.210762,0.608335,0.457317,0.762195,-5.33537,-0.0718506,0.129331,0.00479004,4.96951,1.21951,1.67683
97.7011,88.2812,-9.42912,0,9.79563,0.0934058,0.656235,-0.121951,1.67683,-5.09146,-34.0236,-1.5855,15.697,4.96951,1.21951,1.67683
97.7184,88.2552,-9.41692,0,9.78366,0.0718506,0.593965,0.182927,1.82927,-5.33537,-0.0718506,0.129331,0.00479004,4.96951,1.21951,1.67683
97.7242,88.2169,-7.96102,0,9.76449,0.0694556,0.60594,0.27439,0.457317,-6.64634,-33.8416,-2.33275,17.5076,4.93902,1.18902,1.64634
97.7408,88.1677,-9.60628,0,9.86269,0.138911,0.574805,0.487805,0.518293,-7.0122,-39.4412,-16.9615,-46.6909,-49.0244,-61.25,4.87805
97.758,88.1034,-9.59409,0,10.0064,0.265847,0.543669,0.213415,0.304878,-7.19512,-0.0718506,0.129331,0.00479004,4.96951,1.21951,1.67683
97.7638,88.0293,-8.11751,0,9.87706,0.447869,0.58678,-0.0304878,-0.365854,-6.12805,-32.2897,-1.73878,16.9519,4.96951,1.21951,1.67683
97.781,87.9629,-8.10531,0,9.85311,0.378413,0.627495,-0.579268,0.335366,-6.31098,-0.0718506,0.129331,0.00479004,4.96951,1.21951,1.67683
97.7869,87.8749,-6.6184,0,9.49386,0.450264,0.744851,-1.79878,0.335366,-7.59146,-33.3339,-0.886157,18.8201,4.93902,1.18902,1.64634
97.8034,87.7868,-8.31684,0,9.60163,0.426313,0.720901,-2.59146,0.97561,-8.14024,-39.4412,-16.9615,-46.6909,-49.0244,-61.25,4.87805
97.8206,87.691,-8.30464,0,10.0399,0.510139,0.651445,-3.9939,0.548781,-8.35366,-0.0718506,0.129331,0.00479004,4.96951,1.21951,1.67683
97.8264,87.5959,-6.75032,0,10.0639,0.574805,0.548459,-2.80488,-0.304878,-7.7439,-33.8895,-0.253872,20.3241,4.96951,1.21951,1.67683
97.8437,87.5092,-6.73813,0,10.1333,0.560435,0.608335,-2.5,-0.121951,-7.28659,-0.0718506,0.129331,0.00479004,4.96951,1.21951,1.67683
97.8494,87.423,-5.20218,0,9.35495,0.62031,0.622705,-3.71951,-0.0609756,-6.12805,-32.7016,-1.5376,20.4774,4.93902,1.18902,1.64634
97.8659,87.3651,-6.95669,0,9.66151,0.474214,0.469424,-3.96341,-0.579268,-5.42683,-39.4412,-16.9615,-46.6909,-49.0244,-61.25,4.87805
97.8831,87.3082,-6.9445,0,9.79084,0.514929,0.471819,-2.83537,-0.884146,-5.03049,-0.0718506,0.129331,0.00479004,4.96951,1.21951,1.67683
97.8893,87.2609,-5.34591,0,9.68785,0.534089,0.541274,-3.20122,-1.46341,-3.84146,-30.5269,-2.00703,20.1517,4.96951,1.21951,1.67683
97.9067,87.2195,-5.33371,0,9.72138,0.510139,0.584385,-2.92683,-1.64634,-3.65854,-0.0718506,0.129331,0.00479004,4.96951,1.21951,1.67683
97.9126,87.186,-3.74561,0,9.59684,0.512534,0.641865,-2.62195,-1.34146,-2.77439,-30.5557,-1.40348,21.2175,4.93902,1.18902,1.64634
97.9289,87.1662,-5.55781,0,9.78126,0.402363,0.517324,-1.64634,-2.28659,-3.04878,-39.4412,-16.9615,-46.6909,-49.0244,-61.25,4.87805
97.9462,87.1626,-5.54561,0,10.0495,0.335303,0.459844,-1.0061,-3.07927,-2.5,-0.0718506,0.129331,0.00479004,4.96951,1.21951,1.67683
97.9519,87.1526,-3.95786,0,10.1956,0.419128,0.342488,-0.97561,-3.75,-2.16463,-31.6669,-1.2502,21.809,4.96951,1.21951,1.67683
97.9692,87.1371,-3.94566,0,10.2148,0.476609,0.306563,-0.914634,-2.95732,-2.0122,-0.0718506,0.129331,0.00479004,4.96951,1.21951,1.67683
97.9749,87.1136,-2.42868,0,10.0926,0.58678,0.311353,-0.640244,0.243902,-0.884146,-31.6095,-1.3939,21.6174,4.93902,1.18902,1.64634
97.9915,87.1014,-4.29302,0,10.0232,0.522114,0.234712,-0.27439,1.34146,-0.945122,-39.4412,-16.9615,-46.6909,-49.0244,-61.25,4.87805
98.009,87.1055,-4.28083,0,9.94652,0.476609,0.165256,0.762195,1.40244,-0.304878,-0.0718506,0.129331,0.00479004,4.96951,1.21951,1.67683
98.0147,87.1821,-2.73791,0,9.88425,0.227527,0.117356,2.5,0.945122,-0.213415,-30.8047,-2.27527,21.3205,4.96951,1.21951,1.67683
98.032,87.2542,-2.72572,0,9.88904,0.234712,0.148491,2.31707,0.823171,-0.182927,-0.0718506,0.129331,0.00479004,4.96951,1.21951,1.67683
98.0377,87.3067,-1.17754,0,9.90341,0.292192,0.263452,3.81098,1.34146,-0.152439,-30.661,-1.60466,22.585,4.93902,1.18902,1.64634
98.0544,87.3152,-3.09143,0,10.0567,0.452659,0.308958,3.96341,3.87195,0.396341,-39.4412,-16.9615,-46.6909,-49.0244,-61.25,4.87805
98.0718,87.3284,-3.07924,0,10.198,0.457449,0.481399,3.68902,5.27439,1.0061,-0.0718506,0.129331,0.00479004,4.96951,1.21951,1.67683
98.0775,87.3787,-1.59308,0,10.2172,0.229922,0.452659,4.48171,6.0061,1.18902,-30.891,-0.847837,21.1959,4.96951,1.21951,1.67683
98.0948,87.4247,-1.58088,0,10.0615,0.253872,0.467029,4.96951,6.15854,1.28049,-0.0718506,0.129331,0.00479004,4.96951,1.21951,1.67683
98.1005,87.5072,-0.138675,0,9.54415,0.162861,0.447869,6.18902,4.20732,0.609756,-31.1209,-1.62382,21.6653,4.93902,1.18902,1.64634
98.117,87.5966,-2.0937,0,9.41243,0.184417,0.536484,6.37195,3.23171,0.304878,-39.4412,-16.9615,-46.6909,-49.0244,-61.25,4.87805
98.1342,87.6586,-2.08151,0,9.38848,0.210762,0.63468,5.73171,2.95732,0.701219,-0.0718506,0.129331,0.00479004,4.96951,1.21951,1.67683
98.14,87.6888,-0.632089,0,9.48428,0.311353,0.814307,3.71951,5.57927,0.304878,-31.2837,-1.92081,21.5216,4.96951,1.21951,1.67683
98.1574,87.7272,-0.619894,0,9.53697,0.282612,0.823887,3.35366,6.25,0.27439,-0.0718506,0.129331,0.00479004,4.96951,1.21951,1.67683
98.1633,87.7433,1.11104,0,9.48667,0.306563,0.881367,2.92683,4.81707,-0.548781,-31.4562,-1.48012,29.4324,4.93902,1.18902,1.64634
98.1797,87.7638,-0.893482,0,9.41961,0.251477,0.989143,1.92073,3.2622,-0.97561,-39.4412,-16.9615,-46.6909,-49.0244,-61.25,4.87805
98.197,87.7491,-0.881287,0,9.58487,0.352068,0.914897,0.762195,3.07927,-1.89024,-0.0718506,0.129331,0.00479004,4.96951,1.21951,1.67683
98.2028,87.7038,0.410408,0,9.63756,0.486189,0.771196,1.0061,5.85366,-3.20122,-33.8895,-3.4632,20.966,4.96951,1.21951,1.67683
98.22,87.6578,0.422603,0,9.69983,0.433499,0.682581,1.7378,6.21951,-4.14634,-0.0718506,0.129331,0.00479004,4.96951,1.21951,1.67683
98.2258,87.5833,1.68103,0,9.1346,0.546064,0.617915,1.25,3.78049,-5.36585,-34.0715,-3.9422,21.4618,4.93902,1.18902,1.64634
98.2423,87.5318,-0.346058,0,9.67827,0.359253,0.541274,0.487805,4.2378,-5.85366,-39.4412,-16.9615,-46.6909,-49.0244,-61.25,4.87805
98.2598,87.4587,-0.333863,0,9.62079,0.383203,0.799937,-0.182927,4.87805,-7.83537,-0.0718506,0.129331,0.00479004,4.96951,1.21951,1.67683
98.2655,87.3783,1.03162,0,9.40764,0.273032,0.694556,-2.07317,6.34146,-10,-34.0811,-1.22146,23.1215,4.96951,1.21951,1.67683
98.2828,87.3056,1.04381,0,9.45793,0.186812,0.684976,-2.07317,7.62195,-10.4573,-0.0718506,0.129331,0.00479004,4.96951,1.21951,1.67683
98.2885,87.2407,2.31985,0,10.2794,0.232317,0.471819,-0.182927,6.67683,-9.48171,-33.6404,0.799937,22.0749,4.93902,1.18902,1.64634
98.305,87.1638,0.267466,0,10.6171,0.421523,0.227527,1.70732,5.2439,-8.84146,-39.4412,-16.9615,-46.6909,-49.0244,-61.25,4.87805
98.3223,87.0796,0.279661,0,10.586,0.565225,0.179626,3.5061,6.15854,-8.14024,-0.0718506,0.129331,0.00479004,4.96951,1.21951,1.67683
98.328,87.0303,1.56727,0,10.2914,0.320933,0.332908,6.67683,11.2195,-7.34756,-34.3302,0.368833,22.1252,4.96951,1.21951,1.67683
98.3453,86.9792,1.57946,0,10.1812,0.344883,0.366438,7.2561,12.2866,-7.31707,-0.0718506,0.129331,0.00479004,4.96951,1.21951,1.67683
98.3511,86.9125,3.14561,0,10.0423,0.462239,0.550855,5.12195,13.872,-7.59146,-33.6979,-0.502954,29.4324,4.93902,1.18902,1.64634
98.3676,86.8455,1.06053,0,9.95131,0.402363,0.675395,3.44512,14.9695,-8.41463,-39.4412,-16.9615,-46.6909,-49.0244,-61.25,4.87805
98.3849,86.7855,1.07272,0,9.72138,0.256267,0.888552,5.60976,14.6951,-9.48171,-0.0718506,0.129331,0.00479004,4.96951,1.21951,1.67683
98.3907,86.7476,2.43784,0,9.79084,0.114961,0.855022,11.0671,14.0549,-9.05488,-33.7746,0.138911,24.137,4.96951,1.21951,1.67683
98.4086,86.7143,2.45004,0,10.107,0.174836,0.692161,11.311,13.1098,-8.01829,-0.0718506,0.129331,0.00479004,4.96951,1.21951,1.67683
98.4143,86.6782,2.35295,0,10.8782,0.00718506,0.768801,10.7012,6.7378,-10.3049,-33.2381,1.35319,0.00239502,4.93902,1.18902,1.64634
98.4309,86.6069,0.29925,0,10.5093,0.227527,1.42743,7.13415,6.18902,-11.5244,-39.4412,-16.9615,-46.6909,-49.0244,-61.25,4.87805
98.4483,86.5146,0.311445,0,10.6722,0.203577,0.838257,7.80488,10.3963,-14.1159,-0.0718506,0.129331,0.00479004,4.96951,1.21951,1.67683
98.4544,86.4071,1.88918,0,10.0926,0.213157,0.598755,-1.28049,23.7805,-15.6098,-31.9639,-0.953218,26.9727,4.96951,1.21951,1.67683
98.472,86.3029,1.90138,0,9.75012,0.0694556,0.840652,-4.42073,16.2805,-17.1341,-0.0718506,0.129331,0.00479004,4.96951,1.21951,1.67683
98.4777,86.21,1.82602,0,8.69153,-0.282612,1.17116,-1.46341,6.95122,-20.8232,-32.316,0.126936,0.00239502,4.93902,1.18902,1.64634
98.4942,86.1408,-0.206814,0,9.35016,-0.445474,0.883762,3.07927,0.335366,-20.3659,-39.4412,-16.9615,-46.6909,-49.0244,-61.25,4.87805
98.5114,85.945,-0.194619,0,9.25915,0.342488,1.03944,0.731707,-11.4329,-23.5366,-0.0718506,0.129331,0.00479004,4.96951,1.21951,1.67683
98.5171,85.7225,1.57668,0,10.6483,0.191602,0.411943,-7.28659,-13.689,-28.872,-30.1533,0.771196,29.6743,4.96951,1.21951,1.67683
98.5343,85.5183,1.58888,0,10.1214,-0.0167651,1.26218,-2.89634,-13.3232,-29.7561,-0.0718506,0.129331,0.00479004,4.96951,1.21951,1.67683
98.5401,85.3225,3.44587,0,8.9909,-0.0479004,2.03098,-3.90244,-12.622,-29.7561,-27.3751,0.560435,30.9293,4.93902,1.18902,1.64634
98.5566,85.1353,1.34889,0,8.79451,-0.184417,1.9232,-2.53049,-15.0305,-31.0976,-39.4412,-16.9615,-46.6909,-49.0244,-61.25,4.87805
98.5741,84.9205,1.36109,0,10.0303,-0.102986,1.1065,-1.21951,-19.5427,-33.0488,-0.0718506,0.129331,0.00479004,4.96951,1.21951,1.67683
98.5798,84.5938,3.5008,0,10.5022,0.898132,1.57832,0.518293,-16.7683,-33.7195,-22.2881,-0.378413,32.3088,4.96951,1.21951,1.67683
98.5971,84.3115,3.513,0,10.3968,0.692161,1.5376,0.27439,-15.2744,-32.0732,-0.0718506,0.129331,0.00479004,4.96951,1.21951,1.67683
98.6028,83.9874,5.66145,0,9.9058,0.972378,1.23823,1.64634,-11.6463,-33.2317,-20.8989,-1.22146,33.1519,4.93902,1.18902,1.64634
98.6192,83.6301,3.47673,0,9.6184,1.22625,1.19751,3.44512,-14.2073,-33.9024,-39.4412,-16.9615,-46.6909,-49.0244,-61.25,4.87805
98.6367,83.3207,3.48893,0,10.883,1.14482,0.526904,6.37195,-9.20732,-32.3171,-0.0718506,0.129331,0.00479004,4.96951,1.21951,1.67683
98.6428,82.9542,5.64379,0,9.91059,1.69328,0.775986,7.65244,-2.62195,-31.25,-19.3278,-2.36149,30.8239,4.96951,1.21951,1.67683
98.6601,82.5793,5.65599,0,10.0471,1.84417,0.764011,6.98171,-1.31098,-31.4024,-0.0718506,0.129331,0.00479004,4.96951,1.21951,1.67683
98.6659,82.1955,5.43205,0,9.86748,1.94476,1.26457,7.68293,1.43293,-31.5549,-18.3698,0.126936,0.00239502,4.93902,1.18902,1.64634
98.6824,81.7934,3.25642,0,9.63995,2.06451,1.06578,7.34756,3.10976,-32.2866,-39.4412,-16.9615,-46.6909,-49.0244,-61.25,4.87805
98.6996,81.4208,3.26861,0,9.65911,1.87051,0.900527,8.44512,3.62805,-32.4085,-0.0718506,0.129331,0.00479004,4.96951,1.21951,1.67683
98.7055,81.0421,5.49358,0,9.45793,1.94715,0.831072,7.43902,5.82317,-32.4085,-18.7051,-1.5376,31.7053,4.96951,1.21951,1.67683
98.7229,80.6723,5.50578,0,9.80281,2.03577,0.735271,8.01829,3.44512,-32.0732,-0.0718506,0.129331,0.00479004,4.96951,1.21951,1.67683
98.7288,80.2994,7.66437,0,9.48188,2.24653,0.874182,7.9878,0.0914634,-29.878,-19.0117,-1.52802,32.9579,4.93902,1.18902,1.64634
98.7455,79.9199,5.40034,0,9.60882,2.44771,0.723296,10,-0.701219,-29.3598,-39.4412,-16.9615,-46.6909,-49.0244,-61.25,4.87805
98.7628,79.5689,5.41254,0,9.63277,2.25132,0.740061,10.3659,0.304878,-29.5427,-0.0718506,0.129331,0.00479004,4.96951,1.21951,1.67683
98.7689,79.1892,7.59377,0,9.50104,2.36628,0.555645,12.8049,-5.36585,-31.4939,-19.347,-2.77343,34.1961,4.96951,1.21951,1.67683
98.7862,78.8138,7.60597,0,9.7118,2.38065,0.632285,13.5366,-6.09756,-32.2561,-0.0718506,0.129331,0.00479004,4.96951,1.21951,1.67683
98.7921,78.3868,7.30481,0,9.44117,2.79738,0.799937,9.78659,-0.365854,-32.7134,-18.9063,0.126936,0.00239502,4.93902,1.18902,1.64634
98.8087,77.973,5.05502,0,9.99681,2.86205,0.58199,9.60366,-2.04268,-33.3232,-39.4412,-16.9615,-46.6909,-49.0244,-61.25,4.87805
98.8261,77.5542,5.06721,0,9.50583,2.81654,0.380808,10.122,-3.41463,-33.5976,-0.0718506,0.129331,0.00479004,4.96951,1.21951,1.67683
98.8319,77.1253,7.25544,0,9.73575,3.03449,0.613125,11.5854,-4.57317,-33.8415,-20.0751,-1.0586,35.2403,4.96951,1.21951,1.67683
98.8495,76.7045,7.26763,0,9.81719,3.04646,0.684976,12.1341,-5.42683,-34.0244,-0.0718506,0.129331,0.00479004,4.96951,1.21951,1.67683
98.8556,76.2609,6.97987,0,9.85311,3.2237,0.622705,11.9512,-4.26829,-35.4268,-19.9433,0.126936,0.00239502,4.93902,1.18902,1.64634
98.872,75.7924,4.74294,0,9.89383,3.38895,0.543669,11.5854,-2.77439,-37.2561,-39.4412,-16.9615,-46.6909,-49.0244,-61.25,4.87805
98.8893,75.3274,4.75514,0,9.79803,3.31231,0.402363,12.378,-3.20122,-38.3232,-0.0718506,0.129331,0.00479004,4.96951,1.21951,1.67683
98.8954,74.8459,7.10696,0,9.73096,3.30273,0.651445,13.0488,-6.06707,-40.8232,-18.1686,-3.15664,37.5012,4.96951,1.21951,1.67683
98.9126,74.3552,7.11916,0,9.69743,3.40332,0.799937,11.8902,-5.39634,-41.5244,-0.0718506,0.129331,0.00479004,4.96951,1.21951,1.67683
98.9185,73.8787,6.83726,0,10.0711,3.12311,0.493374,11.7988,-4.87805,-45.3963,-17.5172,-3.05365,0.00239502,4.93902,1.18902,1.64634
98.9349,73.3696,4.60598,0,9.70701,3.30034,0.598755,10.7622,-2.40854,-46.5244,-39.4412,-16.9615,-46.6909,-49.0244,-61.25,4.87805
98.9522,72.8897,4.61818,0,9.90341,3.28836,0.167651,10.0915,-1.21951,-45.4268,-0.0718506,0.129331,0.00479004,4.96951,1.21951,1.67683
98.9581,72.3562,7.02682,0,9.43877,3.73384,0.512534,11.8293,-2.40854,-45.3049,-17.7088,-3.92304,38.7658,4.96951,1.21951,1.67683
98.9756,71.814,7.03901,0,9.41482,3.82724,0.661025,12.3476,-4.02439,-46.189,-0.0718506,0.129331,0.00479004,4.96951,1.21951,1.67683
98.9814,71.2651,9.40739,0,9.80042,3.79371,0.409548,12.1341,-3.23171,-49.939,-16.2526,-2.90755,38.0161,4.93902,1.18902,1.64634
98.9978,70.656,7.07434,0,9.22322,3.96615,0.445474,10.5488,-1.34146,-52.8963,-39.4412,-16.9615,-46.6909,-49.0244,-61.25,4.87805
99.0151,69.9909,7.08653,0,8.70111,4.08351,0.387993,9.66463,-1.18902,-56.0366,-0.0718506,0.129331,0.00479004,4.96951,1.21951,1.67683
99.0211,69.3083,9.58894,0,8.79451,4.20086,0.725691,8.56707,-7.65244,-58.3841,-14.0875,-1.17356,39.3119,4.96951,1.21951,1.67683
99.0384,68.6156,9.60114,0,9.02204,4.40923,0.787961,8.41463,-10.9451,-59.7561,-0.0718506,0.129331,0.00479004,4.96951,1.21951,1.67683
99.0445,67.9665,9.21807,0,9.6663,4.34696,0.426313,7.53049,-8.32317,-60.4573,-14.0971,-1.09931,0.00239502,4.93902,1.18902,1.64634
99.0608,67.3045,6.89251,0,9.44356,4.46192,0.471819,6.46341,-8.90244,-60.9146,-39.4412,-16.9615,-46.6909,-49.0244,-61.25,4.87805
99.0781,66.6176,6.90471,0,9.06036,4.78046,0.622705,7.13415,-5.4878,-59.6341,-0.0718506,0.129331,0.00479004,4.96951,1.21951,1.67683
99.0839,65.9324,9.48282,0,8.79691,4.83554,0.416733,6.95122,-6.89024,-58.872,-12.2769,-1.93039,37.8174,4.96951,1.21951,1.67683
99.1011,65.2247,9.49502,0,8.20055,4.77327,0.131726,7.07317,-7.28659,-59.6951,-0.0718506,0.129331,0.00479004,4.96951,1.21951,1.67683
99.1068,64.5027,11.9815,0,7.84129,4.71579,0.00718506,8.93293,-11.9512,-60.9146,-12.1332,-2.10283,37.9994,4.93902,1.18902,1.64634
99.1236,63.7855,9.54655,0,8.10714,4.64155,-0.217947,11.372,-16.8293,-64.4207,-39.4412,-16.9615,-46.6909,-49.0244,-61.25,4.87805
99.1409,63.0222,9.55874,0,8.0784,4.89542,0.431104,11.0061,-22.1951,-67.6829,-0.0718506,0.129331,0.00479004,4.96951,1.21951,1.67683
99.1467,62.2627,12.0845,0,8.37538,5.11816,0.411943,8.71951,-31.0671,-68.4146,-11.4721,-1.06818,38.3538,4.96951,1.21951,1.67683
99.1639,61.4973,12.0967,0,8.50711,5.52291,0.443079,5.36585,-29.1768,-67.3781,-0.0718506,0.129331,0.00479004,4.96951,1.21951,1.67683
99.1697,60.777,14.5307,0,8.58854,5.5325,-0.102986,4.5122,-23.2927,-64.7561,-11.1177,-1.50886,37.6928,4.93902,1.18902,1.64634
99.1864,60.0433,11.9948,0,8.09756,5.64506,-0.220342,4.7561,-24.6951,-63.3232,-39.4412,-16.9615,-46.6909,-49.0244,-61.25,4.87805
99.2036,59.2712,12.007,0,7.51078,5.74805,0.0646655,5.2439,-29.0549,-63.5366,-0.0718506,0.129331,0.00479004,4.96951,1.21951,1.67683
99.2094,58.4833,14.4033,0,7.68562,5.8175,-0.100591,5.60976,-31.6463,-67.3476,-11.3668,-2.59141,36.1121,4.96951,1.21951,1.67683
99.2266,57.6911,14.4155,0,7.72154,5.95641,-0.122146,5.85366,-30.8232,-68.3232,-0.0718506,0.129331,0.00479004,4.96951,1.21951,1.67683
99.2323,56.9075,16.6808,0,8.1287,6.62462,-0.222737,3.90244,-26.9207,-65.9451,-11.9416,-2.37107,35.9492,4.93902,1.18902,1.64634
99.2488,56.1657,14.0597,0,8.20294,6.66055,-0.146096,3.47561,-25.6098,-63.4756,-39.4412,-16.9615,-46.6909,-49.0244,-61.25,4.87805
99.2661,55.4568,14.0719,0,7.84608,6.38033,-0.0814307,1.98171,-22.1646,-61.5549,-0.0718506,0.129331,0.00479004,4.96951,1.21951,1.67683
99.2718,54.8023,16.3205,0,7.59221,5.89414,-0.486189,0.243902,-17.8963,-60.0915,-11.7021,-2.54351,33.7171,4.96951,1.21951,1.67683
99.2895,54.1636,16.3327,0,7.50599,5.83666,-0.392783,0.518293,-19.2683,-59.7256,-0.0718506,0.129331,0.00479004,4.96951,1.21951,1.67683
99.2952,53.5392,18.4984,0,7.26649,5.76002,-0.289797,2.65244,-21.1585,-58.4756,-11.3859,-1.825,33.1231,4.93902,1.18902,1.64634
99.3117,52.8696,15.8054,0,7.04854,6.2055,-0.675395,0.97561,-22.439,-58.3232,-39.4412,-16.9615,-46.6909,-49.0244,-61.25,4.87805
99.3289,52.2274,15.8176,0,7.17787,6.25819,-0.481399,3.17073,-24.5732,-57.4695,-0.0718506,0.129331,0.00479004,4.96951,1.21951,1.67683
99.3347,51.5491,17.9298,0,7.05333,6.46176,-0.58199,2.37805,-21.25,-59.5732,-12.0853,-2.55309,31.7532,4.96951,1.21951,1.67683
99.352,50.8948,17.942,0,7.14674,6.46655,-0.543669,2.9878,-20.3963,-59.2378,-0.0718506,0.129331,0.00479004,4.96951,1.21951,1.67683
99.3578,50.2703,19.8434,0,7.24254,6.37075,-0.455054,1.95122,-14.878,-59.1768,-13.1199,-2.93629,29.4156,-994.085,1.18902,1.64634
99.3744,49.6927,17.0971,0,7.36947,6.24621,-0.65384,2.71341,-12.7134,-57.8049,-39.4412,-16.9615,-46.6909,-49.0244,-61.25,4.87805
99.3919,49.1216,17.1093,0,7.34073,6.50008,-0.934058,2.5,-6.95122,-55.7927,-0.0718506,0.129331,0.00479004,4.96951,1.21951,1.67683
99.398,48.5343,18.9821,0,6.93358,6.66294,-0.888552,-0.792683,-0.853659,-53.8415,-14.8731,-1.98787,31.0538,4.96951,1.21951,1.67683
99.4154,47.9355,18.9942,0,6.7324,6.75635,-0.958008,1.64634,-3.01829,-53.689,-0.0718506,0.129331,0.00479004,4.96951,1.21951,1.67683
99.4212,47.3184,18.241,0,6.67013,6.95035,-0.967588,2.5,-6.64634,-54.5732,-15.6395,-1.87291,0.00239502,4.93902,1.18902,1.64634
99.4381,46.7087,15.5581,0,6.70126,7.06531,-0.764011,3.90244,-6.61585,-54.3902,-39.4412,-16.9615,-46.6909,-49.0244,-61.25,4.87805
99.4553,46.1143,15.5703,0,6.76593,7.27128,-0.670605,3.59756,-5.97561,-52.9573,-0.0718506,0.129331,0.00479004,4.96951,1.21951,1.67683
99.461,45.5186,17.3498,0,6.29651,7.20661,-0.866997,-1.28049,-1.64634,-50.6402,-17.3926,-3.05125,30.7568,4.96951,1.21951,1.67683
99.4783,44.9375,17.362,0,6.2055,7.08447,-1.06818,0.823171,0.0609756,-50.5183,-0.0718506,0.129331,0.00479004,4.96951,1.21951,1.67683
99.4842,44.3307,19.0067,0,6.07856,7.33834,-0.835862,5.67073,2.0122,-51.0976,-17.9387,-3.50152,29.739,4.93902,1.18902,1.64634
99.5005,43.7326,16.2935,0,6.07137,7.39822,-0.550855,5.60976,1.37195,-50.9146,-39.4412,-16.9615,-46.6909,-49.0244,-61.25,4.87805
99.5177,43.161,16.3057,0,6.21508,7.41977,-0.61552,6.34146,0.0914634,-50.6098,-0.0718506,0.129331,0.00479004,4.96951,1.21951,1.67683
99.5236,42.5971,17.9001,0,6.2055,7.76944,-0.179626,6.03659,0.213415,-48.2622,-18.8584,-2.99377,28.5726,4.96951,1.21951,1.67683
99.5408,42.0376,17.9123,0,6.1049,7.8389,-0.313748,3.56707,-0.304878,-47.5305,-0.0718506,0.129331,0.00479004,4.96951,1.21951,1.67683
99.5465,41.4688,19.4215,0,5.78637,7.65927,-0.876577,0.792683,3.01829,-47.8963,-19.8835,-3.40572,29.5114,4.93902,1.18902,1.64634
99.5634,40.8904,16.6919,0,5.58519,7.62335,-0.725691,1.85976,2.37805,-48.3232,-39.4412,-16.9615,-46.6909,-49.0244,-61.25,4.87805
99.5807,40.3161,16.7041,0,5.50136,7.68562,-0.869392,2.43902,0.457317,-47.8049,-0.0718506,0.129331,0.00479004,4.96951,1.21951,1.67683
99.5864,39.7535,18.1428,0,5.49896,7.74549,-0.946033,5.12195,-2.34756,-47.3171,-21.1384,-2.38065,28.0936,4.96951,1.21951,1.67683
99.6039,39.1842,18.155,0,5.3864,7.90596,-0.936453,5.33537,-2.22561,-46.8902,-0.0718506,0.129331,0.00479004,4.96951,1.21951,1.67683
99.61,38.6009,19.4519,0,5.09421,8.02332,-0.876577,2.5,-7.31707,-45.7012,-21.9815,-2.31359,27.0589,4.93902,1.18902,1.64634
99.6263,38.0635,16.7211,0,5.23312,7.83171,-1.07297,3.81098,-8.93293,-44.939,-39.4412,-16.9615,-46.6909,-49.0244,-61.25,4.87805
99.6438,37.5069,16.7333,0,5.06068,8.16462,-0.819097,3.38415,-10.5488,-43.9939,-0.0718506,0.129331,0.00479004,4.96951,1.21951,1.67683
99.6498,36.9654,18.0012,0,4.98404,8.23647,-0.692161,2.62195,-12.2561,-42.3476,-23.8592,-2.13157,27.2122,4.96951,1.21951,1.67683
99.6674,36.4272,18.0134,0,4.91219,8.30114,-0.416733,2.07317,-9.54268,-41.9512,-0.0718506,0.129331,0.00479004,4.96951,1.21951,1.67683
99.6731,35.9384,17.3,0,5.0487,7.94907,-0.526904,0.792683,-10.8537,-41.7073,-23.9861,0.126936,0.00239502,4.93902,1.18902,1.64634
99.6898,35.4536,14.6544,0,5.03194,7.69999,-0.890947,1.25,-12.1037,-43.811,-39.4412,-16.9615,-46.6909,-49.0244,-61.25,4.87805
99.707,34.9681,14.6666,0,5.19001,7.71436,-0.977168,1.15854,-11.7988,-46.4329,-0.0718506,0.129331,0.00479004,4.96951,1.21951,1.67683
99.7128,34.4287,15.8637,0,4.98404,8.01613,-1.14721,-1.92073,-12.7744,-48.7195,-25.4591,-2.16031,25.3728,4.96951,1.21951,1.67683
99.7301,33.8921,15.8759,0,4.98404,8.24845,-1.09213,-1.76829,-11.7073,-48.0488,-0.0718506,0.129331,0.00479004,4.96951,1.21951,1.67683
99.7358,33.4102,16.9996,0,5.25228,8.50471,-1.57832,-1.06707,-6.34146,-44.6951,-26.0818,-1.57592,25.4136,4.93902,1.18902,1.64634
99.7524,32.9333,14.3659,0,5.10858,8.53585,-1.44899,0.457317,-1.18902,-43.5366,-39.4412,-16.9615,-46.6909,-49.0244,-61.25,4.87805
99.7697,32.4781,14.3781,0,5.16366,8.39933,-1.21188,1.37195,1.7378,-43.689,-0.0718506,0.129331,0.00479004,4.96951,1.21951,1.67683
99.7754,32.0377,15.4009,0,5.19001,8.32988,-1.02507,3.87195,-0.731707,-43.811,-27.4613,-2.32317,23.2173,4.96951,1.21951,1.67683
99.793,31.6176,15.4131,0,5.29539,8.36101,-1.11129,3.5061,-0.457317,-43.5061,-0.0718506,0.129331,0.00479004,4.96951,1.21951,1.67683
99.7987,31.1694,16.376,0,4.66789,8.39454,-1.20709,1.25,4.05488,-40.5488,-27.9403,-2.73511,23.2245,4.93902,1.18902,1.64634
99.8152,30.7097,13.767,0,4.36133,8.42568,-0.984353,1.25,2.13415,-39.1463,-39.4412,-16.9615,-46.6909,-49.0244,-61.25,4.87805
99.8324,30.2461,13.7792,0,4.19847,8.45921,-0.955613,1.18902,1.25,-38.5061,-0.0718506,0.129331,0.00479004,4.96951,1.21951,1.67683
99.8382,29.791,14.7109,0,4.41402,8.51908,-1.13284,2.13415,2.86585,-40.6098,-28.678,-3.00335,21.8569,4.96951,1.21951,1.67683
99.8555,29.327,14.7231,0,4.34457,8.59333,-1.13284,3.62805,2.07317,-41.2805,-0.0718506,0.129331,0.00479004,4.96951,1.21951,1.67683
99.8612,28.8826,15.5039,0,4.28229,8.91905,-0.965193,5.12195,1.61585,-37.8354,-29.0995,-3.10874,19.9601,4.93902,1.18902,1.64634
99.8777,28.4436,12.9294,0,4.01884,8.93582,-0.730481,3.47561,1.18902,-35.2744,-39.4412,-16.9615,-46.6909,-49.0244,-61.25,4.87805
99.8957,28.0293,12.9416,0,3.91586,8.72985,-0.708926,0.121951,-2.16463,-33.5366,-0.0718506,0.129331,0.00479004,4.96951,1.21951,1.67683
99.9014,27.5814,13.7123,0,3.64043,8.66518,-0.859812,-0.304878,-4.63415,-35,-31.1688,-2.67763,19.7877,4.96951,1.21951,1.67683
99.9178,27.1119,11.2088,0,3.49433,9.01725,-0.826282,0.457317,-4.17683,-34.8476,-39.4412,-16.9615,-46.6909,-49.0244,-61.25,4.87805
99.9351,26.6286,11.221,0,3.2692,9.28789,-0.752036,0.518293,-5.36585,-33.5671,-0.0718506,0.129331,0.00479004,4.96951,1.21951,1.67683
99.941,26.1294,11.9463,0,3.15185,9.19209,-0.946033,-0.548781,-10.7012,-35.2134,-32.8166,-1.90165,18.5997,4.96951,1.21951,1.67683
99.9582,25.6601,11.9585,0,3.37698,9.12742,-1.17835,-0.335366,-11.8293,-36.0061,-0.0718506,0.129331,0.00479004,4.96951,1.21951,1.67683
99.964,25.2298,12.608,0,3.7027,9.20646,-1.33163,-0.487805,-2.40854,-36.25,-33.65,-2.43813,18.1686,4.93902,1.18902,1.64634
99.9804,24.8327,10.1482,0,3.8967,9.15856,-1.05141,-1.98171,-1.21951,-36.0671,-39.4412,-16.9615,-46.6909,-49.0244,-61.25,4.87805
99.9983,24.4049,10.1604,0,3.49912,9.39566,-0.991538,-1.67683,3.41463,-34.6646,-0.0718506,0.129331,0.00479004,4.96951,1.21951,1.67683
100.004,23.9404,10.8374,0,2.90037,9.36453,-1.0083,-2.37805,-2.80488,-32.7134,-33.3435,-1.86333,17.1819,4.96951,1.21951,1.67683
100.021,23.4773,8.44771,0,2.8357,9.12263,-1.28373,-2.80488,-5.18293,-33.628,-39.4412,-16.9615,-46.6909,-49.0244,-61.25,4.87805
100.038,23.0099,8.45991,0,2.79499,9.05796,-1.23344,-1.92073,-2.7439,-34.7866,-0.0718506,0.129331,0.00479004,4.96951,1.21951,1.67683
100.044,22.5694,9.06877,0,3.03209,9.19209,-1.37714,-2.53049,0.731707,-35.2439,-35.087,-1.79626,15.5054,4.96951,1.21951,1.67683
100.061,22.1352,9.08096,0,3.02251,9.25436,-1.12087,-1.85976,1.37195,-35.1524,-0.0718506,0.129331,0.00479004,4.96951,1.21951,1.67683
100.067,21.7195,9.60205,0,2.9818,9.26394,-0.996328,-2.59146,-1.85976,-33.6585,-35.7768,-1.81542,14.6336,4.93902,1.18902,1.64634
100.083,21.3186,7.26129,0,3.0297,9.38129,-1.16398,-1.55488,-0.518293,-33.1098,-39.4412,-16.9615,-46.6909,-49.0244,-61.25,4.87805
100.101,20.9339,7.27349,0,3.00335,9.32142,-1.19751,-0.945122,0.762195,-32.1951,-0.0718506,0.129331,0.00479004,4.96951,1.21951,1.67683
100.106,20.4853,7.73708,0,2.3088,9.49386,-1.07057,-2.28659,6.98171,-30.9451,-35.7097,-2.17947,12.2865,4.96951,1.21951,1.67683
100.124,20.0244,7.74928,0,2.10043,9.42919,-0.881367,-2.2561,3.93293,-30.8537,-0.0718506,0.129331,0.00479004,4.96951,1.21951,1.67683
100.129,19.5352,8.12205,0,1.84656,9.37171,-0.890947,-0.701219,-0.487805,-31.7988,-35.4894,-2.26569,10.9644,4.93902,1.18902,1.64634
100.146,19.0624,5.83989,0,2.00703,9.49146,-0.828677,-2.77439,-0.335366,-32.7439,-39.4412,-16.9615,-46.6909,-49.0244,-61.25,4.87805
100.163,18.6174,5.85209,0,2.23934,9.4723,-0.670605,-3.78049,-1.98171,-33.6585,-0.0718506,0.129331,0.00479004,4.96951,1.21951,1.67683
100.169,18.1683,6.21502,0,2.13636,9.75012,-0.871787,-6.64634,1.4939,-33.0488,-37.0701,-2.23695,9.94891,4.96951,1.21951,1.67683
100.186,17.7328,6.22722,0,2.15073,9.78605,-0.893342,-7.22561,0.731707,-32.6524,-0.0718506,0.129331,0.00479004,4.96951,1.21951,1.67683
100.192,17.3545,6.53765,0,2.39741,9.24957,-1.26218,-3.2622,-4.66463,-32.0732,-37.5491,-1.55676,9.41243,4.93902,1.18902,1.64634
100.208,16.9776,4.31824,0,2.3064,9.36453,-1.21427,-3.65854,-3.04878,-31.2805,-39.4412,-16.9615,-46.6909,-49.0244,-61.25,4.87805
100.225,16.6585,4.33043,0,2.61776,9.27831,-1.13045,-4.20732,3.01829,-30.061,-0.0718506,0.129331,0.00479004,4.96951,1.21951,1.67683
100.231,16.3636,4.66913,0,2.66087,9.54415,-1.16158,-3.78049,7.56098,-27.8963,-38.076,-0.809517,8.71308,4.96951,1.21951,1.67683
100.248,16.0618,4.68132,0,2.47645,9.62798,-1.02986,-3.44512,6.09756,-26.8293,-0.0718506,0.129331,0.00479004,4.96951,1.21951,1.67683
100.254,15.7466,4.94676,0,2.12678,9.49625,-1.11368,-2.80488,3.62805,-25.1524,-38.0664,-0.531694,7.66885,4.93902,1.18902,1.64634
100.271,15.4398,2.79035,0,2.31359,9.45554,-1.18793,-3.29268,6.31098,-27.2256,-39.4412,-16.9615,-46.6909,-49.0244,-61.25,4.87805
100.288,15.1751,2.80255,0,2.52196,9.31902,-1.19511,-3.20122,10.9756,-26.4024,-0.0718506,0.129331,0.00479004,4.96951,1.21951,1.67683
100.293,14.9017,3.08116,0,2.13636,9.41722,-0.802332,-2.37805,12.6524,-23.0183,-38.0664,-0.656235,6.60546,4.96951,1.21951,1.67683
100.311,14.6344,3.09335,0,2.09564,9.38129,-0.759221,-2.31707,10.7927,-22.561,-0.0718506,0.129331,0.00479004,4.96951,1.21951,1.67683
100.317,14.3549,3.33328,0,1.90404,9.41722,-0.811912,-2.22561,7.0122,-21.9817,-38.0473,-0.407153,6.13365,4.93902,1.18902,1.64634
100.333,14.1052,1.24076,0,2.0214,9.331,-1.02267,-2.92683,6.79878,-21.128,-39.4412,-16.9615,-46.6909,-49.0244,-61.25,4.87805
100.35,13.8765,1.25295,0,2.17947,9.36692,-1.10171,-1.82927,7.80488,-21.2805,-0.0718506,0.129331,0.00479004,4.96951,1.21951,1.67683
100.356,13.6601,1.47858,0,2.16989,9.63516,-1.16637,-1.61585,13.1707,-19.6646,-38.7466,0.00479004,4.72777,4.96951,1.21951,1.67683
100.373,13.4388,1.49078,0,2.05493,9.56331,-1.22386,-1.21951,14.1463,-19.4512,-0.0718506,0.129331,0.00479004,4.96951,1.21951,1.67683
100.379,13.2015,1.7024,0,1.80345,9.57289,-0.977168,-0.579268,15.8537,-18.5671,-39.331,0.359253,4.71819,4.93902,1.18902,1.64634
100.396,12.9696,-0.325537,0,1.74357,9.56331,-0.890947,-0.27439,15.5793,-17.8049,-39.4412,-16.9615,-46.6909,-49.0244,-61.25,4.87805
100.413,12.7494,-0.313342,0,1.80584,9.54655,-0.802332,-0.853659,14.4512,-17.8659,-0.0718506,0.129331,0.00479004,4.96951,1.21951,1.67683
100.419,12.5392,-0.0860549,0,1.70286,9.46272,-0.622705,-0.457317,13.1707,-16.25,-40.1453,0.665815,3.81766,4.96951,1.21951,1.67683
100.436,12.3467,-0.0738598,0,1.70525,9.58487,-0.536484,-1.61585,12.0732,-14.6341,-0.0718506,0.129331,0.00479004,4.96951,1.21951,1.67683
100.442,12.161,0.0950657,0,1.44659,9.46272,-0.934058,-0.243902,12.9878,-11.4939,-41.0171,-0.253872,3.01054,4.93902,1.18902,1.64634
100.458,11.9477,-1.86922,0,1.17356,9.48667,-0.905317,0.121951,11.4024,-11.3415,-39.4412,-16.9615,-46.6909,-49.0244,-61.25,4.87805
100.476,11.7144,-1.85702,0,1.05381,9.51062,-0.895737,0.701219,9.87805,-12.3171,-0.0718506,0.129331,0.00479004,4.96951,1.21951,1.67683
100.481,11.4814,-1.6196,0,1.19511,9.76449,-1.04183,-0.792683,6.79878,-14.1159,-39.992,1.7771,2.89797,4.96951,1.21951,1.67683
100.498,11.2589,-1.6074,0,1.23344,9.68546,-1.02746,-0.0304878,6.67683,-14.0854,-0.0718506,0.129331,0.00479004,4.96951,1.21951,1.67683
100.504,11.0264,-1.42408,0,1.0586,9.68067,-0.641865,-0.0914634,10.5793,-13.4756,-40.1166,1.61424,2.12199,4.93902,1.18902,1.64634
100.521,10.7783,-3.32821,0,0.881367,9.6663,-0.507744,0.121951,9.54268,-13.4451,-39.4412,-16.9615,-46.6909,-49.0244,-61.25,4.87805
100.538,10.5154,-3.31601,0,0.766406,9.82916,-0.57241,-0.823171,6.40244,-13.9329,-0.0718506,0.129331,0.00479004,4.96951,1.21951,1.67683
100.544,10.2858,-3.08665,0,0.948428,9.90101,-0.764011,-1.58537,6.0061,-13.1402,-40.7776,0.474214,1.76752,4.96951,1.21951,1.67683
100.561,10.0743,-3.07445,0,1.04183,9.8124,-0.883762,-1.06707,7.77439,-12.9573,-0.0718506,0.129331,0.00479004,4.96951,1.21951,1.67683
100.567,9.86381,-2.91261,0,1.01549,9.70222,-0.63947,-0.518293,11.4634,-13.1098,-39.6088,-0.186812,0.704136,4.93902,1.18902,1.64634
100.583,9.63218,-4.75779,0,0.831072,9.63516,-0.768801,-0.518293,12.4695,-13.5671,-39.4412,-16.9615,-46.6909,-49.0244,-61.25,4.87805
100.6,9.36893,-4.74559,0,0.59157,9.57289,-0.565225,-0.213415,11.4329,-14.4207,-0.0718506,0.129331,0.00479004,4.96951,1.21951,1.67683
100.606,9.11943,-4.52247,0,0.730481,9.87946,-0.464634,-1.40244,8.53659,-14.9695,-38.3347,0.0910107,0.598755,4.96951,1.21951,1.67683
100.623,8.88727,-4.51028,0,0.823887,9.90101,-0.534089,-1.55488,8.29268,-14.7866,-0.0718506,0.129331,0.00479004,4.96951,1.21951,1.67683
100.629,8.66484,-4.31112,0,0.775986,9.91778,-0.58199,-0.731707,8.81098,-13.689,-39.216,0.00479004,0.359253,4.93902,1.18902,1.64634
100.646,8.44551,-6.10092,0,0.747246,9.97047,-0.651445,-1.18902,9.11585,-13.4451,-39.4412,-16.9615,-46.6909,-49.0244,-61.25,4.87805
100.663,8.22485,-6.08872,0,0.718506,9.72617,-0.711321,0.243902,7.92683,-13.9024,-0.0718506,0.129331,0.00479004,4.96951,1.21951,1.67683
100.669,8.03144,-5.88933,0,0.934058,9.59445,-0.785566,-0.396341,8.65854,-14.2988,-39.034,-0.455054,-0.713716,4.96951,1.21951,1.67683
100.686,7.84782,-5.87713,0,0.977168,9.45314,-0.799937,-0.640244,7.43902,-14.3902,-0.0718506,0.129331,0.00479004,4.96951,1.21951,1.67683
100.691,7.70559,-5.67496,0,1.19272,9.53457,-0.680186,0.304878,7.59146,-13.0488,-39.0628,0.838257,-0.522114,4.93902,1.18902,1.64634
100.708,7.58793,-7.41075,0,1.19751,9.63995,-0.66342,-0.243902,9.2378,-10.7317,-39.4412,-16.9615,-46.6909,-49.0244,-61.25,4.87805
100.725,7.45848,-7.39855,0,0.943638,9.78605,-0.670605,0.335366,9.87805,-8.96341,-0.0718506,0.129331,0.00479004,4.96951,1.21951,1.67683
100.731,7.30143,-7.15078,0,0.804727,9.97765,-0.696951,0.121951,7.80488,-10.2134,-39.8675,-0.416733,-0.790356,4.96951,1.21951,1.67683
100.748,7.14248,-7.13859,0,0.831072,10.0088,-0.799937,-0.213415,7.68293,-11.0061,-0.0718506,0.129331,0.00479004,4.96951,1.21951,1.67683
100.754,6.96664,-6.95748,0,0.706531,9.96089,-0.922083,-0.762195,12.6524,-11.6463,-39.331,-0.483794,-1.75794,4.93902,1.18902,1.64634
100.771,6.77517,-8.64248,0,0.584385,9.66869,-0.931663,-0.487805,14.6646,-12.378,-39.4412,-16.9615,-46.6909,-49.0244,-61.25,4.87805
100.788,6.5727,-8.63029,0,0.517324,9.40045,-0.735271,0.518293,15.7317,-13.2622,-0.0718506,0.129331,0.00479004,4.96951,1.21951,1.67683
100.794,6.39224,-8.4375,0,0.692161,9.60163,-0.814307,1.06707,15.6402,-13.4146,-38.8903,0.225132,-2.55309,4.96951,1.21951,1.67683
100.811,6.22626,-8.42531,0,0.744851,9.78605,-0.847837,1.0061,14.0549,-12.7744,-0.0718506,0.129331,0.00479004,4.96951,1.21951,1.67683
100.817,6.05978,-8.24124,0,0.517324,10.0327,-0.802332,0.121951,10.2439,-10.3049,-40.0783,0.0910107,-2.64171,4.93902,1.18902,1.64634
100.833,5.89048,-9.8754,0,0.416733,10.0447,-0.656235,-0.213415,7.0122,-9.7561,-39.4412,-16.9615,-46.6909,-49.0244,-61.25,4.87805
100.85,5.71928,-9.86321,0,0.366438,9.94173,-0.622705,-0.0304878,5.03049,-9.7561,-0.0718506,0.129331,0.00479004,4.96951,1.21951,1.67683
100.856,5.56618,-9.66535,0,0.431104,9.86509,-0.771196,-0.670732,4.29878,-9.05488,-39.4843,-1.18314,-3.35782,4.96951,1.21951,1.67683
100.873,5.41957,-9.65316,0,0.469424,9.83395,-0.833467,-0.945122,4.20732,-9.17683,-0.0718506,0.129331,0.00479004,4.96951,1.21951,1.67683
100.879,5.29802,-9.47733,0,0.66821,9.54894,-0.831072,-0.396341,6.03659,-9.5122,-39.1586,-0.684976,-3.56858,4.93902,1.18902,1.64634
100.896,5.19244,-11.0625,0,0.754431,9.45793,-0.931663,-0.213415,7.65244,-9.26829,-39.4412,-16.9615,-46.6909,-49.0244,-61.25,4.87805
100.913,5.12298,-11.0503,0,0.953218,9.58726,-0.831072,0.243902,8.90244,-8.07927,-0.0718506,0.129331,0.00479004,4.96951,1.21951,1.67683
100.919,5.06418,-10.8542,0,0.814307,9.75731,-0.759221,0.609756,8.9939,-5.27439,-39.4556,-0.512534,-4.21044,4.96951,1.21951,1.67683
100.936,4.99483,-10.842,0,0.680186,9.79323,-0.718506,0.640244,7.95732,-4.81707,-0.0718506,0.129331,0.00479004,4.96951,1.21951,1.67683
100.942,4.9061,-10.6581,0,0.459844,9.92736,-0.819097,0.182927,5.88415,-4.14634,-39.7813,-0.570015,-4.31582,4.93902,1.18902,1.64634
100.959,4.82059,-12.1966,0,0.435894,9.92017,-0.783171,0.457317,3.78049,-3.62805,-39.4412,-16.9615,-46.6909,-49.0244,-61.25,4.87805
100.976,4.73783,-12.1844,0,0.428708,9.90341,-0.692161,0.640244,2.7439,-3.38415,-0.0718506,0.129331,0.00479004,4.96951,1.21951,1.67683
100.982,4.66232,-11.9461,0,0.490979,9.84114,-0.701741,0.609756,4.02439,-3.68902,-39.1777,-0.0239502,-4.2296,4.96951,1.21951,1.67683
100.999,4.59403,-11.9339,0,0.526904,9.78844,-0.716111,0.518293,4.78659,-3.56707,-0.0718506,0.129331,0.00479004,4.96951,1.21951,1.67683
101.005,4.51599,-11.7763,0,0.469424,9.64235,-0.711321,0.335366,5.91463,-4.14634,-40.1741,0.186812,-5.60914,4.93902,1.18902,1.64634
101.021,4.43869,-13.2705,0,0.469424,9.7142,-0.754431,0.27439,4.48171,-4.20732,-39.4412,-16.9615,-46.6909,-49.0244,-61.25,4.87805
101.038,4.36889,-13.2583,0,0.490979,9.85311,-0.823887,-0.853659,1.61585,-3.75,-0.0718506,0.129331,0.00479004,4.96951,1.21951,1.67683
101.044,4.31378,-13.0387,0,0.56283,9.83635,-0.811912,-0.335366,-0.579268,-3.23171,-39.8867,0.953218,-5.39837,4.96951,1.21951,1.67683
101.061,4.25551,-13.0265,0,0.524509,9.84593,-0.785566,-0.243902,-1.25,-3.17073,-0.0718506,0.129331,0.00479004,4.96951,1.21951,1.67683
101.067,4.22206,-12.8014,0,0.699346,9.84832,-0.840652,-0.487805,-1.55488,-2.9878,-39.5514,0.502954,-5.09181,4.93902,1.18902,1.64634
101.084,4.19312,-14.255,0,0.713716,9.79563,-0.869392,0,0.426829,-2.83537,-39.4412,-16.9615,-46.6909,-49.0244,-61.25,4.87805
101.101,4.17775,-14.2428,0,0.792751,9.70701,-0.902922,0.365854,1.92073,-2.68293,-0.0718506,0.129331,0.00479004,4.96951,1.21951,1.67683
101.107,4.19206,-13.9791,0,0.993933,9.64474,-0.893342,1.52439,5.82317,-2.59146,-39.216,0.598755,-5.21635,4.96951,1.21951,1.67683
101.124,4.21524,-13.9669,0,1.06818,9.616,-0.871787,1.31098,7.37805,-2.68293,-0.0718506,0.129331,0.00479004,4.96951,1.21951,1.67683
101.13,4.22439,-13.7345,0,0.862207,9.72378,-0.941243,1.15854,12.5,-1.55488,-39.4268,0.340093,-5.60674,4.93902,1.18902,1.64634
101.146,4.21834,-15.1512,0,0.749641,9.68785,-0.910107,1.55488,13.628,-1.28049,-39.4412,-16.9615,-46.6909,-49.0244,-61.25,4.87805
101.163,4.16416,-15.139,0,0.495769,9.70222,-0.907712,1.52439,13.1098,-1.15854,-0.0718506,0.129331,0.00479004,4.96951,1.21951,1.67683
101.169,4.07418,-14.8629,0,0.311353,9.75012,-0.756826,2.40854,9.78659,-1.06707,-39.6472,0.857417,-5.68578,4.96951,1.21951,1.67683
101.186,4.0032,-14.8507,0,0.378413,9.87227,-0.728086,1.25,9.08537,-1.09756,-0.0718506,0.129331,0.00479004,4.96951,1.21951,1.67683
101.192,3.92721,-14.5857,0,0.397573,9.82677,-0.728086,0.97561,8.53659,-0.548781,-39.5514,0.761616,-5.66662,4.93902,1.18902,1.64634
101.209,3.83741,-15.9686,0,0.380808,9.82916,-0.742456,1.06707,7.53049,-0.182927,-39.4412,-16.9615,-46.6909,-49.0244,-61.25,4.87805
101.226,3.73019,-15.9564,0,0.311353,9.81,-0.742456,0.884146,6.06707,-0.182927,-0.0718506,0.129331,0.00479004,4.96951,1.21951,1.67683
101.232,3.6693,-15.6961,0,0.402363,9.72857,-0.859812,1.82927,6.0061,-0.762195,-40.586,-0.0814307,-6.70126,4.96951,1.21951,1.67683
101.249,3.60872,-15.6839,0,0.385598,9.75491,-0.823887,2.13415,6.21951,-0.853659,-0.0718506,0.129331,0.00479004,4.96951,1.21951,1.67683
101.255,3.54201,-15.478,0,0.313748,9.83635,-0.752036,1.12805,4.29878,-1.28049,-40.4231,0.253872,-7.47725,4.93902,1.18902,1.64634
101.271,3.47972,-16.8256,0,0.354463,9.81479,-0.735271,0.365854,2.56098,-0.823171,-39.4412,-16.9615,-46.6909,-49.0244,-61.25,4.87805
101.289,3.43085,-16.8134,0,0.402363,9.79803,-0.689766,0.335366,1.03659,-0.945122,-0.0718506,0.129331,0.00479004,4.96951,1.21951,1.67683
101.295,3.39986,-16.4963,0,0.486189,9.82916,-0.809517,-0.579268,1.31098,-1.37195,-39.3885,1.346,-6.09772,4.96951,1.21951,1.67683
101.312,3.37855,-16.4841,0,0.548459,9.78844,-0.893342,-0.640244,0.945122,-1.64634,-0.0718506,0.129331,0.00479004,4.96951,1.21951,1.67683
101.318,3.37451,-16.1741,0,0.684976,9.82916,-0.747246,0.365854,3.5061,-1.98171,-39.331,1.49928,-5.98276,4.93902,1.18902,1.64634
101.335,3.37584,-17.4941,0,0.696951,9.79084,-0.754431,-0.518293,4.05488,-1.76829,-39.4412,-16.9615,-46.6909,-49.0244,-61.25,4.87805
101.352,3.36352,-17.4819,0,0.617915,9.79084,-0.742456,0.152439,4.26829,-1.89024,-0.0718506,0.129331,0.00479004,4.96951,1.21951,1.67683
101.358,3.33982,-17.148,0,0.522114,9.82437,-0.61073,-0.213415,4.05488,-1.4939,-39.1586,0.416733,-6.23184,4.96951,1.21951,1.67683
101.375,3.30708,-17.1358,0,0.457449,9.81479,-0.699346,-0.27439,3.59756,-1.15854,-0.0718506,0.129331,0.00479004,4.96951,1.21951,1.67683
101.381,3.23652,-16.4573,0,0.229922,9.85311,-0.747246,-0.0914634,2.95732,-1.46341,-38.9382,0.740061,0.00239502,4.93902,1.18902,1.64634
101.398,3.17183,-17.7661,0,0.246687,9.84114,-0.756826,-1.0061,0.0304878,-2.04268,-39.4412,-16.9615,-46.6909,-49.0244,-61.25,4.87805
101.415,3.12471,-17.7539,0,0.399968,9.75012,-0.799937,-0.731707,-2.77439,-2.95732,-0.0718506,0.129331,0.00479004,4.96951,1.21951,1.67683
101.421,3.11612,-17.4136,0,0.632285,9.75012,-0.857417,-1.12805,-2.80488,-2.31707,-39.0244,0.589175,-6.28932,4.96951,1.21951,1.67683
101.438,3.12748,-17.4014,0,0.742456,9.71659,-0.823887,-0.914634,-2.5,-2.07317,-0.0718506,0.129331,0.00479004,4.96951,1.21951,1.67683
101.444,3.19319,-17.0612,0,0.790356,9.72138,-0.720901,-1.03659,-0.762195,-0.457317,-39.5705,0.311353,-6.12885,4.93902,1.18902,1.64634
101.461,3.26081,-18.3461,0,0.747246,9.76928,-0.831072,-0.945122,0.396341,0.0609756,-39.4412,-16.9615,-46.6909,-49.0244,-61.25,4.87805
101.478,3.28843,-18.3339,0,0.637075,9.73096,-0.938848,-0.579268,0.853659,-0.0609756,-0.0718506,0.129331,0.00479004,4.96951,1.21951,1.67683
101.485,3.26972,-17.9929,0,0.490979,9.7597,-0.821492,-0.487805,-0.365854,0.243902,-39.3598,0.397573,-6.73958,4.96951,1.21951,1.67683
101.502,3.24905,-17.9807,0,0.481399,9.7597,-0.787961,-0.914634,-1.15854,0.243902,-0.0718506,0.129331,0.00479004,4.96951,1.21951,1.67683
101.508,3.26845,-17.6549,0,0.613125,9.77886,-0.752036,-0.914634,-3.2622,-0.0304878,-39.3981,0.675395,-6.76833,4.93902,1.18902,1.64634
101.524,3.29808,-18.9163,0,0.65384,9.79563,-0.843047,-1.21951,-4.20732,0.27439,-39.4412,-16.9615,-46.6909,-49.0244,-61.25,4.87805
101.541,3.35875,-18.9041,0,0.766406,9.73336,-0.819097,-1.18902,-3.78049,0.396341,-0.0718506,0.129331,0.00479004,4.96951,1.21951,1.67683
101.547,3.40656,-18.5484,0,0.754431,9.69264,-0.821492,-1.37195,-3.68902,1.09756,-39.3789,0.895737,-6.88329,4.96951,1.21951,1.67683
101.565,3.46347,-18.5362,0,0.807122,9.6639,-0.780776,-1.06707,-3.96341,1.18902,-0.0718506,0.129331,0.00479004,4.96951,1.21951,1.67683
101.571,3.51817,-18.1949,0,0.821492,9.69504,-0.766406,-1.0061,-4.17683,1.76829,-39.3885,0.713716,-6.88329,4.93902,1.18902,1.64634
101.587,3.56523,-19.4349,0,0.792751,9.75731,-0.771196,-1.06707,-5.09146,1.4939,-39.4412,-16.9615,-46.6909,-49.0244,-61.25,4.87805
101.604,3.61686,-19.4227,0,0.826282,9.74054,-0.814307,-1.28049,-5.27439,1.55488,-0.0718506,0.129331,0.00479004,4.96951,1.21951,1.67683
101.61,3.68522,-19.0447,0,0.934058,9.7142,-0.831072,-1.7378,-3.87195,1.61585,-38.8424,1.22146,-6.75875,4.96951,1.21951,1.67683
101.628,3.7527,-19.0325,0,0.946033,9.74294,-0.855022,-1.70732,-3.38415,1.61585,-0.0718506,0.129331,0.00479004,4.96951,1.21951,1.67683
101.633,3.83263,-18.6585,0,1.01549,9.82677,-0.816702,-0.97561,-2.10366,1.06707,-39.0149,1.17356,-6.5863,4.93902,1.18902,1.64634
101.65,3.90415,-19.8802,0,0.977168,9.88425,-0.787961,-1.18902,-1.55488,0.823171,-39.4412,-16.9615,-46.6909,-49.0244,-61.25,4.87805
101.667,3.98282,-19.868,0,0.958008,9.8124,-0.809517,-0.670732,-0.579268,0.396341,-0.0718506,0.129331,0.00479004,4.96951,1.21951,1.67683
101.673,4.03869,-19.493,0,0.866997,9.7597,-0.785566,-0.792683,1.55488,-0.182927,-39.1011,1.22146,-7.17069,4.96951,1.21951,1.67683
101.69,4.07971,-19.4808,0,0.814307,9.78366,-0.771196,-1.06707,2.04268,0.0609756,-0.0718506,0.129331,0.00479004,4.96951,1.21951,1.67683
101.696,4.08998,-19.0924,0,0.730481,9.71659,-0.723296,-0.518293,1.55488,-0.182927,-39.2831,1.17356,-6.69168,4.93902,1.18902,1.64634
101.712,4.10517,-20.2968,0,0.795146,9.73815,-0.692161,-0.823171,1.18902,-0.762195,-39.4412,-16.9615,-46.6909,-49.0244,-61.25,4.87805
101.73,4.11877,-20.2847,0,0.780776,9.71899,-0.768801,-0.914634,1.06707,-0.670732,-0.0718506,0.129331,0.00479004,4.96951,1.21951,1.67683
101.736,4.12467,-19.8833,0,0.785566,9.80521,-0.766406,-0.914634,1.15854,-1.0061,-39.0628,1.3939,-6.98867,4.96951,1.21951,1.67683
101.753,4.11932,-19.8711,0,0.759221,9.79563,-0.780776,-0.884146,0.701219,-1.46341,-0.0718506,0.129331,0.00479004,4.96951,1.21951,1.67683
101.759,4.09975,-19.5073,0,0.725691,9.88904,-0.711321,-1.0061,1.15854,-2.19512,-39.2448,0.972378,-7.40061,4.93902,1.18902,1.64634
101.775,4.07756,-20.6954,0,0.711321,9.78844,-0.687371,-0.670732,1.7378,-2.40854,-39.4412,-16.9615,-46.6909,-49.0244,-61.25,4.87805
101.792,4.0377,-20.6832,0,0.59636,9.74773,-0.718506,-1.0061,1.89024,-2.7439,-0.0718506,0.129331,0.00479004,4.96951,1.21951,1.67683
101.798,4.00558,-20.2631,0,0.680186,9.7597,-0.771196,-0.97561,2.22561,-3.17073,-39.4651,0.656235,-7.00783,4.96951,1.21951,1.67683
101.815,3.97306,-20.2509,0,0.706531,9.74294,-0.737666,-1.09756,2.46951,-3.62805,-0.0718506,0.129331,0.00479004,4.96951,1.21951,1.67683
101.821,3.96089,-19.8179,0,0.840652,9.73096,-0.752036,-0.670732,2.46951,-3.35366,-39.2544,0.761616,-6.43542,4.93902,1.18902,1.64634
101.838,3.95565,-20.9936,0,0.859812,9.7597,-0.701741,-0.640244,2.95732,-2.95732,-39.4412,-16.9615,-46.6909,-49.0244,-61.25,4.87805
101.855,3.94642,-20.9814,0,0.780776,9.72617,-0.711321,-0.609756,3.29268,-2.46951,-0.0718506,0.129331,0.00479004,4.96951,1.21951,1.67683
101.861,3.91152,-20.5617,0,0.598755,9.69743,-0.780776,-1.18902,2.5,-2.59146,-39.1586,0.397573,-7.17069,4.96951,1.21951,1.67683
101.878,3.87339,-20.5495,0,0.598755,9.69504,-0.823887,-1.21951,1.76829,-3.04878,-0.0718506,0.129331,0.00479004,4.96951,1.21951,1.67683
101.884,3.82694,-20.1212,0,0.61073,9.85311,-0.711321,-0.701219,0.945122,-4.05488,-39.331,0.790356,-6.74198,4.93902,1.18902,1.64634
101.901,3.78618,-21.2849,0,0.687371,9.87706,-0.716111,-0.548781,1.21951,-4.48171,-39.4412,-16.9615,-46.6909,-49.0244,-61.25,4.87805
101.918,3.74454,-21.2727,0,0.66821,9.81,-0.807122,-0.914634,2.19512,-4.48171,-0.0718506,0.129331,0.00479004,4.96951,1.21951,1.67683
101.924,3.71003,-20.8157,0,0.737666,9.72378,-0.819097,-1.34146,2.13415,-4.7561,-39.7142,0.282612,-6.80665,4.96951,1.21951,1.67683
101.941,3.68303,-20.8035,0,0.773591,9.68785,-0.838257,-1.12805,2.19512,-4.54268,-0.0718506,0.129331,0.00479004,4.96951,1.21951,1.67683
101.947,3.65531,-20.3851,0,0.761616,9.73336,-0.732876,-1.31098,4.42073,-4.48171,-39.3693,0.138911,-7.10602,4.93902,1.18902,1.64634
101.963,3.6253,-21.5383,0,0.742456,9.72857,-0.802332,-2.04268,4.84756,-4.54268,-39.4412,-16.9615,-46.6909,-49.0244,-61.25,4.87805
101.981,3.59951,-21.5261,0,0.771196,9.77407,-0.840652,-1.64634,5.30488,-4.48171,-0.0718506,0.129331,0.00479004,4.96951,1.21951,1.67683
101.986,3.55288,-21.0491,0,0.64905,9.7597,-0.797541,-2.10366,5.45732,-5.18293,-39.2352,0.0239502,-6.54798,4.96951,1.21951,1.67683
102.004,3.51093,-21.037,0,0.665815,9.76689,-0.699346,-2.10366,4.60366,-5,-0.0718506,0.129331,0.00479004,4.96951,1.21951,1.67683
102.01,3.462,-20.5943,0,0.622705,9.61361,-0.871787,-2.71341,3.78049,-5.39634,-39.5226,-0.225132,-6.86413,4.93902,1.18902,1.64634
102.026,3.4103,-21.7393,0,0.632285,9.58726,-0.855022,-2.92683,3.75,-5.91463,-39.4412,-16.9615,-46.6909,-49.0244,-61.25,4.87805
102.044,3.37967,-21.7271,0,0.790356,9.65911,-0.919688,-2.77439,4.17683,-5.73171,-0.0718506,0.129331,0.00479004,4.96951,1.21951,1.67683
102.049,3.36427,-21.2562,0,0.840652,9.71899,-0.859812,-2.56098,4.29878,-4.81707,-39.446,0.0239502,-6.83539,4.96951,1.21951,1.67683
102.067,3.35343,-21.244,0,0.855022,9.71899,-0.919688,-2.86585,4.17683,-4.57317,-0.0718506,0.129331,0.00479004,4.96951,1.21951,1.67683
102.073,3.33938,-20.8072,0,0.749641,9.70222,-0.946033,-3.01829,2.59146,-3.71951,-39.149,-0.541274,-7.04854,4.93902,1.18902,1.64634
102.089,3.30448,-21.9437,0,0.63468,9.7621,-0.917292,-3.38415,2.65244,-4.35976,-39.4412,-16.9615,-46.6909,-49.0244,-61.25,4.87805
102.106,3.24775,-21.9315,0,0.505349,9.75252,-0.902922,-3.17073,2.34756,-5.09146,-0.0718506,0.129331,0.00479004,4.96951,1.21951,1.67683
102.112,3.15586,-21.4617,0,0.340093,9.87467,-0.859812,-3.81098,1.0061,-6.76829,-39.6567,-0.512534,-7.03657,4.96951,1.21951,1.67683
102.129,3.06316,-21.4495,0,0.335303,9.87946,-0.780776,-3.78049,-0.243902,-6.98171,-0.0718506,0.129331,0.00479004,4.96951,1.21951,1.67683
102.135,2.98142,-21.0078,0,0.55325,9.88425,-0.864602,-4.42073,-3.14024,-8.62805,-39.8196,-0.723296,-7.22817,4.93902,1.18902,1.64634
102.152,2.90374,-22.1364,0,0.613125,9.92736,-0.742456,-5.09146,-2.9878,-9.05488,-39.4412,-16.9615,-46.6909,-49.0244,-61.25,4.87805
102.169,2.83602,-22.1242,0,0.696951,9.8579,-0.843047,-5.03049,-3.17073,-9.2378,-0.0718506,0.129331,0.00479004,4.96951,1.21951,1.67683
102.175,2.77111,-21.6791,0,0.725691,9.83156,-0.895737,-5.7622,-2.53049,-9.45122,-39.1586,-0.924478,-7.52515,4.96951,1.21951,1.67683
102.192,2.70392,-21.6669,0,0.682581,9.76689,-0.883762,-5.94512,-2.07317,-9.35976,-0.0718506,0.129331,0.00479004,4.96951,1.21951,1.67683
102.198,2.6641,-21.2246,0,0.876577,9.69983,-0.771196,-6.34146,-4.11585,-9.08537,-38.9765,-0.780776,-7.21859,4.93902,1.18902,1.64634
102.214,2.64507,-22.3446,0,1.03465,9.62798,-0.787961,-6.46341,-5.27439,-9.02439,-39.4412,-16.9615,-46.6909,-49.0244,-61.25,4.87805
102.231,2.64653,-22.3325,0,1.12326,9.59924,-0.795146,-6.67683,-6.55488,-8.07927,-0.0718506,0.129331,0.00479004,4.96951,1.21951,1.67683
102.237,2.67872,-21.8463,0,1.2526,9.69504,-0.656235,-6.15854,-5.57927,-6.37195,-38.4113,-1.04902,-6.80665,4.96951,1.21951,1.67683
102.255,2.71743,-21.8341,0,1.2526,9.73815,-0.756826,-6.40244,-5.57927,-5.60976,-0.0718506,0.129331,0.00479004,4.96951,1.21951,1.67683
102.26,2.78344,-21.3526,0,1.37474,9.69025,-0.819097,-6.40244,-6.79878,-4.45122,-37.9227,-0.244292,-6.46176,4.93902,1.18902,1.64634
102.277,2.85592,-22.4676,0,1.3963,9.68306,-0.771196,-5.91463,-8.47561,-4.05488,-39.4412,-16.9615,-46.6909,-49.0244,-61.25,4.87805
102.294,2.94158,-22.4554,0,1.4418,9.64235,-0.735271,-5.54878,-11.0976,-3.5061,-0.0718506,0.129331,0.00479004,4.96951,1.21951,1.67683
102.3,3.17007,-21.9405,0,1.81063,9.3286,-0.900527,-4.63415,-18.1402,-1.61585,-39.1777,0.426313,-6.51924,4.96951,1.21951,1.67683
102.317,3.73204,-21.9283,0,2.12917,9.18969,-0.979563,-4.2378,-20.7317,-0.396341,-0.0718506,0.129331,0.00479004,4.96951,1.21951,1.67683
102.323,4.19128,-21.3922,0,3.60211,8.67716,-1.06339,-5.2439,-26.7073,8.44512,-39.4843,0.991538,-5.8199,4.93902,1.18902,1.64634
102.339,4.80865,-22.5056,0,4.30146,8.33706,-0.728086,-5.27439,-29.7256,15.8537,-39.4412,-16.9615,-46.6909,-49.0244,-61.25,4.87805
102.357,5.64207,-22.4934,0,5.1445,7.96584,-0.313748,-4.84756,-33.9024,27.8049,-0.0718506,0.129331,0.00479004,4.96951,1.21951,1.67683
102.362,6.77008,-21.935,0,6.11209,7.76705,-0.00718506,-3.71951,-31.2805,48.6585,-36.0355,0.0718506,-5.31215,4.96951,1.21951,1.67683
102.38,7.96017,-21.9228,0,6.29411,7.78621,0.0646655,-3.75,-27.5,55.7622,-0.0718506,0.129331,0.00479004,4.96951,1.21951,1.67683
102.385,9.29786,-21.3197,0,6.78509,8.52148,-0.213157,-2.04268,-9.11585,74.1159,-35.2595,0.493374,-4.1338,4.93902,1.18902,1.64634
102.402,10.6261,-22.4359,0,6.61025,9.21843,-0.502954,-2.59146,6.40244,81.7683,-39.4412,-16.9615,-46.6909,-49.0244,-61.25,4.87805
102.419,11.8678,-22.4237,0,5.76481,10.198,-0.878972,-2.86585,26.1585,88.2317,-0.0718506,0.129331,0.00479004,4.96951,1.21951,1.67683
102.425,12.9271,-21.8677,0,3.91107,11.944,-1.35079,0.27439,48.6585,95.3049,-39.4556,2.07409,-5.81032,4.96951,1.21951,1.67683
102.442,13.9299,-21.8555,0,3.62606,12.4781,-1.43941,1.25,53.5061,95.6402,-0.0718506,0.129331,0.00479004,4.96951,1.21951,1.67683
102.448,14.7956,-21.4314,0,2.5483,13.3187,-0.893342,3.78049,57.3476,94.6646,-40.701,2.40939,-8.01374,4.93902,1.18902,1.64634
102.464,15.5913,-22.5432,0,1.89686,12.866,0.0694556,4.05488,52.8963,94.2683,-39.4412,-16.9615,-46.6909,-49.0244,-61.25,4.87805
102.482,16.3584,-22.531,0,1.58311,12.1475,0.730481,3.20122,44.4512,94.939,-0.0718506,0.129331,0.00479004,4.96951,1.21951,1.67683
102.488,17.0692,-22.1053,0,1.4418,11.6063,0.299377,1.46341,46.128,91.4634,-45.0599,2.24653,-9.39327,4.96951,1.21951,1.67683
102.505,17.713,-22.0931,0,1.17356,11.3404,0.593965,4.26829,41.3415,88.4756,-0.0718506,0.129331,0.00479004,4.96951,1.21951,1.67683
102.511,18.2726,-21.2184,0,1.02267,11.1871,0.560435,3.41463,16.6159,82.5915,-43.7953,5.03194,0.00239502,4.93902,1.18902,1.64634
102.528,18.8047,-22.3386,0,1.18314,10.9668,0.0431104,1.25,6.98171,79.0244,-39.4412,-16.9615,-46.6909,-49.0244,-61.25,4.87805
102.545,19.3077,-22.3264,0,1.52084,10.6866,-0.196392,1.28049,-0.213415,73.1707,-0.0718506,0.129331,0.00479004,4.96951,1.21951,1.67683
102.551,19.7765,-21.7659,0,1.90883,10.2315,0.342488,3.41463,-8.96341,65.6707,-40.6339,2.19863,-5.82948,4.96951,1.21951,1.67683
102.568,20.2766,-21.7537,0,2.52435,10.4183,0.416733,0.97561,-2.83537,63.5976,-0.0718506,0.129331,0.00479004,4.96951,1.21951,1.67683
102.574,20.8813,-20.8923,0,3.72186,9.58726,0.402363,2.95732,15.0915,59.7866,-38.0473,1.92081,0.00239502,4.93902,1.18902,1.64634
102.59,21.5226,-22.0255,0,4.15296,9.35734,0.914897,1.89024,21.1585,59.2073,-39.4412,-16.9615,-46.6909,-49.0244,-61.25,4.87805
102.608,22.224,-22.0133,0,4.63197,8.8496,0.874182,0.609756,29.9695,59.1159,-0.0718506,0.129331,0.00479004,4.96951,1.21951,1.67683
102.613,22.9666,-21.3852,0,4.79962,8.47118,0.759221,-3.01829,34.4207,60.8537,-36.0738,3.04167,-3.88472,4.96951,1.21951,1.67683
102.631,23.6991,-21.373,0,4.67029,8.23887,0.687371,-3.23171,34.939,61.311,-0.0718506,0.129331,0.00479004,4.96951,1.21951,1.67683
102.636,24.3386,-20.5267,0,3.78892,7.89159,0.749641,-1.61585,32.439,61.2805,-36.8019,4.05716,0.00239502,4.93902,1.18902,1.64634
102.653,24.8841,-21.6744,0,3.25483,7.87482,0.855022,-2.95732,24.2988,59.5122,-39.4412,-16.9615,-46.6909,-49.0244,-61.25,4.87805
102.67,25.358,-21.6622,0,3.00335,7.68562,0.785566,-5.18293,13.2012,55.5793,-0.0718506,0.129331,0.00479004,4.96951,1.21951,1.67683
102.676,25.8136,-21.1162,0,3.34584,7.4533,0.814307,-7.7439,-1.40244,48.9024,-37.2617,2.45729,-5.14929,4.96951,1.21951,1.67683
102.693,26.2808,-21.104,0,3.58055,7.38864,0.713716,-8.20122,-5.82317,47.5915,-0.0718506,0.129331,0.00479004,4.96951,1.21951,1.67683
102.699,26.7874,-20.2684,0,4.10746,7.27846,0.608335,-7.40854,-13.9024,45.2439,-37.3,3.51828,0.00239502,4.93902,1.18902,1.64634
102.716,27.3187,-21.4263,0,4.48587,7.17787,-0.0239502,-2.9878,-14.7256,43.5671,-39.4412,-16.9615,-46.6909,-49.0244,-61.25,4.87805
102.733,27.8064,-21.4141,0,4.48587,7.18266,-0.225132,0.823171,-14.0549,40.2439,-0.0718506,0.129331,0.00479004,4.96951,1.21951,1.67683
102.739,28.1757,-21.0055,0,4.14099,7.1156,-0.00958008,2.31707,-14.2378,32.8049,-38.2389,2.72553,-7.49641,4.96951,1.21951,1.67683
102.756,28.4977,-20.9933,0,4.00926,7.03896,0.186812,3.14024,-15.6402,29.8171,-0.0718506,0.129331,0.00479004,4.96951,1.21951,1.67683
102.762,28.7601,-20.6025,0,4.33259,7.18266,-0.189207,-2.28659,-21.0976,21.4634,-38.0952,2.89797,-7.48683,4.93902,1.18902,1.64634
102.779,28.9888,-21.7472,0,4.39965,7.20901,-0.131726,-3.78049,-22.0122,17.9573,-39.4412,-16.9615,-46.6909,-49.0244,-61.25,4.87805
102.796,29.1811,-21.735,0,4.27511,6.8761,-0.146096,0.213415,-18.0793,13.75,-0.0718506,0.129331,0.00479004,4.96951,1.21951,1.67683
102.802,29.4004,-21.366,0,5.2882,7.13716,-0.304167,-6.25,-16.0061,7.31707,-37.894,1.89207,-8.33946,4.96951,1.21951,1.67683
102.82,29.5466,-21.3538,0,4.80201,7.10842,-0.344883,-6.18902,-19.0549,5.03049,-0.0718506,0.129331,0.00479004,4.96951,1.21951,1.67683
102.826,29.6447,-20.5083,0,5.23072,7.29044,-0.366438,0.701219,-8.35366,-3.78049,-38.3347,2.57944,0.00239502,4.93902,1.18902,1.64634
102.842,29.6581,-21.6567,0,4.96967,7.36947,-0.00479004,2.71341,-1.92073,-7.53049,-39.4412,-16.9615,-46.6909,-49.0244,-61.25,4.87805
102.859,29.6326,-21.6445,0,5.1924,7.38624,0.500559,-1.12805,-1.06707,-13.7195,-0.0718506,0.129331,0.00479004,4.96951,1.21951,1.67683
102.865,29.7241,-21.265,0,6.94316,7.4054,0.265847,-4.84756,12.7134,-18.2622,-38.0185,2.77343,-8.11912,4.96951,1.21951,1.67683
102.883,29.8017,-21.2528,0,7.01022,7.5491,0.320933,-5.36585,10.4268,-18.9329,-0.0718506,0.129331,0.00479004,4.96951,1.21951,1.67683
102.889,29.8813,-20.4113,0,6.81383,7.5012,0.543669,-0.457317,4.93902,-17.2866,-38.6987,3.19256,0.00239502,4.93902,1.18902,1.64634
102.905,29.9693,-21.5635,0,6.99106,7.72154,0.229922,2.28659,7.04268,-16.0671,-39.4412,-16.9615,-46.6909,-49.0244,-61.25,4.87805
102.922,29.9954,-21.5513,0,6.26537,7.6928,-0.0718506,4.54268,6.4939,-16.0976,-0.0718506,0.129331,0.00479004,4.96951,1.21951,1.67683
102.928,29.8652,-21.2154,0,4.9529,7.48444,-0.0622705,9.45122,2.92683,-20.4268,-41.4769,4.82357,-9.62319,4.96951,1.21951,1.67683
102.945,29.6978,-21.2032,0,4.72537,7.38624,-0.0263452,10.8537,0.945122,-22.6829,-0.0718506,0.129331,0.00479004,4.96951,1.21951,1.67683
102.951,29.4616,-20.3636,0,4.88344,7.18506,-0.0838257,14.4512,-5.12195,-33.2927,-41.7164,4.52659,0.00239502,4.93902,1.18902,1.64634
102.968,29.2182,-21.5178,0,5.30018,7.07728,0.184417,18.0488,-10.8841,-39.878,-39.4412,-16.9615,-46.6909,-49.0244,-61.25,4.87805
102.985,28.898,-21.5056,0,5.93246,7.73591,0.589175,21.128,-22.2561,-49.5427,-0.0718506,0.129331,0.00479004,4.96951,1.21951,1.67683
102.991,28.4165,-21.1552,0,5.87019,8.55262,-1.23104,19.5427,-41.8902,-60.4878,-44.5809,4.62239,-10.0064,4.96951,1.21951,1.67683
103.008,27.8205,-21.143,0,5.06068,8.97414,-1.48252,20.9146,-40.3049,-62.8659,-0.0718506,0.129331,0.00479004,4.96951,1.21951,1.67683
103.014,26.837,-20.892,0,2.60578,10.6578,-0.00718506,15.0915,-32.2256,-71.6159,-46.1041,2.41897,-12.1811,4.93902,1.18902,1.64634
103.03,25.9946,-22.0252,0,4.00447,10.6123,0.953218,6.34146,-43.9634,-73.3841,-39.4412,-16.9615,-46.6909,-49.0244,-61.25,4.87805
103.048,25.5623,-22.013,0,7.62814,9.89862,0.385598,-0.518293,-78.2012,-67.8354,-0.0718506,0.129331,0.00479004,4.96951,1.21951,1.67683
103.054,25.4171,-21.4867,0,11.7452,11.3955,-1.14721,8.90244,-73.2927,-56.25,-49.5817,-2.52435,-7.60179,4.96951,1.21951,1.67683
103.071,25.2471,-21.4745,0,11.9727,13.0768,-0.0455054,8.41463,-45.5183,-52.1646,-0.0718506,0.129331,0.00479004,4.96951,1.21951,1.67683
103.077,25.1718,-20.6242,0,9.96089,14.0372,1.06818,-5.85366,-1.15854,-28.3232,-47.3016,-6.924,0.00239502,4.93902,1.18902,1.64634
103.094,25.1416,-21.768,0,6.445,11.6637,0.390388,-11.25,0.27439,-10.7317,-39.4412,-16.9615,-46.6909,-49.0244,-61.25,4.87805
103.111,24.7476,-21.7558,0,1.32445,8.80649,0.0766406,-12.1951,5.70122,2.89634,-0.0718506,0.129331,0.00479004,4.96951,1.21951,1.67683
103.117,23.6591,-20.5977,0,-3.40093,7.39103,-0.00958008,-0.365854,-9.60366,-10.0915,-39.7142,3.32908,5.22593,4.96951,1.21951,1.67683
103.134,22.3988,-20.5855,0,-4.24397,7.60898,-0.0670605,1.89024,-27.6524,-20.8232,-0.0718506,0.129331,0.00479004,4.96951,1.21951,1.67683
103.14,20.8948,-19.2297,0,-3.80569,7.92272,-2.30401,-1.52439,-83.1098,-55.3963,-41.2183,9.34537,10.016,4.93902,1.18902,1.64634
103.156,19.5981,-20.4287,0,-1.44659,8.09277,-4.18649,3.20122,-91.0976,-68.9939,-39.4412,-16.9615,-46.6909,-49.0244,-61.25,4.87805
103.174,18.5936,-20.4165,0,1.10171,9.8124,-4.45953,11.2805,-64.6341,-75.5793,-0.0718506,0.129331,0.00479004,4.96951,1.21951,1.67683
103.18,17.8973,-19.2258,0,3.43925,11.1728,-2.86205,9.87805,-25.3354,-68.0183,-40.107,3.45362,6.82581,4.96951,1.21951,1.67683
103.197,17.28,-19.2136,0,3.61408,11.0458,-2.28485,7.80488,-13.1402,-63.4451,-0.0718506,0.129331,0.00479004,4.96951,1.21951,1.67683
103.203,16.7059,-18.1719,0,2.6465,9.87467,-0.962798,2.34756,14.939,-53.9329,-39.4076,-3.74102,4.90739,4.93902,1.18902,1.64634
103.219,16.0401,-19.4128,0,1.61185,9.46751,-0.958008,1.25,23.75,-53.5671,-39.4412,-16.9615,-46.6909,-49.0244,-61.25,4.87805
103.237,15.2169,-19.4006,0,0.275427,9.30226,-0.749641,-0.457317,22.4085,-54.7256,-0.0718506,0.129331,0.00479004,4.96951,1.21951,1.67683
103.243,14.3133,-18.5548,0,-0.268242,9.29986,-0.862207,2.10366,9.84756,-57.7744,-36.7252,-6.60546,1.25978,4.96951,1.21951,1.67683
103.26,13.3742,-18.5426,0,-0.55325,9.38369,-0.948428,3.07927,5.30488,-59.7256,-0.0718506,0.129331,0.00479004,4.96951,1.21951,1.67683
103.266,12.356,-17.8084,0,-1.06818,9.71899,-1.13045,4.20732,-13.1098,-63.811,-36.1792,-4.4715,0.00239502,4.93902,1.18902,1.64634
103.283,11.3364,-19.0637,0,-1.12805,10.0806,-1.14721,4.42073,-23.1098,-65.7927,-39.4412,-16.9615,-46.6909,-49.0244,-61.25,4.87805
103.3,10.3394,-19.0515,0,-1.08494,10.2603,-0.835862,4.48171,-36.4329,-66.2805,-0.0718506,0.129331,0.00479004,4.96951,1.21951,1.67683
103.306,9.47981,-18.3436,0,-0.160466,10.289,-1.0562,1.67683,-47.4695,-64.7866,-38.2101,-3.13748,-0.780776,4.96951,1.21951,1.67683
103.323,8.6959,-18.3314,0,0.435894,10.0711,-1.04662,1.21951,-48.2927,-65.7012,-0.0718506,0.129331,0.00479004,4.96951,1.21951,1.67683
103.329,7.92741,-17.6304,0,0.5772,9.61361,-1.23583,-0.0609756,-54.878,-67.6829,-37.5204,-1.26936,-0.407153,504.451,1.18902,1.64634
103.345,7.13537,-18.8927,0,0.318538,9.48667,-1.33642,-1.12805,-62.6829,-68.5671,-39.4412,-16.9615,-46.6909,-49.0244,-61.25,4.87805
103.362,6.40621,-18.8805,0,0.816702,9.43398,-1.58311,-2.40854,-64.8171,-69.939,-0.0718506,0.129331,0.00479004,4.96951,1.21951,1.67683
103.368,5.84152,-18.2213,0,1.98787,9.34537,-1.99505,-2.31707,-50.7927,-69.0549,-37.051,-0.263452,-1.4418,4.96951,1.21951,1.67683
103.386,5.32365,-18.2091,0,2.19863,9.40524,-2.04774,-3.62805,-45.8841,-67.7744,-0.0718506,0.129331,0.00479004,4.96951,1.21951,1.67683
103.392,4.90352,-17.6036,0,2.52914,9.13221,-2.17228,-4.02439,-26.8293,-63.5976,-36.1121,-1.4897,-1.83698,4.93902,1.18902,1.64634
103.408,4.48785,-18.867,0,2.30161,9.03162,-2.14833,-2.77439,-13.5366,-61.5854,-39.4412,-16.9615,-46.6909,-49.0244,-61.25,4.87805
103.426,4.10022,-18.8548,0,2.3064,9.06036,-1.98787,-2.46951,-0.426829,-59.5427,-0.0718506,0.129331,0.00479004,4.96951,1.21951,1.67683
103.433,3.71591,-18.3535,0,1.87291,9.05557,-1.57592,-1.82927,10.7622,-54.6951,-34.3206,-4.44995,-3.72186,4.96951,1.21951,1.76829
103.448,3.33704,-19.5872,0,1.65017,9.07712,-1.62143,-0.914634,12.5915,-52.1037,-39.4412,-16.9615,-46.6909,-49.0244,-61.25,4.87805
103.454,2.94301,-19.5753,0,1.24302,8.74422,-1.62143,2.0122,13.1402,-49.9085,-0.0742456,0.126936,0.00239502,4.93902,1.18902,1.64634
103.468,2.54756,-20.7607,0,1.07057,8.55501,-1.65256,4.02439,12.3171,-48.9024,-39.4412,-16.9615,-46.6909,-49.0244,-61.25,4.87805
103.486,2.14817,-20.7485,0,0.881367,8.05924,-1.80824,7.43902,7.59146,-48.2927,-0.0718506,0.129331,0.00479004,4.96951,1.21951,1.67683
103.492,1.77523,-20.2511,0,1.02746,7.3096,-2.27766,12.439,5.2439,-50,-31.8777,0.368833,-4.58407,4.96951,1.21951,1.67683
103.509,1.42801,-20.2389,0,1.24541,7.56587,-2.19863,13.7195,4.78659,-50.8841,-0.0718506,0.129331,0.00479004,4.96951,1.21951,1.67683
103.515,1.1516,-19.6362,0,2.40939,10.4207,-1.22864,12.2561,6.52439,-51.8598,-33.8129,3.57816,-2.96503,4.93902,1.18902,1.64634
103.531,0.897845,-20.8191,0,2.35191,11.7164,-0.570015,6.82927,12.1646,-46.7073,-39.4412,-16.9615,-46.6909,-49.0244,-61.25,4.87805
103.548,0.598345,-20.8069,0,1.16637,10.6674,-0.495769,2.71341,18.5976,-41.4634,-0.0718506,0.129331,0.00479004,4.96951,1.21951,1.67683
103.554,0.136538,-20.5024,0,-0.0479004,9.3789,-0.632285,2.13415,13.689,-45.3049,-36.6677,-0.646655,-8.54064,4.96951,1.21951,1.67683
103.571,-0.370363,-20.4902,0,-0.268242,9.2304,-0.773591,2.07317,9.26829,-48.0488,-0.0718506,0.129331,0.00479004,4.96951,1.21951,1.67683
103.577,-0.904743,-20.1795,0,-0.107776,9.32381,-1.34121,2.16463,-5.82317,-53.9329,-38.1718,-1.5855,-8.5598,4.93902,1.18902,1.64634
103.594,-1.45204,-21.341,0,-0.0862207,9.10347,-1.6837,1.55488,-10.7927,-56.5854,-39.4412,-16.9615,-46.6909,-49.0244,-61.25,4.87805
103.611,-1.92713,-21.3288,0,0.435894,9.09389,-1.87291,0.762195,-11.1585,-57.0427,-0.0718506,0.129331,0.00479004,4.96951,1.21951,1.67683
103.617,-2.15897,-20.7606,0,2.04295,10.5141,-2.09325,1.28049,-6.61585,-50.0305,-42.9523,-1.825,-5.25467,4.96951,1.21951,1.67683
103.634,-2.40354,-20.7484,0,1.83938,10.1597,-2.10522,0.304878,-8.93293,-50.3049,-0.0718506,0.129331,0.00479004,4.96951,1.21951,1.67683
103.64,-2.45545,-20.3541,0,2.43813,11.3237,-2.19384,2.28659,1.7378,-35,-42.9714,-0.838257,-8.18618,4.93902,1.18902,1.64634
103.656,-2.5517,-21.5086,0,1.4921,10.6171,-1.7771,0.97561,-3.04878,-31.1585,-39.4412,-16.9615,-46.6909,-49.0244,-61.25,4.87805
103.674,-2.62919,-21.4964,0,1.42264,10.8327,-1.64777,0.27439,-3.75,-28.3841,-0.0718506,0.129331,0.00479004,4.96951,1.21951,1.67683
103.68,-2.67351,-21.369,0,1.48012,11.7979,-1.35558,-3.5061,-10.2744,-24.4817,-42.0518,-3.47278,-13.8863,4.96951,1.21951,1.67683
103.696,-2.67797,-22.4833,0,1.78189,11.8985,-1.29092,-5.70122,-16.128,-23.2927,-39.4412,-16.9615,-46.6909,-49.0244,-61.25,4.87805
103.714,-2.61575,-22.4711,0,2.4022,11.726,-0.898132,-9.60366,-27.3171,-22.7439,-0.0718506,0.129331,0.00479004,4.96951,1.21951,1.67683
103.719,-2.34527,-21.8252,0,4.00447,11.0075,-0.570015,-16.4329,-36.3415,-18.5366,-47.7615,-0.502954,-5.14929,4.96951,1.21951,1.67683
103.737,-1.9803,-21.813,0,4.65352,10.9476,-0.675395,-17.8354,-34.6646,-14.5427,-0.0718506,0.129331,0.00479004,4.96951,1.21951,1.67683
103.742,-1.21791,-20.8053,0,6.81623,10.4998,-0.926873,-21.6463,-23.0183,0.426829,-56.6997,5.83906,3.6069,4.93902,1.18902,1.64634
103.759,-0.350322,-21.9419,0,7.66406,10.6626,-1.08015,-23.3537,-13.4756,13.1707,-39.4412,-16.9615,-46.6909,-49.0244,-61.25,4.87805
103.776,0.727692,-21.9297,0,8.25563,10.7393,-1.11368,-26.0061,-3.90244,32.6524,-0.0718506,0.129331,0.00479004,4.96951,1.21951,1.67683
103.782,2.15692,-21.0011,0,8.98372,10.6291,-0.833467,-38.2927,6.85976,65.2744,-43.3067,10.2842,1.1544,4.96951,1.21951,1.67683
103.8,3.71872,-20.9889,0,8.83044,9.57768,-0.65384,-38.2927,19.1768,76.6768,-0.0718506,0.129331,0.00479004,4.96951,1.21951,1.67683
103.806,5.36718,-20.1578,0,6.4929,9.30705,0.59157,-45.4573,45.3963,104.573,-37.3479,0.126936,0.00239502,4.93902,1.18902,1.64634
103.822,6.98215,-21.3201,0,4.96727,9.76689,-0.325723,-38.689,52.8049,120.732,-39.4412,-16.9615,-46.6909,-49.0244,-61.25,4.87805
103.84,8.46111,-21.3079,0,2.41897,10.8494,-2.66326,-25.6402,65.7622,139.512,-0.0718506,0.129331,0.00479004,4.96951,1.21951,1.67683
103.845,9.69548,-20.2306,0,-1.27894,12.9259,-2.32556,-18.5366,55.0915,154.756,-37.5779,-9.90101,3.88472,4.96951,1.21951,1.67683
103.863,10.8732,-20.2184,0,-1.78429,13.7091,-1.7316,-18.4451,44.0244,155.091,-0.0718506,0.129331,0.00479004,4.96951,1.21951,1.67683
103.868,12.0063,-19.1668,0,-1.00112,14.8324,-1.96392,-19.1463,19.2073,145.701,-37.9419,-5.71452,4.21763,4.93902,1.18902,1.64634
103.885,13.0976,-20.3683,0,-0.227527,14.521,-1.53521,-12.1646,14.4207,137.683,-39.4412,-16.9615,-46.6909,-49.0244,-61.25,4.87805
103.902,14.217,-20.3561,0,0.814307,14.7581,-0.285007,-6.79878,0.548781,134.512,-0.0718506,0.129331,0.00479004,4.96951,1.21951,1.67683
103.908,15.4183,-19.3732,0,1.13284,13.9606,-1.27894,-6.46341,4.39024,142.134,-43.9103,2.89797,3.43446,4.96951,1.21951,1.67683
103.926,16.6685,-19.361,0,1.67651,13.5414,-1.89446,-3.87195,14.2988,144.634,-0.0718506,0.129331,0.00479004,4.96951,1.21951,1.67683
103.932,17.9489,-18.5944,0,1.83458,13.5822,-1.9735,0.365854,39.7866,148.963,-41.0458,0.126936,0.00239502,4.93902,1.18902,1.64634
103.948,19.1941,-19.8186,0,1.76992,13.5223,-2.36867,-1.18902,57.1341,148.476,-39.4412,-16.9615,-46.6909,-49.0244,-61.25,4.87805
103.965,20.1834,-19.8064,0,-0.989143,12.8373,-2.36867,0.457317,66.0976,149.116,-0.0718506,0.129331,0.00479004,4.96951,1.21951,1.67683
103.971,21.1677,-19.0596,0,-0.809517,11.5392,-1.66933,2.40854,62.9878,149.817,-35.2307,1.46096,-0.579595,4.96951,1.21951,1.67683
103.988,22.0774,-19.0474,0,-1.12805,11.0147,-1.51365,3.62805,70.5488,147.957,-0.0718506,0.129331,0.00479004,4.96951,1.21951,1.67683
103.994,22.6568,-18.3585,0,-2.90037,10.4327,-0.838257,3.14024,62.3476,135.884,-34.6272,0.981958,-0.993933,4.93902,1.18902,1.64634
104.01,23.1767,-19.592,0,-2.35909,9.45075,-0.706531,3.23171,46.25,127.896,-39.4412,-16.9615,-46.6909,-49.0244,-61.25,4.87805
104.028,23.6736,-19.5798,0,-1.46575,8.46639,-1.27894,9.05488,23.689,118.049,-0.0718506,0.129331,0.00479004,4.96951,1.21951,1.67683
104.034,24.142,-18.8612,0,-0.699346,7.71915,-1.68849,7.16463,7.13415,106.677,-34.4164,0.0143701,-0.857417,4.96951,1.21951,1.67683
104.051,24.5401,-18.849,0,-0.809517,7.53234,-1.59987,8.44512,1.64634,102.409,-0.0718506,0.129331,0.00479004,4.96951,1.21951,1.67683
104.057,24.6852,-18.2461,0,-1.09931,7.15632,-1.2023,15,-12.3171,82.7134,-33.8512,1.60466,-2.14115,4.93902,1.18902,1.64634
104.073,24.6301,-19.4841,0,-1.47294,7.08447,-0.864602,19.0549,-11.7988,68.7195,-39.4412,-16.9615,-46.6909,-49.0244,-61.25,4.87805
104.09,24.4384,-19.4719,0,-1.26697,6.94795,-0.756826,20.2439,-6.25,51.7988,-0.0718506,0.129331,0.00479004,4.96951,1.21951,1.67683
104.096,23.9911,-18.8202,0,-1.74836,6.87371,0.443079,16.189,-1.64634,33.3537,-34.1769,3.80808,-1.79626,4.96951,1.21951,1.67683
104.113,23.5628,-18.808,0,-1.24062,6.23184,0.452659,16.2805,6.12805,28.2317,-0.0718506,0.129331,0.00479004,4.96951,1.21951,1.67683
104.119,23.3791,-18.0633,0,0.617915,6.03066,1.26936,13.689,35.9451,17.4085,-33.947,2.57944,0.00239502,4.93902,1.18902,1.64634
104.136,23.1732,-19.3085,0,0.874182,6.1073,1.47294,11.372,46.7378,10.1524,-39.4412,-16.9615,-46.6909,-49.0244,-61.25,4.87805
104.153,15.3416,-19.2963,0,1.03465,6.48571,0.955613,6.70732,48.4756,0.579268,-0.0718506,0.129331,0.00479004,4.96951,1.21951,1.67683
104.159,15.1564,-18.8742,0,1.62861,7.08686,0.325723,-0.27439,48.6585,-13.9939,-33.6692,-0.158071,-5.11097,4.96951,1.21951,1.67683
104.176,14.9612,-18.862,0,1.94476,7.4533,0.452659,-4.69512,52.1646,-18.8415,-0.0718506,0.129331,0.00479004,4.96951,1.21951,1.67683
104.183,14.7311,-18.4347,0,2.50759,7.67843,0.397573,-15.9756,52.8354,-29.8476,-34.5985,-0.790356,-4.90261,4.93902,1.18902,1.64634
104.199,14.4802,-19.6652,0,2.57225,7.47965,0.225132,-19.0244,36.9207,-34.2683,-39.4412,-16.9615,-46.6909,-49.0244,-61.25,4.87805
104.216,14.1942,-19.653,0,2.72553,7.48204,0.0574805,-13.9024,8.81098,-40.4878,-0.0718506,0.129331,0.00479004,4.96951,1.21951,1.67683
104.222,13.8882,-19.3125,0,3.74821,8.16223,0.227527,-6.21951,-43.1098,-52.5915,-38.8328,1.71962,-7.58263,4.96951,1.21951,1.67683
104.239,13.6229,-19.3003,0,4.27511,8.26521,0.258662,-4.54268,-58.3841,-54.5427,-0.0718506,0.129331,0.00479004,4.96951,1.21951,1.67683
104.245,13.5728,-18.9295,0,6.86413,8.9454,0.701741,-5.88415,-87.7134,-53.8415,-42.0134,0.522114,-7.3551,4.93902,1.18902,1.64634
104.261,13.6626,-20.1404,0,8.93103,9.47949,0.555645,-7.34756,-88.4146,-51.4939,-39.4412,-16.9615,-46.6909,-49.0244,-61.25,4.87805
104.279,13.9347,-20.1282,0,11.6422,10.2148,-0.63947,-6.0061,-92.5305,-43.811,-0.0718506,0.129331,0.00479004,4.96951,1.21951,1.67683
104.285,14.7464,-19.9629,0,14.3102,9.6639,-3.73623,22.3171,-90.4878,-2.95732,-42.8948,-3.2716,-12.2577,4.96951,1.21951,1.67683
104.302,15.6642,-19.9507,0,13.4289,9.83156,-4.0404,32.9268,-83.6281,13.9634,-0.0718506,0.129331,0.00479004,4.96951,1.21951,1.67683
104.308,16.5942,-19.8857,0,8.5598,9.46751,-2.23695,47.9878,-65.7012,40.9146,-44.4755,-4.55533,-14.7126,4.93902,1.18902,1.64634
104.325,17.38,-21.0588,0,6.58391,8.13828,-1.65975,54.0244,-58.6585,34.5122,-39.4412,-16.9615,-46.6909,-49.0244,-61.25,4.87805
104.342,17.7487,-21.0466,0,4.59844,7.41977,-1.56634,52.0732,-55.6707,8.17073,-0.0718506,0.129331,0.00479004,4.96951,1.21951,1.67683
104.348,17.3481,-20.8537,0,2.71116,8.07361,-2.68003,36.372,-48.2317,-42.5305,-48.2213,3.29076,-13.9821,4.96951,1.21951,1.67683
104.365,16.6445,-20.8415,0,1.69567,8.52148,-2.53393,28.2317,-35.3659,-59.3598,-0.0718506,0.129331,0.00479004,4.96951,1.21951,1.67683
104.371,15.4478,-20.0163,0,1.88009,12.2146,-0.0502954,-6.95122,8.84146,-106.006,-55.7321,3.42248,0.00239502,4.93902,1.18902,1.64634
104.387,14.3924,-21.1842,0,6.0594,15.946,2.46448,-37.622,38.1402,-118.628,-39.4412,-16.9615,-46.6909,-49.0244,-61.25,4.87805
104.405,13.892,-21.172,0,12.3391,17.8429,2.67763,-53.689,66.0671,-92.439,-0.0718506,0.129331,0.00479004,4.96951,1.21951,1.67683
104.411,14.6023,-20.1609,0,12.7846,13.1774,-3.19017,-8.71951,115.793,10.7622,-46.9663,-4.82357,3.58774,4.96951,1.21951,1.67683
104.428,15.4138,-20.1487,0,8.51669,10.8494,-3.99729,5.36585,127.012,34.7866,-0.0718506,0.129331,0.00479004,4.96951,1.21951,1.67683
104.434,14.6739,-19.3509,0,-6.09293,6.57433,-1.05141,34.6646,127.043,43.3537,-35.1541,1.12326,0.00239502,4.93902,1.18902,1.64634
104.451,13.2677,-20.5451,0,-12.6026,6.31806,2.71116,35.2744,70.2134,15.7927,-39.4412,-16.9615,-46.6909,-49.0244,-61.25,4.87805
104.468,11.3539,-20.5329,0,-15.5125,7.58503,4.39965,17.7744,-55.9756,-37.7134,-0.0718506,0.129331,0.00479004,4.96951,1.21951,1.67683
104.474,9.24167,-19.3527,0,-8.49753,7.84848,-2.60818,-18.9329,-145.793,-95.8841,-38.3922,6.0115,6.27016,4.96951,1.21951,1.67683
104.491,7.37293,-19.3405,0,-5.13732,8.28916,-5.13253,-12.8354,-145.579,-106.951,-0.0718506,0.129331,0.00479004,4.96951,1.21951,1.67683
104.497,6.26273,-18.5747,0,1.79866,13.1654,-4.69663,10.5183,-102.348,-114.116,-45.6155,3.82724,0.00239502,4.93902,1.18902,1.64634
104.513,5.48596,-19.7997,0,4.20086,14.4875,-2.18905,6.12805,-76.3415,-99.4817,-39.4412,-16.9615,-46.6909,-49.0244,-61.25,4.87805
104.53,5.04069,-19.7875,0,5.10139,12.5954,-1.11368,-1.7378,-48.3232,-79.2378,-0.0718506,0.129331,0.00479004,4.96951,1.21951,1.67683
104.536,4.62799,-19.0406,0,3.04646,9.62079,-1.74836,-0.914634,-18.1402,-67.6829,-41.4482,-4.83315,-0.665815,4.96951,1.21951,1.67683
104.553,4.06379,-19.0284,0,1.55197,9.32621,-1.61424,0.27439,-15.3659,-67.4085,-0.0718506,0.129331,0.00479004,4.96951,1.21951,1.67683
104.559,3.14489,-18.4111,0,-0.833467,9.01725,-1.38432,-1.85976,-29.4207,-74.6951,-36.3324,-5.24509,-2.17947,-994.085,1.18902,1.64634
104.576,2.21577,-19.6425,0,-0.438289,9.12023,-1.73399,-2.92683,-40.8841,-82.7744,-39.4412,-16.9615,-46.6909,-49.0244,-61.25,4.87805
104.593,1.47098,-19.6303,0,1.29092,8.94779,-2.20102,-3.53659,-47.3171,-88.2317,-0.0718506,0.129331,0.00479004,4.96951,1.21951,1.67683
104.599,0.892549,-18.8107,0,2.17228,9.16574,-2.33035,1.25,-48.8415,-83.2317,-35.5469,-2.08367,0.665815,4.96951,1.21951,1.67683
104.617,0.334402,-18.7985,0,2.08606,9.30705,-2.18905,1.12805,-46.25,-80.9146,-0.0718506,0.129331,0.00479004,4.96951,1.21951,1.67683
104.623,-0.159724,-18.0232,0,2.12917,9.5705,-1.98308,-0.792683,-31.189,-75.3354,-35.9876,-0.560435,0.493374,4.93902,1.18902,1.64634
104.639,-0.641532,-19.27,0,2.00942,9.4723,-2.07888,-4.14634,-23.1402,-73.9329,-39.4412,-16.9615,-46.6909,-49.0244,-61.25,4.87805
104.656,-1.09946,-19.2578,0,1.98308,9.10586,-2.08846,-4.63415,-11.7683,-73.1098,-0.0718506,0.129331,0.00479004,4.96951,1.21951,1.67683
104.662,-1.69772,-18.6282,0,0.809517,9.05317,-1.74836,-3.9939,1.79878,-73.7195,-35.087,-0.311353,-2.05493,4.96951,1.21951,1.67683
104.679,-2.31886,-18.616,0,0.471819,9.11065,-1.65735,-4.05488,2.53049,-72.8963,-0.0718506,0.129331,0.00479004,4.96951,1.21951,1.67683
104.685,-2.93672,-18.1057,0,0.191602,8.86876,-1.71962,-3.53659,2.22561,-70.3049,-33.4967,-1.3939,-3.35782,4.93902,1.18902,1.64634
104.702,-3.53345,-19.3492,0,0.229922,8.7993,-1.87051,-3.41463,0.792683,-69.939,-39.4412,-16.9615,-46.6909,-49.0244,-61.25,4.87805
104.719,-4.08593,-19.337,0,0.579595,8.83044,-1.94955,-2.5,-5.60976,-71.25,-0.0718506,0.129331,0.00479004,4.96951,1.21951,1.67683
104.725,-4.51201,-18.9893,0,1.48491,8.99569,-1.40827,-1.03659,-4.02439,-70.9451,-31.5616,-2.30401,-5.87738,4.96951,1.21951,1.67683
104.742,-4.8607,-18.9771,0,1.88249,8.94061,-1.23823,-0.97561,-3.53659,-69.0549,-0.0718506,0.129331,0.00479004,4.96951,1.21951,1.67683
104.748,-5.07329,-18.6326,0,2.23216,8.84481,-1.34361,2.2561,-2.40854,-60.5183,-31.5807,-2.24653,-5.7241,4.93902,1.18902,1.64634
104.764,-5.28354,-19.8553,0,1.9711,8.90229,-1.41306,2.80488,1.79878,-57.2866,-39.4412,-16.9615,-46.6909,-49.0244,-61.25,4.87805
104.782,-5.49934,-19.8431,0,1.76992,9.1346,-1.3005,2.19512,6.28049,-55.1829,-0.0718506,0.129331,0.00479004,4.96951,1.21951,1.67683
104.787,-5.7592,-19.5037,0,1.36516,9.26394,-1.25739,0.853659,12.2561,-54.8476,-33.4488,-1.28852,-6.66294,4.96951,1.21951,1.67683
104.805,-6.03448,-19.4915,0,1.22386,9.38848,-1.07297,0.243902,12.0427,-55,-0.0718506,0.129331,0.00479004,4.96951,1.21951,1.67683
104.811,-6.36609,-19.2309,0,0.862207,9.41722,-0.840652,-0.518293,11.3415,-56.8293,-34.4739,-0.186812,-7.89877,4.93902,1.18902,1.64634
104.827,-6.71849,-20.4299,0,0.608335,9.77407,-0.852627,-0.182927,8.84146,-56.2195,-39.4412,-16.9615,-46.6909,-49.0244,-61.25,4.87805
104.844,-7.10488,-20.4177,0,0.318538,9.68785,-0.869392,-0.579268,2.07317,-56.9817,-0.0718506,0.129331,0.00479004,4.96951,1.21951,1.67683
104.85,-7.56714,-19.9763,0,0.215552,9.58487,-1.18793,-2.04268,-10.122,-64.2988,-39.3119,-0.646655,-6.41386,4.96951,1.21951,1.67683
104.868,-8.00393,-19.9641,0,0.450264,9.50344,-1.50886,-3.68902,-7.16463,-65.5488,-0.0718506,0.129331,0.00479004,4.96951,1.21951,1.67683
104.873,-8.28475,-19.469,0,1.31247,10.004,-2.10762,-3.5061,-7.10366,-60.2439,-40.8926,1.31726,-5.35047,4.93902,1.18902,1.64634
104.89,-8.49557,-20.6585,0,1.54958,10.0136,-2.2106,-4.08537,-4.26829,-56.372,-39.4412,-16.9615,-46.6909,-49.0244,-61.25,4.87805
104.908,-8.62065,-20.6463,0,2.019,9.99202,-2.36388,-3.5061,3.44512,-53.4146,-0.0718506,0.129331,0.00479004,4.96951,1.21951,1.67683
104.914,-8.66529,-20.4137,0,2.692,11.1249,-2.01182,-2.89634,17.1646,-49.9085,-41.4578,2.97461,-10.9261,4.96951,1.21951,5.54878
104.93,-8.5733,-21.5658,0,2.96743,11.1823,-1.92799,-4.42073,15.7012,-38.628,-39.4412,-16.9615,-46.6909,-49.0244,-61.25,4.87805
104.948,-8.5023,-21.5536,0,2.23934,10.6243,-1.47773,-4.69512,8.35366,-34.5427,-0.0718506,0.129331,0.00479004,4.96951,1.21951,1.67683
104.954,-8.39669,-21.6144,0,2.37346,10.9404,-0.802332,-8.44512,-12.2256,-31.5549,-42.2721,-4.72777,-18.0153,4.96951,1.21951,1.67683
104.971,-8.20079,-22.719,0,3.06562,11.0315,-0.682581,-12.2866,-22.0122,-28.8415,-39.4412,-16.9615,-46.6909,-49.0244,-61.25,4.87805
104.988,-7.88265,-22.7068,0,3.78653,11.0434,-0.548459,-17.5,-31.4329,-22.8963,-0.0718506,0.129331,0.00479004,4.96951,1.21951,1.67683
104.994,-7.3106,-21.6844,0,5.35047,11.2781,-0.416733,-24.5732,-37.4085,-9.5122,-55.4926,0.560435,3.02251,4.96951,1.21951,1.67683
105.011,-6.64111,-21.6722,0,6.07137,11.5751,-0.287402,-26.7683,-40.2744,-3.29268,-0.0718506,0.129331,0.00479004,4.96951,1.21951,1.67683
105.017,-5.59006,-20.6398,0,7.86764,11.9488,-0.385598,-35.7622,-41.4939,25.6098,-61.6334,14.7006,4.74693,4.93902,1.18902,1.64634
105.033,-4.29808,-21.783,0,8.14786,11.3811,0.711321,-42.9878,-38.0488,47.7744,-39.4412,-16.9615,-46.6909,-49.0244,-61.25,4.87805
105.05,-2.74944,-21.7708,0,8.01613,11.0291,0.598755,-62.2561,-25.7012,75.7622,-0.0718506,0.129331,0.00479004,4.96951,1.21951,1.67683
105.056,-1.03952,-20.5289,0,5.384,10.0016,0.316143,-61.25,8.2622,111.128,-39.4651,-0.0526904,6.67252,4.96951,1.21951,1.67683
105.073,0.693296,-20.5167,0,4.79962,9.86269,-0.385598,-56.8293,13.1402,121.738,-0.0718506,0.129331,0.00479004,4.96951,1.21951,1.67683
105.079,2.27438,-19.3118,0,1.12805,10.7177,-2.27287,-36.7378,28.6585,150.488,-40.3082,-5.29299,7.04615,4.93902,1.18902,1.64634
105.095,3.67339,-20.5076,0,-1.13045,11.8314,-3.08239,-28.0793,32.4695,158.537,-39.4412,-16.9615,-46.6909,-49.0244,-61.25,4.87805
105.113,4.90169,-20.4954,0,-2.75427,13.9414,-2.62255,-19.6646,17.5305,155.64,-0.0718506,0.129331,0.00479004,4.96951,1.21951,1.67683
105.119,6.05719,-19.6474,0,-0.783171,15.4311,-2.61297,-15.3049,0.243902,133.841,-40.1453,-5.71452,0.646655,4.96951,1.21951,1.67683
105.136,7.19791,-19.6353,0,0.246687,15.4167,-1.96392,-14.3598,-6.21951,126.89,-0.0718506,0.129331,0.00479004,4.96951,1.21951,1.67683
105.142,8.46943,-18.777,0,2.13636,14.2552,-0.61073,-4.2378,-9.17683,127.043,-40.6818,-2.86923,1.45138,4.93902,1.18902,1.64634
105.158,9.69746,-19.994,0,1.00351,13.4768,-0.423918,2.04268,3.9939,133.902,-39.4412,-16.9615,-46.6909,-49.0244,-61.25,4.87805
105.175,10.8621,-19.9818,0,-0.138911,13.0433,-0.273032,9.35976,15.3049,139.878,-0.0718506,0.129331,0.00479004,4.96951,1.21951,1.67683
105.181,11.9023,-19.1023,0,-1.47773,12.3056,-0.215552,12.8049,15.0305,142.287,-36.9743,2.54351,1.4418,4.96951,1.21951,1.67683
105.198,12.9373,-19.0901,0,-1.28613,11.8625,-0.378413,13.2317,15.2744,142.53,-0.0718506,0.129331,0.00479004,4.96951,1.21951,1.67683
105.204,13.9958,-18.2941,0,-0.807122,10.4255,-0.65384,16.8598,26.5549,143.445,-34.6464,5.82948,0.61552,4.93902,1.18902,1.64634
105.221,14.9391,-19.5301,0,-1.51126,9.98963,-0.651445,18.4756,31.8902,142.378,-39.4412,-16.9615,-46.6909,-49.0244,-61.25,4.87805
105.238,15.8475,-19.5179,0,-1.01309,9.60882,-0.996328,20.5183,36.4939,135.457,-0.0718506,0.129331,0.00479004,4.96951,1.21951,1.67683
105.244,16.6703,-18.696,0,-0.56283,9.62319,-1.04183,25.4268,49.0854,123.14,-33.765,5.64746,0.732876,4.96951,1.21951,1.67683
105.261,17.4593,-18.6838,0,-0.280217,9.63995,-1.16158,27.2256,54.4512,117.927,-0.0718506,0.129331,0.00479004,4.96951,1.21951,1.67683
105.267,18.1369,-17.944,0,0.191602,9.33818,-1.48012,32.1951,72.3781,102.378,-34.5601,3.2692,0.00239502,4.93902,1.18902,1.64634
105.283,18.7136,-19.194,0,0.172441,9.03401,-2.05493,36.9207,71.0366,93.6281,-39.4412,-16.9615,-46.6909,-49.0244,-61.25,4.87805
105.3,19.2238,-19.1818,0,0.234712,9.06754,-1.69567,27.8049,65.2134,87.2256,-0.0718506,0.129331,0.00479004,4.96951,1.21951,1.67683
105.306,19.4975,-18.5681,0,-1.03225,8.54303,-1.346,18.5061,53.0793,81.2195,-35.5277,-0.301772,-2.28485,4.96951,1.21951,1.67683
105.324,19.6578,-18.5559,0,-1.54958,8.40412,-1.46336,17.8659,48.6585,77.4695,-0.0718506,0.129331,0.00479004,4.96951,1.21951,1.67683
105.33,19.5119,-17.8212,0,-2.63452,8.13349,-1.08734,15.9146,38.9939,61.8598,-34.1673,9.93694,0.00239502,4.93902,1.18902,1.64634
105.346,19.307,-19.076,0,-2.37825,7.75028,-0.699346,12.9573,40.7012,53.7195,-39.4412,-16.9615,-46.6909,-49.0244,-61.25,4.87805
105.363,19.0947,-19.0638,0,-1.66933,7.18985,-0.102986,10.9451,50.122,44.4207,-0.0718506,0.129331,0.00479004,4.96951,1.21951,1.67683
105.369,18.8748,-18.6455,0,-0.773591,6.92161,0.632285,11.128,62.1951,29.5427,-33.8991,0.713716,-5.06307,4.96951,1.21951,1.67683
105.386,18.6609,-18.6333,0,-0.459844,6.9743,0.65384,11.311,60.8232,24.3902,-0.0718506,0.129331,0.00479004,4.96951,1.21951,1.67683
105.392,18.519,-18.2236,0,0.795146,7.29044,0.565225,10,56.7683,10.9146,-34.7422,1.1065,-5.05589,4.93902,1.18902,1.64634
105.408,18.3766,-19.4624,0,1.30289,7.27128,0.905317,9.02439,52.8354,5,-39.4412,-16.9615,-46.6909,-49.0244,-61.25,4.87805
105.426,17.8992,-19.4502,0,1.85375,7.53952,1.32205,2.40854,41.7988,1.15854,-0.0718506,0.129331,0.00479004,4.96951,1.21951,1.67683
105.432,17.833,-19.105,0,2.20581,7.19224,1.40109,-6.43293,14.4207,-2.40854,-35.7289,1.14482,-6.76833,4.96951,1.21951,1.67683
105.449,17.8375,-19.0928,0,2.43334,7.02938,1.49449,-6.58537,4.87805,-3.53659,-0.0718506,0.129331,0.00479004,4.96951,1.21951,1.67683
105.454,17.9484,-18.8653,0,3.98052,7.34313,1.46336,-5.82317,-15.7317,-10.3659,-35.1637,1.76752,-8.33946,4.93902,1.18902,1.64634
105.471,18.0727,-20.0788,0,4.86189,7.70238,1.3484,-6.21951,-27.1951,-16.5244,-39.4412,-16.9615,-46.6909,-49.0244,-61.25,4.87805
105.488,18.1868,-20.0666,0,5.78637,8.01853,0.981958,-7.7439,-42.0732,-24.5732,-0.0718506,0.129331,0.00479004,4.96951,1.21951,1.67683
105.494,18.2785,-19.8826,0,6.23184,7.95146,-0.366438,-5.85366,-65.8232,-31.25,-36.2941,-0.244292,-10.0064,4.96951,1.21951,1.67683
105.511,18.4326,-19.8704,0,6.30848,7.42456,-1.16637,-3.78049,-72.439,-29.3293,-0.0718506,0.129331,0.00479004,4.96951,1.21951,1.67683
105.517,18.8598,-19.7233,0,7.12039,6.62462,-2.46448,9.39024,-74.9695,-14.8476,-38.1239,-1.5376,-11.041,504.451,1.18902,1.64634
105.534,19.4531,-20.9028,0,8.92624,7.15871,-2.12199,16.7988,-63.2012,-5.67073,-39.4412,-16.9615,-46.6909,-49.0244,-61.25,4.87805
105.551,20.2792,-20.8906,0,12.4182,7.79818,-1.95913,21.0671,-49.1768,5.88415,-0.0718506,0.129331,0.00479004,4.96951,1.21951,1.67683
105.557,21.1941,-20.8637,0,13.1055,8.4616,-2.2106,30.0915,-28.811,18.1098,-38.852,0.407153,-14.2983,4.96951,1.21951,1.67683
105.574,22.0167,-20.8515,0,11.3692,8.56219,-1.73399,33.7805,-19.9695,18.9939,-0.0718506,0.129331,0.00479004,4.96951,1.21951,1.67683
105.58,22.3977,-20.0259,0,6.69887,8.69632,-0.723296,38.1098,3.35366,7.04268,-39.1681,3.3195,0.00239502,4.93902,1.18902,1.64634
105.596,22.4585,-21.1934,0,4.64394,8.48555,-0.249082,35.3659,6.06707,-6.67683,-39.4412,-16.9615,-46.6909,-49.0244,-61.25,4.87805
105.613,22.1018,-21.1812,0,2.95785,8.80888,-0.416733,15.4878,4.14634,-28.4451,-0.0718506,0.129331,0.00479004,4.96951,1.21951,1.67683
105.619,21.1834,-20.4837,0,1.825,10.7728,-1.35558,1.98171,7.04268,-68.2317,-52.8389,2.74469,-3.29076,4.96951,1.21951,1.67683
105.637,20.0434,-20.4716,0,1.6358,13.1223,0.56762,-4.5122,16.7378,-87.5915,-0.0718506,0.129331,0.00479004,4.96951,1.21951,1.67683
105.643,19.0779,-19.661,0,6.57672,20.6786,6.95993,-58.3537,7.53049,-93.6281,-65.3721,0.126936,0.00239502,4.93902,1.18902,1.64634
105.659,19.0054,-20.843,0,14.636,19.7469,1.54,-40.7927,-17.2256,-43.0488,-39.4412,-16.9615,-46.6909,-49.0244,-61.25,4.87805
105.677,20.0419,-20.8308,0,16.6454,13.7283,-3.99489,31.189,28.2927,41.5244,-0.0718506,0.129331,0.00479004,4.96951,1.21951,1.67683
105.683,19.8019,-19.8136,0,-3.85359,7.18745,-2.9315,15.4268,116.738,73.9634,-35.8726,-4.43079,3.05125,4.96951,1.21951,1.67683
105.7,18.9554,-19.8014,0,-8.71548,6.05461,-1.32445,17.6524,107.652,66.7073,-0.0718506,0.129331,0.00479004,4.96951,1.21951,1.67683
105.706,17.1441,-19.0173,0,-16.7484,6.41626,1.1065,4.84756,-19.5122,-5.2439,-36.2941,9.93694,0.00239502,4.93902,1.18902,1.64634
105.722,14.8892,-20.2248,0,-13.5606,5.81271,-1.89925,1.40244,-90.6707,-58.7805,-39.4412,-16.9615,-46.6909,-49.0244,-61.25,4.87805
105.74,12.7006,-20.2126,0,-6.07856,6.08095,-5.64746,6.4939,-124.695,-101.128,-0.0718506,0.129331,0.00479004,4.96951,1.21951,1.67683
105.745,11.4451,-19.2882,0,2.42136,12.8373,-4.16733,25.8232,-99.939,-123.994,-49.2081,8.82804,2.69679,4.96951,1.21951,1.67683
105.763,10.2935,-19.276,0,3.75779,15.4215,-2.70637,25.4573,-93.3232,-122.104,-0.0718506,0.129331,0.00479004,4.96951,1.21951,1.67683
105.768,9.68709,-18.4715,0,5.08702,14.4947,-1.13045,15.3049,-47.7439,-80.3354,-50.6738,-2.08367,0.924478,4.93902,1.18902,1.64634
105.785,9.236,-19.7006,0,4.16494,11.9056,-0.998723,11.5854,-18.7195,-65.6098,-39.4412,-16.9615,-46.6909,-49.0244,-61.25,4.87805
105.802,8.70405,-19.6884,0,2.17947,10.6267,-0.354463,7.5,3.65854,-59.0854,-0.0718506,0.129331,0.00479004,4.96951,1.21951,1.67683
105.808,7.88032,-18.9418,0,-0.361648,9.95131,-0.294587,0.0304878,8.68902,-62.0427,-38.7466,-9.01964,-0.560435,4.96951,1.21951,1.67683
105.825,6.99658,-18.9296,0,-0.898132,9.58487,-0.584385,-0.335366,4.05488,-63.1707,-0.0718506,0.129331,0.00479004,4.96951,1.21951,1.67683
105.831,5.93951,-18.2675,0,-1.59508,8.94779,-1.12566,-1.09756,-16.2195,-72.9573,-34.7901,-6.04982,-1.33882,4.93902,1.18902,1.64634
105.847,4.8992,-19.5046,0,-1.16877,9.07473,-1.38672,-0.487805,-29.2378,-79.0549,-39.4412,-16.9615,-46.6909,-49.0244,-61.25,4.87805
105.865,3.95443,-19.4924,0,-0.390388,9.5226,-1.64298,-0.0304878,-41.5549,-81.6159,-0.0718506,0.129331,0.00479004,4.96951,1.21951,1.67683
105.87,3.29199,-18.7599,0,1.62143,9.72617,-1.91362,-1.37195,-53.3537,-78.8415,-36.3516,-2.57225,-0.627495,4.96951,1.21951,1.67683
105.888,2.7085,-18.7477,0,1.93997,9.66869,-1.94955,-1.12805,-53.8415,-75.9756,-0.0718506,0.129331,0.00479004,4.96951,1.21951,1.67683
105.893,2.24216,-18.0733,0,1.8777,9.60403,-1.66214,-2.10366,-50.8841,-64.6341,-36.3899,-1.33642,-1.08734,4.93902,1.18902,1.64634
105.91,1.79866,-19.3181,0,1.56395,9.56331,-1.69567,-1.37195,-45.2439,-59.6341,-39.4412,-16.9615,-46.6909,-49.0244,-61.25,4.87805
105.927,1.36359,-19.3059,0,1.29331,9.40285,-1.79147,-1.28049,-45.0305,-56.7073,-0.0718506,0.129331,0.00479004,4.96951,1.21951,1.67683
105.933,0.957883,-18.659,0,1.39151,9.4723,-1.89686,-2.37805,-41.9817,-55.6707,-35.6235,-0.886157,-1.84417,4.96951,1.21951,1.67683
105.95,0.572071,-18.6468,0,1.51365,9.48667,-2.00463,-3.35366,-38.5976,-55.9146,-0.0718506,0.129331,0.00479004,4.96951,1.21951,1.67683
105.956,0.214963,-18.0946,0,1.6813,9.21603,-2.23695,-5.15244,-25.1829,-56.372,-35.1541,-2.39023,-2.88839,4.93902,1.18902,1.64634
105.972,-0.136695,-19.3386,0,1.62861,9.06994,-2.29443,-5.88415,-16.4329,-56.2195,-39.4412,-16.9615,-46.6909,-49.0244,-61.25,4.87805
105.99,-0.480705,-19.3264,0,1.55916,9.03401,-2.11241,-5,-8.87195,-55.3659,-0.0718506,0.129331,0.00479004,4.96951,1.21951,1.67683
105.995,-0.781243,-18.9012,0,1.76273,9.137,-1.65496,-3.65854,-3.29268,-53.9329,-33.9853,-2.23695,-5.13013,4.96951,1.21951,1.67683
106.013,-1.06116,-18.889,0,1.83938,9.18729,-1.70525,-3.23171,-1.89024,-53.2622,-0.0718506,0.129331,0.00479004,4.96951,1.21951,1.67683
106.019,-1.2824,-18.5593,0,2.09085,9.31902,-1.82021,-2.71341,2.13415,-50.5488,-33.2189,-1.35558,-6.19113,4.93902,1.18902,1.64634
106.036,-1.50187,-19.7849,0,1.93518,9.19448,-1.53042,-2.77439,3.23171,-49.2683,-39.4412,-16.9615,-46.6909,-49.0244,-61.25,4.87805
106.053,-1.71813,-19.7727,0,1.82261,9.10586,-1.40827,-3.29268,3.90244,-48.2317,-0.0718506,0.129331,0.00479004,4.96951,1.21951,1.67683
106.059,-1.93934,-19.383,0,1.65256,8.99809,-1.8274,-2.89634,8.10976,-47.3171,-34.3015,0.340093,-6.00192,4.96951,1.21951,1.67683
106.076,-2.17845,-19.3708,0,1.41306,8.81128,-1.82021,-1.92073,9.57317,-46.9512,-0.0718506,0.129331,0.00479004,4.96951,1.21951,1.67683
106.082,-2.45095,-19.0443,0,0.974773,8.24845,-1.74118,3.56707,14.4207,-46.0061,-34.4356,-0.0526904,-6.76833,4.93902,1.18902,1.64634
106.098,-2.73183,-20.2506,0,0.876577,8.17181,-1.91362,6.31098,15.1829,-46.1585,-39.4412,-16.9615,-46.6909,-49.0244,-61.25,4.87805
106.115,-3.018,-20.2384,0,0.847837,8.05206,-1.95194,7.59146,14.7256,-47.0427,-0.0718506,0.129331,0.00479004,4.96951,1.21951,1.67683
106.122,-3.27271,-19.8772,0,1.02507,8.29635,-1.60227,9.54268,9.08537,-46.5244,-34.4643,2.11241,-6.76833,4.96951,1.21951,1.67683
106.139,-3.48982,-19.865,0,1.17835,8.55022,-1.3963,9.17683,7.40854,-44.8476,-0.0718506,0.129331,0.00479004,4.96951,1.21951,1.67683
106.145,-3.63559,-19.0785,0,1.47294,9.84593,-1.16398,5.7622,4.39024,-39.3598,-37.0198,0.126936,0.00239502,4.93902,1.18902,1.64634
106.161,-3.76943,-20.2835,0,1.3963,10.2818,-0.953218,2.62195,1.43293,-36.8598,-39.4412,-16.9615,-46.6909,-49.0244,-61.25,4.87805
106.179,-3.90122,-20.2713,0,1.22864,10.2722,-0.785566,1.18902,-0.27439,-35.061,-0.0718506,0.129331,0.00479004,4.96951,1.21951,1.67683
106.185,-3.99749,-19.9387,0,1.42504,10.2531,-1.38911,-0.97561,-0.853659,-33.9329,-39.8292,-0.905317,-8.3682,4.96951,1.21951,1.67683
106.202,-4.07783,-19.9265,0,1.46575,10.1788,-1.62861,-1.52439,-0.548781,-33.0793,-0.0718506,0.129331,0.00479004,4.96951,1.21951,1.67683
106.208,-4.10682,-19.8355,0,1.66454,9.81958,-1.98787,-1.55488,5.18293,-30.9146,-39.7334,0.368833,-12.6218,4.93902,1.18902,1.64634
106.224,-4.12669,-21.0105,0,1.61185,9.81,-1.93278,-1.09756,6.43293,-29.4512,-39.4412,-16.9615,-46.6909,-49.0244,-61.25,4.87805
106.242,-4.13432,-20.9983,0,1.55437,9.88425,-1.74597,-1.79878,2.95732,-27.439,-0.0718506,0.129331,0.00479004,4.96951,1.21951,1.67683
106.247,-4.08698,-21.0262,0,1.76513,9.70941,-0.960403,-3.20122,-11.8902,-24.6341,-40.222,0.301772,-16.0035,4.96951,1.21951,1.67683
106.265,-4.02675,-21.014,0,1.825,9.7597,-0.905317,-3.5061,-17.8049,-23.811,-0.0718506,0.129331,0.00479004,4.96951,1.21951,1.67683
106.27,-3.92302,-20.9697,0,1.95434,9.93933,-1.60466,-8.78049,-31.9817,-20.3354,-41.1129,-0.723296,-14.8731,4.93902,1.18902,1.64634
106.287,-3.76804,-22.0998,0,2.33275,9.95131,-1.64777,-11.6159,-34.1768,-19.1159,-39.4412,-16.9615,-46.6909,-49.0244,-61.25,4.87805
106.304,-3.54015,-22.0876,0,2.9339,10.2267,-1.61664,-14.6037,-35.3963,-17.1037,-0.0718506,0.129331,0.00479004,4.96951,1.21951,1.67683
106.31,-3.08458,-21.0992,0,4.6152,10.5117,-1.60706,-18.4756,-24.2683,-9.11585,-52.312,4.19128,2.62973,4.96951,1.21951,1.67683
106.327,-2.51009,-21.087,0,5.56363,10.4758,-1.12566,-18.4146,-14.4512,-4.87805,-0.0718506,0.129331,0.00479004,4.96951,1.21951,1.67683
106.333,-1.64594,-20.1926,0,7.25212,11.2877,0.531694,-17.1951,17.6524,16.2805,-54.8603,17.5076,1.4418,4.93902,1.18902,1.64634
106.35,-0.777795,-21.3535,0,5.78876,12.0996,0.253872,-25.7622,44.9085,33.0488,-39.4412,-16.9615,-46.6909,-49.0244,-61.25,4.87805
106.367,-0.00841741,-21.3413,0,3.34584,12.2074,-0.119751,-37.439,58.9329,45.6402,-0.0718506,0.129331,0.00479004,4.96951,1.21951,1.67683
106.373,0.71158,-20.4102,0,1.81542,11.5248,0.426313,-52.439,46.0366,55.1829,-41.2279,0.426313,1.56634,4.96951,1.21951,1.67683
106.39,1.3891,-20.398,0,1.17835,11.1943,0.320933,-56.6159,40.0305,58.3232,-0.0718506,0.129331,0.00479004,4.96951,1.21951,1.67683
106.396,2.00121,-19.4639,0,-0.265847,10.6962,-1.12087,-57.622,32.5305,68.2012,-43.8241,-9.93933,2.44771,4.93902,1.18902,1.64634
106.412,2.61595,-20.6537,0,-0.972378,10.8902,-1.6813,-51.25,31.0366,77.2256,-39.4412,-16.9615,-46.6909,-49.0244,-61.25,4.87805
106.43,3.16274,-20.6415,0,-2.65608,11.8482,-2.12678,-44.939,26.7683,86.9207,-0.0718506,0.129331,0.00479004,4.96951,1.21951,1.67683
106.436,3.68193,-19.7469,0,-3.29076,12.0853,-2.36388,-40.5183,0.152439,90.5183,-37.7311,-3.88472,1.28852,4.96951,1.21951,1.67683
106.453,4.17345,-19.7347,0,-3.2716,11.9679,-2.28006,-38.1707,-13.4146,88.8719,-0.0718506,0.129331,0.00479004,4.96951,1.21951,1.67683
106.459,4.63765,-18.9533,0,-2.68721,11.465,-2.33275,-28.1402,-45.122,82.8049,-41.247,-1.2526,0.00239502,4.93902,1.18902,1.64634
106.476,5.08853,-20.1632,0,-2.1651,11.2614,-1.56874,-23.2622,-48.5366,77.6829,-39.4412,-16.9615,-46.6909,-49.0244,-61.25,4.87805
106.493,5.52862,-20.151,0,-1.67651,10.9357,-0.514929,-19.6646,-41.189,73.0793,-0.0718506,0.129331,0.00479004,4.96951,1.21951,1.67683
106.499,6.05325,-19.2591,0,-0.711321,10.6411,-0.196392,-11.9512,-17.3171,72.6219,-43.6804,3.04167,1.81542,4.96951,1.21951,1.67683
106.516,6.58309,-19.2469,0,-0.756826,10.4806,-0.376018,-8.44512,-8.35366,74.8476,-0.0718506,0.129331,0.00479004,4.96951,1.21951,1.67683
106.522,7.04037,-18.3371,0,-1.54239,10.8039,-0.275427,-1.82927,4.05488,76.6768,-39.9825,2.84049,2.60818,4.93902,1.18902,1.64634
106.538,7.50415,-19.5715,0,-1.3005,11.0458,-0.114961,-1.09756,1.4939,75.3963,-39.4412,-16.9615,-46.6909,-49.0244,-61.25,4.87805
106.556,8.01717,-19.5593,0,-0.565225,11.0722,-0.0694556,0.609756,-1.67683,73.6281,-0.0718506,0.129331,0.00479004,4.96951,1.21951,1.67683
106.561,8.47188,-18.731,0,-0.383203,10.6099,-0.510139,6.18902,7.95732,66.9817,-36.4091,1.33642,0.866997,4.96951,1.21951,1.67683
106.579,8.8763,-18.7188,0,-0.495769,10.5357,-0.531694,7.9878,12.6524,64.0549,-0.0718506,0.129331,0.00479004,4.96951,1.21951,1.67683
106.585,9.15063,-17.9776,0,-1.01788,9.98484,-0.311353,12.561,28.3841,57.9878,-35.6355,0.126936,0.00239502,4.93902,1.18902,1.64634
106.602,9.3634,-19.2262,0,-1.26457,9.6184,-0.237107,12.2561,37.8354,55.6707,-39.4412,-16.9615,-46.6909,-49.0244,-61.25,4.87805
106.619,9.46892,-19.214,0,-1.83219,9.36453,-0.0263452,12.9878,45.3659,52.4695,-0.0718506,0.129331,0.00479004,4.96951,1.21951,1.67683
106.625,9.43984,-18.4108,0,-2.33514,9.44596,-0.486189,13.9634,42.8963,44.6951,-36.9935,0.560435,0.694556,4.96951,1.21951,5.54878
106.642,9.35727,-18.3986,0,-2.56267,9.5202,-0.531694,14.2988,39.5427,41.5854,-0.0718506,0.129331,0.00479004,4.96951,1.21951,1.67683
106.648,9.20927,-17.6701,0,-2.44771,9.49146,-0.170046,11.372,27.4085,33.5061,-37.7311,2.57944,0.00239502,4.93902,1.18902,1.64634
106.664,9.03796,-18.9309,0,-2.28485,9.22801,-0.0646655,9.08537,16.25,29.6951,-39.4412,-16.9615,-46.6909,-49.0244,-61.25,4.87805
106.682,8.88316,-18.9187,0,-1.59508,8.82086,0.217947,8.04878,6.89024,23.5671,-0.0718506,0.129331,0.00479004,4.96951,1.21951,1.67683
106.687,8.73063,-18.1706,0,-0.833467,8.95737,0.986748,6.85976,8.07927,13.4146,-38.6412,2.38065,-0.0143701,4.96951,1.21951,1.67683
106.705,8.59915,-18.1584,0,-0.467029,9.01246,1.2502,5.51829,12.2866,10.4573,-0.0718506,0.129331,0.00479004,4.96951,1.21951,1.67683
106.711,8.40817,-19.9757,0,-0.174836,9.19448,1.08734,0.0304878,16.6463,3.17073,-38.2006,2.03577,-78.4776,4.93902,1.18902,1.64634
106.727,8.08515,-21.1452,0,-0.450264,9.50583,0.452659,-0.640244,11.7683,-1.98171,-39.4412,-16.9615,-46.6909,-49.0244,-61.25,4.87805
106.744,7.8684,-21.133,0,0.117356,9.86509,-0.165256,0.182927,1.31098,-6.98171,-0.0718506,0.129331,0.00479004,4.96951,1.21951,1.67683
106.75,7.84783,-20.4202,0,1.80345,9.56571,0.00718506,1.21951,1.58537,-7.83537,-37.0893,-0.186812,-2.02619,4.96951,1.21951,1.67683
106.768,7.89912,-20.408,0,2.33275,9.36453,-0.148491,2.37805,4.69512,-7.31707,-0.0718506,0.129331,0.00479004,4.96951,1.21951,1.67683
106.773,8.3335,-19.7365,0,3.30752,8.76817,-0.907712,5.51829,1.89024,-1.37195,-38.7849,-0.359253,-2.33514,4.93902,1.18902,1.64634
106.79,8.71052,-20.9155,0,3.32189,8.69871,-1.3484,10.7622,-0.243902,1.95122,-39.4412,-16.9615,-46.6909,-49.0244,-61.25,4.87805
106.807,8.9897,-20.9033,0,3.35063,9.15376,-1.47533,14.9695,5.09146,4.90854,-0.0718506,0.129331,0.00479004,4.96951,1.21951,1.67683
106.813,9.2372,-20.2103,0,3.38177,9.8555,-1.52323,12.7744,15.2134,4.78659,-40.0878,0.637075,-2.38065,4.96951,1.21951,1.67683
106.83,9.48157,-20.1981,0,3.42967,9.88664,-1.46815,11.2805,16.9207,4.54268,-0.0718506,0.129331,0.00479004,4.96951,1.21951,1.67683
106.836,9.66356,-19.588,0,2.79499,9.45075,-1.01309,9.29878,22.0427,2.95732,-38.7754,1.13524,-3.24525,4.93902,1.18902,1.64634
106.852,9.80759,-20.7728,0,2.33035,9.29507,-0.943638,10.8232,25.4268,1.67683,-39.4412,-16.9615,-46.6909,-49.0244,-61.25,4.87805
106.87,9.8155,-20.7606,0,1.75315,9.46512,-0.907712,12.5915,34.1463,-1.40244,-0.0718506,0.129331,0.00479004,4.96951,1.21951,1.67683
106.876,9.65307,-20.1116,0,0.814307,9.65432,-0.0311353,10.0915,47.2256,-6.34146,-39.216,2.35191,-2.99377,4.96951,1.21951,1.67683
106.893,9.42325,-20.0994,0,0.404758,9.62798,0.438289,8.56707,48.2927,-8.65854,-0.0718506,0.129331,0.00479004,4.96951,1.21951,1.67683
106.899,9.00737,-19.3036,0,-0.500559,9.0412,0.914897,5.54878,40.2744,-16.7378,-39.1394,2.23695,0.00239502,4.93902,1.18902,1.64634
106.915,8.50549,-20.4997,0,-0.843047,8.78733,0.835862,6.15854,31.9207,-21.6463,-39.4412,-16.9615,-46.6909,-49.0244,-61.25,4.87805
106.932,7.94768,-20.4875,0,-0.969983,8.95977,0.735271,5.15244,17.9573,-26.9512,-0.0718506,0.129331,0.00479004,4.96951,1.21951,1.67683
106.938,7.35562,-19.9021,0,-0.742456,9.23759,0.524509,5.88415,0.762195,-34.8171,-37.779,0.713716,-3.76976,4.96951,1.21951,1.67683
106.955,6.76636,-19.8899,0,-0.603545,9.36453,0.546064,5.42683,-4.5122,-37.5915,-0.0718506,0.129331,0.00479004,4.96951,1.21951,1.67683
106.962,6.16045,-19.2804,0,-0.404758,9.57768,0.229922,0.823171,-18.4451,-43.0793,-37.9515,0.253872,-2.9818,4.93902,1.18902,1.64634
