time,angle1,angle2,intgangle,accX1,accY1,accZ1,gyroX1,gyroY1,gyroZ1,accX2,accY2,accZ2,gyroX2,gyroY2,gyroZ2
296.685,92.2057,1.18719,0,9.85072,-0.464634,0.783171,-0.762195,-0.548781,-1.31098,-39.1969,-0.502954,0.407153,-14.6341,-2.59146,3.90244
296.695,92.2086,1.17454,0,9.83874,-0.450264,0.802332,-0.365854,-0.27439,-1.09756,-39.5322,-0.627495,0.589175,-14.4817,-2.80488,4.29878
296.705,92.21,1.18593,0,9.83635,-0.445474,0.838257,-0.304878,-0.152439,-1.12805,-39.5993,-0.541274,1.00112,-14.939,-2.80488,4.48171
296.715,92.2071,1.19016,0,9.83635,-0.440684,0.768801,-0.243902,0.121951,-1.37195,-39.5322,-0.368833,0.876577,-14.939,-4.54268,5.45732
296.725,92.2202,1.1969,0,9.84353,-0.493374,0.778381,-0.0304878,0.182927,-0.97561,-39.7813,-0.493374,0.924478,-15.6707,-5.88415,5.06098
296.735,92.2173,1.21399,0,9.83874,-0.426313,0.713716,-0.0304878,-0.0304878,-1.15854,-39.3598,-0.560435,1.1065,-16.0366,-3.68902,6.18902
296.745,92.2158,1.22517,0,9.83874,-0.438289,0.795146,-0.182927,-0.121951,-1.21951,-39.2352,-0.637075,1.0107,-14.4207,-4.14634,5.73171
296.755,92.2164,1.2274,0,9.84353,-0.462239,0.775986,-0.152439,-0.182927,-1.37195,-39.1107,-0.512534,0.866997,-15.6098,-2.37805,6.7378
296.765,92.2163,1.24348,0,9.89143,-0.467029,0.847837,-0.0609756,-0.0914634,-1.43293,-38.9957,-0.627495,1.1065,-15.5488,-1.64634,6.15854
296.775,92.2212,1.23224,0,9.83635,-0.479004,0.787961,-0.579268,0.182927,-1.28049,-39.0628,-0.704136,0.646655,-14.9695,-2.2561,6.4939
296.785,92.2289,1.22445,0,9.85072,-0.474214,0.831072,-0.396341,0.365854,-1.03659,-39.264,-0.550855,0.704136,-14.878,-1.61585,7.04268
296.795,92.2289,1.21733,0,9.82677,-0.450264,0.814307,-0.396341,0.182927,-1.25,-39.4939,-0.742456,0.713716,-14.4512,-1.92073,6.76829
296.805,92.2281,1.22492,0,9.79084,-0.445474,0.759221,-0.213415,0.213415,-1.28049,-39.5993,-0.474214,0.962798,-14.4817,-3.2622,6.12805
296.815,92.2259,1.20664,0,9.76689,-0.433499,0.814307,-0.426829,0.213415,-1.25,-39.5322,-0.598755,0.512534,-15.2744,-4.14634,6.15854
296.826,92.2222,1.20952,0,9.82197,-0.428708,0.807122,-0.0304878,0.0914634,-1.25,-39.6951,-0.474214,0.866997,-14.4207,-5.67073,7.34756
296.835,92.2215,1.21361,0,9.86988,-0.452659,0.744851,-0.182927,-0.243902,-1.31098,-39.6567,-0.378413,0.895737,-15.3659,-3.81098,6.89024
296.845,92.2154,1.22313,0,9.92017,-0.411943,0.742456,0.182927,0.396341,-1.12805,-39.7238,-0.426313,0.991538,-14.8171,-4.87805,7.53049
296.855,92.2085,1.21976,0,9.88425,-0.402363,0.756826,0.0914634,0.426829,-1.09756,-39.628,-0.359253,0.771196,-14.2378,-4.69512,7.46951
296.865,92.2067,1.23318,0,9.87946,-0.431104,0.799937,-0.0609756,0.518293,-1.12805,-39.3885,-0.589175,1.0586,-15.3963,-3.87195,5.91463
296.875,92.2113,1.24209,0,9.82916,-0.469424,0.819097,-0.701219,0.548781,-1.21951,-39.3214,-0.387993,0.991538,-14.939,-2.77439,6.82927
296.885,92.2165,1.23899,0,9.81,-0.469424,0.831072,-0.396341,0.853659,-1.18902,-39.3119,-0.435894,0.790356,-15.7927,-2.40854,6.52439
296.895,92.2239,1.23693,0,9.79803,-0.483794,0.807122,-0.640244,0.731707,-1.21951,-39.264,-0.215552,0.809517,-16.1585,-1.18902,7.0122
296.905,92.2265,1.24478,0,9.81,-0.481399,0.847837,-0.335366,0.335366,-1.46341,-39.1203,-0.407153,0.972378,-16.5244,-2.28659,6.15854
296.915,92.2279,1.23999,0,9.82677,-0.457449,0.835862,-0.182927,0.0914634,-1.25,-39.3598,-0.368833,0.761616,-16.2805,-3.10976,7.34756
296.925,92.2291,1.23429,0,9.81,-0.447869,0.764011,0.0304878,-0.0304878,-1.15854,-39.4076,-0.368833,0.742456,-16.5244,-3.35366,7.22561
296.935,92.223,1.23764,0,9.82916,-0.438289,0.814307,0.0914634,-0.335366,-1.55488,-39.5322,-0.445474,0.895737,-16.6463,-4.20732,6.98171
296.945,92.2221,1.23453,0,9.86269,-0.426313,0.768801,0.487805,-0.182927,-0.97561,-39.5226,-0.407153,0.780776,-15.061,-5.54878,6.12805
296.955,92.2171,1.21785,0,9.85072,-0.414338,0.811912,0.0914634,-0.213415,-1.12805,-39.743,-0.560435,0.541274,-15.7927,-6.67683,7.56098
296.965,92.2229,1.21963,0,9.87467,-0.481399,0.826282,0.0914634,0.0609756,-1.21951,-39.5897,-0.522114,0.847837,-16.1585,-7.2561,5.70122
296.975,92.2237,1.22158,0,9.84353,-0.457449,0.831072,0,0.396341,-1.28049,-39.5897,-0.512534,0.857417,-14.6037,-5.70122,6.98171
296.985,92.2226,1.20412,0,9.82677,-0.445474,0.835862,0.27439,0.609756,-1.28049,-39.5226,-0.378413,0.522114,-14.5122,-4.81707,6.55488
296.995,92.2238,1.20399,0,9.83156,-0.476609,0.804727,0.0609756,0.609756,-1.4939,-39.5035,-0.522114,0.809517,-13.811,-5.39634,7.7439
297.005,92.2219,1.20891,0,9.85311,-0.438289,0.823887,-0.182927,0.548781,-1.21951,-39.4651,-0.311353,0.895737,-14.9085,-5.70122,7.65244
297.015,92.2247,1.20549,0,9.83635,-0.452659,0.828677,-0.0304878,0.243902,-1.09756,-39.4364,-0.349673,0.752036,-16.0061,-6.03659,6.98171
297.025,92.2262,1.21551,0,9.78844,-0.452659,0.857417,-0.152439,0.304878,-1.21951,-39.4939,-0.340093,0.981958,-17.6829,-6.92073,7.04268
297.035,92.2218,1.20105,0,9.81719,-0.428708,0.838257,-0.0609756,0.152439,-1.31098,-39.4268,-0.407153,0.560435,-17.1037,-7.28659,6.15854
297.045,92.2215,1.19676,0,9.80281,-0.457449,0.811912,-0.152439,-0.213415,-1.40244,-39.4172,-0.244292,0.732876,-17.439,-5.54878,6.79878
297.055,92.2206,1.18805,0,9.84832,-0.440684,0.835862,-0.0304878,0.0609756,-1.18902,-39.1873,-0.311353,0.646655,-17.5,-6.37195,6.15854
297.065,92.2245,1.18945,0,9.86988,-0.476609,0.787961,-0.0304878,0.243902,-1.28049,-39.3406,-0.273032,0.819097,-17.5305,-6.18902,5.51829
297.075,92.2372,1.19802,0,9.82916,-0.493374,0.804727,-0.335366,0.426829,-0.97561,-39.5514,-0.301772,0.953218,-16.7073,-5.09146,6.31098
297.085,92.2485,1.19295,0,9.83635,-0.512534,0.795146,-0.304878,0.548781,-1.21951,-39.4172,-0.196392,0.723296,-16.4024,-3.78049,5.70122
297.095,92.2588,1.19891,0,9.84114,-0.512534,0.835862,-0.304878,0.914634,-1.25,-39.1394,-0.340093,0.905317,-16.128,-3.71951,7.0122
297.105,92.2595,1.18835,0,9.83395,-0.467029,0.835862,-0.152439,0.884146,-1.34146,-39.2256,-0.502954,0.627495,-16.0366,-3.20122,6.58537
297.115,92.2661,1.20595,0,9.79563,-0.498164,0.811912,-0.182927,0.548781,-1.34146,-39.3598,-0.349673,1.1065,-16.4939,-4.5122,6.4939
297.125,92.2675,1.2206,0,9.79803,-0.462239,0.823887,0.152439,0.304878,-1.25,-39.3598,-0.205972,1.06818,-16.7073,-4.35976,7.40854
297.135,92.2653,1.22146,0,9.81,-0.447869,0.785566,0.335366,-0.0304878,-1.31098,-39.4939,-0.244292,0.838257,-16.5854,-5.30488,6.46341
297.145,92.2603,1.25293,0,9.85311,-0.455054,0.783171,0.396341,-0.579268,-1.58537,-39.3214,-0.320933,1.36516,-17.378,-5.60976,6.06707
297.155,92.2535,1.27293,0,9.8579,-0.459844,0.847837,0.0609756,-0.640244,-1.79878,-39.4268,-0.311353,1.19272,-17.5,-5.12195,6.25
297.165,92.2382,1.27798,0,9.87706,-0.385598,0.809517,0.0609756,0,-1.52439,-39.6376,-0.378413,0.953218,-17.378,-4.60366,5.30488
297.175,92.2302,1.286,0,9.85311,-0.397573,0.833467,0.0914634,0.548781,-1.06707,-39.3789,-0.646655,1.00112,-15.6707,-4.87805,5.7622
297.185,92.2238,1.29053,0,9.88425,-0.402363,0.792751,0.121951,0.609756,-1.0061,-39.264,-0.474214,0.943638,-15.8232,-4.78659,3.9939
297.195,92.2166,1.30028,0,9.82197,-0.383203,0.864602,0.0304878,0.518293,-0.792683,-39.4172,-0.435894,1.03944,-15.6707,-5.27439,4.57317
297.205,92.2177,1.3084,0,9.83156,-0.411943,0.804727,-0.426829,0.121951,-0.640244,-39.4747,-0.368833,1.02028,-16.6159,-5,4.54268
297.215,92.2133,1.32957,0,9.80521,-0.392783,0.802332,-0.0304878,-0.0609756,-0.762195,-39.6663,-0.292192,1.25978,-15.5793,-4.84756,5.18293
297.225,92.2229,1.32828,0,9.81479,-0.435894,0.845442,0.396341,-0.0304878,-0.487805,-39.4556,-0.292192,0.876577,-15.9146,-4.90854,5.54878
297.235,92.2314,1.32181,0,9.81958,-0.433499,0.831072,0.396341,-0.121951,-0.487805,-39.3789,-0.330513,0.780776,-17.0427,-5.88415,5.79268
297.245,92.2374,1.32498,0,9.84832,-0.443079,0.843047,0,0.0304878,-0.731707,-39.3023,-0.435894,0.943638,-17.8354,-5.30488,5.60976
297.255,92.2392,1.32807,0,9.87706,-0.421523,0.823887,-0.0609756,-0.27439,-0.640244,-39.2448,-0.579595,0.943638,-17.378,-5.18293,4.02439
297.265,92.2609,1.32178,0,9.81958,-0.467029,0.811912,-0.0304878,-0.457317,-0.243902,-39.264,-0.656235,0.780776,-16.5244,-6.06707,4.26829
297.275,92.2704,1.31358,0,9.78605,-0.443079,0.819097,-0.0609756,-0.152439,-0.518293,-39.4268,-0.637075,0.752036,-16.0366,-4.45122,4.63415
297.285,92.2843,1.30132,0,9.79803,-0.447869,0.826282,-0.182927,-0.152439,-0.304878,-39.4076,-0.531694,0.675395,-15.4878,-4.48171,4.96951
297.295,92.287,1.3035,0,9.78605,-0.445474,0.845442,-0.182927,-0.213415,-0.914634,-39.3981,-0.330513,0.914897,-14.9695,-5.27439,4.90854
297.305,92.297,1.30667,0,9.78366,-0.447869,0.843047,-0.426829,-0.396341,-0.487805,-39.3406,-0.445474,0.934058,-15.6707,-4.72561,4.72561
297.315,92.3077,1.30846,0,9.80042,-0.464634,0.795146,-0.243902,-0.823171,-0.640244,-39.5226,-0.474214,0.914897,-14.3293,-5.18293,5.4878
297.325,92.3183,1.3313,0,9.8124,-0.471819,0.864602,-0.335366,-1.34146,-0.701219,-39.3981,-0.416733,1.27894,-15.2439,-5.2439,6.55488
297.335,92.3336,1.32838,0,9.8076,-0.486189,0.847837,0.182927,-1.61585,-0.609756,-39.2352,-0.541274,0.847837,-14.878,-3.96341,6.79878
297.345,92.3369,1.33323,0,9.83635,-0.426313,0.869392,0.0914634,-1.67683,-0.365854,-39.2544,-0.368833,0.981958,-15.9451,-3.65854,6.21951
297.355,92.3551,1.33688,0,9.84832,-0.474214,0.838257,-0.365854,-1.85976,-0.243902,-39.2735,-0.464634,0.962798,-15.9756,-4.2378,5.85366
297.365,92.3678,1.32505,0,9.88904,-0.474214,0.843047,-0.243902,-1.46341,-0.426829,-39.3214,-0.522114,0.694556,-14.9695,-5.27439,6.55488
297.375,92.3898,1.32079,0,9.87706,-0.488584,0.833467,-0.457317,-0.853659,-0.152439,-39.6184,-0.368833,0.828677,-16.0061,-3.90244,5.18293
297.385,92.4117,1.29827,0,9.87467,-0.481399,0.807122,-0.152439,-0.609756,0.121951,-39.5418,-0.378413,0.512534,-15.2134,-1.89024,4.5122
297.395,92.4222,1.31014,0,9.85072,-0.459844,0.790356,-0.182927,-0.213415,-0.243902,-39.4939,-0.330513,1.09692,-15.3049,-1.43293,5.54878
297.405,92.4415,1.30689,0,9.85072,-0.500559,0.816702,-0.152439,-0.27439,-0.335366,-39.6855,-0.435894,0.847837,-15.6707,-0.884146,6.46341
297.415,92.4525,1.2997,0,9.85311,-0.481399,0.775986,0.0304878,-0.396341,-0.457317,-39.5418,-0.292192,0.771196,-14.9695,-1.58537,6.64634
297.425,92.4728,1.30399,0,9.81719,-0.534089,0.792751,0.0914634,-0.701219,-0.640244,-39.5609,-0.359253,0.972378,-15.5183,0,6.46341
297.435,92.4874,1.29563,0,9.79803,-0.536484,0.790356,-0.0304878,-0.884146,-0.914634,-39.5993,-0.541274,0.761616,-15,1.76829,7.28659
297.445,92.4909,1.29339,0,9.81479,-0.493374,0.802332,-0.0914634,-0.762195,-1.0061,-39.4939,-0.531694,0.866997,-14.8171,3.78049,7.53049
297.455,92.4887,1.30423,0,9.82677,-0.474214,0.847837,-0.121951,-0.609756,-1.12805,-39.7046,-0.435894,1.09692,-14.1768,3.07927,6.52439
297.465,92.483,1.32216,0,9.82677,-0.464634,0.790356,-0.0304878,-0.914634,-1.28049,-40.1262,-1.06818,1.22146,-9.45122,-2.68293,5.97561
297.475,92.4798,1.24357,0,9.84593,-0.464634,0.768801,0.0914634,-0.97561,-1.06707,-39.1203,-0.196392,-0.416733,-16.9817,10.5183,5.85366
297.485,92.4789,1.25948,0,9.87227,-0.469424,0.799937,0.0304878,-0.823171,-0.945122,-40.0495,-0.138911,1.1544,-12.0427,1.12805,6.09756
297.495,92.4773,1.30525,0,9.8603,-0.464634,0.780776,0.243902,-0.914634,-0.945122,-40.1166,-0.282612,1.6813,-6.58537,-3.07927,6.25
297.505,92.4856,1.29017,0,9.8076,-0.543669,0.852627,-0.0304878,-0.792683,-1.31098,-39.6376,-0.186812,0.656235,-15.2134,4.84756,6.76829
297.515,92.4983,1.23762,0,9.87227,-0.589175,0.771196,-0.27439,-0.152439,-1.43293,-39.1873,-0.311353,-0.0143701,-13.5976,3.20122,6.37195
297.525,92.4946,1.23341,0,9.78126,-0.490979,0.823887,-0.0304878,-0.487805,-1.4939,-39.3214,-0.445474,0.790356,-15.1524,4.08537,6.76829
297.535,92.4962,1.21923,0,9.84832,-0.517324,0.859812,0.0304878,-0.640244,-1.37195,-39.1969,-0.292192,0.617915,-13.628,5.60976,5.70122
297.545,92.4987,1.23192,0,9.82677,-0.534089,0.804727,-0.0609756,-0.823171,-1.52439,-39.8962,-0.129331,1.07776,-13.5366,1.55488,7.46951
297.555,92.4944,1.20964,0,9.83635,-0.486189,0.795146,0.0304878,-0.853659,-1.43293,-39.6759,-0.416733,0.474214,-14.939,3.14024,6.37195
297.565,92.4873,1.17634,0,9.84114,-0.469424,0.773591,-0.0304878,-0.518293,-1.43293,-39.5897,-0.253872,0.282612,-13.75,8.14024,6.15854
297.575,92.4824,1.14014,0,9.83874,-0.510139,0.787961,-0.304878,-0.426829,-1.79878,-39.5514,-0.483794,0.225132,-15.0305,12.8963,6.58537
297.585,92.4757,1.1431,0,9.84353,-0.486189,0.807122,-0.0304878,-0.152439,-1.64634,-39.8867,-0.512534,0.886157,-13.5671,11.6768,6.40244
297.595,92.4729,1.16274,0,9.81,-0.519719,0.797541,-0.243902,-0.487805,-1.79878,-40.0974,-0.196392,1.18314,-14.5122,10.3354,6.95122
297.605,92.4652,1.15498,0,9.81719,-0.479004,0.826282,-0.0304878,-0.640244,-1.67683,-39.7525,-0.273032,0.713716,-15.5793,12.5,7.10366
297.615,92.4579,1.13477,0,9.85311,-0.517324,0.787961,0.121951,-0.640244,-2.10366,-39.7525,-0.0239502,0.464634,-15.9146,5.06098,6.61585
297.625,92.4496,1.10468,0,9.82677,-0.517324,0.756826,-0.0304878,-0.365854,-2.22561,-39.9058,-0.407153,0.311353,-16.311,14.5732,5.91463
297.635,92.4349,1.02747,0,9.84593,-0.469424,0.795146,-0.121951,-0.213415,-2.19512,-39.2831,-0.110171,-0.493374,-18.1707,25.3354,5.97561
297.645,92.4221,0.994713,0,9.81719,-0.455054,0.759221,-0.27439,-0.0609756,-1.89024,-39.743,-0.713716,0.158071,-9.69512,5.57927,6.12805
297.655,92.4011,0.937548,0,9.8555,-0.404758,0.783171,-0.182927,-0.27439,-1.98171,-38.7179,-0.234712,-0.282612,-15.9756,6.18902,6.76829
297.665,92.3825,0.910198,0,9.87946,-0.421523,0.804727,-0.426829,-0.365854,-2.0122,-39.9058,-0.455054,0.167651,-18.5976,-1.25,7.56098
297.675,92.3646,0.884725,0,9.91299,-0.411943,0.780776,-0.304878,-0.548781,-1.82927,-39.9825,-0.464634,0.196392,-18.5671,2.92683,8.01829
297.685,92.3559,0.891095,0,9.84832,-0.464634,0.773591,-0.213415,-0.792683,-1.79878,-40.3465,-0.282612,0.713716,-16.6768,-6.4939,7.89634
297.695,92.3413,0.907091,0,9.86509,-0.445474,0.811912,-0.213415,-0.396341,-2.07317,-39.992,-0.790356,0.886157,-19.2683,-5.18293,8.5061
297.705,92.3374,0.867212,0,9.84114,-0.476609,0.804727,-0.27439,-0.823171,-1.61585,-38.6317,-0.761616,-0.0814307,-19.5122,-4.20732,8.2622
297.715,92.3233,0.895108,0,9.84593,-0.431104,0.814307,-0.609756,-0.97561,-1.89024,-40.0687,-0.560435,1.04902,-19.3293,-14.5427,8.17073
297.725,92.3093,0.902604,0,9.83635,-0.431104,0.768801,-0.579268,-0.579268,-1.92073,-39.7142,-0.330513,0.684976,-20.6098,-19.4512,8.17073
297.735,92.3021,0.92489,0,9.79803,-0.467029,0.764011,-1.06707,-0.945122,-1.85976,-40.1357,-0.570015,0.886157,-20.122,-40.5183,7.92683
297.745,92.2915,0.911089,0,9.79803,-0.445474,0.778381,-0.884146,-0.914634,-1.89024,-39.6472,-0.483794,0.273032,-17.7439,-36.7378,7.16463
297.755,92.2858,0.91327,0,9.76449,-0.481399,0.735271,-0.884146,-0.97561,-1.98171,-39.3502,-0.244292,0.522114,-17.2256,-41.6159,6.82927
297.764,92.2782,0.936132,0,9.74294,-0.467029,0.778381,-0.853659,-1.4939,-1.98171,-39.6184,-0.196392,0.895737,-17.6829,-39.4817,7.65244
297.775,92.2693,0.963842,0,9.7621,-0.450264,0.778381,-0.945122,-1.61585,-1.89024,-39.8292,-0.0814307,1.00112,-17.0122,-39.6037,7.37805
297.785,92.2641,0.980693,0,9.79323,-0.486189,0.775986,-0.823171,-1.70732,-2.0122,-39.8579,-0.0526904,0.799937,-14.5122,-48.4146,7.71341
297.795,92.2596,0.991766,0,9.85311,-0.488584,0.792751,-0.701219,-1.7378,-1.95122,-39.8675,0.0526904,0.684976,-16.2805,-55.7622,7.46951
297.805,92.2534,1.02222,0,9.9058,-0.512534,0.799937,-0.609756,-1.37195,-2.31707,-39.7046,-0.0622705,1.02028,-17.2256,-58.3537,8.10976
297.815,92.248,1.05691,0,9.91778,-0.510139,0.766406,-0.640244,-1.34146,-2.22561,-40.0495,-0.215552,1.12566,-17.5915,-58.2317,8.47561
297.825,92.232,1.09593,0,9.92017,-0.438289,0.682581,-0.670732,-1.18902,-2.31707,-40.0016,-0.148491,1.21188,-19.1768,-62.0427,8.07927
297.835,92.2246,1.14231,0,9.88904,-0.486189,0.701741,-0.548781,-1.06707,-2.19512,-40.0399,-0.167651,1.35558,-17.1646,-66.25,7.95732
297.845,92.2121,1.18428,0,9.91059,-0.447869,0.66821,-0.701219,-0.609756,-2.16463,-39.8675,-0.158071,1.2981,-17.9268,-68.1402,8.04878
297.855,92.1948,1.22569,0,9.89622,-0.443079,0.632285,-0.609756,-0.152439,-2.59146,-39.7238,-0.205972,1.30768,-19.2988,-69.6037,9.08537
297.865,92.186,1.27097,0,9.88425,-0.490979,0.641865,-0.426829,0.457317,-2.43902,-39.5801,-0.560435,1.40348,-17.8049,-68.3537,9.54268
297.875,92.1746,1.26119,0,9.88664,-0.459844,0.603545,-0.548781,0.762195,-2.31707,-39.6567,-0.656235,0.493374,-17.439,-62.8963,9.45122
297.885,92.1698,1.28136,0,9.85072,-0.476609,0.675395,-0.182927,0.945122,-2.0122,-39.8675,-0.493374,1.0107,-16.372,-64.2988,9.63415
297.895,92.1539,1.33314,0,9.87227,-0.440684,0.65384,-0.213415,0.945122,-2.53049,-40.1166,-0.416733,1.57592,-15.122,-68.5671,8.59756
297.905,92.139,1.40976,0,9.87227,-0.445474,0.661025,-0.396341,1.25,-2.53049,-40.1549,-0.330513,2.04535,-16.9512,-71.1585,9.26829
297.915,92.1281,1.46773,0,9.88425,-0.479004,0.689766,0.213415,1.12805,-2.59146,-40.0591,-0.205972,1.76752,-14.9695,-70.1219,8.78049
297.925,92.1167,1.53846,0,9.84832,-0.522114,0.713716,-0.0914634,1.12805,-3.17073,-39.8675,-0.359253,2.01661,-17.7439,-72.3781,8.87195
297.935,92.1052,1.6069,0,9.80281,-0.495769,0.725691,0.27439,1.12805,-2.92683,-39.8867,-0.282612,2.01661,-17.5305,-75.2134,8.62805
297.945,92.0913,1.68913,0,9.87706,-0.479004,0.747246,0.213415,0.97561,-2.92683,-39.8196,-0.186812,2.28485,-18.3232,-80.7012,9.17683
297.955,92.0739,1.76875,0,9.86988,-0.469424,0.766406,0.121951,1.0061,-3.17073,-39.7238,-0.158071,2.27527,-19.9695,-85.1829,9.45122
297.965,92.0494,1.84092,0,9.87946,-0.440684,0.742456,0.365854,1.46341,-3.53659,-39.9058,-0.579595,2.21779,-21.4024,-82.8963,8.32317
297.975,92.0243,1.95391,0,9.88904,-0.450264,0.766406,0.152439,1.46341,-3.75,-39.8292,-0.560435,2.98419,-17.5,-82.7134,7.71341
297.985,91.9992,2.04766,0,9.86509,-0.447869,0.732876,0.640244,1.40244,-3.78049,-39.8292,-0.732876,2.69679,-17.561,-90.4573,8.14024
297.995,91.9782,2.12729,0,9.8579,-0.476609,0.790356,0.487805,1.55488,-3.78049,-39.5609,-0.704136,2.47645,-14.878,-96.311,7.83537
298.005,91.956,2.20518,0,9.82916,-0.471819,0.809517,0.701219,1.79878,-3.90244,-39.4364,-0.617915,2.49561,-14.5732,-95.5793,8.10976
298.015,91.9269,2.27912,0,9.81479,-0.431104,0.833467,0.365854,1.82927,-4.14634,-39.4172,-0.387993,2.49561,-9.84756,-90.8841,7.19512
298.025,91.8961,2.39457,0,9.80521,-0.414338,0.845442,-0.182927,2.28659,-4.17683,-39.4268,-0.129331,3.26202,-10.4878,-93.9024,6.4939
298.035,91.8661,2.53248,0,9.80281,-0.399968,0.797541,-0.0914634,2.68293,-3.9939,-39.7621,-0.158071,3.7506,-9.35976,-98.7195,7.10366
298.045,91.8376,2.6765,0,9.82677,-0.399968,0.797541,-0.0304878,2.77439,-3.90244,-39.8579,0.0335303,3.95178,-11.0671,-102.47,5.88415
298.055,91.803,2.82489,0,9.84593,-0.371228,0.766406,-0.213415,2.83537,-4.20732,-39.8771,-0.100591,4.12422,-11.0976,-104.848,5.33537
298.065,91.7731,2.93996,0,9.79323,-0.404758,0.823887,-0.0609756,2.2561,-4.2378,-39.9633,-0.0239502,3.64522,-14.5732,-104.848,4.02439
298.075,91.746,3.0644,0,9.80521,-0.457449,0.850232,-0.0914634,1.67683,-4.63415,-39.6663,-0.273032,3.87514,-15.5488,-101.585,3.41463
298.085,91.7087,3.199,0,9.77647,-0.438289,0.876577,-0.304878,1.15854,-5.4878,-39.6567,-0.263452,4.1338,-16.5549,-103.506,3.01829
298.095,91.6735,3.34242,0,9.76689,-0.479004,0.917292,-0.335366,0.853659,-5.85366,-39.5705,-0.493374,4.36373,-14.3293,-106.616,2.80488
298.105,91.634,3.47253,0,9.78366,-0.443079,0.866997,-0.365854,0.731707,-5.91463,-39.3789,-0.435894,4.21044,-16.3415,-106.067,3.68902
298.115,91.5856,3.58995,0,9.8076,-0.364043,0.905317,-0.487805,1.55488,-5.94512,-38.9095,-0.416733,4.02842,-17.2866,-106.463,4.57317
298.125,91.5396,3.72789,0,9.84593,-0.359253,0.871787,-0.731707,2.07317,-5.73171,-38.9382,-0.100591,4.46911,-17.5915,-106.22,3.44512
298.135,91.4906,3.88446,0,9.86509,-0.280217,0.807122,-0.914634,2.77439,-5.18293,-38.8233,-0.0239502,4.85231,-16.0061,-112.622,4.54268
298.145,91.4413,4.07258,0,9.93933,-0.225132,0.826282,-1.09756,2.9878,-4.63415,-39.5609,0.158071,5.58998,-17.8963,-119.665,3.29268
298.155,91.4047,4.2745,0,9.94173,-0.301772,0.759221,-1.06707,2.9878,-4.35976,-38.9574,0.0526904,5.88696,-15.6707,-116.89,0.487805
298.165,91.3746,4.45082,0,9.9082,-0.378413,0.766406,-0.457317,3.20122,-4.69512,-39.2448,0.704136,5.64746,-16.5244,-108.75,-1.15854
298.175,91.3429,4.61118,0,9.82916,-0.387993,0.814307,-0.121951,3.10976,-5.06098,-39.4556,0.00479004,5.51333,-20.3049,-110.244,-2.53049
298.185,91.3127,4.79509,0,9.75491,-0.435894,0.850232,-0.365854,2.77439,-5.57927,-39.1586,0.0335303,5.95402,-19.3598,-123.201,-2.46951
298.195,91.2823,5.00803,0,9.72857,-0.514929,0.811912,-0.335366,3.17073,-6.61585,-38.7849,-0.253872,6.51924,-16.4329,-127.47,-2.19512
298.204,91.2402,5.21211,0,9.73815,-0.438289,0.759221,0.243902,3.71951,-6.95122,-38.6221,-0.320933,6.48092,-15.2134,-128.445,-0.914634
298.215,91.192,5.39792,0,9.79323,-0.399968,0.819097,0.548781,3.81098,-7.16463,-37.9515,-1.11608,6.19352,-17.5305,-128.445,-0.365854
298.225,91.1332,5.62526,0,9.82197,-0.287402,0.843047,0.579268,2.86585,-6.98171,-38.2676,-0.502954,7.09405,-14.5122,-128.598,1.95122
298.235,91.0774,5.87763,0,9.81,-0.306563,0.886157,0.27439,2.40854,-7.04268,-38.4592,-0.464634,7.71675,-15.9756,-131.86,2.7439
298.245,91.0208,6.12883,0,9.80521,-0.282612,0.886157,0.640244,2.40854,-6.95122,-38.6987,-0.493374,7.89877,-16.0061,-138.384,2.53049
298.254,90.9624,6.39454,0,9.83156,-0.287402,0.864602,0.762195,2.40854,-7.28659,-38.5359,-0.445474,8.28198,-18.1707,-143.323,2.65244
298.265,90.9012,6.63356,0,9.7597,-0.273032,0.883762,1.28049,1.37195,-7.56098,-38.3538,-1.12566,7.95625,-15.4878,-143.628,3.07927
298.275,90.8324,6.85236,0,9.73336,-0.210762,0.883762,1.67683,1.12805,-7.71341,-38.3443,-0.340093,7.75507,-16.9207,-146.494,2.04268
298.285,90.7541,7.0349,0,9.75252,-0.167651,0.876577,1.67683,1.15854,-8.29268,-36.1025,-3.4153,6.90245,-0.152439,-128.963,2.65244
298.295,90.675,7.29349,0,9.78605,-0.172441,0.946033,1.34146,1.58537,-8.59756,-37.6737,-0.253872,8.63644,-7.56098,-132.012,2.89634
298.305,90.5942,7.52475,0,9.85072,-0.153281,0.965193,1.0061,2.07317,-8.68902,-37.7886,-0.809517,8.32988,-3.78049,-141.89,3.59756
298.315,90.5194,7.79914,0,9.94173,-0.170046,0.953218,0.914634,1.79878,-8.41463,-37.7599,-0.244292,9.21125,-10.4878,-150.427,4.63415
298.325,90.441,8.10396,0,9.88904,-0.153281,0.890947,1.0061,2.34756,-8.75,-38.1335,-0.100591,10.0447,-8.5061,-149.421,5.27439
298.335,90.3671,8.40441,0,9.94173,-0.155676,0.905317,0.945122,2.68293,-8.47561,-38.076,-0.340093,10.1693,-9.90854,-149.055,4.78659
298.345,90.2933,8.65779,0,9.88425,-0.153281,0.950823,0.914634,2.89634,-8.59756,-37.2234,-1.51844,9.35495,-6.70732,-140.549,5.70122
298.355,90.2193,8.94299,0,9.79323,-0.155676,1.02507,0.701219,2.22561,-8.81098,-37.6449,-0.723296,10.198,-9.87805,-141.86,6.06707
298.365,90.1413,9.23287,0,9.77647,-0.136516,0.984353,0.914634,1.85976,-9.14634,-38.2964,-0.0335303,10.6674,-4.7561,-141.037,6.31098
298.375,90.0611,9.56354,0,9.84353,-0.100591,0.967588,0.823171,0.823171,-9.08537,-37.7982,-0.234712,11.453,-10.8841,-146.677,5.82317
298.385,89.9674,9.88976,0,9.73575,-0.0311353,0.926873,0.884146,0.426829,-9.81707,-36.0163,2.83091,11.0602,-11.9817,-147.591,6.12805
298.395,89.8818,10.1908,0,9.9537,-0.0526904,0.969983,0.609756,1.15854,-9.42073,-37.0989,0.752036,11.1752,-11.372,-146.951,6.89024
298.405,89.7988,10.5011,0,10.004,-0.0215552,0.938848,0.304878,3.01829,-8.96341,-37.118,-0.407153,11.5679,-9.93902,-145.183,6.67683
298.415,89.7139,10.8158,0,9.77407,0.0263452,0.919688,0.213415,2.19512,-8.75,-37.1563,-0.387993,11.8649,-7.77439,-148.994,6.52439
298.425,89.6292,11.1163,0,9.79803,0.0431104,0.869392,0.426829,1.95122,-8.71951,-36.5624,-0.953218,11.6542,-4.78659,-146.189,6.0061
298.435,89.5454,11.3938,0,9.90101,0.0287402,0.922083,0.213415,1.55488,-8.96341,-36.2175,-0.895737,11.3572,-5.60976,-144.482,5.4878
298.445,89.4608,11.7168,0,9.76449,0.0119751,0.972378,-0.121951,1.15854,-9.42073,-36.0259,-0.637075,12.2865,-4.87805,-145.244,5.70122
298.455,89.3747,12.0645,0,9.81958,-0.00958008,0.905317,-0.945122,1.55488,-10,-35.9013,-0.570015,12.9092,-5.06098,-145.305,5.27439
298.465,89.2836,12.3908,0,9.74533,-0.0239502,0.840652,-0.518293,1.70732,-10.8537,-35.9109,-0.368833,12.775,-3.20122,-145.915,5.73171
298.475,89.1851,12.7035,0,9.60642,0.0191602,0.809517,-0.0609756,2.34756,-11.2805,-35.8343,-0.186812,12.7463,-5.91463,-142.896,5.39634
298.485,89.0908,13.037,0,9.99442,0.0766406,0.749641,1.12805,2.2561,-10.3963,-36.0642,-0.225132,13.4265,-3.41463,-142.104,5.60976
298.495,88.9905,13.4242,0,10.004,0.193997,0.811912,1.52439,3.17073,-9.81707,-36.3803,-0.0143701,14.7773,-4.02439,-143.171,3.84146
298.505,88.8907,13.7911,0,10.004,0.213157,0.893342,0.853659,2.13415,-9.7561,-36.457,-0.148491,14.7198,-4.45122,-142.195,5.21341
298.515,88.798,14.1483,0,9.96089,0.165256,0.914897,0.518293,2.31707,-9.78659,-36.3803,-0.148491,14.7773,-7.31707,-142.134,3.65854
298.525,88.7122,14.4849,0,9.94412,0.0790356,0.878972,0.152439,2.04268,-10.2744,-36.2845,-0.455054,14.624,-6.70732,-140.915,3.96341
298.535,88.6309,14.7691,0,9.91059,0.0550855,0.814307,1.15854,2.7439,-10.2744,-36.1025,-0.387993,13.8384,-5.09146,-139.512,5.36585
298.545,88.5272,15.0433,0,9.82916,0.261057,0.704136,1.76829,3.59756,-10.2744,-35.4319,-0.158071,13.6085,-2.68293,-137.713,5.60976
298.555,88.4142,15.3643,0,9.88185,0.385598,0.752036,1.85976,3.5061,-9.96951,-35.1733,0.0335303,14.5473,-0.579268,-137.348,6.09756
298.565,88.2994,15.7257,0,9.92017,0.467029,0.845442,0.853659,3.44512,-9.45122,-35.2978,0.359253,15.5724,-1.40244,-138.506,5.03049
298.575,88.1957,16.0938,0,9.69743,0.409548,0.984353,0.182927,3.07927,-9.11585,-35.2978,0.483794,15.9652,-2.68293,-138.323,4.32927
298.585,88.1125,16.4601,0,9.69504,0.354463,1.08015,0.396341,3.44512,-7.89634,-35.4223,0.387993,16.2718,-3.53659,-135.274,2.2561
298.595,88.0485,16.8396,0,9.73096,0.268242,1.02746,1.0061,3.87195,-7.16463,-35.4415,0.205972,16.8082,-6.12805,-135.823,2.62195
298.605,87.9872,17.2123,0,9.86988,0.316143,1.01788,1.95122,3.47561,-6.4939,-35.5756,-0.100591,17.0286,-8.65854,-135.793,3.04878
298.615,87.9343,17.5767,0,9.94891,0.313748,1.12805,2.34756,2.65244,-5.82317,-35.3361,-0.397573,17.0382,-8.62805,-135.518,2.34756
298.625,87.8836,17.9304,0,9.91059,0.325723,1.2023,2.16463,1.61585,-5.54878,-34.9242,-0.675395,16.9136,-8.75,-135.213,2.2561
298.635,87.8526,18.256,0,9.9082,0.167651,1.16398,1.15854,0.548781,-5.51829,-34.5889,-0.828677,16.4825,-11.128,-136.128,0.97561
298.645,87.8044,18.5657,0,9.75252,0.265847,1.04183,1.52439,1.25,-6.12805,-33.8895,-0.608335,16.0897,-8.9939,-137.409,2.04268
298.655,87.7475,18.8926,0,9.72617,0.332908,1.07536,1.37195,2.07317,-6.28049,-33.1614,-0.589175,16.2813,-7.56098,-135.671,4.84756
298.665,87.7015,19.2501,0,9.85311,0.385598,0.984353,1.15854,2.80488,-4.72561,-33.2572,-0.483794,17.1148,-6.43293,-139.207,6.40244
298.675,87.6486,19.6409,0,9.81958,0.459844,1.04902,0.914634,3.23171,-4.60366,-33.104,-0.550855,17.9195,-5.97561,-139.634,9.42073
298.685,87.6011,20.0063,0,9.73575,0.409548,1.14242,0.121951,2.53049,-4.72561,-33.1806,-0.0718506,17.7854,-5.4878,-136.311,10.6707
298.695,87.5609,20.367,0,9.58247,0.296982,1.21427,-0.670732,2.2561,-5.39634,-33.1806,0.0814307,17.9962,-7.95732,-129.726,10.4573
298.705,87.5221,20.744,0,9.68785,0.217947,1.3005,-1.03659,-0.27439,-6.31098,-33.2189,0.0431104,18.6189,-9.78659,-124.787,8.62805
298.715,87.482,21.1162,0,9.69743,0.215552,1.09213,0.304878,0.0914634,-6.55488,-33.3339,-0.0910107,18.8871,-10.8232,-122.53,7.7439
298.725,87.4481,21.4585,0,9.95849,0.282612,1.0562,0.457317,1.18902,-5.30488,-33.8416,0.148491,18.8775,-12.7134,-122.226,7.34756
298.735,87.3986,21.8012,0,9.90341,0.378413,0.996328,0.579268,0.335366,-5.79268,-33.9183,0.0335303,19.1937,-14.8171,-123.11,5.57927
298.745,87.3637,22.1453,0,9.91299,0.282612,1.02746,0.365854,-0.27439,-5.54878,-33.7267,0.0622705,19.3757,-14.2378,-124.024,5.18293
298.755,87.3014,22.4352,0,9.76928,0.433499,1.02746,0.0304878,0.152439,-6.55488,-33.6309,0.0143701,18.5327,-14.8171,-122.622,3.78049
298.765,87.2481,22.7258,0,9.77168,0.352068,0.981958,-0.396341,1.03659,-6.7378,-33.0848,-0.0526904,18.4752,-13.9634,-120.213,2.71341
298.775,87.1953,23.0321,0,9.82197,0.361648,0.958008,-0.121951,2.46951,-6.70732,-33.0944,-0.253872,19.0021,-12.2561,-120.488,1.58537
298.785,87.1462,23.3735,0,10.0088,0.426313,1.00112,-0.609756,1.79878,-5.7622,-32.6633,0.0335303,19.6631,-10.2744,-122.47,3.41463
298.795,87.0854,23.709,0,9.74533,0.471819,0.962798,0.152439,1.79878,-6.37195,-32.6537,-0.100591,19.8164,-8.5061,-120,4.60366
298.805,87.0229,24.0459,0,9.7597,0.474214,0.900527,0.487805,2.10366,-6.64634,-32.4142,0.0622705,19.9793,-9.93902,-114.909,4.66463
298.815,86.9634,24.3957,0,9.89383,0.519719,0.948428,1.15854,2.46951,-6.0061,-32.2034,0.311353,20.3816,-10.6402,-110.61,5.97561
298.825,86.9148,24.7412,0,9.97765,0.538879,0.984353,1.58537,2.46951,-4.84756,-32.0118,0.129331,20.4678,-10.4878,-106.311,4.7561
298.835,86.8756,25.0683,0,9.92017,0.510139,1.10171,0.731707,1.64634,-4.29878,-32.0789,0.0910107,20.4295,-11.0976,-103.11,3.23171
298.845,86.8467,25.394,0,9.81958,0.404758,1.14482,-0.27439,1.15854,-4.54268,-32.1172,0.0335303,20.6882,-13.4451,-102.256,1.43293
298.855,86.8096,25.7002,0,9.68067,0.428708,1.02267,0.548781,2.13415,-5.06098,-32.3759,0.119751,20.7169,-16.25,-103.476,0.152439
298.865,86.7683,25.9925,0,9.77886,0.452659,0.979563,0.97561,2.7439,-5.33537,-32.395,-0.196392,20.6978,-18.1707,-102.073,0.396341
298.875,86.7311,26.2998,0,9.82197,0.464634,0.993933,1.0061,2.89634,-4.87805,-32.2992,-0.244292,21.1768,-17.1646,-101.372,1.61585
298.885,86.6861,26.6035,0,9.91059,0.56762,0.969983,1.52439,2.7439,-4.57317,-31.8298,0.0239502,21.0522,-16.9207,-98.7195,2.07317
298.895,86.6398,26.9129,0,9.88904,0.617915,0.989143,1.7378,2.19512,-4.17683,-31.5232,0.0622705,21.2247,-15.0915,-94.0244,2.10366
298.905,86.6056,27.2351,0,9.80281,0.570015,1.12087,1.46341,1.37195,-3.56707,-31.1496,0.158071,21.4929,-13.872,-89.8476,2.34756
298.915,86.5736,27.5603,0,9.68306,0.548459,1.2023,0.304878,1.06707,-3.59756,-30.8814,0.464634,21.6462,-12.8049,-84.6341,1.7378
298.924,86.5542,27.8964,0,9.69504,0.510139,1.15919,-0.152439,2.16463,-2.92683,-30.8143,0.780776,22.106,-13.2622,-78.9329,2.0122
298.935,86.5239,28.236,0,9.80042,0.57241,1.11368,0.823171,2.19512,-3.32317,-30.6802,0.474214,22.3743,-16.6159,-74.5427,1.31098
298.945,86.4939,28.5839,0,9.84353,0.593965,1.1999,0.762195,1.89024,-3.10976,-30.6131,0.502954,22.7862,-19.2073,-72.7439,1.31098
298.955,86.4732,28.895,0,9.84114,0.565225,1.18553,0.426829,1.89024,-2.62195,-30.5844,0.349673,22.2881,-20.6402,-72.5,0.853659
298.965,86.4551,29.167,0,9.81958,0.60115,1.31008,0.27439,1.85976,-1.92073,-30.6227,0.100591,21.7707,-23.4756,-71.189,0.426829
298.975,86.4345,29.4266,0,9.75491,0.598755,1.27894,0.121951,1.55488,-2.19512,-30.8047,-0.397573,21.8665,-23.2317,-71.8598,-0.152439
298.985,86.4246,29.6781,0,9.69743,0.560435,1.2502,0.487805,1.03659,-1.7378,-31.1592,-0.819097,22.1444,-23.9939,-76.1281,0.0914634
298.995,86.4123,29.9206,0,9.70941,0.58199,1.1999,0.884146,1.06707,-1.67683,-31.4658,-0.962798,22.3647,-22.3171,-80.3659,0.884146
299.005,86.3946,30.1416,0,9.80521,0.641865,1.1041,1.40244,1.09756,-1.34146,-31.7723,-1.08734,22.3264,-19.7256,-81.9512,2.07317
299.015,86.3711,30.3284,0,9.95849,0.706531,1.06099,1.34146,1.15854,-0.853659,-31.6574,-0.455054,21.7324,-16.25,-78.4756,2.37805
299.025,86.3517,30.5397,0,9.91538,0.682581,1.10171,1.55488,0.670732,-0.97561,-31.2454,-0.196392,22.1156,-12.6524,-75.3659,3.23171
299.035,86.3409,30.7633,0,9.8579,0.65384,1.11368,1.15854,0.579268,-0.487805,-31.2646,-0.273032,22.5755,-11.9207,-71.8293,2.0122
299.045,86.3475,30.9862,0,9.8603,0.579595,1.12326,1.31098,0.945122,-0.548781,-31.1113,-0.0526904,22.6425,-12.0122,-69.4817,0.640244
299.055,86.3741,31.1919,0,9.84114,0.502954,1.15919,0.914634,0.945122,-0.457317,-31.073,0.138911,22.4509,-11.9207,-67.0122,-2.13415
299.065,86.4011,31.4019,0,9.78366,0.464634,1.11608,0.914634,1.40244,-0.762195,-31.0155,0.292192,22.6808,-12.8659,-64.3598,-3.47561
299.075,86.4219,31.6026,0,9.75731,0.502954,1.12805,0.335366,1.46341,-0.609756,-31.1209,0.311353,22.7383,-15.4268,-63.872,-4.08537
299.085,86.4534,31.7887,0,9.8124,0.479004,1.07057,0.152439,2.16463,-0.396341,-31.0634,0.0431104,22.5467,-16.0976,-66.3415,-4.35976
299.095,86.5035,31.96,0,9.83874,0.387993,1.01309,0.487805,3.01829,-0.487805,-31.2933,-0.00479004,22.5563,-17.8049,-66.8902,-5.21341
299.105,86.5541,32.1528,0,9.74054,0.340093,1.08255,0.792683,2.04268,-0.762195,-31.2167,-0.196392,23.0832,-19.8476,-70.3049,-4.05488
299.115,86.599,32.3267,0,9.70941,0.311353,1.08255,1.06707,1.70732,-1.06707,-31.0921,-0.0910107,22.7575,-19.6341,-68.9329,-3.71951
299.125,86.6417,32.5189,0,9.67348,0.320933,1.14721,1.37195,1.55488,-1.03659,-30.6036,-0.292192,22.9299,-19.4817,-68.5976,-2.16463
299.134,86.678,32.7008,0,9.73575,0.328118,1.08494,1.64634,1.28049,-1.12805,-30.6227,-0.368833,22.8916,-18.2622,-67.2561,-2.0122
299.145,86.6986,32.8804,0,9.79084,0.376018,1.06339,2.62195,1.34146,-1.34146,-30.3832,-0.493374,22.815,-16.5244,-67.1646,-1.61585
299.155,86.7104,33.0478,0,9.88664,0.399968,1.01549,2.56098,2.0122,-1.55488,-30.3545,-0.598755,22.6904,-17.8963,-66.5854,-1.79878
299.165,86.7144,33.2257,0,9.8603,0.469424,1.03225,2.5,2.31707,-1.31098,-30.5269,-0.589175,23.179,-18.8415,-66.8293,-1.76829
299.175,86.7207,33.4118,0,9.82677,0.457449,1.09213,2.34756,1.98171,-1.28049,-30.594,-0.598755,23.5526,-17.1341,-67.3171,-0.609756
299.185,86.7225,33.5904,0,9.8579,0.471819,1.16877,3.17073,1.40244,-1.40244,-30.6515,-0.560435,23.5909,-16.2805,-68.2927,-0.243902
299.195,86.7209,33.7616,0,9.82916,0.481399,1.1999,3.17073,0.823171,-1.52439,-30.6515,-0.502954,23.5909,-15.4268,-66.7073,-0.640244
299.204,86.7239,33.9047,0,9.79323,0.450264,1.16398,2.13415,0.609756,-1.55488,-30.8239,-0.493374,23.2652,-14.1463,-66.6463,-1.85976
299.215,86.7282,34.0424,0,9.76689,0.426313,1.13284,2.31707,2.0122,-1.70732,-30.9005,-0.541274,23.3227,-15.1829,-68.2622,-0.518293
299.225,86.7245,34.1865,0,9.82677,0.438289,1.17835,2.2561,2.71341,-2.16463,-31.0251,-0.579595,23.658,-15.122,-71.5854,-0.27439
299.235,86.7158,34.3181,0,9.84593,0.474214,1.14961,2.92683,3.29268,-2.16463,-31.1879,-0.579595,23.6293,-15.3049,-73.2927,-1.79878
299.245,86.7055,34.4369,0,9.78605,0.505349,1.24541,3.38415,2.7439,-1.92073,-31.3508,-0.656235,23.5718,-14.2073,-76.3719,-1.4939
299.255,86.6815,34.5656,0,9.78366,0.538879,1.29331,2.40854,1.12805,-2.77439,-31.4274,-0.531694,23.9262,-13.0793,-81.6463,-0.914634
299.265,86.6572,34.6958,0,9.88185,0.498164,1.14482,2.07317,0.640244,-3.41463,-31.3508,-0.991538,23.9837,-13.4451,-88.4146,-2.68293
299.275,86.6297,34.8346,0,9.81719,0.469424,1.1544,1.70732,0.945122,-4.08537,-31.14,-0.934058,24.1083,-13.2012,-91.7073,-3.01829
299.285,86.6053,34.9602,0,9.81958,0.445474,1.19751,1.12805,0.731707,-4.11585,-30.8335,-0.790356,23.6963,-12.1037,-93.689,-3.65854
299.295,86.5769,35.077,0,9.89622,0.447869,1.13763,2.07317,1.0061,-4.57317,-30.4982,-1.2502,23.3514,-9.7561,-94.7866,-3.65854
299.305,86.5484,35.1791,0,9.93215,0.438289,1.20469,2.16463,1.4939,-4.7561,-30.3928,-1.12566,23.0449,-5.60976,-97.8049,-2.92683
299.315,86.5166,35.3303,0,9.95131,0.512534,1.24062,1.79878,2.28659,-4.29878,-30.2204,-1.3939,24.0316,-5.15244,-102.287,-4.63415
299.325,86.4783,35.4906,0,10.0687,0.61073,1.11608,2.10366,3.2622,-3.93293,-30.115,-1.25978,24.2615,-3.38415,-105.335,-5.21341
299.335,86.4272,35.6398,0,9.98723,0.701741,1.17835,1.82927,3.84146,-4.17683,-30.0575,-1.06818,24.0987,-2.31707,-108.841,-5.97561
299.345,86.391,35.7934,0,9.73815,0.498164,1.22625,0.304878,3.71951,-5.03049,-30.0383,-1.13524,24.2999,1.67683,-110.183,-5
299.355,86.3617,35.9453,0,9.69504,0.387993,1.15679,0.548781,3.9939,-5.70122,-30.2683,-1.45138,24.5777,4.14634,-111.829,-4.26829
299.365,86.3254,36.0722,0,9.78844,0.416733,1.08973,2.86585,4.60366,-6.15854,-30.5078,-1.55676,24.3382,8.14024,-114.604,-2.37805
299.375,86.2952,36.2004,0,9.83395,0.344883,1.26936,3.17073,4.42073,-6.4939,-30.115,-1.56634,24.1562,11.6159,-116.402,-3.38415
299.385,86.2546,36.3567,0,9.92017,0.450264,1.34361,3.81098,4.66463,-6.40244,-29.8467,-1.71004,24.6735,14.5427,-114.787,-4.05488
299.395,86.2117,36.5525,0,9.89143,0.443079,1.35319,3.62805,5.54878,-6.79878,-29.6072,-1.24062,25.4878,15.4573,-116.524,-4.96951
299.405,86.1747,36.7461,0,9.92257,0.371228,1.31726,3.29268,5.06098,-7.13415,-29.2719,-1.04902,25.3154,18.5366,-118.445,-5.36585
299.415,86.1184,36.9493,0,9.83156,0.486189,1.38193,2.19512,4.35976,-7.77439,-29.0995,-0.110171,25.5549,21.8293,-118.811,-5.79268
299.425,86.0766,37.1624,0,9.8076,0.308958,1.53521,0.945122,3.41463,-8.5061,-28.8121,0.694556,25.7177,22.5305,-117.012,-6.18902
299.435,86.0204,37.3765,0,9.63756,0.364043,1.5879,0.609756,4.69512,-9.32927,-28.7546,0.809517,25.8806,17.6829,-117.195,-7.0122
299.445,85.957,37.5549,0,9.48188,0.323328,1.62622,-0.945122,7.0122,-10.6098,-28.8983,0.368833,25.3824,13.5061,-118.933,-9.08537
299.455,85.8671,37.7171,0,9.63516,0.490979,1.31726,-2.13415,6.21951,-11.4634,-29.2815,0.225132,25.507,9.87805,-119.238,-11.0061
299.465,85.7426,37.8948,0,9.57529,0.704136,1.54718,-6.15854,3.90244,-12.561,-29.2911,-0.234712,26.0147,8.65854,-120.396,-12.9878
299.475,85.6412,38.0876,0,9.58247,0.385598,1.43462,-6.31098,1.76829,-14.3293,-29.0516,-0.0239502,26.3117,6.0061,-120.732,-15.4268
299.485,85.5896,38.3081,0,9.77647,0.170046,1.57832,-4.05488,0.0304878,-12.1341,-28.4576,-0.263452,26.5895,5.85366,-121.067,-16.311
299.495,85.4705,38.5242,0,9.52978,0.471819,1.60227,-2.56098,-4.39024,-15.3659,-27.969,-0.215552,26.2255,7.46951,-122.591,-16.189
299.505,85.3342,38.7151,0,9.86509,0.57241,1.95434,-3.75,-8.96341,-16.372,-27.9116,0.320933,25.7944,12.8659,-121.829,-14.9695
299.515,85.1642,39.0163,0,10.1046,0.661025,1.38193,-5.60976,-15.5793,-19.2378,-27.2314,0.483794,27.9211,15.6707,-121.982,-12.7134
299.525,84.9914,39.3786,0,10.0663,0.673001,1.29571,-8.93293,-11.8293,-19.6951,-27.5188,0.637075,30.0192,17.8963,-137.012,-10.7012
299.535,84.8251,39.7032,0,9.82916,0.479004,1.64059,-9.96951,-13.4146,-21.4939,-27.4805,0.656235,29.3581,18.5976,-138.079,-9.05488
299.545,84.6437,40.0084,0,9.50823,0.455054,1.41546,-4.81707,-19.2683,-23.4756,-27.1356,0.512534,28.8504,14.2988,-132.652,-8.56707
299.555,84.4808,40.3078,0,9.1825,0.332908,1.23583,-2.71341,-17.622,-23.3232,-26.5224,0.407153,28.3714,8.56707,-129.024,-6.52439
299.565,84.2965,40.6182,0,9.27831,0.622705,1.02267,-3.62805,-12.9878,-22.2256,-25.871,0.675395,28.266,1.4939,-123.933,-5.64024
299.575,84.1328,40.9665,0,9.5202,0.65384,0.914897,-4.57317,-10.0305,-20.3354,-25.6219,0.866997,29.2623,-8.2622,-124.817,-7.2561
299.585,83.9081,41.3204,0,9.74294,1.34361,0.766406,-5.12195,-9.17683,-18.872,-25.4016,0.886157,29.5019,-15.9756,-127.835,-8.32317
299.595,83.7052,41.7021,0,11.247,2.16031,0.900527,-4.5122,-4.66463,-10.9451,-24.7885,1.06818,29.8563,-23.1098,-133.811,-7.9878
299.605,83.5754,42.0625,0,10.7297,1.61185,1.29331,-8.38415,-1.12805,-8.65854,-24.5394,0.570015,29.3869,-23.9329,-134.634,-6.61585
299.615,83.5294,42.415,0,9.90341,0.58199,0.773591,-5.2439,3.29268,-10.9451,-23.5909,-0.0718506,28.4289,-19.7866,-131.189,-5.4878
299.625,83.4709,42.7639,0,9.7118,0.65384,0.895737,-2.80488,5,-11.311,-23.1311,-0.799937,28.1415,-12.8659,-130.366,-3.90244
299.635,83.4003,43.1618,0,9.79084,0.878972,0.996328,-3.9939,4.90854,-10.061,-22.6713,-0.895737,29.1282,-3.44512,-142.439,-3.38415
299.645,83.3007,43.6427,0,10.0615,1.2981,0.708926,-2.43902,6.12805,-8.62805,-21.0331,-1.26936,29.636,-13.872,-135.274,-4.26829
299.655,83.2432,44.1369,0,9.92496,0.819097,1.23583,-2.7439,4.17683,-9.90854,-20.123,-1.31726,29.3294,-11.7073,-116.921,-4.26829
299.665,83.1643,44.6067,0,9.76928,1.07536,1.56155,-1.70732,2.83537,-9.02439,-19.8643,-0.934058,28.8791,-9.93902,-105.335,-3.53659
299.675,83.0938,45.0587,0,9.72857,1.21188,1.52323,-1.92073,6.09756,-6.64634,-19.7685,-0.119751,28.8025,-1.61585,-98.0183,-0.304878
299.685,83.0559,45.4825,0,9.31663,0.886157,1.346,-3.56707,9.42073,-6.89024,-20.2283,1.03944,29.157,1.0061,-103.232,3.59756
299.695,82.9792,45.8884,0,8.69392,1.14961,1.48252,-2.77439,4.69512,-6.61585,-20.5157,1.54718,29.5881,-1.31098,-95.0915,5.97561
299.705,82.8727,46.2899,0,9.331,1.58311,1.39869,-5.30488,0.0304878,-5.4878,-20.8798,1.71962,30.5652,-10.2744,-73.7805,4.90854
299.715,82.8262,46.6107,0,9.69983,1.20469,1.41306,-6.58537,0.640244,-4.84756,-21.7803,1.43222,30.0671,-20.0915,-62.6524,3.75
299.725,82.8087,46.9027,0,9.58966,1.05141,1.47054,-5.06098,1.25,-3.75,-21.9719,1.09692,29.9042,-28.0183,-58.75,-0.884146
299.735,82.8114,47.1523,0,9.63037,0.912502,1.47773,-4.84756,3.65854,-3.56707,-22.3455,0.196392,29.5689,-27.6829,-57.2866,-3.47561
299.745,82.8344,47.3761,0,9.60882,0.56283,1.35558,-5.64024,7.28659,-5.54878,-22.4797,-0.646655,29.3294,-24.6037,-55.0915,-6.15854
299.755,82.8271,47.5936,0,9.76449,0.723296,1.07297,-5.57927,11.372,-6.7378,-22.3839,-0.905317,29.2911,-21.0671,-51.4329,-7.62195
299.765,82.7915,47.8162,0,9.81479,1.06339,1.12326,-4.32927,10.9451,-5.67073,-22.5371,-0.819097,29.8755,-18.7805,-49.6037,-5.09146
299.775,82.7194,48.0117,0,10.2267,1.43462,1.26218,-1.7378,9.11585,-5.7622,-23.2173,-0.972378,30.2587,-17.8963,-50.7012,-3.59756
299.785,82.6398,48.174,0,10.0902,1.40827,1.20709,-1.7378,10.7927,-6.76829,-24.137,-1.51844,30.7089,-16.0976,-56.0061,-0.304878
299.795,82.6466,48.3308,0,10.8446,1.07776,1.00591,-1.34146,18.872,-2.86585,-24.2903,-1.83458,30.891,-14.0244,-63.3232,1.70732
299.805,82.6172,48.5025,0,9.43398,1.08015,0.574805,-0.182927,15.3963,-4.72561,-24.3861,-1.71004,31.5807,-12.7134,-69.0549,2.13415
299.815,82.5365,48.7286,0,9.36453,1.3939,1.11847,-4.42073,12.5915,-6.0061,-24.0316,-1.09692,32.874,-14.2988,-76.311,3.53659
299.825,82.4873,48.963,0,9.49865,0.914897,0.814307,-5.36585,3.23171,-9.02439,-23.7442,-0.282612,32.9698,-16.6159,-82.5305,5
299.835,82.4403,49.1235,0,10.0735,0.969983,0.898132,-3.01829,6.92073,-8.90244,-23.7634,0.646655,31.1017,-18.5061,-80.4573,5.03049
299.845,82.4373,49.2391,0,9.93933,0.725691,0.967588,-1.21951,10.0305,-7.22561,-24.0795,1.3939,30.4599,-19.8476,-74.8476,5.03049
299.855,82.4159,49.3828,0,9.55852,0.771196,0.699346,0.609756,9.63415,-8.20122,-24.4052,1.22146,31.8202,-26.372,-72.0427,4.35976
299.865,82.3128,49.5362,0,8.84002,1.26457,0.986748,0.792683,7.16463,-9.39024,-24.6448,0.886157,32.5579,-33.6585,-76.4939,3.41463
299.875,82.2111,49.6952,0,9.53697,1.50647,1.0107,2.19512,6.52439,-7.7439,-24.549,0.253872,32.7399,-40.7012,-84.1463,1.55488
299.885,82.0764,49.856,0,9.57529,1.66693,1.5879,2.86585,1.70732,-9.48171,-24.022,-0.282612,32.2513,-44.5427,-87.9878,0.365854
299.895,81.9599,50.0482,0,9.99202,1.61185,2.07648,2.31707,0.396341,-9.35976,-22.9203,-1.97829,31.849,-40.2744,-90.7012,-0.487805
299.905,81.8447,50.2657,0,10.3417,1.61424,1.72441,-5.15244,-1.37195,-10.061,-21.9336,-2.63931,31.4466,-32.561,-88.0488,0.0304878
299.915,81.7313,50.5197,0,9.79323,1.32684,1.0083,-6.89024,0.426829,-12.4695,-21.4642,-4.43079,32.1268,-22.1341,-86.7073,0.304878
299.925,81.6108,50.742,0,9.72138,1.31726,1.73399,-4.90854,2.16463,-13.4146,-21.5408,-5.30257,31.619,-11.7988,-80.2439,-0.884146
299.935,81.4704,50.989,0,9.91059,1.45617,1.76034,-4.11585,-0.548781,-14.3902,-20.7648,-5.37921,31.5041,1.37195,-74.5732,-0.121951
299.945,81.3311,51.2734,0,10.7872,1.65017,1.41306,-6.58537,5.03049,-13.872,-20.6403,-4.30625,32.7974,10.7317,-71.4939,3.93293
299.955,81.1431,51.5627,0,9.57289,1.8274,1.44899,-4.17683,3.01829,-14.8171,-20.6882,-2.68721,33.4009,12.8049,-71.189,10.1524
299.965,80.9924,51.7961,0,9.97765,1.65496,2.14354,-6.12805,2.43902,-14.2378,-21.5121,-1.24062,33.2572,10.3049,-71.2805,16.25
299.975,80.8472,52.022,0,10.3417,1.59748,1.63101,-5.51829,-1.89024,-15.2744,-21.9719,-0.349673,34.0045,9.78659,-74.8476,19.4817
299.985,80.739,52.2276,0,9.81,1.22625,1.77231,-3.93293,-2.04268,-15.1829,-22.2402,-0.0143701,34.062,8.38415,-71.9207,18.5366
299.995,80.5447,52.4237,0,9.58008,1.67891,1.98787,-4.08537,-0.396341,-18.4451,-22.6713,0.225132,34.6655,9.42073,-73.1707,15.4268
300.005,80.3381,52.5812,0,9.97526,1.77231,1.15679,-5.39634,0.0609756,-19.8171,-22.6904,-0.119751,33.6979,11.0061,-72.1341,11.9817
300.015,80.1312,52.7283,0,10.0375,1.75794,1.34121,-5.97561,0.487805,-20.5488,-22.336,-0.426313,33.0465,14.7561,-70.8537,7.77439
300.025,79.9329,52.8795,0,9.95849,1.75315,1.19511,-5.79268,3.56707,-20,-22.0102,-0.483794,32.8836,19.3293,-68.9024,2.40854
300.035,79.7358,53.0735,0,9.74294,1.64538,1.4442,-5.18293,5.88415,-21.0976,-21.3396,-0.560435,33.4201,17.1646,-68.1098,-1.70732
300.045,79.5475,53.29,0,9.40764,1.54718,1.40827,-3.20122,4.81707,-21.0976,-21.1863,-0.340093,34.1673,12.5,-69.4817,-3.29268
300.055,79.3734,53.5203,0,9.38369,1.49689,1.50647,-2.89634,0.853659,-20.6098,-20.8223,-0.110171,34.3206,7.62195,-71.0976,-0.762195
300.065,79.1812,53.7999,0,9.29507,1.4921,1.0562,-0.213415,-2.16463,-22.6829,-20.3146,0.397573,35.499,2.46951,-72.9573,2.37805
300.075,78.9842,54.0806,0,9.73815,1.56634,1.11368,0.182927,-5.36585,-23.5366,-20.3529,1.28852,35.9876,-3.71951,-76.2195,6.21951
300.085,78.7784,54.3403,0,9.92257,1.70046,1.21427,1.43293,-6.21951,-23.628,-20.0655,1.73878,35.1158,-8.29268,-77.3781,7.13415
300.095,78.5749,54.5674,0,9.9537,1.8274,0.984353,0.792683,-4.14634,-22.439,-19.711,1.93039,33.7362,-10.7317,-75.1219,6.40244
300.105,78.3825,54.8315,0,10.1549,1.85135,1.18793,1.25,-3.78049,-21.8598,-18.8967,1.87291,33.9087,-13.4451,-74.1768,5.12195
300.115,78.1924,55.1124,0,9.7621,1.94715,1.35319,2.9878,-3.56707,-20.0915,-18.1207,1.31726,33.4776,-14.4512,-70.6707,3.53659
300.125,77.9969,55.3469,0,9.3789,1.99984,0.840652,4.2378,-3.56707,-19.4817,-17.9579,0.502954,32.031,-16.3415,-62.7439,3.71951
300.135,77.7952,55.5761,0,9.10347,2.11241,1.30529,4.69512,-4.48171,-18.4146,-17.9291,0.263452,32.1651,-16.128,-54.939,2.80488
300.145,77.5974,55.7993,0,9.40524,2.11959,1.27176,5.36585,-7.28659,-19.1768,-18.3602,0.0431104,33.0561,-17.7439,-52.8963,4.17683
300.155,77.3953,56.0286,0,9.62319,2.20102,1.4418,6.40244,-10.6098,-19.6341,-18.6668,0.0622705,34.0907,-20.1524,-58.9024,5.09146
300.165,77.1802,56.2236,0,9.63516,2.21779,0.967588,6.43293,-9.20732,-21.2195,-18.8775,0.617915,33.5638,-14.3293,-62.3476,6.85976
300.175,76.9543,56.4249,0,9.64714,2.27766,1.12087,6.82927,-8.56707,-22.1037,-18.6189,1.2981,33.5925,-16.4024,-61.5244,7.34756
300.185,76.7171,56.6446,0,9.4723,2.51956,1.52802,5.88415,-6.52439,-20.4268,-18.1974,1.57592,33.7458,-20.2744,-62.3171,6.76829
300.195,76.5144,56.8773,0,9.57529,2.38065,0.981958,5.73171,-6.4939,-19.2988,-17.8812,1.6813,33.9278,-26.1585,-63.2622,5.2439
300.204,76.3106,57.0993,0,9.5226,2.44771,1.35798,6.76829,-7.7439,-18.9024,-17.8812,1.59508,33.8608,-32.5,-64.6951,5.21341
300.215,76.1111,57.2777,0,9.39327,2.46927,1.47533,6.15854,-10.6707,-18.2317,-18.4656,0.838257,33.6883,-33.2317,-67.0732,4.54268
300.225,75.9231,57.4389,0,9.50583,2.3543,1.09213,7.59146,-10.8537,-19.1463,-18.7051,0.474214,33.7458,-32.378,-70.3049,4.66463
300.235,75.7221,57.5863,0,9.30705,2.42376,1.18074,7.34756,-9.93902,-19.4512,-18.8105,-0.119751,33.6596,-31.9512,-72.7439,3.35366
300.245,75.531,57.7665,0,9.67348,2.34233,0.993933,7.34756,-10.6098,-20.8537,-18.456,-0.263452,34.3398,-29.2988,-79.5122,2.5
300.255,75.3172,57.9449,0,9.66151,2.58902,1.43462,8.29268,-11.372,-20.7317,-18.1495,-0.838257,33.9278,-25.7927,-83.8719,0.945122
300.265,75.09,58.1422,0,9.77168,2.72553,1.31008,7.53049,-8.04878,-21.3415,-17.7663,-0.934058,34.1482,-26.1585,-83.7195,1.95122
300.275,74.855,58.3443,0,9.63995,2.83091,1.4418,4.08537,-2.53049,-21.0061,-17.5076,-0.857417,34.129,-28.1707,-81.4329,2.19512
300.285,74.6255,58.5461,0,9.64474,2.75188,1.32924,4.11585,-1.34146,-21.8293,-17.498,-0.474214,34.3877,-29.2073,-82.561,5.57927
300.295,74.3914,58.7306,0,9.74533,2.84049,1.28852,5.94512,-5.39634,-22.1037,-17.7758,-0.474214,34.5314,-29.1159,-89.3293,7.71341
300.305,74.1748,58.9142,0,9.69264,2.77822,1.52084,5.7622,-6.95122,-21.311,-17.8812,-0.00479004,34.9242,-27.8659,-97.2561,8.56707
300.315,73.963,59.1108,0,9.54894,2.74948,1.06339,6.79878,-6.43293,-21.128,-17.7663,-0.00479004,35.4415,-26.4939,-101.189,8.59756
300.325,73.749,59.3142,0,9.66869,2.82373,1.16398,8.14024,-5.73171,-21.3415,-17.4501,-0.215552,35.4032,-28.8415,-98.2927,6.64634
300.335,73.529,59.4927,0,9.63277,2.85247,1.21188,8.20122,-5.73171,-21.9512,-17.431,-0.416733,34.7517,-25.3354,-92.7134,3.87195
300.345,73.2928,59.6596,0,9.34776,2.89558,1.20948,9.66463,-4.48171,-22.5915,-17.2681,-1.06818,34.3015,-20.4268,-86.5854,0.884146
300.354,73.0352,59.8371,0,9.32142,3.00335,1.1999,7.56098,-2.07317,-23.9329,-17.1819,-1.11608,34.8092,-19.2073,-83.811,-1.43293
300.365,72.775,60.0487,0,9.3789,3.08479,1.23823,4.05488,0.335366,-24.0244,-16.9519,-0.732876,35.9684,-23.872,-83.5976,-0.396341
300.375,72.5383,60.2518,0,9.66151,2.92671,1.08973,2.19512,-2.5,-24.9085,-17.0956,-0.119751,36.2462,-28.4146,-86.4329,2.59146
300.385,72.329,60.472,0,9.77886,2.80217,0.912502,4.14634,-6.12805,-24.3598,-16.9136,0.215552,36.8785,-32.1646,-91.0366,5.7622
300.395,72.1104,60.6915,0,9.70701,2.84528,0.807122,5.57927,-9.11585,-25.0305,-16.8561,0.426313,37.0605,-31.2195,-95.6707,6.89024
300.404,71.8672,60.8741,0,9.63756,3.09676,1.06578,7.16463,-11.0366,-24.9695,-16.8945,0.100591,35.9301,-27.8049,-97.8963,6.79878
300.415,71.6082,61.052,0,9.5705,3.27878,0.924478,6.70732,-7.37805,-24.8476,-16.6454,-0.426313,35.5373,-24.2378,-94.1768,7.10366
300.425,71.3269,61.2297,0,9.45075,3.43925,0.998723,6.03659,-5.4878,-25.4268,-16.3867,-1.00112,35.2786,-19.939,-91.4024,4.02439
300.435,71.0375,61.4297,0,9.20885,3.4632,1.05381,6.55488,-5.60976,-25.5793,-16.3388,-1.88249,36.4187,-16.0061,-89.6646,2.95732
300.445,70.7482,61.6489,0,9.12742,3.45122,0.929268,7.31707,-4.66463,-25.9451,-16.1376,-2.23695,37.118,-12.0427,-93.2927,3.78049
300.455,70.4584,61.8766,0,9.19687,3.47278,0.979563,6.12805,-6.09756,-26.6463,-16.0706,-1.93997,37.7311,-10.7927,-94.939,4.17683
300.465,70.1927,62.1022,0,9.51541,3.28836,0.699346,5.85366,-7.95732,-28.0793,-15.9269,-1.03944,37.6928,-11.8902,-96.7683,6.76829
300.475,69.9458,62.3061,0,9.55852,3.15903,1.32445,8.93293,-8.04878,-28.2927,-15.9556,-0.0526904,37.1372,-9.93902,-101.463,9.66463
300.485,69.6835,62.4972,0,9.56571,3.31231,0.977168,10.5793,-12.9878,-28.7195,-15.9269,0.531694,36.8306,-8.17073,-104.634,11.4939
300.495,69.3976,62.6773,0,9.45554,3.66677,1.38193,10.3659,-10.6098,-27.378,-15.9269,0.684976,36.6773,-6.55488,-104.756,12.0122
300.505,69.1198,62.8491,0,9.3765,3.61408,1.16398,9.57317,-9.90854,-27.378,-15.8598,0.110171,36.4761,-10.122,-104.085,9.66463
300.514,68.822,63.0257,0,9.5681,3.88233,1.11368,8.23171,-11.372,-27.9268,-15.6107,-0.589175,36.3899,-11.5244,-106.372,5.70122
300.525,68.4968,63.2042,0,9.15616,4.00687,1.13284,6.37195,-9.14634,-28.1707,-15.3904,-1.1544,36.2558,-11.128,-107.835,4.48171
300.535,68.1559,63.4056,0,8.91187,4.02842,0.902922,4.45122,-7.68293,-29.0244,-15.0072,-1.22146,36.7252,-8.59756,-104.36,3.53659
300.545,67.8548,63.6233,0,9.09868,3.6524,0.792751,7.04268,-10.8232,-30.6707,-14.5569,-1.45138,36.7635,-6.85976,-102.226,3.56707
300.555,67.5083,63.8644,0,9.00048,3.87754,1.10171,8.07927,-12.6829,-32.9878,-14.3462,-1.32684,37.8078,-3.81098,-98.8719,5.09146
300.565,67.1693,64.0701,0,9.35255,3.91107,1.15919,7.86585,-13.0793,-34.1768,-14.5282,-1.35558,37.051,1.0061,-95.1829,5.21341
300.575,66.8072,64.2809,0,9.62798,4.26792,1.152,4.05488,-13.3537,-34.7561,-14.4803,-1.2981,37.6066,5.15244,-91.1585,1.67683
300.585,66.4672,64.5092,0,9.65193,4.17931,1.05381,2.59146,-12.0732,-34.2378,-14.327,-1.04902,38.5263,8.01829,-90.1524,-0.579268
300.595,66.1427,64.7369,0,9.42919,3.93262,0.804727,3.53659,-11.4939,-34.939,-14.1258,-0.416733,38.3826,10.122,-93.5976,-2.95732
300.605,65.8321,64.981,0,9.31663,3.8464,0.864602,4.84756,-13.9024,-34.6037,-13.6564,0.225132,38.4401,8.2622,-92.8659,-2.31707
300.615,65.516,65.2561,0,9.02922,3.8464,0.766406,6.89024,-15.5793,-34.4817,-13.0529,0.387993,38.9957,6.43293,-87.9573,-0.701219
300.625,65.1998,65.5288,0,9.13221,3.87514,0.708926,4.5122,-17.8354,-35.3049,-12.8134,0.483794,38.852,3.20122,-79.8781,3.87195
300.635,64.8818,65.7985,0,9.18729,3.78413,0.289797,4.93902,-14.878,-37.378,-12.5164,1.1544,38.4784,1.31098,-72.2866,7.53049
300.645,64.5504,66.0616,0,9.50823,4.02124,0.0479004,3.32317,-10.7012,-38.2927,-12.4014,1.66214,38.4496,-0.121951,-64.1159,10.3354
300.655,64.1706,66.3085,0,9.48188,4.44995,0.287402,1.61585,-6.25,-39.3902,-12.6409,2.16031,38.8807,-3.41463,-61.9512,11.8598
300.665,63.8001,66.5109,0,9.5202,4.41642,0.0143701,1.95122,-4.78659,-39.7256,-13.0816,2.23695,38.3155,-8.20122,-54.7256,12.622
300.675,63.3975,66.6961,0,8.92624,4.426,0.380808,4.96951,-4.05488,-40.7317,-13.3786,2.08367,38.7275,-13.5366,-49.9085,12.1646
300.685,62.9689,66.8803,0,8.5095,4.38289,0.0958008,5.18293,-4.81707,-42.4085,-13.4169,1.5376,39.2256,-18.4451,-46.189,10.1829
300.695,62.5286,67.0504,0,8.54303,4.39965,0.330513,7.89634,-8.04878,-44.4817,-13.3211,1.08734,38.5838,-22.9268,-45.4573,9.26829
300.705,62.0538,67.2152,0,8.43526,4.6152,0.64905,7.07317,-8.44512,-45.9756,-13.0241,0.560435,37.8653,-26.4329,-38.7805,8.29268
300.715,61.5967,67.4218,0,8.62926,4.4739,0.249082,6.52439,-9.96951,-47.7439,-12.2769,0.474214,38.3826,-29.1463,-34.4512,8.04878
300.725,61.1317,67.6694,0,8.82325,4.58646,0.493374,7.0122,-12.8049,-49.3598,-11.5775,0.301772,39.0819,-33.2622,-35.4573,9.63415
300.735,60.6919,67.9399,0,9.04359,4.45474,-0.0910107,8.56707,-10.9756,-50.2744,-10.8015,0.0910107,38.4784,-35.5488,-36.4024,11.7988
300.745,60.2426,68.2055,0,9.25196,4.66071,0.100591,8.59756,-12.3476,-51.0976,-10.4758,-0.110171,37.7216,-35.4878,-33.75,11.0671
300.755,59.7843,68.4985,0,8.93582,4.83075,0.474214,11.9817,-12.2866,-49.5427,-9.79563,-0.119751,37.7216,-34.3598,-32.8049,12.622
300.765,59.2912,68.7951,0,8.4616,4.99122,0.426313,10.6707,-11.189,-49.6646,-9.39327,-0.330513,37.2809,-30.2134,-26.4329,15.3049
300.775,58.7991,69.093,0,8.36341,4.98883,0.158071,10.6402,-11.6159,-50,-9.05796,-0.570015,37.0031,-28.2622,-14.4207,16.0976
300.785,58.2744,69.3543,0,8.01374,5.0966,0.529299,11.2195,-11.7988,-50.9756,-9.29747,-0.780776,36.4857,-25.7317,2.28659,17.5915
300.795,57.7269,69.5959,0,7.8389,5.17564,0.256267,10.3659,-13.5976,-52.378,-9.49865,-0.780776,36.8019,-24.2073,14.9695,20.0915
300.805,57.1802,69.8091,0,7.8389,5.16127,0.354463,10.5488,-14.0244,-53.5671,-9.73815,-0.914897,36.5911,-24.8476,23.7195,22.4085
300.815,56.6457,69.9839,0,8.09756,5.11816,-0.292192,7.40854,-15.3659,-55.6098,-10.2555,-0.550855,36.6677,-20.8232,30.3659,22.9573
300.825,56.1133,70.1469,0,8.25084,5.09181,0.100591,10,-16.3415,-57.7439,-10.1022,-0.474214,35.8918,-20.3963,36.128,22.7744
300.835,55.5569,70.2657,0,8.24605,5.49896,0.213157,9.02439,-13.872,-57.1646,-10.6291,-0.167651,35.6235,-20.1524,48.628,21.372
300.845,54.9884,70.3771,0,8.18857,5.71212,0.304167,8.38415,-13.872,-57.0732,-10.5525,-0.177231,35.3361,-21.128,59.1159,17.2866
300.855,54.4045,70.453,0,8.05445,6.05461,0.459844,8.38415,-12.4695,-55.6707,-11.0123,-0.330513,35.2212,-20.5183,69.5122,15.5488
300.865,53.8373,70.5255,0,8.01853,6.06898,0.268242,8.20122,-12.9878,-54.7561,-10.9931,-0.761616,35.2116,-18.872,76.3719,14.4207
300.875,53.2893,70.5721,0,8.02571,6.1073,0.457449,9.63415,-12.5,-53.6585,-11.3476,-0.771196,35.1445,-14.6951,81.3415,13.9329
300.885,52.737,70.62,0,7.71675,6.14083,0.371228,7.22561,-10.5183,-52.6829,-11.338,-0.732876,35.317,-16.5854,84.939,15.6402
300.895,52.2166,70.6623,0,7.6473,5.73847,0.136516,8.14024,-9.48171,-53.872,-11.2614,-1.0107,34.8954,-16.0366,85.9146,18.1402
300.905,51.6971,70.6745,0,7.53234,5.60674,0.126936,10.4573,-11.5549,-55.3049,-11.4147,-1.27894,33.9087,-9.81707,85.8537,21.311
300.915,51.1302,70.6653,0,7.38385,5.85822,-0.0526904,10.4878,-12.8659,-57.5915,-11.7212,-1.26936,33.7746,-4.84756,84.6646,21.4329
300.925,50.5529,70.683,0,7.39582,5.97078,-0.311353,11.7073,-12.5,-58.811,-11.6063,-1.32684,34.6751,-4.5122,77.0427,20.6402
300.935,49.9518,70.661,0,7.62335,6.47134,0.0790356,8.2622,-15.3659,-59.5427,-12.0086,-1.42264,33.9183,-4.05488,76.25,18.4451
300.945,49.4,70.658,0,7.94188,6.42823,-0.419128,7.28659,-13.9634,-58.4756,-11.7404,-0.876577,34.0236,-2.28659,76.189,16.189
300.955,48.8478,70.7029,0,7.67843,6.48811,-0.474214,5.79268,-8.90244,-57.1646,-11.3284,-0.464634,35.2307,-2.0122,77.2866,14.4512
300.965,48.3228,70.7461,0,7.59461,6.29651,-0.579595,5.36585,-3.41463,-56.6159,-11.0602,-0.177231,34.4548,-0.945122,82.5,13.4756
300.975,47.7911,70.782,0,7.25691,6.19592,-0.196392,5.03049,-2.95732,-56.6768,-10.5046,0.225132,32.6345,-1.52439,102.287,11.9512
300.985,47.2539,70.8031,0,7.03417,6.15041,-0.522114,7.83537,-4.48171,-56.9512,-10.7824,0.349673,32.9986,-0.97561,119.207,11.0976
300.995,46.6845,70.8035,0,6.82341,6.43542,-0.311353,9.42073,-5.94512,-56.9207,-11.2901,0.368833,33.6021,-4.29878,124.116,10.061
301.005,46.1577,70.7294,0,7.08207,6.41386,-0.5772,11.0061,-5.94512,-56.0976,-12.0853,0.158071,32.4142,-4.29878,125.396,9.5122
301.014,45.6522,70.6476,0,7.37906,6.67971,-0.529299,11.7073,-5.15244,-55.0305,-12.5068,-0.129331,33.104,-7.53049,129.421,7.31707
301.025,45.1869,70.5421,0,7.5491,6.69647,-0.740061,11.6463,-2.37805,-53.1402,-13.0433,-0.167651,33.4297,-8.23171,141.433,6.12805
301.035,44.7363,70.4035,0,7.54671,6.81144,-0.483794,11.25,1.18902,-51.5854,-13.6947,-0.320933,33.5351,-6.76829,150.762,4.93902
301.045,44.3001,70.2437,0,7.37187,6.70845,-0.464634,12.2866,3.56707,-50.5488,-13.9534,-0.0143701,33.1135,-6.03659,157.957,3.20122
301.055,43.8591,70.0197,0,7.15871,6.74198,-0.423918,12.5915,3.93293,-49.939,-14.2312,0.0431104,31.1209,-4.7561,169.146,2.77439
301.065,43.435,69.8437,0,7.21619,6.71324,-0.409548,12.2866,5.18293,-49.8171,-14.1737,0.234712,32.5962,-3.56707,187.043,4.84756
301.075,43.0029,69.6376,0,6.99825,6.67731,-0.191602,13.2317,7.56098,-50.0305,-15.1413,-0.0910107,33.4009,-7.83537,196.921,6.09756
301.085,42.5303,69.3529,0,6.7348,6.86413,-0.328118,12.1037,9.35976,-51.189,-15.8886,-0.359253,31.7819,-8.17073,199.939,7.07317
301.095,42.0391,69.0668,0,6.67731,7.07728,-0.289797,9.60366,14.0549,-51.7683,-16.7124,-0.196392,32.9603,-11.7988,199.238,6.82927
301.105,41.5264,68.7584,0,6.49769,7.18745,-0.0694556,6.52439,16.372,-52.4695,-17.431,-0.273032,33.1423,-13.4756,197.683,6.37195
301.115,40.9948,68.3861,0,6.28932,7.29523,-0.143701,5.97561,14.0854,-52.6829,-17.9195,-0.158071,31.4945,-18.0793,202.744,3.23171
301.125,40.472,68.0381,0,6.3468,7.37187,-0.184417,5.42683,12.378,-52.8049,-17.9483,0.244292,31.8969,-18.2012,209.146,1.12805
301.135,39.9385,67.6973,0,6.04263,7.33594,-0.141306,6.12805,9.2378,-52.4085,-18.1016,0.512534,31.9639,-22.9268,211.311,1.67683
301.145,39.3841,67.361,0,5.87019,7.42456,-0.275427,4.60366,6.37195,-53.2927,-18.0441,0.752036,31.552,-24.6037,208.354,1.21951
301.155,38.8491,67.0087,0,6.00671,7.38624,-0.380808,4.29878,6.12805,-54.0549,-18.0058,0.809517,30.5652,-27.0732,208.841,2.53049
301.165,38.3207,66.6729,0,6.04263,7.48444,-0.0718506,4.78659,3.07927,-54.0549,-18.0058,0.780776,30.6706,-29.6037,213.232,3.29268
301.175,37.8045,66.3101,0,6.16718,7.75507,0.0479004,1.85976,-3.2622,-53.0183,-18.4177,0.205972,30.1629,-32.1951,218.232,3.90244
301.185,37.3147,65.9301,0,6.07856,7.62095,0.0502954,1.18902,-5.2439,-51.5549,-18.7626,-0.167651,29.7893,-29.7561,218.262,2.89634
301.195,36.84,65.5744,0,6.03066,7.6928,0.196392,0.0609756,-4.72561,-50.0305,-18.7434,-0.723296,30,-27.5,213.293,1.85976
301.205,36.3868,65.2024,0,5.95881,7.66646,-0.0838257,-0.548781,-5.36585,-48.3232,-18.9638,-1.23104,29.4444,-27.0427,209.451,0.152439
301.215,35.9276,64.8099,0,5.76242,7.6928,-0.124541,-1.31098,-7.68293,-47.7744,-18.8201,-1.91123,28.2948,-21.6768,217.774,-0.792683
301.225,35.4576,64.4178,0,5.62111,7.85566,-0.186812,-2.59146,-13.4451,-47.2561,-18.9446,-2.26569,28.1319,-19.5122,229.543,-1.55488
301.235,34.9783,64.0416,0,5.42951,7.86524,-0.232317,-4.2378,-15.1524,-47.1951,-19.0404,-2.33275,28.3139,-13.7805,234.451,-3.87195
301.245,34.4886,63.6355,0,5.28341,7.87482,-0.143701,-6.28049,-14.3598,-47.6829,-19.5673,-2.37107,27.902,-9.29878,237.043,-4.32927
301.255,34.0137,63.1902,0,5.28102,7.74549,0.0215552,-7.53049,-16.189,-48.0488,-20.2762,-2.21779,27.4709,-5.03049,238.049,-6.58537
301.265,33.5372,62.7252,0,5.23072,7.72394,-0.0479004,-8.29268,-19.878,-48.811,-20.9373,-1.57592,27.4709,0.182927,250.457,-7.59146
301.275,33.0573,62.2803,0,5.20198,7.78381,-0.0814307,-8.87195,-22.0427,-49.4207,-21.3109,-1.23104,28.0169,1.43293,252.866,-9.57317
301.285,32.5458,61.7628,0,4.98883,8.00655,-0.0191602,-8.9939,-28.1098,-49.878,-22.221,-0.359253,26.9727,0.365854,263.323,-12.4695
301.295,31.9931,61.2146,0,4.74453,8.26521,-0.0838257,-9.87805,-32.1646,-50.9146,-22.8533,-0.407153,26.5895,-0.213415,283.567,-15
301.305,31.4515,60.6399,0,4.80441,8.24845,-0.462239,-11.4329,-33.0488,-51.6463,-23.9358,-0.186812,26.7236,1.92073,292.652,-17.378
301.315,30.9517,60.0758,0,5.19959,8.14307,-0.66821,-11.1585,-32.439,-53.2622,-24.5202,-0.0622705,27.0685,1.46341,289.512,-18.811
301.325,30.5068,59.4672,0,5.49657,7.67843,-0.761616,-10.0305,-31.5244,-54.878,-24.8651,0.320933,25.8518,-1.25,284.055,-19.4207
301.335,30.0923,58.8756,0,5.75763,7.67364,-0.847837,-11.0671,-28.3232,-55.3049,-25.095,0.387993,25.9189,-4.42073,282.378,-18.689
301.345,29.6861,58.356,0,5.89175,8.09517,-1.20709,-10.3354,-18.7805,-53.5976,-25.1908,0.598755,27.1356,-8.78049,277.896,-19.2073
301.355,29.3031,57.8498,0,5.88217,8.50232,-0.888552,-7.92683,-14.6646,-49.2683,-25.1333,0.713716,26.8865,-11.311,274.055,-17.1341
301.365,28.959,57.293,0,5.97078,8.94779,-0.768801,-8.5061,-14.4207,-44.1159,-25.1525,0.684976,25.2962,-12.6829,277.53,-16.6463
301.375,28.6151,56.7329,0,5.56363,8.74422,-0.718506,-10.122,-11.9817,-42.2561,-25.028,1.03944,24.6352,-14.9695,282.47,-14.6037
301.385,28.2454,56.1756,0,5.17803,8.13349,-1.17116,-9.29878,-8.71951,-45.6098,-25.0663,1.24062,24.2615,-14.878,283.872,-11.5244
301.395,27.8696,55.616,0,5.08223,8.3658,-1.22146,-4.69512,-5.30488,-44.5427,-25.7465,1.346,24.3478,-14.3902,274.116,-7.22561
301.405,27.4779,55.0197,0,4.90021,8.58375,-0.807122,-3.41463,-6.64634,-43.75,-26.0722,1.1544,23.3323,-15.7317,255.976,-1.64634
301.415,27.0654,54.4914,0,4.59125,8.44484,-0.716111,-3.56707,-4.26829,-44.2378,-21.1289,1.55676,19.7972,-17.439,294.573,4.54268
301.425,26.656,53.9096,0,4.50503,8.38257,-0.65384,-4.63415,-3.2622,-44.2073,-26.5991,0.723296,23.3035,-21.25,287.53,8.81098
301.435,26.28,53.3277,0,4.78046,8.36101,-0.680186,-7.89634,-2.86585,-44.6951,-27.2122,1.02986,23.3419,-21.4329,283.933,12.0122
301.445,25.9627,52.7108,0,5.19001,8.22929,-0.65863,-6.55488,-1.28049,-44.5427,-27.605,0.455054,22.4701,-23.5061,282.043,13.4146
301.455,25.6571,52.0764,0,5.27862,8.33946,-0.574805,-4.20732,-0.152439,-44.1768,-28.0553,0.579595,22.0006,-21.7378,285.579,13.6585
301.465,25.3288,51.4369,0,5.13732,8.69153,-0.490979,-4.48171,2.71341,-43.5671,-28.5534,0.550855,21.7803,-27.1341,284.36,13.2317
301.475,24.9806,50.8144,0,4.711,8.61968,-0.579595,-4.05488,4.69512,-42.3171,-28.927,0.819097,21.8857,-32.439,281.89,11.0671
301.484,24.5924,50.2013,0,4.10027,8.56938,-0.608335,-2.37805,3.93293,-40.8232,-29.0995,1.0107,21.7132,-36.7988,281.921,9.63415
301.495,24.1915,49.5656,0,3.76018,8.65081,-0.531694,1.40244,3.65854,-38.6585,-29.3869,1.02986,20.9852,-39.0244,279.421,11.0976
301.505,23.7073,48.911,0,3.06802,9.27831,0.0287402,2.22561,-0.426829,-37.378,-29.7605,1.2023,20.3912,-40.2134,279.421,13.2012
301.515,23.1404,48.2482,0,2.58902,9.63995,0.399968,-2.92683,-9.5122,-40.1524,-29.7797,1.4418,19.8068,-41.8598,294.085,16.7073
301.525,22.6147,47.5825,0,3.10874,9.16813,0.217947,-4.63415,-16.1585,-44.6341,-31.1975,1.21188,20.1613,-53.9024,289.909,22.1341
301.535,22.1747,46.9178,0,3.94939,8.9933,-0.0814307,-5.21341,-13.0183,-47.1341,-30.6802,0.570015,19.3278,-67.9573,285.183,25.9756
301.544,21.8214,46.1828,0,4.50982,8.83762,-0.129331,-5.45732,-4.54268,-45.9756,-29.7893,-0.799937,17.2106,-49.1768,335.671,25.5488
301.555,21.4952,45.4169,0,4.5218,8.97414,-0.186812,-6.0061,-0.701219,-43.3232,-28.5438,-0.704136,15.9844,-26.8902,485.823,21.5549
301.565,21.1724,44.6139,0,4.27032,9.05317,-0.493374,-7.0122,1.79878,-40.6098,-32.1843,0.00479004,17.0382,-24.1768,557.378,19.2378
301.575,20.8258,43.8074,0,3.82964,9.06275,-0.395178,-3.75,3.07927,-38.9024,-34.6847,0.378413,17.8142,-44.2073,593.354,15.061
301.585,20.4927,43.0345,0,3.83203,8.99809,-0.306563,-4.05488,-0.518293,-38.5671,-35.4798,-0.397573,17.7663,-34.5732,466.402,15.8537
301.595,20.1632,42.2533,0,3.69791,9.12981,-0.517324,-3.93293,-2.19512,-36.7988,-34.244,0.0335303,16.2334,-28.7195,415.579,16.5549
301.605,19.8434,41.5169,0,3.61169,8.84241,-0.328118,-3.29268,-1.70732,-36.8293,-34.7613,2.40939,16.5496,-25.2744,364.055,16.9207
301.615,19.504,40.7742,0,3.43446,8.75859,-0.239502,-3.2622,-0.97561,-37.8354,-35.3265,1.86333,16.1568,-48.628,366.555,17.4085
301.625,19.1505,40.0229,0,3.30992,9.21603,-0.292192,-2.40854,-0.0609756,-36.5854,-35.2499,1.70046,15.218,-52.9268,313.201,17.6829
301.635,18.8312,39.2687,0,3.28836,9.30944,-0.490979,-1.95122,-0.701219,-33.2012,-35.2978,1.26936,14.442,-49.7561,257.226,18.4146
301.645,18.5158,38.5028,0,3.08479,9.08191,-0.500559,-2.56098,-2.43902,-32.0427,-35.3649,1.25978,13.666,-45.6402,242.378,17.0427
301.655,18.1868,37.7854,0,3.08718,9.07712,-0.531694,-2.13415,-1.79878,-34.1159,-36.3229,0.934058,14.1641,-44.6341,185.366,18.7805
301.665,17.8843,37.07,0,3.32429,8.97893,-0.637075,-0.243902,0.945122,-35.2134,-35.9684,1.57592,13.4265,-47.378,151.463,19.0244
301.675,17.5788,36.3502,0,3.36021,9.32381,-0.380808,0.27439,2.46951,-35.122,-34.8763,1.17356,12.4685,-54.4817,157.561,19.5427
301.685,17.2831,35.6484,0,3.25723,9.43398,-0.189207,-1.58537,3.01829,-33.1707,-34.8188,0.924478,12.3823,-54.5732,191.555,19.939
301.695,16.994,34.964,0,3.05604,9.26873,-0.184417,-1.98171,1.85976,-31.4634,-35.4032,0.598755,12.526,-50.3659,226.159,17.622
301.705,16.6787,34.3368,0,2.6465,9.21843,-0.280217,-1.64634,0.97561,-30.1829,-36.342,0.110171,13.3977,-41.3415,224.634,17.2866
301.715,16.3433,33.6915,0,2.37346,9.2352,-0.306563,0.609756,0,-29.6037,-36.5049,-0.455054,12.6026,-27.4085,202.652,15.1524
301.725,16.025,33.0985,0,2.56267,9.41003,-0.270637,0.426829,-2.43902,-30.2134,-36.754,0.780776,13.0816,-33.3537,177.073,12.4085
301.735,15.7183,32.4577,0,2.67045,9.35734,-0.191602,-0.335366,-3.04878,-31.0976,-35.7481,0.292192,11.7116,-34.0549,246.799,11.8902
301.746,15.4574,31.8044,0,2.90516,9.26873,-0.241897,-1.7378,-3.07927,-30.061,-35.8918,-0.0526904,11.1081,-38.689,250.213,11.0671
301.754,15.2283,31.1235,0,2.92192,9.19687,-0.304167,-2.0122,-1.7378,-27.8049,-35.6523,0.704136,10.2363,-40.1829,284.665,11.6159
301.765,15.0062,30.4803,0,2.79978,9.31184,-0.435894,-1.21951,1.95122,-25.7317,-36.3708,0.502954,10.5908,-48.2317,273.689,10.9451
301.775,14.7764,29.8285,0,2.56028,9.48428,-0.340093,-0.884146,2.77439,-23.6585,-36.6773,0.301772,10.0639,-62.7134,266.89,9.39024
301.785,14.5503,29.1318,0,2.45729,9.43159,-0.483794,0.335366,0.792683,-22.7134,-36.7923,0.196392,8.97174,-63.2317,296.829,8.01829
301.794,14.3512,28.4357,0,2.60578,9.46512,-0.385598,0.548781,-1.7378,-22.0427,-37.5204,-0.148491,8.7993,-58.9329,332.744,8.47561
301.805,14.1539,27.8107,0,2.60818,9.53218,-0.459844,1.25,-1.34146,-22.0732,-39.2831,-0.282612,9.90101,-52.7744,301.402,8.44512
301.815,13.9549,27.1877,0,2.57465,9.64474,-0.512534,1.15854,2.83537,-21.9207,-38.8424,-0.119751,9.19209,-45.4268,249.665,10.061
301.825,13.7509,26.5966,0,2.4501,9.58966,-0.58199,0.97561,7.56098,-21.5854,-38.2293,0.0622705,9.06754,-41.2805,218.811,10.7317
301.835,13.5164,25.9938,0,2.12678,9.72617,-0.347278,0.121951,9.2378,-21.0366,-38.1814,0.378413,8.42568,-42.3171,216.098,9.45122
301.845,13.2643,25.3878,0,1.81542,9.5705,-0.174836,-0.457317,7.56098,-20.061,-38.3634,0.790356,7.95625,-54.4512,207.439,8.68902
301.855,13.0038,24.7949,0,1.65735,9.49146,-0.112566,-1.55488,5,-19.7256,-38.3347,0.713716,7.72633,-63.4756,197.774,7.37805
301.865,12.75,24.1532,0,1.71723,9.38608,-0.177231,-1.18902,2.0122,-20.5183,-37.9994,0.378413,6.38512,-67.0122,191.646,7.16463
301.875,12.5216,23.5528,0,1.91602,9.35255,-0.146096,-0.152439,-0.914634,-20.9146,-38.4209,0.541274,6.71084,-68.2622,184.817,7.53049
301.885,12.3088,22.9746,0,2.00942,9.41961,-0.131726,1.06707,-1.4939,-20.7317,-38.3347,0.119751,6.62462,-68.1707,172.622,9.90854
301.895,12.1177,22.4003,0,2.07648,9.62319,-0.256267,0.701219,-0.243902,-19.2378,-38.7179,0.368833,6.3468,-68.1098,169.055,12.1037
301.905,11.9321,21.8285,0,1.99745,9.80042,-0.299377,1.12805,0.243902,-17.7134,-38.555,-0.0526904,5.9636,-63.3537,168.049,12.0732
301.915,11.7513,21.2308,0,1.9232,9.83635,-0.452659,0.487805,-0.0914634,-16.6768,-38.4975,-0.464634,5.13971,-57.439,175.549,11.5244
301.925,11.5722,20.6591,0,1.825,9.63277,-0.457449,1.15854,-0.0304878,-16.189,-38.6604,-0.723296,5.23551,-50.3049,185.457,10.1829
301.935,11.3828,20.0954,0,1.74118,9.66151,-0.421523,1.03659,0.792683,-16.5549,-39.0915,-0.771196,5.05349,-47.4085,190.64,8.5061
301.945,11.204,19.5543,0,1.91841,9.59924,-0.469424,1.7378,2.16463,-18.0793,-39.1586,-0.550855,5.05349,-44.4512,186.006,6.61585
301.955,11.0435,19.0276,0,2.05972,9.68546,-0.433499,0.121951,5.12195,-18.0183,-38.8903,0.205972,4.88105,-46.9817,182.134,7.80488
301.965,10.8929,18.5077,0,2.01421,9.55134,-0.58678,0.487805,9.7561,-17.1341,-38.8999,0.589175,4.63197,-52.0427,179.817,7.77439
301.975,10.7467,17.9756,0,1.93757,9.4723,-0.387993,1.52439,12.378,-16.2805,-39.2352,0.799937,4.0859,-55.7622,176.829,8.90244
301.985,10.6124,17.4516,0,1.96392,9.54655,-0.256267,2.07317,13.0793,-15.4878,-39.2927,0.675395,3.85598,-59.4207,174.116,9.02439
301.995,10.4794,16.9002,0,1.90165,9.6663,-0.198787,1.7378,13.4451,-14.6341,-39.2065,0.0431104,3.02251,-60.8841,178.018,8.65854
302.005,10.3283,16.39,0,1.65975,9.68785,-0.287402,1.52439,12.1341,-13.872,-39.3693,-0.110171,3.38656,-60.2744,181.738,7.13415
302.015,10.1586,15.8437,0,1.44659,9.75731,-0.354463,1.52439,10.5488,-13.4451,-39.2448,-0.110171,2.40939,-61.1585,185.457,6.79878
302.025,9.98365,15.3158,0,1.31726,9.74294,-0.392783,2.04268,8.65854,-12.8354,-38.9382,-0.177231,2.34233,-58.9329,187.805,7.40854
302.035,9.78251,14.7921,0,1.08494,9.61121,-0.397573,1.89024,9.57317,-13.2927,-39.1203,-0.579595,2.05493,-56.6159,185.457,9.42073
302.045,9.565,14.2722,0,1.02028,9.63037,-0.208367,2.68293,9.72561,-14.5732,-39.2065,-0.330513,1.73878,-54.2073,176.89,10.4268
302.055,9.34822,13.7781,0,1.05381,9.77886,0.0455054,0.487805,7.13415,-15.1524,-39.3981,-0.349673,1.80584,-54.7256,167.591,10.8537
302.065,9.14249,13.3125,0,1.16637,9.73815,-0.0431104,-0.152439,5.42683,-15.8537,-39.7046,-0.110171,1.93997,-56.2195,156.677,10.061
302.075,8.9702,12.8059,0,1.36277,9.84832,-0.158071,-0.518293,5.15244,-15,-39.8388,-0.273032,0.886157,-57.1341,152.348,9.48171
302.085,8.82542,12.2864,0,1.47533,9.6663,-0.234712,-0.548781,4.90854,-14.1768,-39.9154,-0.186812,0.301772,-56.8293,150.884,7.86585
302.095,8.71273,11.7972,0,1.69088,9.75012,-0.407153,-1.31098,6.55488,-13.5671,-39.992,-0.0143701,0.464634,-56.5854,147.988,7.46951
302.105,8.62038,11.3086,0,1.77231,9.75731,-0.414338,-0.701219,9.54268,-12.6524,-40.1453,-0.387993,0.119751,-52.9268,143.963,6.40244
302.115,8.53567,10.7873,0,1.71723,9.98005,-0.447869,-1.55488,12.7744,-10.9756,-39.9537,-0.675395,-0.790356,-53.5061,146.128,7.16463
302.125,8.41832,10.301,0,1.37235,9.54655,-0.661025,-0.670732,14.3598,-11.25,-39.9825,-1.02986,-0.531694,-54.6951,147.378,5.60976
302.135,8.26509,9.81884,0,1.19511,9.50583,-0.637075,1.03659,13.689,-13.0793,-39.9154,-1.14482,-0.809517,-53.2012,144.207,5.15244
302.145,8.09785,9.36742,0,1.12326,9.78126,-0.541274,2.28659,13.2012,-13.5671,-39.4364,-0.675395,-0.608335,-50.061,140.793,7.7439
302.155,7.94564,8.90828,0,1.2526,9.81958,-0.713716,2.83537,14.9695,-13.8415,-38.8999,-0.138911,-1.03944,-48.5671,140.701,11.4329
302.165,7.80844,8.4807,0,1.34121,9.72378,-0.517324,3.84146,15,-13.811,-39.1394,-0.167651,-0.819097,-50.8841,139.482,14.1159
302.175,7.66327,8.07377,0,1.29092,9.81,-0.371228,3.56707,15.3049,-14.1768,-39.2448,-0.00479004,-0.771196,-52.8049,135.244,17.1037
302.185,7.52766,7.67141,0,1.31247,9.88904,-0.445474,3.01829,14.878,-13.628,-39.2065,-0.110171,-0.991538,-53.2012,128.963,17.9268
302.195,7.39913,7.25002,0,1.33882,9.78126,-0.58199,3.04878,15.7622,-13.6585,-39.7334,-0.215552,-1.6334,-53.9634,124.36,17.0427
302.204,7.26234,6.80203,0,1.28134,9.70462,-0.431104,3.75,15.3049,-14.2073,-39.7046,-0.225132,-2.39023,-54.2378,124.817,17.6829
302.215,7.12588,6.36818,0,1.24781,9.68546,-0.330513,3.62805,13.9634,-14.0854,-39.7621,-0.129331,-2.44771,-54.1463,127.53,16.7073
302.225,6.99194,5.9436,0,1.20709,9.66151,-0.289797,3.53659,11.7073,-13.6585,-40.0304,-0.205972,-2.61057,-54.2378,125.762,18.4146
302.235,6.85653,5.54709,0,1.16158,9.81479,-0.330513,4.05488,10.9146,-13.3232,-40.1357,-0.148491,-2.42855,-55.4268,122.53,20.9146
302.245,6.74105,5.16605,0,1.2526,9.88425,-0.476609,3.93293,11.4939,-12.5305,-40.1549,-0.340093,-2.44771,-54.6341,118.567,22.2866
302.255,6.63132,4.80388,0,1.24541,9.8579,-0.481399,4.39024,13.0488,-12.1341,-40.2507,-0.368833,-2.39981,-55.5183,114.726,21.7378
302.265,6.52354,4.4328,0,1.20469,9.84114,-0.502954,4.57317,15.0915,-11.7073,-39.9346,-0.407153,-2.80217,-57.8354,111.707,21.6768
302.275,6.41494,4.02415,0,1.19511,9.7621,-0.555645,4.69512,15.6402,-12.0122,-39.8962,-0.378413,-3.72186,-58.1098,112.561,19.1463
302.285,6.31076,3.61817,0,1.19272,9.58726,-0.486189,5.06098,14.6951,-12.0122,-39.9058,-0.138911,-3.97094,-57.378,110.122,17.0732
302.295,6.20894,3.21925,0,1.21667,9.53697,-0.457449,5.51829,14.8171,-12.3476,-39.9729,-0.0335303,-4.15296,-57.2256,105.915,14.878
302.305,6.12226,2.82449,0,1.25739,9.67827,-0.455054,4.93902,14.6341,-11.2805,-39.8867,0.00479004,-4.37331,-57.7744,99.4817,14.5732
302.315,6.04608,2.43573,0,1.23823,9.74294,-0.598755,4.26829,14.878,-10.061,-39.5418,0.0143701,-4.50743,-55.7012,98.9024,12.7134
302.325,5.96336,2.04167,0,1.10889,9.73815,-0.65384,4.78659,14.4207,-9.35976,-39.6088,-0.0143701,-4.88105,-55.061,98.9939,13.2012
302.335,5.87058,1.66395,0,0.960403,9.82677,-0.502954,4.08537,12.5,-8.68902,-39.743,-0.0718506,-4.89063,-54.0244,97.2561,12.8963
302.345,5.77518,1.28375,0,0.900527,9.79323,-0.526904,4.32927,10.5488,-8.47561,-39.6376,-0.110171,-5.18761,-52.5,97.1341,12.622
302.355,5.68954,0.926998,0,0.953218,9.69264,-0.502954,3.9939,10.2134,-8.41463,-40.0304,-0.368833,-5.10139,-51.25,93.4756,12.6524
302.365,5.61043,0.548476,0,0.979563,9.62319,-0.397573,3.35366,9.90854,-8.32317,-40.3752,-0.301772,-5.80074,-50.5488,92.1037,11.6159
302.375,5.5386,0.194447,0,1.00112,9.68306,-0.404758,3.20122,8.96341,-7.92683,-40.471,-0.0431104,-5.64746,-50.0305,90.4573,8.5061
302.385,5.47297,-0.149731,0,0.984353,9.87467,-0.459844,3.44512,8.59756,-7.0122,-40.1357,-0.225132,-5.68578,-50.3354,87.6524,6.03659
302.395,5.41593,-0.463122,0,1.03944,9.97047,-0.543669,3.32317,8.04878,-6.79878,-40.0687,-0.148491,-5.38879,-52.3476,81.6159,3.07927
302.405,5.36674,-0.758932,0,1.10889,9.90101,-0.670605,3.87195,8.56707,-7.0122,-39.8004,-0.0143701,-5.27383,-54.0549,77.7744,2.56098
302.415,5.32509,-1.06577,0,1.13284,9.88425,-0.701741,3.90244,9.90854,-6.64634,-39.9154,-0.167651,-5.71452,-51.6463,72.7134,0.945122
302.425,5.29512,-1.37137,0,1.17116,9.72378,-0.546064,4.2378,10.9146,-6.21951,-39.6184,-0.234712,-5.88696,-48.9024,66.8902,0
302.435,5.26612,-1.67022,0,1.11129,9.67348,-0.617915,4.45122,12.8659,-5.54878,-39.3023,-0.512534,-5.95402,-46.5244,61.372,-0.823171
302.445,5.22065,-1.98676,0,0.938848,9.67348,-0.584385,4.78659,13.811,-5.21341,-39.2831,-0.368833,-6.48092,-43.75,59.6951,-1.40244
302.454,5.15797,-2.29335,0,0.809517,9.62319,-0.66821,4.39024,13.1402,-5.54878,-39.2352,-0.186812,-6.51924,-42.3171,59.6037,-0.243902
302.465,5.09222,-2.61097,0,0.775986,9.75252,-0.627495,3.84146,12.7134,-5.45732,-39.2352,0.215552,-6.93119,-39.2988,59.7256,0.762195
302.475,5.01369,-2.89849,0,0.66821,9.78126,-0.486189,3.53659,11.5549,-5.57927,-39.6951,0.311353,-6.70126,-41.372,58.4756,1.67683
302.485,4.92655,-3.19175,0,0.617915,9.84593,-0.550855,2.68293,9.93902,-5.97561,-39.7717,0.493374,-7.03657,-44.5732,54.6951,1.55488
302.495,4.85302,-3.4581,0,0.728086,9.88904,-0.531694,3.65854,9.11585,-6.03659,-40.0878,0.397573,-6.82581,-45.3963,51.4329,0.396341
302.505,4.80131,-3.69631,0,0.902922,9.84832,-0.534089,3.71951,8.35366,-6.06707,-39.8579,0.522114,-6.4905,-46.1585,45.3963,0.243902
302.515,4.78257,-3.92424,0,1.09213,9.85072,-0.574805,3.01829,9.02439,-5.06098,-39.8196,0.455054,-6.4905,-47.2561,39.2683,-0.518293
302.525,4.77668,-4.15121,0,1.10171,9.83635,-0.61073,3.14024,10.3049,-3.9939,-39.8675,0.474214,-6.66294,-46.7683,33.9329,-1.09756
302.535,4.77726,-4.38088,0,1.06578,9.77647,-0.546064,3.23171,10.4268,-3.14024,-39.7717,0.234712,-6.87371,-44.9085,29.3902,-1.15854
302.545,4.76839,-4.59504,0,0.953218,9.71899,-0.486189,2.89634,10.2744,-2.80488,-39.8004,-0.0143701,-6.77791,-44.6341,25.122,-1.61585
302.555,4.75934,-4.81649,0,0.893342,9.54894,-0.538879,4.26829,11.25,-2.37805,-39.8292,-0.205972,-7.08447,-44.878,20.4573,-2.37805
302.565,4.74593,-5.02733,0,0.859812,9.59924,-0.469424,4.45122,12.2256,-2.28659,-39.7142,-0.0143701,-7.05573,-40.8841,13.4756,-2.19512
302.575,4.73522,-5.26706,0,0.874182,9.74773,-0.548459,3.5061,11.6159,-2.07317,-39.3981,0.579595,-7.67843,-38.689,10.6707,0.640244
302.585,4.72291,-5.47671,0,0.826282,9.87946,-0.550855,2.19512,10.1829,-1.40244,-39.628,0.752036,-7.35271,-38.9634,10.0915,5.51829
302.595,4.67787,-5.69177,0,0.661025,9.88904,-0.440684,1.95122,9.17683,-0.27439,-39.8483,0.512534,-7.64969,-38.9939,8.20122,7.9878
302.605,4.57199,-5.87983,0,0.421523,9.92496,-0.395178,1.7378,7.68293,-0.304878,-40.0208,0.110171,-7.34313,-43.0183,8.81098,8.23171
302.615,4.48488,-6.10432,0,0.380808,9.92257,-0.435894,1.28049,5.51829,-1.03659,-40.2411,-0.253872,-8.18618,-43.4756,10.0915,6.7378
302.625,4.40631,-6.31281,0,0.395178,9.92496,-0.579595,1.12805,4.78659,-1.21951,-39.8388,-0.263452,-7.97542,-42.3171,9.84756,5.33537
302.635,4.34588,-6.55407,0,0.479004,9.85072,-0.60594,1.25,3.90244,-1.52439,-39.743,-0.110171,-8.71308,-40.0305,7.9878,5.33537
302.645,4.29868,-6.76319,0,0.55804,9.81719,-0.598755,1.64634,3.84146,-2.04268,-39.4939,0.0814307,-8.25324,-37.3171,6.37195,6.61585
302.655,4.25685,-6.94332,0,0.598755,9.89143,-0.60115,1.40244,3.62805,-2.2561,-39.7238,-0.167651,-7.92751,-35.9146,5.21341,7.46951
302.665,4.2256,-7.1334,0,0.670605,9.82677,-0.603545,1.43293,3.10976,-2.34756,-39.992,-0.359253,-8.31072,-34.3293,0.762195,7.07317
302.675,4.21391,-7.33282,0,0.809517,9.8124,-0.58678,1.21951,2.62195,-2.37805,-39.9825,-0.416733,-8.62686,-30.122,-1.34146,5.70122
302.685,4.2332,-7.54366,0,1.01549,9.77407,-0.589175,1.06707,2.22561,-2.2561,-40.0783,-0.742456,-9.01006,-25.3049,-2.62195,4.66463
302.695,4.26978,-7.7372,0,1.02746,9.71659,-0.522114,0.579268,2.37805,-1.55488,-40.0304,-0.598755,-8.83762,-19.6646,-3.78049,3.29268
302.705,4.30453,-7.91523,0,0.919688,9.77647,-0.641865,0,2.65244,-0.762195,-40.0208,-0.483794,-8.69392,-17.0732,-4.69512,3.23171
302.715,4.32707,-8.07642,0,0.809517,9.80281,-0.783171,-0.579268,2.86585,-0.0609756,-39.6567,-0.330513,-8.43526,-14.3598,-4.57317,3.71951
302.725,4.32487,-8.22449,0,0.742456,9.79323,-0.728086,-0.0914634,1.46341,-0.27439,-39.2927,-0.378413,-8.23408,-12.9573,-3.9939,3.93293
302.735,4.31981,-8.3548,0,0.756826,9.75012,-0.65863,0.0609756,0.304878,-0.945122,-38.8807,-0.282612,-7.94667,-11.7073,-7.31707,3.29268
302.745,4.31416,-8.47261,0,0.778381,9.75731,-0.608335,0.335366,0.182927,-1.34146,-38.8041,-0.0910107,-7.80297,-8.56707,-8.07927,5
302.755,4.30432,-8.59556,0,0.792751,9.78605,-0.603545,0.0609756,-0.152439,-1.85976,-38.8807,0.100591,-7.99458,-6.37195,-8.44512,8.14024
302.765,4.28785,-8.73728,0,0.785566,9.8124,-0.574805,-0.792683,-0.731707,-2.34756,-38.8807,-0.158071,-8.4161,-6.21951,-7.92683,7.62195
302.775,4.27143,-8.85685,0,0.795146,9.75491,-0.608335,-1.4939,-0.152439,-2.56098,-38.9478,-0.292192,-8.13828,-6.64634,-9.2378,6.89024
302.785,4.25947,-8.95561,0,0.878972,9.69743,-0.65863,-1.34146,0.152439,-3.23171,-39.0244,-0.138911,-7.87003,-5.4878,-10.3354,6.18902
302.795,4.25342,-9.05116,0,0.948428,9.6663,-0.713716,-1.0061,1.25,-3.53659,-38.8903,0.167651,-7.86045,-5.70122,-11.7073,6.25
302.805,4.26211,-9.13474,0,1.06578,9.73575,-0.701741,-0.213415,1.89024,-3.44512,-38.852,0.138911,-7.71675,-3.68902,-14.5732,6.92073
302.815,4.28022,-9.23662,0,1.08015,9.73096,-0.687371,-0.335366,1.46341,-2.86585,-39.0053,-0.0239502,-8.13828,-3.84146,-15.7622,8.84146
302.824,4.30423,-9.32266,0,1.06099,9.63277,-0.65384,-1.06707,2.0122,-2.43902,-39.1203,-0.244292,-7.95625,-4.32927,-17.5,9.32927
302.836,4.32471,-9.43519,0,1.05141,9.58966,-0.65863,-0.945122,1.85976,-2.59146,-39.1873,-0.771196,-8.5119,-1.21951,-18.2927,6.40244
302.845,4.34832,-9.55906,0,1.14721,9.72617,-0.723296,-1.46341,3.32317,-2.9878,-39.2256,-0.752036,-8.7993,1.18902,-16.25,5.54878
302.855,4.38176,-9.65572,0,1.19511,9.75252,-0.764011,-1.25,4.78659,-2.68293,-39.0053,-0.474214,-8.34904,3.17073,-16.5244,4.20732
302.865,4.41266,-9.75758,0,1.17116,9.8076,-0.675395,-1.25,5.06098,-2.53049,-38.8616,-0.445474,-8.48316,4.87805,-17.378,4.60366
302.875,4.44215,-9.85022,0,1.11847,9.83395,-0.689766,-1.52439,4.78659,-2.13415,-38.8807,-0.273032,-8.39694,6.28049,-18.1707,7.43902
302.884,4.47648,-9.94798,0,1.00351,9.75252,-0.646655,-1.64634,3.35366,-1.18902,-38.9478,-0.455054,-8.56938,6.92073,-18.1402,8.87195
302.895,4.47924,-10.04,0,0.819097,9.73815,-0.62031,-1.4939,2.62195,-0.945122,-39.2544,-0.876577,-8.59812,7.89634,-16.8293,10.7012
302.905,4.45731,-10.1384,0,0.699346,9.74054,-0.55325,-1.95122,0.0609756,-0.762195,-39.2065,-0.914897,-8.77056,8.81098,-17.1037,9.81707
302.915,4.45923,-10.2335,0,0.802332,9.72617,-0.646655,-2.2561,-1.92073,-0.823171,-39.2256,-1.11608,-8.78972,10.1829,-18.1402,8.38415
302.925,4.47029,-10.3229,0,0.845442,9.83874,-0.680186,-2.9878,-2.65244,-0.670732,-39.2256,-0.732876,-8.76098,10.5793,-20,8.90244
302.935,4.49876,-10.4225,0,0.900527,9.87706,-0.65863,-3.38415,-4.90854,-0.396341,-39.0436,-0.196392,-8.97174,11.0061,-20.8232,9.84756
302.945,4.55281,-10.5197,0,0.962798,9.88664,-0.617915,-3.81098,-6.92073,-0.0914634,-38.9765,-0.0431104,-8.9909,10.4878,-22.8354,11.9512
302.954,4.62479,-10.6165,0,1.02507,9.85311,-0.61073,-4.05488,-8.38415,-0.0914634,-39.1394,-0.282612,-9.09628,11.9207,-24.2683,12.8049
302.965,4.7159,-10.6826,0,1.07297,9.82197,-0.60115,-4.02439,-9.63415,0,-39.1777,-0.608335,-8.61728,12.4085,-23.9939,11.3415
302.975,4.8361,-10.7454,0,1.18793,9.75252,-0.5772,-4.08537,-10.0305,0.152439,-39.4268,-0.953218,-8.6556,11.128,-22.8354,10.6402
302.985,4.94123,-10.8336,0,1.2502,9.7142,-0.519719,-3.71951,-10.7927,0.731707,-39.4843,-1.18314,-9.17292,14.4512,-21.4939,9.29878
302.995,5.01882,-10.9288,0,1.1999,9.7118,-0.565225,-3.44512,-10.4268,1.31098,-39.2735,-1.23104,-9.30705,13.9634,-19.2683,8.68902
303.005,5.08894,-10.9989,0,1.18793,9.70701,-0.771196,-2.9878,-10.6402,1.67683,-39.149,-0.886157,-8.88552,17.4085,-17.8354,8.29268
303.014,5.17617,-11.0373,0,1.31726,9.70462,-0.864602,-2.28659,-10.4268,1.82927,-39.6759,-0.541274,-8.47358,18.0793,-17.2256,9.05488
303.025,5.26677,-11.0761,0,1.37235,9.72617,-0.756826,-1.89024,-9.35976,2.2561,-39.743,-0.0239502,-8.52148,19.7561,-17.1341,8.29268
303.035,5.35194,-11.094,0,1.35079,9.73815,-0.749641,-1.31098,-8.44512,2.19512,-40.2124,0.110171,-8.26282,17.9268,-16.8598,7.43902
303.045,5.41345,-11.1017,0,1.20948,9.8124,-0.63947,-0.792683,-7.68293,2.13415,-40.5381,0.387993,-8.14786,14.7561,-15.3963,3.81098
303.055,5.45597,-11.1005,0,1.09452,9.76928,-0.531694,-0.945122,-8.78049,1.43293,-40.5189,0.723296,-7.98499,10.2439,-15.5488,1.89024
303.065,5.49271,-11.0696,0,1.06578,9.74533,-0.464634,-1.12805,-7.59146,1.12805,-40.3848,1.03944,-7.41977,4.57317,-18.3841,0.396341
303.075,5.50972,-11.0366,0,0.984353,9.76928,-0.550855,-1.55488,-7.71341,0.701219,-39.5418,1.2502,-7.21859,-2.16463,-22.1951,1.25
303.085,5.48965,-10.9918,0,0.869392,9.77886,-0.60594,-1.85976,-8.47561,0.213415,-38.8807,1.32684,-6.88329,-6.85976,-26.8902,4.17683
303.095,5.45732,-10.9385,0,0.831072,9.85072,-0.57241,-2.83537,-7.95732,-0.640244,-38.4305,1.41306,-6.6342,-13.0183,-29.9695,6.46341
303.105,5.40859,-10.886,0,0.735271,9.80281,-0.531694,-3.44512,-8.75,-1.15854,-38.5167,1.13524,-6.6342,-18.3232,-32.561,8.96341
303.115,5.35932,-10.851,0,0.720901,9.77407,-0.589175,-3.65854,-8.56707,-1.85976,-38.6796,0.838257,-6.93119,-23.9024,-31.5854,7.34756
303.125,5.31218,-10.8162,0,0.761616,9.76689,-0.546064,-3.38415,-9.35976,-2.7439,-38.5071,0.905317,-6.88329,-27.4085,-32.8049,7.16463
303.135,5.27449,-10.7894,0,0.862207,9.79563,-0.500559,-3.65854,-9.20732,-3.23171,-38.258,0.799937,-6.95035,-29.4512,-31.9817,6.28049
303.145,5.25443,-10.7537,0,0.993933,9.76689,-0.426313,-3.93293,-7.07317,-3.23171,-37.9419,0.895737,-6.72042,-29.4512,-31.4939,4.81707
303.155,5.23178,-10.7214,0,0.941243,9.75731,-0.502954,-3.78049,-3.23171,-2.89634,-37.7695,0.560435,-6.72042,-28.3537,-30.4573,5.4878
303.165,5.21005,-10.6994,0,1.0107,9.65672,-0.584385,-3.65854,-1.21951,-3.81098,-37.6545,0.244292,-6.85455,-27.2561,-30.4878,4.11585
303.174,5.22281,-10.6974,0,1.32924,9.57289,-0.593965,-3.47561,-0.0609756,-4.35976,-37.9419,0.110171,-7.22817,-23.0488,-28.1098,4.2378
303.185,5.25966,-10.6774,0,1.54479,9.47709,-0.64905,-3.75,3.07927,-4.66463,-38.258,-0.0239502,-6.96951,-21.0976,-26.2805,4.42073
303.194,5.30446,-10.6405,0,1.62382,9.52739,-0.58678,-3.23171,6.55488,-4.63415,-38.3538,0.0239502,-6.67252,-20.7927,-25.0305,4.32927
303.205,5.34057,-10.6238,0,1.49689,9.616,-0.514929,-2.86585,10.122,-3.87195,-38.6796,0.225132,-7.05573,-21.1585,-24.3293,3.93293
303.215,5.36867,-10.6059,0,1.4418,9.5705,-0.56762,-2.5,12.9878,-3.9939,-38.8233,0.273032,-7.04615,-20.3354,-23.3537,4.81707
303.225,5.39354,-10.5805,0,1.42264,9.49386,-0.65384,-1.89024,14.4207,-4.14634,-39.1681,0.617915,-6.95993,-20.1829,-22.2866,5.42683
303.235,5.426,-10.5679,0,1.50168,9.4268,-0.732876,-1.09756,15.3963,-4.39024,-39.4939,0.656235,-7.22817,-20.9756,-21.9817,6.18902
303.245,5.44839,-10.5505,0,1.42504,9.53457,-0.744851,-0.914634,17.7134,-4.20732,-39.5322,0.608335,-7.14195,-20.7622,-22.8963,6.70732
303.255,5.45466,-10.5589,0,1.26936,9.70701,-0.744851,-1.82927,18.4756,-3.65854,-39.7046,0.00479004,-7.64011,-20.2134,-25.7317,6.37195
303.265,5.42582,-10.5786,0,0.991538,9.8076,-0.768801,-2.7439,18.689,-3.62805,-39.4939,-0.311353,-7.81255,-18.9329,-26.9207,4.69512
303.275,5.37467,-10.6246,0,0.826282,9.80521,-0.696951,-3.29268,17.2866,-3.93293,-38.9861,-0.723296,-8.19576,-18.5366,-26.9512,3.20122
303.285,5.29794,-10.6751,0,0.64426,9.77886,-0.517324,-2.95732,14.6951,-4.48171,-38.7179,-0.905317,-8.25324,-15.7927,-26.7988,4.57317
303.295,5.20903,-10.7388,0,0.61073,9.83156,-0.423918,-3.10976,12.439,-5.4878,-39.0053,-1.23104,-8.58854,-11.6463,-27.3476,3.23171
303.305,5.11686,-10.8032,0,0.584385,9.9082,-0.373623,-2.92683,10.1524,-5.64024,-38.8807,-1.4897,-8.61728,-9.05488,-26.1585,3.32317
303.315,5.01907,-10.8578,0,0.565225,9.99442,-0.349673,-4.32927,6.98171,-6.12805,-39.0244,-1.65256,-8.5119,-8.2622,-24.8171,4.42073
303.325,4.9135,-10.9015,0,0.505349,9.98244,-0.421523,-4.39024,3.84146,-6.43293,-39.2831,-1.80584,-8.40652,-6.43293,-23.9634,5.06098
303.335,4.81884,-10.944,0,0.584385,9.98005,-0.229922,-5.39634,-0.487805,-6.46341,-39.4843,-1.96871,-8.45442,-5.79268,-22.622,6.09756
303.345,4.73406,-10.9915,0,0.680186,9.98244,-0.275427,-6.85976,-4.26829,-6.76829,-39.5322,-1.59508,-8.58854,-4.96951,-22.8354,5.97561
303.355,4.67708,-11.0341,0,0.946033,9.85311,-0.318538,-6.85976,-7.19512,-7.34756,-39.1873,-1.26936,-8.464,-5,-24.5427,7.10366
303.365,4.66163,-11.0676,0,1.29571,9.81958,-0.423918,-7.43902,-8.5061,-7.37805,-39.0819,-0.828677,-8.31072,-4.20732,-24.9695,10.2439
303.375,4.67841,-11.1006,0,1.49449,9.74773,-0.519719,-7.43902,-8.07927,-6.58537,-39.0723,-0.713716,-8.3203,-6.95122,-24.5732,11.128
303.385,4.70381,-11.1038,0,1.54718,9.70701,-0.526904,-7.56098,-7.92683,-6.37195,-39.0532,-0.905317,-7.80297,-6.43293,-23.5366,9.48171
303.395,4.74041,-11.1182,0,1.61185,9.63277,-0.63468,-7.28659,-8.65854,-6.09756,-38.8999,-1.19272,-7.97542,-5.7622,-23.9634,9.54268
303.405,4.80072,-11.1355,0,1.77471,9.49625,-0.58199,-6.64634,-8.90244,-5.85366,-38.4784,-0.704136,-7.94667,-6.40244,-23.1098,8.81098
303.415,4.87969,-11.1347,0,1.86093,9.45554,-0.469424,-6.28049,-8.14024,-5.06098,-38.2293,-0.00479004,-7.59221,-7.7439,-23.6585,9.05488
303.425,4.983,-11.1222,0,1.91362,9.43877,-0.431104,-5.64024,-7.68293,-3.68902,-37.9898,0.0143701,-7.34313,-10.2744,-24.2988,9.66463
303.435,5.08957,-11.1259,0,1.825,9.5202,-0.421523,-5.33537,-8.41463,-2.77439,-38.0281,0.311353,-7.62095,-13.8415,-23.689,10.6707
303.445,5.20639,-11.1154,0,1.76992,9.54655,-0.342488,-5.06098,-9.14634,-2.10366,-37.894,0.205972,-7.35271,-19.2073,-24.3902,10.0305
303.455,5.38776,-11.0871,0,1.8753,9.43159,-0.361648,-4.17683,-10.8537,-1.37195,-38.0569,-0.253872,-7.06531,-23.3232,-23.628,8.44512
303.465,5.73841,-11.0547,0,2.16749,9.331,-0.340093,-2.9878,-13.0183,-0.640244,-38.0664,0.0431104,-6.97909,-25.5183,-24.0549,7.71341
303.475,6.03597,-10.9726,0,2.71116,9.21125,-0.273032,-3.10976,-16.128,2.10366,-37.9898,0.148491,-6.08814,-27.4085,-25.1829,7.5
303.485,6.39342,-10.8979,0,3.42727,9.03162,-0.390388,-3.93293,-18.4756,6.25,-38.191,-0.263452,-6.2031,-27.0427,-27.9878,8.2622
303.495,6.88983,-10.8247,0,4.1817,8.88313,-0.376018,-6.52439,-20.2134,12.2561,-38.2485,-0.234712,-6.19352,-25.5183,-29.9695,8.5061
303.505,7.55091,-10.7525,0,4.91937,8.54303,-0.383203,-9.05488,-19.2988,20.4268,-37.9802,-0.531694,-6.12646,-22.0122,-32.7134,7.89634
303.515,8.38964,-10.6964,0,5.58519,8.07122,-0.287402,-10.3659,-18.6585,30.2134,-37.7311,-0.560435,-6.31806,-12.6829,-34.4512,6.28049
303.525,9.37084,-10.6409,0,6.10251,7.85327,-0.0862207,-10.1524,-16.8902,40,-37.3192,-0.684976,-6.23184,-3.23171,-37.439,3.9939
303.535,10.467,-10.5541,0,6.50966,7.86764,0.0934058,-9.2378,-13.9024,50.1524,-37.1084,-0.934058,-5.64746,7.53049,-41.189,-0.121951
303.545,11.6501,-10.4839,0,6.78749,8.08559,0.0263452,-7.89634,-6.58537,60.4268,-37.118,-0.857417,-5.87738,21.9817,-43.6585,-3.65854
303.555,12.8521,-10.3954,0,6.50966,8.57656,-0.0838257,-6.85976,4.14634,70.5183,-37.1563,-0.435894,-5.55166,38.2012,-50.122,-8.93293
303.565,14.0074,-10.2965,0,5.8678,9.37411,-0.299377,-4.90854,15.7317,78.7195,-37.4054,0.138911,-5.36963,51.4634,-55.0305,-12.3171
303.575,15.0798,-10.2023,0,4.96967,10.2746,-0.392783,-4.17683,24.0854,85.3354,-38.0281,0.273032,-5.48459,62.6524,-58.4451,-15.7927
303.585,16.0601,-10.1629,0,4.20805,10.974,-0.778381,-3.9939,29.3902,87.9878,-38.4401,0.991538,-6.43302,72.6219,-58.9329,-18.9329
303.595,16.9582,-10.1436,0,3.68114,11.7548,-1.27415,-2.40854,32.7439,88.9329,-39.0436,1.56634,-6.86413,79.3902,-59.8476,-18.2317
303.605,17.7936,-10.1819,0,3.365,12.8229,-1.33882,-1.7378,31.7073,89.8476,-40.1645,1.78668,-8.09038,85.5488,-56.4024,-14.5732
303.615,18.6025,-10.2531,0,3.37219,13.4049,-1.33882,-2.43902,29.939,90.0305,-41.5057,2.16989,-8.98132,87.5915,-46.372,-11.25
303.625,19.3814,-10.3134,0,3.30034,13.1319,-1.00112,-4.14634,33.5671,88.6585,-42.7319,2.28485,-9.05796,83.7805,-39.0244,-7.10366
303.635,20.1123,-10.3291,0,2.87163,12.102,-0.110171,-4.14634,37.1951,86.8902,-44.1306,2.82133,-8.48316,80,-34.1463,-2.83537
303.645,20.7944,-10.405,0,2.42615,11.3141,0.62989,-0.27439,35.5488,85.9451,-44.648,2.94587,-9.81479,73.5366,-31.128,3.41463
303.655,21.4506,-10.4774,0,2.19863,11.1081,0.502954,2.89634,34.7866,86.5549,-44.5138,2.60099,-9.76689,65.7622,-28.4756,8.32317
303.665,22.1027,-10.5337,0,2.2585,11.1512,0.105381,4.66463,36.4939,86.9512,-44.4947,2.71595,-9.48907,58.4146,-28.0793,13.9939
303.675,22.7279,-10.5692,0,2.23934,10.6219,0.282612,8.84146,32.378,84.6037,-43.8432,2.42855,-8.9909,53.2622,-32.2866,18.2622
303.685,23.3326,-10.5953,0,2.30401,10.3609,0.57241,11.7683,22.9573,82.5,-42.8086,2.19863,-8.6556,51.0671,-41.0061,22.1951
303.695,23.9165,-10.6188,0,2.39741,10.5213,0.215552,11.5854,16.6159,81.0061,-41.5823,2.16989,-8.40652,49.1159,-48.4451,27.6524
303.705,24.485,-10.6183,0,2.59381,10.6219,-0.158071,10.3963,15.6402,78.811,-40.6147,2.03577,-7.80297,48.1098,-54.4207,32.561
303.715,25.0376,-10.5963,0,2.81415,10.5405,-0.308958,9.78659,18.3232,75.8537,-40.0304,1.94955,-7.31439,43.6585,-59.2073,37.7134
303.725,25.581,-10.5229,0,3.08958,10.2219,-0.0670605,8.87195,21.189,72.2256,-39.6472,1.57592,-6.30848,38.9024,-59.9695,41.6463
303.735,26.1118,-10.4877,0,3.27639,9.7621,0.251477,8.17073,24.9085,68.5061,-38.967,1.50886,-6.82581,32.8049,-61.2195,42.0122
303.745,26.6427,-10.4329,0,3.44883,9.25915,0.502954,8.62805,30.4878,65.7622,-38.4592,1.91123,-6.37554,27.8659,-62.2561,42.6829
303.755,27.1615,-10.3549,0,3.56139,8.94061,0.744851,10,37.0122,62.9878,-38.0569,2.42855,-5.87738,21.0366,-63.872,45.5793
303.765,27.6494,-10.2724,0,3.59013,8.72985,0.950823,10.9756,42.9573,59.6037,-37.6545,3.03209,-5.68578,14.9085,-63.4451,46.8293
303.775,28.1283,-10.194,0,3.73144,8.51908,0.946033,11.7988,46.2805,57.0122,-37.6832,3.35782,-5.70494,9.35976,-64.1159,47.4695
303.785,28.5961,-10.1378,0,3.8967,8.464,0.941243,12.0732,46.4329,54.6951,-37.6162,3.48236,-6.02108,3.41463,-64.1768,47.1646
303.795,29.049,-10.065,0,3.98292,8.29395,0.893342,12.5,44.6951,52.2256,-37.894,3.43446,-5.74326,-1.85976,-64.4207,45.7012
303.805,29.4619,-9.99905,0,3.79371,8.19815,1.04902,11.0671,41.3415,50.7317,-38.0185,3.5111,-5.82948,-8.56707,-64.3293,41.7073
303.815,29.8358,-9.95157,0,3.62127,8.04248,0.890947,10.3354,36.6768,48.811,-38.0664,3.47278,-6.1073,-15.9451,-63.5976,37.9573
303.825,30.1755,-9.92938,0,3.45362,7.85327,0.864602,8.9939,30.6098,47.1037,-37.7599,3.48236,-6.45218,-21.0061,-61.7378,32.5
303.835,30.4763,-9.94453,0,3.4153,7.83411,0.787961,8.62805,23.3841,44.2073,-37.5587,3.30034,-7.02699,-27.0732,-57.5915,27.0427
303.845,30.7264,-9.96498,0,3.43206,8.12391,1.04662,3.38415,17.1037,40.9756,-37.6258,2.84049,-7.13237,-33.9634,-55.122,21.7683
303.855,30.9877,-9.97131,0,3.67396,7.81974,0.598755,0.0304878,13.9634,38.0183,-38.0473,2.30401,-6.96951,-39.939,-51.6463,15.4573
303.865,31.2302,-9.99915,0,3.69552,7.75268,0.61552,-0.945122,12.561,35.9756,-37.6832,1.91123,-7.27607,-45.5183,-51.311,9.54268
303.875,31.4755,-10.0414,0,3.71228,7.41977,0.960403,-1.37195,6.12805,34.5122,-37.4533,1.87291,-7.48683,-46.8293,-47.8963,3.41463
303.885,31.7564,-10.0809,0,4.10027,7.26649,0.764011,-0.579268,0.0914634,32.8354,-37.2138,2.11241,-7.41019,-48.75,-45.0915,-1.31098
303.895,32.0132,-10.1361,0,4.25116,7.44372,0.826282,-1.79878,-0.914634,30.3354,-37.1755,2.16989,-7.68801,-51.4939,-42.6829,-4.29878
303.905,32.2673,-10.1672,0,4.49545,7.41977,0.55804,-4.05488,-2.07317,27.561,-37.3767,1.93997,-7.34313,-52.1341,-39.0549,-5.03049
303.915,32.5208,-10.1987,0,4.67029,7.09644,0.60594,-0.365854,-6.18902,23.6585,-37.2905,1.96871,-7.35271,-54.2683,-38.75,-5.12195
303.925,32.7362,-10.2262,0,4.8092,7.35032,0.500559,-0.884146,-10.2134,20.6098,-37.4916,1.95913,-7.34313,-57.8659,-37.7134,-5.21341
303.935,32.9752,-10.2595,0,5.05349,7.05094,0.476609,0.0914634,-11.5854,18.4756,-37.5204,2.02619,-7.46767,-60.7927,-38.1707,-7.16463
303.945,33.2537,-10.3116,0,5.54447,6.93598,0.447869,3.38415,-15.2744,16.8598,-37.4821,2.15073,-7.80297,-59.939,-37.4695,-7.40854
303.955,33.484,-10.3836,0,5.66901,7.57545,0.66821,3.04878,-13.3841,16.25,-37.1851,2.04535,-8.10954,-60.9451,-34.7866,-9.08537
303.965,33.6916,-10.4563,0,5.76721,7.81495,0.713716,-0.426829,-11.2195,15.1829,-37.4916,2.42855,-8.2245,-59.3598,-31.2195,-9.63415
303.975,33.8498,-10.5257,0,5.51094,7.75507,0.308958,-1.64634,-10.0915,12.6524,-37.9802,2.56267,-8.3203,-57.4085,-29.7866,-9.78659
303.985,33.9601,-10.5881,0,5.2906,7.55868,0.407153,-2.34756,-9.57317,8.93293,-38.0281,2.49561,-8.24366,-58.811,-26.0671,-10.7927
303.995,34.0678,-10.6403,0,5.32652,7.07728,0.239502,-2.34756,-9.08537,4.5122,-38.3538,2.13157,-8.16702,-59.1159,-23.5366,-11.3415
304.005,34.435,-10.7086,0,5.42232,7.02938,0.0263452,-4.87805,-5.27439,0.213415,-38.0377,2.10283,-8.40652,-59.7561,-19.7256,-12.1341
304.015,34.4784,-10.8014,0,5.54447,7.05333,0.392783,-5.67073,0.365854,-3.90244,-37.7982,2.10283,-8.81846,-59.7866,-16.1585,-14.0854
304.025,34.5369,-10.8724,0,6.12167,7.14913,0.6251,-6.95122,5.67073,-6.52439,-37.8461,2.16031,-8.5119,-59.5122,-16.0061,-12.9878
304.035,34.6551,-10.9238,0,6.54559,6.89526,0.701741,-8.20122,8.59756,-6.34146,-38.1143,2.48603,-8.28198,-59.7866,-18.3841,-13.2012
304.045,34.8657,-10.9657,0,7.22577,6.56475,0.62031,-6.21951,12.378,-5.45732,-38.555,2.09325,-8.25324,-59.2683,-20.3354,-13.5366
304.055,35.0933,-11.0184,0,7.01501,6.67731,0.60594,-4.78659,16.128,-2.9878,-38.4401,1.89207,-8.45442,-57.5305,-21.5549,-14.2988
304.065,35.6693,-11.0988,0,6.47853,6.67252,0.589175,-2.0122,21.0671,-0.396341,-38.1239,1.81542,-8.90468,-54.3293,-19.6341,-12.2561
304.075,36.0469,-11.1974,0,5.8678,6.61265,0.680186,1.46341,22.622,0.884146,-37.8844,1.56634,-9.21125,-51.2195,-15.9451,-10.4268
304.085,36.1802,-11.3016,0,5.26186,6.85215,0.62989,6.03659,19.3902,0.640244,-38.0281,1.7292,-9.40285,-50.4878,-11.9207,-9.48171
304.095,35.9143,-11.395,0,4.48827,7.04854,0.740061,7.19512,9.45122,-1.21951,-38.2868,1.57592,-9.33579,-47.1951,-8.9939,-7.59146
304.105,35.7131,-11.4814,0,3.88233,7.01741,0.63947,9.02439,0.304878,-5.85366,-38.6029,2.28485,-9.34537,-46.4634,-6.18902,-4.63415
304.115,35.4581,-11.5313,0,3.8464,6.99106,0.65863,8.32317,-6.0061,-11.9512,-39.034,2.67763,-8.8472,-49.7866,-5.97561,-1.06707
304.125,35.2075,-11.5748,0,4.26313,6.83539,0.62031,9.78659,-10.4573,-18.4146,-39.628,3.49194,-8.90468,-53.5061,-7.10366,2.65244
304.134,34.9784,-11.6179,0,4.73735,6.71563,0.63468,11.0976,-16.0976,-23.3537,-40.0495,3.95178,-9.02922,-61.4939,-8.14024,6.70732
304.145,34.769,-11.6995,0,5.39837,6.96711,0.574805,11.6159,-21.3415,-27.0732,-40.0495,4.59365,-9.76689,-66.7073,-5.51829,8.5061
304.155,34.5999,-11.7772,0,5.99713,6.924,0.378413,12.622,-22.5915,-29.7561,-40.3273,4.49785,-9.82437,-73.2927,-5.97561,11.5549
304.165,34.4353,-11.8714,0,6.13365,6.88808,0.198787,13.5061,-22.4085,-31.25,-40.3944,4.58407,-10.198,-79.1768,-2.92683,9.60366
304.175,34.2878,-11.9546,0,6.18394,6.64618,0.249082,16.6463,-15,-32.4085,-40.7297,4.88105,-10.1309,-82.3171,1.18902,9.42073
304.185,34.0528,-12.0122,0,5.75763,6.94556,0.251477,17.1951,-6.12805,-34.939,-41.6015,4.81399,-9.91059,-84.2378,1.79878,8.01829
304.195,33.7027,-12.0195,0,5.2403,7.26888,0.0814307,20.3354,2.7439,-39.2683,-42.8373,4.44995,-9.27831,-84.4207,-4.78659,6.76829
304.205,33.1357,-12.0418,0,4.26313,8.18139,0.184417,24.1159,6.28049,-45.2439,-43.4025,3.92304,-9.72857,-82.8659,-10.3354,10.3963
304.215,32.3803,-12.1217,0,3.49673,9.27352,0.0742456,26.2805,3.9939,-51.6159,-43.5654,2.61057,-10.9548,-73.5671,-11.5244,16.7988
304.225,31.5621,-12.2326,0,3.37219,9.68546,0.536484,29.3598,-9.7561,-56.5854,-43.5846,1.30768,-11.6446,-61.1585,-7.34756,26.311
304.235,30.8902,-12.3048,0,4.64634,9.75491,1.00351,28.6585,-33.0488,-56.128,-44.236,-1.00112,-11.0889,-45.7622,-3.41463,35.061
304.245,30.4557,-12.3591,0,6.8282,9.97286,1.09692,30.1524,-61.4329,-51.4939,-44.1785,-2.52435,-10.7536,-29.9085,-0.701219,39.2988
304.255,30.1725,-12.3121,0,9.2304,11.1752,0.761616,31.311,-87.1646,-47.4695,-46.0179,-4.24876,-9.07712,-10.7317,2.65244,39.6341
304.265,29.9359,-12.1883,0,11.6254,12.8349,0.965193,30.3659,-87.1037,-48.628,-48.2692,-5.81032,-7.79339,9.5122,2.86585,37.4695
304.275,29.7058,-12.0642,0,13.0241,14.2216,1.37953,23.4146,-65.9756,-49.0854,-50.0894,-7.66885,-7.97542,35.0915,1.70732,29.939
304.285,29.5992,-11.9353,0,13.3618,14.2959,-0.368833,11.2805,-49.9695,-38.1402,-49.2464,-8.78014,-7.61137,63.3841,4.39024,24.8171
304.295,29.5477,-11.7447,0,10.0088,13.2732,-0.646655,-2.7439,-34.3293,-20.3963,-47.2729,-7.72633,-5.87738,89.4512,7.16463,21.0976
304.305,29.4182,-11.527,0,5.27623,10.847,-0.742456,-14.4817,-18.9634,-5.85366,-43.7762,-4.88105,-4.75651,109.451,9.48171,21.9512
304.315,27.0018,-11.1828,0,0.991538,8.7035,-1.16398,-15.3659,-11.4939,0.213415,-41.1321,-0.541274,-1.94955,115.884,24.2988,23.689
304.325,26.1864,-10.6493,0,-1.10889,7.31678,-1.56395,-11.6463,-12.3476,-5.64024,-40.9596,3.25244,1.75794,105.823,33.9634,26.7683
304.335,25.0565,-10.0178,0,-2.89558,6.96711,-1.36037,-7.5,-21.7988,-15.7927,-42.5212,7.77423,4.038,87.0732,25.8232,28.6585
304.345,23.7629,-9.36705,0,-3.2213,6.87131,-1.45857,-2.71341,-37.5915,-29.6037,-42.0805,11.2901,4.78525,63.1707,14.6951,23.6585
304.355,22.596,-8.56698,0,-1.4897,6.91442,-1.80345,3.75,-53.9634,-45.7622,-45.0216,13.6085,8.59812,28.4451,-5,15.9146
304.365,21.6804,-7.77469,0,0.701741,8.23647,-2.54351,9.45122,-61.8598,-57.2561,-44.0827,12.6026,8.92384,-10.6707,0.731707,5
304.375,20.7977,-6.97839,0,1.57353,10.1333,-2.97222,11.4634,-58.1098,-63.8415,-42.3583,10.9357,9.22083,-52.1341,-10.7317,-6.46341
304.385,19.9477,-6.21274,0,2.09564,11.8889,-1.91123,10.9756,-46.128,-64.6951,-41.1704,8.24366,8.943,-82.8659,-20.3659,-15.8537
304.395,19.1501,-5.535,0,2.11001,12.4469,-0.342488,3.87195,-34.8476,-60.3049,-40.9021,3.50152,7.77423,-100.213,-28.2927,-22.439
304.405,18.3884,-4.96679,0,1.65496,11.7595,0.464634,-2.9878,-27.5,-55,-40.5668,-0.847837,6.16478,-108.415,-34.9085,-25.061
304.415,17.6545,-4.44584,0,1.38432,10.6722,0.208367,-8.20122,-23.2012,-52.439,-39.3598,-4.37331,5.5325,-110,-37.8659,-24.2988
304.425,16.9005,-4.01103,0,0.965193,9.94173,-0.0359253,-10.7012,-20.6707,-52.2256,-38.1239,-6.13604,4.23918,-109.756,-38.2622,-21.4024
304.435,16.1148,-3.69299,0,0.64905,9.53457,-0.479004,-10.8537,-20.8841,-53.628,-36.1121,-6.47134,2.41897,-100.518,-37.9573,-10.0915
304.445,15.3041,-3.51292,0,0.500559,9.29986,-0.910107,-9.63415,-24.6646,-56.128,-35.0679,-5.5804,0.416733,-82.8963,-35.061,1.03659
304.455,14.494,-3.3428,0,0.58678,9.17053,-1.45857,-7.34756,-29.2683,-58.9024,-34.5314,-4.38289,0.368833,-55.122,-34.5732,18.75
304.465,13.7156,-3.19066,0,0.859812,9.10826,-2.11241,-4.60366,-31.7073,-60.8537,-35.0487,-3.9422,0.215552,-31.5854,-29.6341,31.4634
304.475,12.9617,-3.07204,0,1.09213,9.26633,-2.65847,-0.731707,-31.4329,-62.6524,-36.0355,-3.25244,-0.186812,-9.90854,-20.5793,35.7012
304.485,12.2155,-2.94099,0,1.04423,9.38369,-2.7902,2.89634,-31.7073,-62.6524,-37.3863,-2.72553,0.110171,7.65244,-13.8415,31.3415
304.495,11.455,-2.88095,0,0.833467,9.65672,-2.52196,3.5061,-31.9207,-62.7439,-39.149,-2.70637,-1.00112,20.8537,-8.04878,20.9451
304.504,10.7244,-2.83824,0,0.979563,9.83874,-2.03577,4.17683,-33.5366,-62.7744,-40.6243,-2.36149,-1.27894,32.3476,-0.152439,5.33537
304.515,10.0728,-2.80292,0,1.57832,9.9561,-1.42504,2.46951,-33.4146,-62.9878,-41.3332,-1.73878,-1.36516,37.5305,11.0061,-10.4878
304.525,9.51919,-2.7238,0,2.49082,10.0088,-0.977168,-0.457317,-31.4024,-64.4512,-41.4482,-1.19272,-0.531694,37.7134,14.1768,-25.1524
304.535,8.97444,-2.64252,0,2.46448,9.97526,-0.795146,-3.53659,-31.9207,-64.4817,-40.4519,-0.368833,-0.435894,31.5854,10.8841,-35.5488
304.545,8.44715,-2.54136,0,2.36149,9.48428,-1.0562,-5.33537,-30.9146,-64.0244,-39.1586,0.895737,-0.0431104,24.0854,5.03049,-36.5244
304.555,7.87684,-2.43931,0,1.83219,9.21603,-1.51605,-4.39024,-29.939,-63.9024,-37.8269,2.23695,0.0239502,12.3476,0.121951,-31.9207
304.565,7.25803,-2.3355,0,1.36756,9.11544,-1.84417,-3.9939,-29.2683,-64.4817,-37.0605,3.03209,0.110171,3.2622,-2.37805,-23.5061
304.575,6.65308,-2.25998,0,1.49928,8.88552,-2.12199,-2.28659,-29.1463,-66.4634,-36.7827,2.86923,-0.311353,-8.78049,-11.4634,-16.25
304.585,6.06018,-2.19855,0,1.66933,9.12502,-1.88009,-0.670732,-26.6463,-68.0793,-36.5145,2.52435,-0.522114,-14.0549,-22.2866,-12.0122
304.595,5.53416,-2.17235,0,2.08606,9.22322,-1.63101,-1.21951,-22.1951,-67.3171,-36.5336,1.50886,-1.0586,-20.2134,-24.8171,-11.9817
304.604,5.07326,-2.18769,0,2.43094,9.19927,-1.70765,-1.43293,-17.7439,-65.9451,-36.3133,0.387993,-1.70046,-22.8354,-24.5427,-17.3476
304.615,4.64603,-2.22735,0,2.45729,9.07952,-1.91841,-0.884146,-13.628,-64.1463,-36.5528,-0.435894,-2.11241,-23.2622,-23.9024,-23.9024
304.625,4.22603,-2.26161,0,2.32317,9.09389,-1.93997,-0.396341,-7.77439,-62.622,-36.3708,-1.4897,-2.04535,-22.8049,-25.4573,-29.5122
304.635,3.81543,-2.32872,0,2.27527,9.19209,-1.71483,0.548781,-1.82927,-61.6463,-36.1887,-2.28485,-2.58183,-21.8598,-25.1524,-36.1585
304.645,3.39995,-2.42884,0,2.1627,9.49625,-1.33403,1.15854,3.84146,-60.7927,-35.7768,-2.63931,-3.10874,-20.1524,-22.0427,-38.5061
304.655,3.00058,-2.5947,0,2.14115,9.58487,-1.08494,0.0609756,8.23171,-59.5122,-35.2116,-3.20454,-4.14338,-16.7378,-18.9939,-38.3841
304.665,2.60014,-2.7631,0,1.85854,9.51781,-0.950823,-0.27439,9.78659,-57.2866,-35.1924,-3.42488,-4.2775,-14.9695,-16.7683,-35.7012
304.675,2.20624,-2.95539,0,1.71483,9.40524,-0.986748,-0.121951,9.87805,-55.9756,-34.838,-3.42488,-4.68945,-11.2805,-9.57317,-30.4878
304.685,1.82151,-3.20514,0,1.6837,9.32621,-0.989143,-0.457317,8.9939,-55.6402,-34.3015,-3.03209,-5.59956,-7.80488,-1.85976,-23.2927
304.695,1.45933,-3.44905,0,1.70765,9.09628,-1.04423,0.762195,8.29268,-54.939,-34.2823,-2.36149,-5.64746,-3.5061,1.98171,-15.3963
304.705,1.13643,-3.70922,0,1.84177,9.0867,-0.934058,2.37805,7.68293,-53.3537,-33.947,-1.74836,-5.98276,1.21951,4.84756,-5.7622
304.715,0.84785,-3.9551,0,1.96152,9.0891,-1.10171,3.65854,5.94512,-51.9817,-34.1386,-0.895737,-5.9636,5.91463,1.92073,3.20122
304.725,0.584669,-4.19802,0,2.02858,9.29747,-1.18793,3.90244,4.63415,-50.2439,-34.5506,0.464634,-6.14562,9.5122,0.701219,12.439
304.735,0.284691,-4.41666,0,1.80105,9.20406,-1.19272,1.76829,4.69512,-52.0122,-35.0104,0.924478,-5.99234,10.9756,1.37195,17.9268
304.745,-0.026095,-4.63954,0,1.65496,9.45075,-1.19272,1.43293,3.9939,-51.4024,-35.317,1.07776,-6.251,8.59756,1.55488,21.4329
304.755,-0.390173,-4.84961,0,1.25978,9.53697,-1.24062,0.457317,3.20122,-52.561,-35.6427,1.1544,-6.24142,7.56098,2.40854,23.5671
304.765,-0.780638,-5.10876,0,0.902922,9.25436,-1.32445,0.914634,4.11585,-52.0122,-35.3649,0.541274,-7.11321,5.06098,4.26829,26.5854
304.775,-1.15614,-5.40425,0,0.843047,9.45793,-1.38193,1.92073,4.05488,-50.3049,-35.4032,0.0910107,-7.88919,4.78659,1.64634,27.5
304.785,-1.56745,-5.71674,0,0.550855,9.09628,-1.40588,2.31707,2.68293,-51.4024,-35.0391,-0.502954,-8.26282,4.66463,5.36585,26.8598
304.794,-1.99458,-5.99613,0,0.498164,9.28789,-1.2526,4.02439,2.68293,-53.0488,-34.6559,-0.780776,-7.82213,4.17683,10.7012,28.9024
304.805,-2.70676,-6.25187,0,-0.809517,7.99218,-0.534089,-1.43293,-6.7378,-64.939,-34.8092,-1.07776,-7.62095,2.68293,21.25,28.8415
304.815,-3.1927,-6.50645,0,0.641865,9.93694,-1.08015,2.59146,-3.87195,-62.6524,-35.4032,-1.59508,-7.87003,2.80488,29.8476,28.9634
304.825,-3.61369,-6.73521,0,1.01309,9.57529,-1.50407,2.0122,-6.82927,-61.7988,-36.9456,-1.84417,-7.91793,5.36585,37.7439,25.5793
304.835,-4.01593,-6.92836,0,1.14482,9.31902,-1.92081,2.22561,-9.14634,-62.7134,-38.9382,-2.24653,-7.86045,6.18902,40.3659,20.6402
304.845,-4.40196,-7.04645,0,1.31726,9.48667,-1.98068,1.18902,-7.13415,-63.7195,-41.1225,-2.54351,-7.03657,4.7561,40.5183,12.6524
304.855,-4.69638,-7.18234,0,1.7795,10.3513,-2.03098,1.82927,-2.22561,-58.9329,-42.2913,-2.46687,-7.66885,-2.80488,40.3963,2.07317
304.865,-4.95717,-7.38955,0,1.825,10.4878,-2.19384,1.0061,1.0061,-56.3415,-42.1763,-2.01661,-9.0867,-9.45122,51.8598,-5.03049
304.875,-5.21511,-7.62842,0,1.71723,10.4638,-1.91123,0.335366,2.31707,-55.4573,-41.6494,-1.67172,-9.69025,-12.6524,65.4573,-8.10976
304.885,-5.38578,-7.89922,0,1.86572,10.4016,-1.45617,-2.80488,4.93902,-48.811,-40.8638,-1.52802,-10.2746,-12.1341,71.3719,-5.88415
304.895,-5.47026,-8.26179,0,2.10762,10.4159,-1.41306,-1.18902,5.36585,-42.9573,-39.9729,-1.70046,-11.9703,-9.20732,77.5915,-3.47561
304.905,-5.50681,-8.69725,0,2.14594,10.5237,-1.1544,-2.56098,0.396341,-38.4146,-39.513,-1.95913,-13.4744,-3.38415,86.5549,-0.731707
304.915,-5.48502,-9.20687,0,2.36628,10.7321,-1.10889,-3.78049,-4.20732,-34.3902,-39.2735,-3.00335,-15.1605,8.29268,92.6829,0
304.925,-5.43143,-9.67793,0,2.33514,11.0578,-0.65863,-5.64024,-11.5854,-30.061,-39.8292,-3.99968,-14.9785,20.9146,99.5427,-4.26829
304.935,-5.32126,-9.99327,0,2.68482,11.1129,-0.771196,-8.59756,-19.6646,-27.561,-40.9213,-3.88472,-12.6026,30.4268,105.793,-11.25
304.945,-5.14778,-10.0266,0,3.10155,11.0842,-0.742456,-10.6707,-27.2561,-25.061,-43.5079,-2.94587,-7.92751,33.3232,102.53,-19.4512
304.955,-4.88286,-9.82912,0,3.93502,11.235,-0.943638,-13.3537,-32.9573,-22.8659,-47.6465,-1.35558,-3.76976,21.8598,104.421,-30.7622
304.965,-4.49043,-9.51003,0,4.93134,11.4841,-1.08015,-17.0122,-33.2012,-17.3476,-53.8544,0.656235,-1.1544,-8.17073,109.787,-51.128
304.975,-3.94606,-9.19812,0,6.01629,11.6494,-0.979563,-20.2744,-28.0488,-9.35976,-57.8014,3.68354,-1.09692,-43.5366,110.366,-75.1219
304.985,-3.21216,-9.01229,0,7.02459,11.5129,-0.613125,-23.2317,-21.0976,2.46951,-58.6349,8.21492,-4.05716,-82.1951,110.61,-98.5366
304.995,-2.24727,-8.76621,0,8.02571,11.0003,-0.273032,-25.061,-15.8841,18.2012,-56.9488,8.92384,-2.32317,-120.122,93.3537,-102.043
305.005,-1.03119,-8.56992,0,9.00288,10.5093,0.320933,-26.3415,-15.2439,36.6768,-50.6355,7.47725,-2.99377,-122.165,86.0061,-95.7317
305.014,0.433591,-8.23252,0,9.73096,10.2722,1.2981,-29.4817,-14.1463,58.689,-45.97,1.93039,0.177231,-138.384,54.6646,-85.6098
305.025,2.0732,-7.71298,0,9.53218,10.7417,1.69328,-46.7683,-12.9878,83.3232,-44.4947,-2.47645,3.88472,-132.104,20.7317,-73.2927
305.035,3.85652,-7.24639,0,8.1287,9.90101,0.450264,-54.0549,8.5061,105.823,-43.9773,-6.66294,3.1279,-105.457,-0.243902,-56.4634
305.045,5.59424,-6.72697,0,5.82469,9.99202,0.565225,-55.2744,19.8171,123.476,-47.4262,-6.80665,4.81399,-70.3659,-15.0305,-41.0976
305.055,7.26709,-6.30752,0,3.92065,9.84593,-1.31966,-43.9329,28.5366,137.805,-42.1667,-10.1118,2.82133,-13.1098,-7.56098,-33.5671
305.065,8.83501,-5.82158,0,2.39741,10.3848,-1.45378,-31.0061,27.6829,148.293,-40.1836,-8.35862,4.1817,18.3537,-4.54268,-28.628
305.075,10.2774,-5.38619,0,0.931663,11.4266,-1.85614,-19.5732,26.0366,155.701,-38.0664,-7.13237,3.44404,52.8659,-0.701219,-22.1341
305.085,11.6426,-4.98379,0,-0.217947,13.0984,-1.51126,-12.5,29.0854,162.226,-37.1563,-5.19719,3.11832,75.8537,4.42073,-14.0549
305.095,12.9461,-4.52757,0,-0.823887,14.9761,-1.11129,-15.5793,29.4817,163.201,-37.4246,-2.92671,4.29667,83.3841,2.53049,-7.16463
305.105,14.1693,-4.13558,0,-1.17595,15.9892,-1.12087,-15.5488,21.4329,159.817,-38.5071,-0.828677,3.63564,77.7439,4.54268,-0.548781
305.115,15.3176,-3.7905,0,-0.383203,15.9317,-0.998723,-13.4451,11.6768,148.902,-40.1741,1.0107,3.24286,67.4695,7.31707,4.32927
305.125,16.4095,-3.49251,0,0.742456,15.3832,-0.191602,-7.68293,-4.90854,137.043,-42.4254,2.56267,2.78301,51.0366,3.78049,7.56098
305.135,17.5087,-3.25494,0,1.55437,14.5857,-0.167651,-0.121951,-14.2378,133.232,-43.4409,3.47278,1.90165,29.5732,-0.0609756,10.3963
305.145,18.6482,-3.00863,0,1.71723,13.7929,-1.31008,4.05488,-1.61585,137.53,-43.1056,4.24876,2.21779,5.51829,-3.9939,12.561
305.155,19.8533,-2.78011,0,2.07169,13.2564,-2.43573,5.06098,23.628,142.896,-41.18,5.27383,1.93997,-18.2012,-13.0793,18.811
305.165,21.0728,-2.60745,0,2.38544,13.3642,-2.44292,7.43902,50.5793,144.299,-38.6317,5.46543,1.00112,-37.622,-19.2988,28.2317
305.175,22.134,-2.494,0,0.63468,13.5558,-1.57832,7.77439,64.4207,145.823,-36.7444,5.06307,0.0910107,-53.4451,-23.3537,39.6951
305.185,23.1361,-2.44351,0,-0.179626,13.369,-1.56874,5.79268,63.2927,148.994,-35.6618,4.51701,-0.847837,-63.1707,-28.872,52.378
305.194,23.9726,-2.45371,0,-1.76752,12.799,-0.845442,5.57927,59.878,148.628,-35.3553,3.47278,-1.76752,-66.4939,-32.5,61.8598
305.204,24.6874,-2.4807,0,-2.51477,11.817,-0.912502,5.85366,59.3293,146.372,-35.0391,2.21779,-2.02619,-63.9024,-35.2439,66.311
305.215,25.1644,-2.53414,0,-3.99729,10.6602,-0.706531,7.16463,53.75,141.006,-35.5277,0.579595,-2.49561,-58.872,-37.9573,66.9207
305.225,25.7125,-2.5821,0,-2.20102,9.92496,-1.19511,10.7622,60.3963,132.805,-35.681,-0.617915,-2.47645,-52.5,-45.4573,60.6707
305.235,26.2619,-2.64642,0,-1.27176,9.32381,-1.47054,14.7866,58.872,124.39,-35.5565,-1.14482,-2.76385,-47.3476,-48.1707,53.9329
305.245,26.8193,-2.70243,0,-0.531694,8.61489,-1.76752,20.2134,56.8598,117.683,-34.7517,-1.48012,-2.61057,-39.7866,-47.5305,47.5305
305.255,27.3323,-2.74212,0,-0.481399,8.38736,-1.61664,20.3354,52.7439,113.78,-34.3111,-0.981958,-2.36149,-33.5976,-46.9817,43.7805
305.265,27.7928,-2.78672,0,-0.443079,8.07122,-1.89925,19.0549,46.6159,109.177,-33.765,0.0526904,-2.41897,-32.561,-46.311,42.3476
305.275,28.1469,-2.80834,0,-0.708926,7.73831,-1.90165,22.2561,40.2439,103.537,-33.8512,0.598755,-2.10283,-35.6707,-44.878,42.378
305.285,28.2768,-2.81998,0,-1.50647,7.6473,-1.65017,26.6463,32.561,93.4451,-34.541,1.56634,-1.99745,-38.5976,-41.8598,43.9634
305.295,28.1607,-2.91383,0,-2.17468,7.73831,-1.45138,28.5976,26.0976,77.8963,-35.2882,2.36149,-3.32908,-43.0488,-40.2744,43.628
305.305,27.851,-3.07141,0,-2.56746,8.07601,-1.17835,28.8415,20.9146,61.8598,-35.8534,3.11832,-4.44995,-49.6341,-36.7988,44.1463
305.315,27.4311,-3.2931,0,-2.4525,7.97542,-0.998723,27.561,14.4207,48.872,-35.9013,3.68354,-5.57082,-51.5854,-30.4268,40.1524
305.325,26.9101,-3.56268,0,-2.53872,7.52755,-0.428708,24.939,7.77439,40.8537,-35.6139,3.3195,-6.42344,-57.1341,-24.939,33.2927
305.335,26.3997,-3.82305,0,-2.03098,6.98148,-0.114961,18.7805,10.6402,35.9451,-35.1733,4.36373,-6.3468,-57.1037,-18.3537,24.2988
305.345,25.962,-4.0988,0,-1.18553,6.36836,0.208367,17.0427,20.7622,30.7317,-34.838,3.01293,-6.69168,-60.6402,-17.5,15.0915
305.355,25.6106,-4.31398,0,-0.392783,6.26298,0.804727,15.8841,33.4451,24.4512,-35.2978,2.39023,-6.00192,-64.0549,-23.7195,5.97561
305.365,25.3041,-4.55786,0,0.318538,6.40907,1.0083,15.0305,43.5976,15.1829,-35.2212,1.97829,-6.5863,-65.8537,-24.1159,-0.27439
305.375,24.907,-4.79232,0,0.65384,6.67013,1.22146,15.7012,49.4817,5.60976,-35.5181,1.14482,-6.64378,-69.8476,-23.5061,-3.17073
305.385,24.1201,-5.03221,0,1.1041,7.18266,1.53521,13.2927,49.2988,-2.77439,-36.0163,0.445474,-6.97909,-75.2134,-23.5061,-4.66463
305.395,23.7802,-5.2788,0,1.55676,7.72633,1.86572,6.52439,44.8476,-8.65854,-36.4378,-0.0622705,-7.32397,-80.8841,-21.372,-6.43293
305.405,23.4681,-5.47806,0,2.02379,7.98979,1.82979,-2.92683,42.5305,-12.3171,-36.7827,-0.493374,-6.75875,-87.8659,-20.4878,-9.93902
305.415,23.2123,-5.71557,0,2.63452,8.09517,1.69567,-11.9512,39.5732,-15,-36.0929,-0.981958,-7.39103,-90.0915,-19.5732,-15.3963
305.424,23.0308,-5.98514,0,3.42727,7.87482,1.35319,-18.6585,33.6585,-19.1463,-35.3649,-0.761616,-7.90835,-92.5,-16.6768,-19.0854
305.435,22.9115,-6.27227,0,4.19847,7.48204,1.12326,-19.5427,21.9817,-24.9695,-34.7901,0.273032,-8.21492,-93.2927,-10.061,-21.5549
305.445,22.815,-6.53553,0,4.73256,7.21859,0.893342,-15.5183,2.86585,-30.9451,-35.2307,0.962798,-8.09996,-94.7561,-5.60976,-19.6037
305.455,22.7396,-6.74441,0,5.59237,7.34792,1.08015,-9.60366,-20.4878,-37.1951,-35.9876,2.33275,-7.54431,-93.3537,-5.94512,-13.9329
305.465,22.6377,-6.91044,0,6.2989,7.76944,1.08734,-5.7622,-45.9146,-43.6585,-36.8402,2.87881,-7.15153,-90.0305,-9.84756,-6.89024
305.475,22.5887,-7.08421,0,7.19943,7.94188,0.471819,-5.36585,-71.0976,-44.9085,-37.7695,2.93629,-7.58263,-84.5732,-10.7622,3.44512
305.485,22.6753,-7.21887,0,8.3658,7.87961,-0.304167,-6.4939,-81.8902,-40.3963,-39.1873,2.47645,-7.28565,-78.8415,-9.60366,10.7012
305.495,22.9845,-7.381,0,9.94891,7.57066,-1.07536,-6.03659,-80.0915,-29.7866,-40.5477,1.54718,-8.13828,-72.7134,-7.22561,14.878
305.505,23.5003,-7.58869,0,11.7548,7.79818,-1.82021,-4.26829,-71.0671,-15.6402,-41.659,0.445474,-9.34537,-67.6829,-3.65854,16.2195
305.515,24.1762,-7.8744,0,12.9882,8.23887,-2.80696,4.87805,-56.5244,-0.823171,-42.3104,-0.646655,-11.1464,-65.1219,8.9939,12.5915
305.525,24.9411,-8.23815,0,12.8493,8.81607,-3.59253,23.0488,-42.4085,14.0244,-42.5212,-1.64298,-12.9379,-63.5671,27.622,3.38415
305.535,25.6812,-8.67031,0,10.9189,9.28549,-2.65368,38.7195,-31.7073,25.1524,-42.3966,-2.63931,-14.5378,-61.7683,45.3659,-8.41463
305.545,26.2932,-9.13751,0,8.31311,9.02683,-2.06211,45.1829,-28.689,27.8354,-41.4099,-1.51844,-15.2084,-61.0671,60.9756,-17.1037
305.555,26.6459,-9.6344,0,5.57561,8.43765,-1.61185,45.7927,-27.4695,21.372,-41.1416,0.158071,-16.0706,-60.1524,70.4878,-19.3902
305.565,26.5965,-10.0873,0,3.2237,8.03529,-0.955613,41.8598,-25.0305,5.09146,-41.6111,1.59508,-15.7257,-60.7622,74.2073,-12.0122
305.575,26.0739,-10.5031,0,1.46815,8.48316,-0.0718506,29.5732,-22.5305,-19.0854,-42.6745,2.65847,-15.7257,-59.0549,72.7134,2.65244
305.585,25.0966,-10.8791,0,0.0622705,8.77535,0.335303,14.7561,-20.1829,-47.3476,-44.7438,2.62973,-15.9652,-55.8537,72.8354,19.4207
305.595,23.7923,-11.1754,0,-0.651445,8.89271,0.740061,3.84146,-22.378,-73.3232,-46.5448,1.64298,-15.103,-49.2378,77.7744,31.0976
305.605,22.4404,-11.1788,0,0.141306,9.88664,1.93757,-9.63415,-22.439,-91.0671,-49.6488,0.426313,-9.58487,-35.3963,67.2561,40.5488
305.615,21.3206,-10.9714,0,3.5111,12.4373,3.71228,-25.7622,-24.1768,-100.64,-54.1418,-1.13524,-5.45585,-12.622,37.8049,50.061
305.625,20.4867,-10.7153,0,8.69392,15.2491,2.27048,-35.2744,-37.9878,-102.165,-58.108,-4.38289,-4.52659,21.4329,10.4268,61.7683
305.635,20.0369,-10.4327,0,14.8084,17.431,-1.13524,-25.1524,-34.7256,-86.4329,-61.4706,-10.2651,-3.85598,45.8232,-2.5,64.3598
305.645,20.166,-10.2746,0,20.0056,17.9076,-4.20086,-3.56707,10.4268,-44.2378,-59.3821,-14.3845,-6.6342,57.8963,13.3537,65.7622
305.655,20.8407,-9.92997,0,15.412,13.5247,-4.19847,-1.43293,62.561,10.5488,-53.3371,-12.9954,-1.35558,79.2988,23.5366,59.7561
305.665,21.3154,-9.47735,0,3.82485,8.30114,-4.49545,3.87195,84.2988,40.4878,-41.2087,-5.12055,1.23104,82.5,42.6524,61.372
305.675,20.3689,-8.75964,0,-5.38161,5.27623,-2.8357,20.5488,98.2012,39.9085,-34.5506,1.78668,5.42711,68.9024,56.6768,67.3171
305.685,18.8185,-7.74098,0,-12.1883,5.54208,0.807122,30,79.4512,17.1341,-33.7458,7.33355,10.4567,43.3232,50.9451,71.3719
305.694,16.9066,-6.74807,0,-15.9628,7.4078,3.87993,24.8171,18.689,-23.811,-35.499,8.82804,11.1464,5.21341,20.0915,70.8232
305.705,14.7606,-5.90696,0,-12.9259,8.6101,3.35063,5.4878,-64.4207,-69.5122,-38.0377,12.708,9.69983,-20.3354,-37.622,62.5915
305.715,12.8326,-5.21894,0,-5.47262,8.75859,-1.24781,-16.0366,-108.841,-101.311,-40.4806,12.9283,8.00416,-62.439,-57.1037,52.0732
305.725,11.3258,-4.76285,0,-0.866997,9.07952,-5.35526,-14.4817,-101.86,-116.433,-41.3811,13.0624,4.36373,-97.1341,-56.3415,44.2378
305.735,10.2064,-4.38482,0,2.66087,11.2279,-4.65352,4.05488,-70.5488,-118.323,-42.9427,10.2172,3.44404,-120.915,-39.9695,39.7256
305.745,9.39646,-4.04223,0,5.14211,12.7966,-1.93278,11.372,-38.1707,-106.494,-43.8241,5.47501,3.1279,-131.189,-37.1951,34.6951
305.755,8.85072,-3.75002,0,5.3361,12.1906,-0.450264,6.25,-15.6402,-84.7561,-43.8528,0.828677,2.37107,-137.683,-48.8415,26.7683
305.765,8.36715,-3.52938,0,3.52307,10.7848,-0.646655,4.39024,-1.61585,-68.2012,-43.3259,-3.76976,1.17356,-133.232,-54.6037,15.061
305.775,7.83986,-3.39548,0,2.06211,9.98244,-0.958008,3.9939,6.18902,-60.5488,-42.023,-6.89287,-0.292192,-119.512,-50.5793,6.46341
305.785,7.18568,-3.32558,0,0.795146,9.46991,-1.0083,3.71951,8.84146,-60.5488,-40.0112,-8.8951,-1.28852,-99.9695,-43.2317,-2.34756
305.795,6.37409,-3.29542,0,-0.402363,9.21603,-0.687371,2.46951,3.17073,-63.0488,-37.233,-7.70717,-1.79626,-75.1219,-40.061,-5.82317
305.805,5.46445,-3.32033,0,-0.977168,9.22322,-0.732876,0.487805,-7.62195,-67.4695,-35.7193,-8.26282,-2.55309,-54.939,-33.1098,-11.4939
305.815,4.57777,-3.3527,0,-0.584385,9.331,-1.22625,-0.731707,-20.3354,-72.0122,-33.9566,-6.04982,-2.52435,-31.1585,-22.9878,-11.5549
305.825,3.92519,-3.41664,0,1.65975,9.25915,-2.1651,1.03659,-23.9329,-77.9878,-33.7267,-4.98643,-2.97461,-19.8171,-14.7561,-12.9878
305.835,3.36008,-3.47085,0,2.68721,9.01246,-2.39023,6.0061,-23.872,-83.5366,-34.3877,-4.31582,-2.90755,-3.10976,-9.54268,-15.8537
305.845,2.71835,-3.47165,0,1.79866,8.9933,-1.99745,6.76829,-29.7561,-81.7073,-35.2595,-3.08,-2.17947,7.56098,-9.32927,-18.0488
305.855,2.07102,-3.4056,0,1.45617,9.41722,-1.75794,9.93902,-25.7317,-78.4451,-35.8822,-2.14115,-1.17356,13.628,-14.0244,-20.5488
305.865,1.43257,-3.26991,0,1.37714,10.0208,-1.33403,7.80488,-21.0976,-76.8902,-36.9839,-1.31726,-0.0526904,10.5488,-20.7012,-21.3415
305.875,0.829324,-3.17369,0,1.49449,10.1836,-1.03225,3.5061,-22.0427,-75.6707,-37.597,-0.445474,-0.675395,5.64024,-38.2012,-20.9451
305.885,0.262429,-3.14577,0,1.52084,10.119,-0.804727,0.762195,-18.3232,-73.5976,-37.6066,-0.320933,-1.75794,2.7439,-42.0122,-18.7805
305.895,-0.282317,-3.15603,0,1.42264,9.90101,-0.804727,-0.731707,-12.378,-71.7378,-37.1851,-0.0814307,-2.32317,4.90854,-34.3293,-14.878
305.905,-0.846827,-3.22621,0,1.04902,9.63995,-0.764011,-2.7439,-7.19512,-70.8537,-37.0031,-0.273032,-3.29076,8.56707,-31.0671,-11.7683
305.915,-1.40714,-3.32501,0,0.907712,9.30465,-0.989143,-2.9878,-3.75,-70.2744,-36.6199,-0.407153,-3.76976,15.9451,-31.5854,-11.8293
