time,angle1,angle2,intgangle,accX1,accY1,accZ1,gyroX1,gyroY1,gyroZ1,accX2,accY2,accZ2,gyroX2,gyroY2,gyroZ2
176.866,92.5376,5.71394,0,9.83395,-0.529299,0.735271,-0.27439,-0.213415,-1.25,-38.8807,-1.48012,4.1817,-17.1646,-5.42683,6.34146
176.876,92.5443,5.73183,0,9.86748,-0.538879,0.752036,-0.213415,-0.243902,-1.18902,-38.9478,-1.37474,4.19128,-17.1646,-4.7561,6.12805
176.886,92.5398,5.73672,0,9.83395,-0.519719,0.708926,-0.27439,-0.335366,-1.76829,-38.8999,-1.346,3.97094,-16.4939,-5.39634,5.82317
176.896,92.5424,5.75245,0,9.82916,-0.536484,0.718506,-0.335366,-0.152439,-1.46341,-38.8712,-1.54718,4.16254,-15.1829,-4.39024,5.33537
176.906,92.5386,5.76017,0,9.85311,-0.498164,0.754431,0.121951,-0.152439,-1.43293,-38.9191,-1.31726,4.038,-15,-4.84756,5.45732
176.916,92.5375,5.74922,0,9.83635,-0.514929,0.704136,0.182927,-0.304878,-1.46341,-39.1298,-1.32684,3.74102,-15.7012,-4.54268,5
176.926,92.5355,5.76623,0,9.81479,-0.500559,0.735271,-0.121951,-0.304878,-1.37195,-39.0628,-1.37474,4.21044,-15.7622,-5.42683,4.90854
176.937,92.5387,5.75994,0,9.8579,-0.512534,0.711321,0.152439,-0.0914634,-1.12805,-39.0532,-1.4418,3.81766,-16.0061,-4.87805,5.12195
176.946,92.5451,5.77435,0,9.84593,-0.524509,0.708926,0.0609756,-0.0304878,-1.06707,-39.0436,-1.2023,4.17212,-16.372,-4.90854,4.84756
176.956,92.5454,5.78753,0,9.84353,-0.498164,0.728086,0.152439,-0.0914634,-1.12805,-39.2352,-1.30768,4.1817,-15.5488,-4.7561,6.09756
176.966,92.546,5.80526,0,9.8579,-0.505349,0.749641,0.365854,0.27439,-1.18902,-39.0244,-1.32684,4.24876,-15.7927,-4.42073,4.05488
176.977,92.5461,5.80954,0,9.83156,-0.507744,0.720901,0,0.243902,-1.28049,-39.1873,-1.28852,4.04758,-15.6098,-3.2622,5.36585
176.987,92.5447,5.80345,0,9.84353,-0.493374,0.747246,0.182927,0.304878,-1.18902,-38.9382,-1.36516,3.8464,-15.3049,-2.86585,5.97561
176.996,92.5452,5.80476,0,9.83635,-0.505349,0.744851,-0.0914634,0.640244,-1.21951,-39.0628,-1.16398,3.98052,-14.6951,-3.68902,5.30488
177.006,92.544,5.81569,0,9.83635,-0.505349,0.766406,0,0.487805,-1.34146,-39.1203,-1.38432,4.15296,-16.0976,-4.2378,5.33537
177.016,92.5427,5.81941,0,9.84353,-0.500559,0.785566,-0.0609756,0,-1.28049,-39.149,-1.23104,4.038,-15.5488,-4.17683,6.18902
177.026,92.5479,5.84227,0,9.79563,-0.514929,0.749641,0.0304878,0.121951,-1.06707,-39.0723,-1.18314,4.36373,-15.2134,-4.87805,6.40244
177.036,92.5474,5.84566,0,9.80521,-0.493374,0.814307,0.0914634,-0.182927,-1.15854,-39.1298,-1.37474,4.04758,-16.5244,-4.5122,5.18293
177.046,92.5491,5.86017,0,9.80521,-0.536484,0.744851,0.0914634,-0.0914634,-1.52439,-38.9861,-1.21188,4.2296,-16.25,-4.05488,4.93902
177.056,92.5508,5.86398,0,9.83395,-0.500559,0.771196,-0.27439,0.0609756,-1.06707,-39.034,-1.27894,4.05716,-15.2744,-4.54268,4.78659
177.066,92.5515,5.86533,0,9.80521,-0.510139,0.759221,-0.0609756,-0.0304878,-1.28049,-38.9286,-1.38432,4.00926,-15.5488,-3.59756,4.84756
177.076,92.551,5.87322,0,9.82677,-0.493374,0.821492,-0.335366,0.243902,-1.12805,-38.8999,-1.45138,4.12422,-15.2439,-2.59146,5.30488
177.086,92.5507,5.88311,0,9.81479,-0.502954,0.778381,-0.548781,-0.121951,-1.25,-38.8328,-1.37474,4.15296,-15.2134,-3.75,5.39634
177.097,92.5428,5.87916,0,9.83874,-0.459844,0.768801,-0.213415,-0.0914634,-1.21951,-38.9957,-1.43222,3.93262,-15.122,-4.96951,5.7622
177.107,92.5347,5.86736,0,9.81479,-0.452659,0.737666,-0.152439,-0.335366,-1.15854,-39.1873,-1.52802,3.80808,-14.6341,-6.25,5.06098
177.116,92.5303,5.8652,0,9.81719,-0.467029,0.754431,-0.0304878,-0.365854,-1.09756,-39.4268,-1.51844,3.9901,-13.1402,-6.85976,4.48171
177.126,92.5291,5.85256,0,9.82197,-0.483794,0.771196,-0.457317,-0.579268,-1.09756,-39.5035,-1.32684,3.80808,-11.311,-8.04878,4.2378
177.136,92.5292,5.86499,0,9.83635,-0.495769,0.740061,-0.548781,-0.731707,-1.15854,-39.3693,-1.28852,4.2296,-10.6707,-6.95122,3.53659
177.146,92.5307,5.86804,0,9.82197,-0.510139,0.840652,-0.792683,-0.457317,-1.25,-39.1394,-1.31726,4.04758,-12.7744,-7.62195,4.05488
177.156,92.527,5.88276,0,9.83395,-0.483794,0.787961,-0.701219,-0.152439,-1.28049,-38.9861,-1.28852,4.2296,-11.0366,-9.72561,3.23171
177.166,92.5253,5.88296,0,9.84114,-0.469424,0.768801,-0.487805,-0.0304878,-0.914634,-39.1203,-1.30768,4.00926,-12.378,-7.28659,3.32317
177.176,92.5295,5.87606,0,9.81958,-0.481399,0.711321,-0.701219,0,-0.701219,-39.2544,-1.33642,3.8943,-10.7012,-8.75,2.37805
177.186,92.5325,5.8495,0,9.81958,-0.493374,0.754431,-0.792683,-0.0304878,-0.945122,-39.2256,-0.886157,3.53984,-11.6159,-9.81707,1.89024
177.196,92.5419,5.83148,0,9.83635,-0.519719,0.773591,-0.670732,-0.457317,-0.853659,-39.4364,-1.00112,3.69312,-11.5244,-8.9939,0.823171
177.207,92.5563,5.80911,0,9.81958,-0.593965,0.768801,-0.487805,-0.426829,-1.34146,-39.5035,-1.0586,3.59732,-9.05488,-12.8049,0.914634
177.216,92.5654,5.80141,0,9.83635,-0.570015,0.752036,-0.396341,-0.121951,-1.37195,-38.9861,-0.895737,3.7985,-12.0732,-10.061,1.12805
177.226,92.5815,5.81781,0,9.83635,-0.613125,0.768801,-0.27439,0,-1.37195,-39.1107,-1.07776,4.2296,-12.1646,-8.75,1.18902
177.236,92.5988,5.82097,0,9.78844,-0.62031,0.728086,-0.243902,-0.457317,-1.40244,-38.8903,-0.838257,3.9901,-11.7378,-7.9878,0.0914634
177.246,92.6122,5.84303,0,9.79084,-0.61073,0.732876,-0.0914634,0.0609756,-1.4939,-38.6796,-0.914897,4.29667,-12.8354,-7.95732,1.40244
177.257,92.6206,5.86982,0,9.7621,-0.608335,0.735271,-0.152439,0,-1.76829,-38.5742,-1.02028,4.38289,-12.8354,-7.53049,0.914634
177.266,92.6298,5.87549,0,9.75252,-0.61073,0.711321,-0.426829,-0.426829,-1.7378,-38.555,-1.04902,4.038,-11.9207,-6.89024,0.304878
177.276,92.6335,5.8964,0,9.78366,-0.5772,0.708926,-0.243902,-0.609756,-1.70732,-38.8424,-1.0586,4.33499,-13.8415,-7.13415,-0.670732
177.286,92.6324,5.92985,0,9.77168,-0.55804,0.704136,0.121951,-0.884146,-1.82927,-38.8616,-1.08734,4.56491,-11.9207,-8.38415,0.518293
177.296,92.6313,5.94233,0,9.82677,-0.550855,0.708926,0.0914634,-0.884146,-1.70732,-38.9191,-1.2023,4.2296,-13.2622,-8.62805,1.06707
177.307,92.6259,5.96983,0,9.84353,-0.522114,0.689766,0.27439,-1.40244,-1.67683,-38.9095,-1.42264,4.49785,-13.75,-8.62805,2.46951
177.316,92.6166,5.99081,0,9.87227,-0.505349,0.713716,0.365854,-1.52439,-1.76829,-38.9861,-1.3939,4.41163,-15.5793,-8.81098,2.46951
177.326,92.5984,6.0034,0,9.9082,-0.450264,0.718506,0.670732,-1.37195,-1.82927,-39.1777,-1.61424,4.29667,-18.9024,-10.122,3.62805
177.336,92.5786,6.02888,0,9.9082,-0.421523,0.665815,0.335366,-1.15854,-1.58537,-38.8424,-1.80584,4.49785,-17.7134,-8.38415,3.44512
177.346,92.5621,6.06093,0,9.87706,-0.426313,0.689766,0.304878,-0.670732,-1.37195,-38.9861,-1.57592,4.65113,-16.9207,-7.07317,2.7439
177.357,92.5426,6.0833,0,9.88664,-0.407153,0.64426,0.304878,-0.396341,-1.40244,-38.9574,-1.4897,4.50743,-18.2012,-5.21341,2.40854
177.366,92.5269,6.10968,0,9.88664,-0.414338,0.675395,0.213415,-0.304878,-1.15854,-38.8616,-1.6334,4.58407,-18.1707,-4.48171,2.77439
177.376,92.5221,6.14434,0,9.8603,-0.462239,0.720901,0.0304878,0.0609756,-1.03659,-38.9095,-1.66214,4.75651,-17.439,-3.10976,2.19512
177.386,92.5139,6.17348,0,9.8555,-0.435894,0.680186,0,-0.0609756,-0.884146,-38.9382,-1.4897,4.68945,-17.7134,-2.59146,2.62195
177.396,92.5111,6.174,0,9.8603,-0.479004,0.684976,-0.152439,-0.0304878,-1.15854,-39.1107,-1.56634,4.2296,-16.7988,-2.89634,2.16463
177.407,92.5184,6.18317,0,9.83395,-0.495769,0.735271,0.182927,0.304878,-0.731707,-39.0723,-1.5855,4.38289,-15.7317,-1.09756,1.82927
177.416,92.5242,6.18118,0,9.83635,-0.519719,0.725691,0.0609756,-0.0914634,-1.09756,-39.0532,-1.43222,4.1817,-16.2805,-4.2378,2.04268
177.426,92.5298,6.17383,0,9.83874,-0.493374,0.701741,0.243902,0,-0.762195,-38.967,-1.6334,4.0859,-16.189,-1.95122,2.86585
177.437,92.5305,6.16086,0,9.82197,-0.488584,0.704136,0.0304878,0.365854,-1.03659,-39.1203,-1.54718,3.99968,-15.4268,-1.7378,4.02439
177.446,92.5396,6.15337,0,9.83395,-0.510139,0.790356,0.365854,0.243902,-0.762195,-38.9478,-1.4418,4.038,-15.4878,-10.6402,4.45122
177.457,92.5449,6.16194,0,9.82677,-0.500559,0.740061,0.365854,0.121951,-0.853659,-39.034,-1.69088,4.31582,-17.1341,-12.1951,3.90244
177.466,92.5577,6.16435,0,9.83156,-0.529299,0.723296,0.487805,0.0609756,-0.762195,-39.034,-1.51844,4.21044,-17.1951,-13.4451,4.60366
177.476,92.5906,6.16342,0,9.81958,-0.570015,0.713716,0.335366,0.152439,-0.335366,-38.7083,-1.7771,4.12422,-16.1585,-11.9207,5.94512
177.486,92.6034,6.17386,0,9.8076,-0.548459,0.723296,0.27439,0.0914634,-0.914634,-39.149,-1.62382,4.36373,-17.7134,-13.5061,5.39634
177.496,92.6253,6.16739,0,9.82197,-0.56762,0.761616,0.121951,0,-0.640244,-39.2352,-1.73878,4.09548,-18.4451,-10.3659,4.60366
177.507,92.6424,6.15089,0,9.79563,-0.536484,0.708926,0,-0.213415,-0.518293,-39.0532,-1.64298,3.88472,-15.3659,-14.1768,5.06098
177.516,92.6624,6.14345,0,9.80042,-0.560435,0.759221,-0.182927,0.0609756,-0.609756,-38.9478,-1.50886,4.02842,-17.1951,-11.7073,5.30488
177.526,92.669,6.14286,0,9.81958,-0.505349,0.766406,-0.0914634,-0.152439,-0.548781,-39.2831,-1.50886,4.17212,-18.4146,-13.3232,6.58537
177.536,92.6745,6.12905,0,9.83156,-0.493374,0.680186,-0.0914634,-0.27439,-0.396341,-39.5035,-1.83458,3.9422,-14.4512,-19.2378,4.78659
177.546,92.6941,6.13189,0,9.79323,-0.534089,0.744851,-0.304878,-0.396341,-0.27439,-39.4172,-1.73878,4.2296,-17.0732,-15.3963,5.82317
177.556,92.7074,6.13816,0,9.85072,-0.534089,0.756826,-0.0304878,-0.640244,-0.457317,-39.2544,-1.54718,4.28709,-16.9207,-11.6159,6.55488
177.566,92.718,6.13889,0,9.84593,-0.529299,0.718506,-0.396341,-0.762195,-0.518293,-39.6376,-1.62382,4.22002,-16.3415,-16.0671,5.57927
177.577,92.7191,6.10244,0,9.87467,-0.502954,0.711321,-0.27439,-0.640244,-0.670732,-38.7179,-1.91123,3.53984,-12.8963,1.09756,5
177.586,92.7232,6.47111,0,9.8603,-0.505349,0.711321,0,-0.0914634,-0.518293,-46.1137,-0.474214,12.9571,-2.53049,56.9817,4.35976
177.596,92.7336,6.35823,0,9.85072,-0.548459,0.704136,-0.243902,-0.0609756,-0.731707,-38.4209,-2.07409,2.58183,-8.90244,45.2134,5.42683
177.607,92.7437,6.3341,0,9.84832,-0.548459,0.732876,-0.487805,0.0609756,-0.731707,-39.3693,-1.79626,4.07632,-13.872,32.8354,5.30488
177.616,92.7438,6.25759,0,9.84114,-0.507744,0.706531,-0.548781,0.0609756,-0.792683,-38.5933,-0.694556,3.02251,-11.0976,15.3963,2.86585
177.626,92.7472,6.26516,0,9.79323,-0.517324,0.699346,-0.426829,0.0914634,-0.762195,-39.9633,-1.87291,4.57449,-9.29878,16.4024,3.41463
177.636,92.7549,6.23473,0,9.78366,-0.550855,0.713716,-0.823171,-0.548781,-0.945122,-39.4939,-1.50886,3.86556,-8.59756,18.872,3.38415
177.646,92.7546,6.17656,0,9.82437,-0.538879,0.730481,-0.213415,-0.365854,-1.25,-39.3789,-1.346,3.3674,-13.8415,24.6037,4.63415
177.656,92.7564,6.14571,0,9.83156,-0.538879,0.802332,-0.365854,-0.27439,-1.09756,-39.4364,-1.1065,3.80808,-11.2805,23.8415,5.7622
177.666,92.7651,6.14668,0,9.81719,-0.55804,0.780776,-0.426829,-0.426829,-0.914634,-39.5035,-1.03944,4.31582,-10.3049,13.1098,5.51829
177.676,92.7625,6.10483,0,9.79803,-0.514929,0.754431,-0.396341,-0.609756,-1.09756,-38.7562,-1.18314,3.559,-15.7317,31.7073,6.25
177.686,92.7683,6.07986,0,9.80042,-0.550855,0.754431,-0.548781,-0.548781,-1.0061,-39.992,-1.69088,3.93262,-13.5671,28.628,4.87805
177.696,92.7699,5.98764,0,9.78844,-0.546064,0.766406,-0.518293,-0.579268,-1.21951,-38.8233,-1.1544,2.61057,-14.4817,19.3598,4.14634
177.707,92.7737,6.03071,0,9.78844,-0.538879,0.747246,-0.701219,-0.701219,-0.97561,-40.2124,-1.71004,5.06307,-15.4268,20.4268,3.32317
177.716,92.7858,5.94071,0,9.80281,-0.58199,0.809517,-0.762195,-0.792683,-0.97561,-38.67,-0.550855,2.62973,-21.1585,26.7683,3.75
177.726,92.7996,5.85646,0,9.82916,-0.58678,0.749641,-0.701219,-0.97561,-0.884146,-39.034,-0.704136,2.72553,-23.689,36.5244,2.7439
177.736,92.8163,5.87308,0,9.82197,-0.598755,0.713716,-0.914634,-1.28049,-0.853659,-40.4806,-1.5855,4.48827,-17.4695,10.2744,2.16463
177.746,92.8238,5.78779,0,9.82197,-0.58199,0.761616,-0.518293,-1.12805,-1.12805,-38.6125,-1.18314,2.51477,-19.878,1.40244,2.40854
177.756,92.8284,5.75642,0,9.81479,-0.58199,0.783171,-0.609756,-1.06707,-1.31098,-39.8004,-1.16398,3.42488,-13.7195,-15.6402,1.95122
177.767,92.8376,5.72678,0,9.82437,-0.58199,0.723296,-0.792683,-0.701219,-1.0061,-39.8292,-1.43222,3.43446,-14.2073,-16.0671,2.80488
177.777,92.8336,5.71543,0,9.81479,-0.529299,0.694556,-0.853659,-0.213415,-1.21951,-39.6759,-1.57592,3.74102,-15.0305,-10.8537,4.32927
177.787,92.8426,5.70075,0,9.82197,-0.555645,0.637075,-0.762195,-0.548781,-0.701219,-39.5418,-1.38432,3.64522,-17.8049,-15.6707,4.14634
177.796,92.8549,5.67021,0,9.80281,-0.565225,0.673001,-0.731707,-1.28049,-0.640244,-39.0723,-1.5376,3.33866,-17.3171,-9.20732,4.17683
177.807,92.8646,5.71643,0,9.79084,-0.579595,0.706531,-0.518293,-1.46341,-0.945122,-40.3657,-1.14482,4.66071,-17.9878,-50.7622,4.35976
177.816,92.8662,5.66858,0,9.81719,-0.565225,0.725691,-0.609756,-1.25,-1.21951,-39.1969,-1.6334,2.88839,-15.6402,-59.2988,3.78049
177.826,92.8672,5.6144,0,9.79563,-0.560435,0.737666,-0.518293,-1.43293,-1.21951,-39.2065,-1.45138,2.80217,-16.8598,-42.8963,2.19512
177.836,92.8613,5.56696,0,9.8555,-0.524509,0.684976,-0.670732,-1.18902,-1.18902,-38.9382,-1.2023,3.00335,-24.8476,-1.18902,1.70732
177.846,92.8597,5.58448,0,9.8555,-0.538879,0.773591,-0.823171,-0.609756,-1.06707,-39.9825,-1.64298,4.09548,-18.2622,-32.5,1.25
177.856,92.8544,5.61337,0,9.82916,-0.526904,0.744851,-1.37195,-0.457317,-1.21951,-39.8196,-1.4897,4.2296,-16.7378,-50.6707,1.31098
177.866,92.8533,5.63275,0,9.85072,-0.55325,0.716111,-1.18902,-0.609756,-1.25,-39.0244,-1.23104,4.04758,-16.8902,-36.6159,2.46951
177.876,92.8558,5.64895,0,9.8124,-0.570015,0.713716,-0.853659,-0.640244,-1.25,-39.2448,-1.4897,4.07632,-21.5549,-22.622,2.71341
177.886,92.86,5.68907,0,9.76449,-0.58678,0.785566,-1.0061,-0.97561,-1.37195,-39.8388,-1.71962,4.55533,-19.878,-28.0488,2.9878
177.896,92.8598,5.711,0,9.8579,-0.59636,0.752036,-1.12805,-0.731707,-1.67683,-39.7334,-1.79626,4.20086,-18.2012,-41.9817,2.86585
177.906,92.8485,5.72655,0,9.78844,-0.565225,0.749641,-1.31098,-0.97561,-2.2561,-39.6951,-1.6813,4.05716,-16.4329,-54.0854,2.89634
177.916,92.8413,5.71114,0,9.84593,-0.59157,0.730481,-1.4939,-0.884146,-2.19512,-39.5897,-1.60466,3.52068,-17.4085,-51.6463,3.14024
177.926,92.829,5.71684,0,9.94891,-0.550855,0.787961,-1.7378,0.121951,-2.07317,-39.5322,-1.88249,3.87514,-16.128,-51.8293,2.7439
177.936,92.8152,5.72459,0,9.97286,-0.538879,0.747246,-1.67683,1.70732,-2.07317,-39.7142,-1.96871,3.90388,-11.6768,-60.3049,3.47561
177.946,92.799,5.77432,0,9.93215,-0.519719,0.699346,-1.76829,2.04268,-2.10366,-39.7525,-1.7292,4.62239,-9.93902,-70.2744,3.59756
177.956,92.7811,5.83962,0,9.78605,-0.507744,0.725691,-1.82927,1.06707,-2.2561,-39.6567,-1.71962,4.90021,-7.65244,-76.6159,4.32927
177.967,92.7663,5.8986,0,9.58966,-0.55325,0.65384,-1.70732,-1.98171,-2.7439,-39.149,-1.51844,4.76609,-10.7622,-78.3537,4.81707
177.976,92.7604,5.95362,0,9.79084,-0.64905,0.713716,-1.82927,-2.31707,-2.92683,-38.9382,-1.7292,4.71819,-11.9817,-76.5854,5.70122
177.986,92.75,6.04905,0,9.77407,-0.675395,0.706531,-1.85976,-2.56098,-3.62805,-38.7562,-1.75794,5.43669,-12.3476,-76.4024,6.98171
177.996,92.7368,6.09256,0,9.83156,-0.682581,0.687371,-2.34756,-2.07317,-3.93293,-38.7562,-1.74836,4.60323,-15.2744,-75.6402,5.67073
178.006,92.7103,6.08133,0,9.87706,-0.62031,0.65384,-2.92683,-1.43293,-4.48171,-39.0915,-1.75794,3.73144,-13.4756,-72.0122,4.90854
178.017,92.6825,6.10963,0,10.1621,-0.632285,0.593965,-2.89634,0.243902,-4.60366,-39.3119,-1.6813,4.43079,-13.1707,-73.811,2.68293
178.026,92.6572,6.17071,0,10.0663,-0.60115,0.603545,-2.5,3.20122,-4.11585,-39.5514,-2.05493,5.03433,-12.4085,-80.4573,2.40854
178.036,92.6202,6.248,0,9.77647,-0.495769,0.589175,-2.31707,4.78659,-4.29878,-39.5705,-1.825,5.36005,-12.3171,-82.4695,1.31098
178.046,92.5907,6.27992,0,9.64714,-0.55804,0.512534,-2.5,1.06707,-4.45122,-39.5897,-2.03577,4.61281,-12.439,-82.4695,2.40854
178.056,92.5616,6.35372,0,9.73096,-0.56283,0.531694,-1.25,0.243902,-4.48171,-39.5322,-1.87291,5.36005,-11.9817,-85.2744,4.63415
178.066,92.5234,6.45126,0,9.83395,-0.534089,0.574805,-0.518293,-1.37195,-5.03049,-39.6088,-1.71004,5.82948,-11.7988,-89.8171,6.37195
178.076,92.4773,6.57947,0,9.93454,-0.490979,0.58199,-0.762195,-0.640244,-5.33537,-39.6088,-1.6334,6.4426,-11.7378,-90.9756,8.47561
178.086,92.4286,6.72531,0,9.94891,-0.495769,0.61552,-1.28049,-0.27439,-5.73171,-39.2256,-1.38432,6.78749,-16.0671,-89.939,8.04878
178.096,92.3843,6.8774,0,9.9561,-0.524509,0.570015,-0.945122,1.12805,-5.73171,-39.1107,-1.24062,6.97909,-18.4451,-90.5793,8.38415
178.106,92.345,6.99874,0,9.92017,-0.550855,0.608335,-0.97561,2.16463,-5.64024,-38.737,-1.31726,6.48092,-18.872,-89.6341,7.56098
178.117,92.3019,7.08868,0,9.90101,-0.510139,0.58678,-1.21951,2.43902,-5.64024,-38.5359,-1.09692,5.98276,-18.872,-89.939,4.93902
178.126,92.2575,7.12146,0,9.80521,-0.481399,0.65863,-1.18902,2.31707,-5.57927,-38.4305,-1.73878,5.04391,-14.5732,-88.75,2.59146
178.136,92.2108,7.1919,0,9.76928,-0.455054,0.613125,-1.03659,1.98171,-5.60976,-38.373,-1.62382,5.69536,-11.4939,-92.5305,-0.762195
178.146,92.1607,7.31731,0,9.7621,-0.433499,0.65384,-1.21951,2.40854,-5.79268,-38.6412,-1.42264,6.73,-10.5793,-96.7683,-3.44512
178.156,92.1133,7.48888,0,9.74533,-0.457449,0.680186,-0.884146,2.9878,-5.91463,-38.9574,-1.2981,7.66885,-13.2927,-103.75,-6.52439
178.166,92.0697,7.66999,0,9.83156,-0.467029,0.646655,-1.28049,2.9878,-5.70122,-39.1777,-1.09692,7.99458,-13.4146,-106.86,-6.40244
178.176,92.035,7.8514,0,9.86988,-0.512534,0.66821,-1.43293,3.10976,-5.39634,-38.9957,-1.00112,8.09038,-17.3476,-107.134,-5.51829
178.187,91.9974,8.0725,0,9.88904,-0.531694,0.680186,-0.853659,2.28659,-5.97561,-38.8424,-1.11608,8.88552,-19.1159,-111.037,-2.46951
178.196,91.9554,8.28252,0,9.98244,-0.481399,0.759221,-0.304878,1.92073,-5.85366,-38.5646,-1.06818,8.77056,-20.7012,-113.841,-0.762195
178.206,91.9095,8.44163,0,9.9082,-0.445474,0.790356,-0.121951,1.82927,-5.94512,-38.2676,-1.38432,7.95625,-21.9512,-112.195,1.92073
178.216,91.8639,8.57799,0,9.86748,-0.452659,0.756826,0,1.4939,-6.12805,-37.6353,-1.84417,7.57305,-19.7561,-102.622,3.04878
178.226,91.8223,8.72877,0,10.004,-0.479004,0.740061,0.0914634,3.29268,-6.03659,-37.6449,-1.92081,7.90835,-18.1707,-105.366,4.69512
178.237,91.7771,8.92153,0,9.56331,-0.464634,0.768801,0.335366,2.31707,-6.58537,-37.7982,-2.16989,8.77056,-15.9756,-107.683,6.21951
178.246,91.7286,9.10872,0,9.62798,-0.479004,0.761616,0.304878,2.07317,-7.13415,-37.9611,-2.32317,8.82804,-14.6037,-112.47,7.0122
178.257,91.676,9.32779,0,9.7597,-0.467029,0.775986,0.426829,1.95122,-7.43902,-38.0856,-2.12199,9.55613,-13.4451,-112.226,7.92683
178.266,91.6169,9.60792,0,9.82916,-0.423918,0.821492,0.731707,1.28049,-7.65244,-38.1431,-1.92081,10.8111,-14.1768,-116.585,7.0122
178.276,91.5514,9.8634,0,9.81958,-0.368833,0.799937,1.12805,0.548781,-7.77439,-37.779,-1.60466,10.4758,-13.9024,-113.384,8.32317
178.286,91.4837,10.0231,0,9.82916,-0.354463,0.783171,1.61585,-0.152439,-7.95732,-37.3479,-1.51844,8.88552,-11.7073,-103.75,8.2622
178.296,91.4174,10.0742,0,9.88904,-0.414338,0.771196,1.64634,-0.579268,-8.62805,-37.4246,-1.83458,7.14195,-7.07317,-103.171,8.35366
178.306,91.3397,10.1495,0,10.0495,-0.364043,0.706531,1.52439,0.731707,-9.26829,-37.051,-1.88249,7.52515,0.0609756,-99.8476,8.44512
178.316,91.2605,10.3617,0,10.1142,-0.378413,0.749641,1.7378,4.11585,-9.72561,-37.6737,-2.16031,10.0639,6.85976,-111.372,6.37195
178.326,91.1549,10.6239,0,9.34776,-0.136516,0.696951,1.37195,2.37805,-9.90854,-38.3347,-2.40939,11.2614,7.22561,-123.902,3.75
178.336,91.0584,10.8653,0,9.70701,-0.170046,0.627495,1.31098,2.07317,-9.54268,-38.4401,-2.19863,11.0889,2.13415,-126.86,0.823171
178.346,90.9712,11.1121,0,9.85311,-0.136516,0.6251,2.31707,1.70732,-8.35366,-38.1239,-1.79626,11.271,-2.77439,-126.494,-1.64634
178.356,90.888,11.3983,0,10.0327,-0.0981958,0.60115,2.83537,1.09756,-7.65244,-37.8844,-1.74836,12.0853,-3.84146,-131.098,0.853659
178.366,90.8124,11.6821,0,10.1477,-0.0622705,0.641865,2.92683,0.731707,-6.61585,-37.2426,-1.60466,12.0469,-6.06707,-129.055,2.46951
178.377,90.7384,11.9822,0,10.119,-0.0550855,0.694556,2.07317,1.28049,-6.52439,-37.0989,-1.65256,12.5164,-7.19512,-124.665,3.32317
178.386,90.6799,12.294,0,9.91538,-0.179626,0.66342,1.55488,2.2561,-6.58537,-36.8594,-1.825,12.8613,-9.02439,-125.183,5.06098
178.396,90.6256,12.544,0,9.69264,-0.244292,0.65863,1.12805,3.20122,-7.10366,-36.2175,-1.71962,11.7691,-10.3659,-122.622,3.71951
178.407,90.5683,12.7805,0,9.72378,-0.222737,0.687371,0.762195,3.93293,-7.2561,-35.7002,-1.32684,11.5584,-10.3354,-116.189,2.34756
178.416,90.5089,13.0717,0,9.81479,-0.170046,0.749641,0.640244,5.03049,-6.92073,-35.5373,-0.886157,12.6409,-10.1829,-111.738,0.487805
178.426,90.4525,13.3025,0,9.9058,-0.0958008,0.730481,0.335366,5.64024,-5.85366,-35.8726,-0.790356,11.8937,-9.63415,-112.652,-1.12805
178.436,90.3908,13.436,0,9.87706,0.00479004,0.764011,0.365854,5.51829,-5.30488,-35.5852,-1.24062,10.2938,-8.29268,-108.933,-4.20732
178.446,90.3468,13.6646,0,9.81479,-0.0862207,0.823887,0.884146,5,-4.72561,-35.863,-1.28852,12.114,-8.20122,-110.213,-6.25
178.457,90.3016,13.9952,0,9.67827,-0.117356,0.845442,1.34146,4.26829,-5.33537,-36.5432,-1.04902,14.327,-10.2439,-122.134,-7.59146
178.466,90.2528,14.3141,0,9.69983,-0.148491,0.855022,1.89024,3.75,-6.15854,-37.0031,-1.55676,14.509,-15.5488,-129.207,-7.43902
178.477,90.2102,14.6203,0,9.74054,-0.170046,0.859812,1.98171,3.20122,-5.88415,-36.8498,-1.54718,14.4515,-19.5122,-127.5,-6.12805
178.486,90.1614,14.9173,0,9.89143,-0.105381,0.886157,3.04878,2.5,-5.79268,-36.6294,-1.28852,14.4324,-21.7683,-124.36,-2.16463
178.496,90.1144,15.1893,0,9.97286,-0.0550855,0.862207,3.35366,2.04268,-5.12195,-36.4187,-1.67172,14.1067,-22.561,-123.506,1.46341
178.506,90.0657,15.3667,0,9.95849,-0.0119751,0.811912,3.29268,1.95122,-4.87805,-35.8534,-1.7292,12.411,-17.8659,-116.677,4.66463
178.516,90.0118,15.5383,0,9.80521,0,0.819097,3.17073,2.07317,-5.36585,-35.4702,-1.36516,12.3248,-10.9756,-108.689,6.55488
178.526,89.9675,15.8107,0,9.67827,-0.0862207,0.902922,2.65244,1.82927,-5.54878,-35.202,-1.07776,14.1258,-8.10976,-111.707,7.2561
178.537,89.9199,16.1363,0,9.57289,-0.102986,0.886157,2.13415,2.2561,-6.18902,-35.4702,-1.2502,15.3904,-10.6098,-116.433,5.06098
178.546,89.8755,16.4394,0,9.616,-0.162861,0.883762,1.12805,2.19512,-6.67683,-35.8151,-1.42264,15.3617,-10,-116.463,0.487805
178.557,89.8344,16.7081,0,9.73815,-0.179626,0.898132,1.55488,2.5,-6.61585,-35.796,-1.346,14.9593,-11.128,-109.909,-3.2622
178.566,89.7916,16.9862,0,9.87946,-0.0886157,0.962798,1.82927,1.31098,-5.7622,-35.6523,-1.18314,15.285,-13.4451,-105.945,-7.80488
178.576,89.746,17.2647,0,9.95849,0.0431104,0.948428,1.92073,1.0061,-4.57317,-35.2691,-1.41306,15.3425,-14.1768,-102.835,-10.1829
178.586,89.7078,17.5518,0,9.91778,0.0431104,0.998723,2.13415,-0.579268,-3.90244,-34.6176,-1.35558,15.4383,-15.0305,-97.1951,-11.9817
178.596,89.6808,17.8241,0,9.7597,-0.0598755,0.974773,1.76829,-0.396341,-4.11585,-34.1865,-1.55676,15.1988,-17.8963,-92.7744,-10.7317
178.606,89.6631,18.123,0,9.65672,-0.153281,0.981958,1.55488,-0.731707,-4.39024,-34.0332,-1.5376,15.8119,-19.8476,-91.4024,-9.7561
178.617,89.6473,18.3959,0,9.70701,-0.193997,0.941243,1.52439,-0.426829,-4.69512,-33.5446,-1.52802,15.3329,-20.1524,-90.6402,-6.18902
178.626,89.6211,18.6572,0,9.7597,-0.102986,0.938848,2.22561,-0.365854,-4.66463,-33.468,-1.71004,15.3042,-19.6341,-84.9695,-1.82927
178.637,89.5867,18.9426,0,9.8603,0.0287402,0.902922,2.13415,-0.487805,-3.96341,-33.468,-1.69088,15.9365,-16.25,-81.3719,1.12805
178.646,89.5521,19.2263,0,9.86988,0.122146,0.926873,2.34756,-0.518293,-2.86585,-33.7458,-1.86333,16.2622,-14.2683,-76.0061,4.2378
178.656,89.5098,19.5091,0,9.82197,0.150886,0.960403,2.43902,-0.548781,-3.38415,-33.7362,-1.87291,16.4634,-14.1768,-72.0122,5.27439
178.666,89.4706,19.802,0,9.75731,0.141306,0.962798,2.0122,-1.03659,-3.2622,-34.0141,-2.23695,17.0094,-12.561,-67.8354,5.42683
178.676,89.4359,20.0746,0,9.78605,0.102986,0.996328,1.95122,-1.15854,-3.38415,-34.541,-2.10283,17.1148,-12.0122,-66.2195,3.62805
178.686,89.4025,20.3481,0,9.79084,0.0694556,0.986748,1.64634,-1.46341,-3.75,-34.723,-2.26569,17.431,-14.5427,-65.7927,-0.731707
178.697,89.3643,20.6068,0,9.86748,0.112566,0.926873,1.58537,-1.09756,-3.78049,-34.9433,-2.18905,17.4693,-15.061,-64.2683,-3.68902
178.706,89.3206,20.8258,0,9.89862,0.182021,0.881367,1.31098,-1.31098,-3.56707,-34.5889,-1.96871,16.7412,-15.7622,-62.8963,-6.79878
178.716,89.2767,21.0175,0,9.98963,0.261057,0.845442,1.21951,-0.853659,-2.62195,-34.3206,-2.02619,16.2718,-16.4634,-60.4573,-7.0122
178.726,89.2351,21.2342,0,10.0112,0.277822,0.838257,1.0061,-0.762195,-2.16463,-34.244,-2.06451,16.8466,-16.6768,-59.5732,-6.4939
178.737,89.2083,21.4605,0,9.93454,0.198787,0.855022,0.792683,-0.426829,-1.7378,-34.3494,-2.29443,17.2298,-16.5549,-62.5305,-4.45122
178.746,89.1975,21.6714,0,9.81958,0.100591,0.902922,0.518293,-0.27439,-1.67683,-34.2727,-2.28485,17.0669,-15.6707,-63.5976,-1.4939
178.757,89.191,21.8954,0,9.79084,0.0455054,0.857417,0.731707,-0.457317,-2.04268,-34.3206,-2.55309,17.498,-16.7683,-63.4451,0.548781
178.766,89.1876,22.1154,0,9.81,0.0143701,0.857417,0.853659,-0.487805,-2.16463,-34.4356,-2.17947,17.6513,-14.3902,-63.1402,2.0122
178.776,89.1763,22.3272,0,9.84353,0.0502954,0.838257,1.06707,-0.548781,-2.40854,-34.2727,-2.37107,17.5842,-15.5793,-60.9146,3.32317
178.786,89.1625,22.5316,0,9.87706,0.110171,0.814307,0.914634,-0.670732,-1.89024,-34.1578,-2.04535,17.5459,-15.2744,-60.6707,2.34756
178.796,89.1574,22.7103,0,9.91299,0.0766406,0.809517,0.762195,-0.579268,-1.61585,-34.1769,-2.09325,17.2298,-15.2134,-58.6585,1.31098
178.806,89.1552,22.8699,0,9.90341,0.0718506,0.792751,0.487805,-0.884146,-1.46341,-34.2248,-2.23695,17.0382,-14.4817,-55.6098,-0.304878
178.816,89.1724,23.0435,0,9.87227,-0.0622705,0.807122,0.487805,-0.731707,-1.61585,-34.1769,-2.17947,17.4118,-14.9695,-52.1341,-2.13415
178.826,89.1888,23.2076,0,9.8076,-0.131726,0.807122,0.304878,-0.152439,-2.2561,-34.244,-2.20821,17.4022,-16.9817,-50.061,-4.78659
178.837,89.2066,23.3585,0,9.76928,-0.153281,0.814307,-0.152439,-0.121951,-2.34756,-33.9374,-2.31359,17.1244,-17.2561,-49.2988,-5.45732
178.846,89.216,23.5034,0,9.74533,-0.136516,0.843047,0.670732,-0.182927,-2.7439,-33.9374,-2.39023,17.1244,-16.5244,-48.7195,-5.15244
178.856,89.2064,23.6297,0,9.77647,-0.0574805,0.833467,0.670732,-0.27439,-3.41463,-33.5542,-2.25611,16.7029,-12.622,-46.25,-3.53659
178.866,89.1918,23.7452,0,9.81479,0.0191602,0.802332,1.0061,-0.609756,-3.01829,-33.6213,-2.15073,16.6358,-8.75,-44.9085,-0.579268
178.876,89.167,23.9053,0,9.86269,0.150886,0.821492,0.792683,-1.43293,-2.37805,-33.9374,-2.31359,17.7184,-8.44512,-43.9024,1.12805
178.887,89.1448,24.0588,0,9.87946,0.155676,0.833467,1.03659,-1.25,-2.10366,-34.0332,-2.51477,17.7663,-10.1524,-43.872,1.67683
178.896,89.1314,24.1698,0,9.89622,0.122146,0.881367,0.792683,-0.914634,-1.76829,-34.0811,-2.57225,17.1052,-12.0732,-42.2866,0.396341
178.906,89.1341,24.2845,0,9.87467,0.0574805,0.886157,0.792683,-0.609756,-1.34146,-34.2248,-2.50519,17.3256,-12.8659,-43.628,0.853659
178.916,89.1382,24.4281,0,9.88425,0.0263452,0.869392,0.945122,-0.243902,-1.58537,-34.5506,-2.72553,18.1303,-12.2256,-45,1.0061
178.926,89.1441,24.5474,0,9.92017,0.0335303,0.881367,1.06707,-0.121951,-1.37195,-34.7805,-2.42855,17.8812,-13.0183,-47.1646,1.92073
178.937,89.13,24.6522,0,9.97047,0.131726,0.814307,0.884146,-0.213415,-1.70732,-34.6464,-2.56267,17.613,-8.62805,-49.7256,2.59146
178.946,89.1144,24.7688,0,9.98723,0.172441,0.775986,0.884146,0.182927,-1.25,-34.6943,-2.30401,17.9387,-7.92683,-51.7988,1.28049
178.957,89.102,24.9026,0,9.9537,0.177231,0.711321,0.884146,0.487805,-0.792683,-34.7134,-2.48603,18.3602,-6.82927,-55.1524,0.670732
178.966,89.0822,25.0256,0,9.89383,0.213157,0.783171,0.365854,0.731707,-0.792683,-34.8763,-2.27527,18.3315,-7.46951,-56.5854,-0.640244
178.977,89.0874,25.1333,0,9.84353,0.0958008,0.768801,-0.27439,1.89024,-0.823171,-34.8571,-2.32317,18.1111,-6.34146,-58.4451,-3.35366
178.987,89.1026,25.2352,0,9.79323,0.0502954,0.766406,-0.213415,2.04268,-0.823171,-34.9338,-2.35191,18.1111,-4.20732,-61.4634,-4.2378
178.996,89.1173,25.341,0,9.81479,0.0215552,0.780776,0.640244,1.89024,-1.09756,-34.7996,-2.31359,18.1782,-4.48171,-65.8841,-4.39024
179.006,89.1286,25.4447,0,9.8124,-0.0191602,0.766406,1.09756,1.09756,-1.64634,-34.905,-2.39981,18.2548,-1.64634,-70.7317,-5.73171
179.016,89.14,25.5434,0,9.81,-0.0215552,0.807122,1.40244,0.365854,-1.64634,-35.0583,-2.60099,18.2932,-0.670732,-77.2256,-5.57927
179.026,89.1486,25.6373,0,9.82677,-0.0646655,0.797541,1.67683,0.487805,-2.19512,-34.905,-2.79259,18.1782,0.365854,-81.4939,-4.60366
179.037,89.1541,25.7061,0,9.7621,-0.129331,0.814307,1.46341,1.18902,-3.04878,-34.9146,-2.99377,17.7567,2.37805,-84.7256,-3.04878
179.046,89.1571,25.7961,0,9.77168,-0.179626,0.828677,1.03659,2.10366,-3.75,-34.7613,-2.78301,18.1303,4.84756,-87.5915,-3.29268
179.056,89.1543,25.9205,0,9.82437,-0.189207,0.838257,0.97561,3.20122,-4.35976,-34.7805,-2.73511,18.868,5.64024,-92.4695,-3.35366
179.066,89.1423,26.0425,0,9.82677,-0.136516,0.900527,1.34146,2.95732,-4.63415,-34.6464,-2.63931,18.8392,6.52439,-94.3293,-2.28659
179.076,89.1228,26.1635,0,9.88664,-0.102986,0.876577,1.03659,2.59146,-5,-34.4452,-2.76385,18.7913,8.20122,-97.7744,-1.95122
179.086,89.0978,26.2899,0,9.87467,-0.0766406,0.840652,1.52439,2.43902,-5.27439,-34.359,-2.68721,18.9254,10.8841,-102.348,-1.4939
179.096,89.0646,26.4028,0,9.93933,-0.0311353,0.886157,1.18902,3.47561,-5.60976,-34.1386,-2.73511,18.6285,13.0793,-105.671,-0.701219
179.106,89.0289,26.4812,0,9.95849,-0.0383203,0.823887,0.97561,4.5122,-6.0061,-34.1386,-2.77343,18.0345,19.1159,-107.988,-0.182927
179.117,88.9824,26.6212,0,9.91299,-0.0311353,0.783171,1.25,5.12195,-7.10366,-34.2536,-2.80217,19.347,20.6707,-112.683,1.43293
179.126,88.9279,26.754,0,9.97526,-0.0167651,0.819097,1.76829,5.2439,-7.83537,-34.8188,-2.60099,19.6056,22.5,-119.695,2.89634
179.136,88.853,26.8776,0,9.93933,0.0814307,0.783171,0.884146,5.33537,-8.87195,-35.2212,-2.39981,19.7302,21.8902,-125.274,1.70732
179.146,88.765,27.0352,0,10.0495,0.191602,0.852627,-0.823171,4.26829,-9.08537,-35.5181,-2.20821,20.6786,21.311,-131.159,-0.335366
179.156,88.6673,27.1962,0,10.1333,0.205972,0.766406,-1.82927,1.64634,-10.122,-35.1254,-2.34233,20.6211,22.9878,-138.11,-2.71341
179.166,88.5582,27.3619,0,10.2172,0.349673,0.756826,-3.20122,1.95122,-9.84756,-34.6751,-2.08367,20.5636,26.0671,-143.689,-2.28659
179.176,88.4751,27.5313,0,10.095,0.193997,0.780776,-2.92683,4.81707,-9.17683,-33.7937,-1.73878,20.2379,29.0549,-146.28,-0.701219
179.187,88.4061,27.7177,0,9.89383,-0.00479004,0.917292,-1.15854,7.46951,-10.2134,-33.2093,-1.67172,20.372,29.1463,-143.75,-1.06707
179.196,88.3472,27.9556,0,9.89622,-0.126936,0.989143,0.243902,7.2561,-10.7622,-32.8932,-1.6813,21.3684,28.2012,-145,-1.25
179.206,88.2736,28.1618,0,9.81958,-0.0359253,0.811912,0.579268,6.58537,-11.311,-32.9028,-1.99745,20.9085,25.8232,-146.86,-4.05488
179.216,88.1894,28.3621,0,9.84832,0.0287402,0.761616,-1.12805,6.25,-11.7683,-32.8261,-1.97829,20.9085,24.3902,-146.738,-6.95122
179.226,88.1137,28.5932,0,9.84832,-0.0886157,0.59157,-1.70732,6.89024,-12.4695,-32.6633,-1.73878,21.5791,23.8415,-150.884,-8.38415
179.237,88.0217,28.8626,0,9.86988,0.0263452,0.5772,-1.70732,7.04268,-12.9268,-32.5004,-1.56634,22.4413,23.1402,-155.793,-8.29268
179.246,87.9351,29.1442,0,9.74773,-0.0191602,0.852627,0.335366,5.85366,-13.1098,-32.5004,-1.38432,22.9108,21.7073,-159.787,-9.96951
179.256,87.8246,29.396,0,9.74533,0.174836,1.1041,2.13415,3.20122,-13.3841,-31.8681,-1.18314,22.0581,20.1524,-164.482,-9.81707
179.266,87.7058,29.6281,0,9.80521,0.325723,1.18074,3.2622,3.5061,-12.6829,-31.5807,-1.346,21.6558,23.6585,-165.396,-9.96951
179.276,87.5031,29.92,0,10.0711,1.59029,1.30768,5.18293,4.2378,-7.04268,-31.1017,-1.33642,22.7383,24.0244,-167.378,-8.87195
179.286,87.4051,30.1932,0,10.0327,0.878972,1.53042,4.60366,7.59146,-4.81707,-30.6994,-0.914897,22.2881,23.9024,-169.36,-7.7439
179.297,87.3388,30.477,0,9.63037,0.479004,1.52802,3.96341,11.0366,-6.25,-30.479,-0.857417,22.5755,21.0366,-168.262,-7.77439
179.306,87.263,30.7967,0,9.45793,0.603545,1.5879,3.78049,12.2866,-5.70122,-30.2108,-1.1544,23.3514,18.811,-171.494,-7.71341
179.316,87.2384,31.1398,0,9.49386,0.239502,1.62382,2.9878,10,-5.18293,-30.1054,-1.346,24.022,18.5061,-176.189,-7.80488
179.327,87.2112,31.4957,0,9.24478,0.189207,1.57592,3.35366,8.90244,-6.03659,-29.8467,-1.55676,24.3765,19.0244,-179.36,-5.85366
179.336,87.2262,31.8353,0,9.69983,-0.0838257,1.49449,2.13415,7.89634,-5.2439,-29.1857,-1.16398,23.7825,17.3476,-181.189,-4.72561
179.346,87.1745,32.1717,0,9.63995,0.301772,1.40109,2.43902,6.67683,-7.28659,-28.678,-0.732876,23.6005,17.8659,-177.53,-3.62805
179.356,87.1223,32.5373,0,9.69743,0.325723,1.53042,-0.609756,7.56098,-7.16463,-28.3043,-0.493374,24.1945,17.7439,-177.866,-1.79878
179.366,87.0765,32.9128,0,9.97765,0.265847,1.28613,-2.28659,8.71951,-7.43902,-28.3522,-0.416733,24.7501,18.4146,-181.555,-1.82927
179.376,87.0102,33.2908,0,9.78605,0.361648,1.33163,-3.90244,9.08537,-8.41463,-28.084,-0.570015,24.8843,18.2012,-185,-0.853659
179.386,86.9579,33.6546,0,9.78605,0.189207,1.61903,-4.11585,8.01829,-9.17683,-28.5343,-0.608335,25.2866,17.9878,-187.835,-2.19512
179.396,86.8597,33.969,0,9.50344,0.61552,1.78429,-1.61585,3.90244,-8.65854,-28.6588,-0.550855,24.616,17.9878,-188.78,-1.95122
179.406,86.7562,34.2232,0,9.36932,0.617915,1.82261,-2.37805,2.2561,-9.26829,-28.4385,-0.579595,23.4281,15.6707,-182.896,-2.46951
179.416,86.7195,34.4801,0,9.27112,-0.0143701,1.72202,-3.2622,2.86585,-10.5488,-28.5343,-1.19272,23.8304,8.71951,-170.64,-3.65854
179.426,86.6874,34.8038,0,9.59684,-0.237107,1.50647,-5.85366,3.81098,-12.8659,-28.6588,-2.18905,25.6315,4.20732,-170.701,-6.06707
179.437,86.6477,35.0976,0,10.756,-0.285007,0.950823,-7.22561,1.82927,-13.9024,-29.5785,-3.08,26.0339,6.95122,-175.854,-6.67683
179.446,86.5565,35.3579,0,10.5189,0.174836,0.972378,-6.28049,3.93293,-14.2073,-30.182,-3.6548,26.0243,14.0244,-182.5,-4.84756
179.456,86.4185,35.663,0,10.6483,0.598755,1.16398,-6.06707,7.77439,-14.5427,-30.479,-3.5111,27.5667,22.2561,-188.659,-1.40244
179.466,86.268,35.9882,0,10.5022,0.579595,1.22625,-6.76829,10.2744,-16.2195,-29.9617,-2.88839,27.8541,25.3659,-194.695,2.56098
179.476,86.1334,36.2611,0,10.689,0.538879,1.54958,-10.9146,13.4146,-15.4573,-29.3869,-1.346,26.3787,27.9878,-195.122,8.71951
179.486,85.9929,36.5242,0,10.2531,0.546064,1.03704,-11.1585,9.20732,-16.0061,-28.6205,-0.876577,25.7177,32.3476,-194.543,10.7622
179.496,85.8472,36.8501,0,9.6184,0.316143,0.859812,-8.53659,5.4878,-19.2073,-28.4193,-0.0239502,27.2601,33.9024,-191.616,12.5
179.506,85.6958,37.2415,0,9.1346,0.258662,1.50886,-10.7012,0.548781,-20.6098,-28.5247,0.474214,29.3102,27.7134,-193.11,10.7622
179.516,85.5955,37.6127,0,9.69743,-0.215552,1.17835,-15.6707,0.853659,-21.6159,-28.6013,0.282612,29.2528,15.2134,-195.976,6.64634
179.526,85.5147,37.9622,0,9.96328,-0.467029,0.950823,-17.7134,5.30488,-22.7134,-28.5438,-0.119751,29.0133,5.21341,-195.884,0.27439
179.537,85.4505,38.3212,0,9.98244,-0.507744,1.93518,-17.6524,5.39634,-21.6463,-28.4576,-0.713716,29.5402,-4.81707,-193.75,-7.0122
179.546,85.3868,38.7675,0,9.51302,-0.646655,1.45138,-19.0244,6.64634,-23.7195,-27.8445,-1.02986,31.6095,-13.5366,-195.671,-11.9512
179.556,85.286,39.2396,0,9.98723,-0.217947,1.31487,-19.7866,9.48171,-22.2561,-27.1835,-0.397573,32.0023,-19.5732,-208.72,-13.1707
179.566,85.1223,39.7487,0,9.67827,0.354463,1.74118,-18.811,4.66463,-22.0427,-25.871,0.100591,31.9927,-18.5061,-213.537,-12.8963
179.576,84.9478,40.2096,0,10.6171,0.55804,1.88967,-19.7561,0.0914634,-21.6159,-24.9034,-0.407153,30.0575,-12.1037,-208.537,-12.3171
179.586,84.6869,40.7008,0,9.75491,1.23344,1.60466,-20,0.121951,-22.2256,-23.4377,-1.13524,29.6168,-2.71341,-195.762,-9.57317
179.596,84.6011,41.247,0,9.36932,-0.222737,1.75315,-18.2317,7.9878,-22.378,-22.0006,-1.78668,29.7988,2.37805,-188.232,-8.32317
179.606,84.5003,41.8274,0,8.69871,-0.0958008,1.55916,-13.628,6.67683,-22.5915,-21.2821,-2.26569,30.3928,2.0122,-183.171,-4.45122
179.617,84.3664,42.469,0,9.26873,0.170046,1.71723,-13.0488,4.20732,-22.7439,-20.9085,-2.59141,32.3855,1.61585,-177.073,1.76829
179.626,84.2549,43.0906,0,10.5285,-0.00958008,1.78668,-14.8476,8.59756,-22.9878,-20.8223,-2.44771,32.4525,-4.54268,-171.799,8.47561
179.637,84.1109,43.6942,0,10.8159,0.201182,1.28373,-14.2378,14.2683,-24.2378,-20.2954,-1.346,31.8681,-9.29878,-166.372,18.3232
179.647,83.8972,44.2517,0,11.1273,0.890947,1.14721,-11.6463,22.8963,-24.4817,-20.2283,-0.301772,31.1879,-9.48171,-149.848,28.9634
179.656,83.668,44.7716,0,10.3177,1.20948,0.622705,-9.35976,33.3841,-22.1951,-20.372,0.790356,31.0634,-2.43902,-128.933,39.4207
179.666,83.4292,45.3101,0,9.97047,1.18074,0.64905,-4.90854,31.128,-23.5061,-20.1038,0.886157,31.9256,4.35976,-114.512,45.8232
179.676,83.2029,45.8745,0,9.47949,1.12566,1.38911,-2.56098,31.2805,-22.6829,-20.2379,1.18314,33.6788,3.81098,-114.177,46.0366
179.686,83.0042,46.507,0,9.05557,0.895737,1.66933,-0.884146,25.7622,-22.622,-18.9446,0.972378,34.6655,2.07317,-101.585,43.75
179.696,82.8124,47.1265,0,8.87115,0.926873,1.83219,1.03659,21.0976,-21.6768,-18.7243,1.04902,34.7326,-7.22561,-97.1341,43.7195
179.706,82.6101,47.7362,0,9.0388,1.0562,1.71004,1.55488,15.7927,-21.7073,-18.159,1.1065,34.2727,-16.6768,-88.9329,45.7012
179.716,82.3861,48.3299,0,9.11305,1.33882,1.27176,0.884146,10.7317,-20.8841,-18.1495,1.65256,34.6176,-26.5549,-79.6646,47.6829
179.726,82.1387,48.888,0,9.12502,1.5855,1.26936,0.121951,5,-20.6707,-18.7051,2.27527,35.2882,-34.9085,-70.7927,49.2988
179.737,81.9169,49.3445,0,9.70941,1.50886,1.31726,3.59756,-0.213415,-20.6402,-20.0463,2.90755,34.8571,-43.7805,-64.3598,50.5488
179.746,81.6767,49.7258,0,9.78126,1.72441,1.6334,9.57317,-4.84756,-20.6098,-21.0905,2.75427,34.6368,-45.8232,-62.8049,48.2012
179.756,81.4215,50.0624,0,9.63756,1.84656,1.57353,11.7073,-5.15244,-20.8841,-21.4929,1.91123,34.2727,-44.2683,-64.6037,43.9939
179.767,81.1551,50.3829,0,9.79084,1.9232,1.33403,13.3537,-5.12195,-22.0122,-21.2917,0.771196,33.8225,-41.0366,-70.1829,37.3171
179.776,80.8736,50.7158,0,9.616,1.94715,1.62861,12.9573,-8.2622,-23.4146,-20.6594,-0.493374,33.5925,-42.2561,-76.7073,34.0244
179.786,80.5933,51.0796,0,9.53457,1.86093,1.61185,11.25,-6.18902,-24.6951,-20.3912,-1.2981,34.5889,-43.1402,-85.3963,30.7317
179.796,80.3132,51.4649,0,9.65911,1.83458,1.99984,11.3415,-5.36585,-25.8232,-20.0367,-1.81542,35.1924,-46.0061,-93.811,31.7988
179.806,80.0274,51.837,0,9.83874,1.85854,1.57592,12.4085,-5.12195,-27.1037,-19.529,-1.92081,34.3398,-43.872,-98.5366,34.8171
179.816,79.7335,52.1652,0,9.95849,2.01661,1.47294,16.372,-3.01829,-26.9817,-19.4044,-1.60466,33.1327,-39.4817,-97.2866,40.7012
179.826,79.4073,52.4886,0,9.69983,2.36149,1.54239,17.8049,-2.37805,-26.311,-19.4715,-1.06818,33.5159,-34.9695,-98.5976,46.2195
179.837,79.0743,52.8076,0,9.63037,2.46927,1.44659,18.2012,0.182927,-26.25,-19.8451,-0.560435,34.4068,-32.561,-104.665,53.5061
179.846,78.722,53.1065,0,9.67827,2.56986,1.95673,19.1768,-2.83537,-27.8963,-20.3625,-0.273032,34.9817,-32.2866,-113.14,56.2195
179.856,78.3624,53.4268,0,9.61361,2.62015,2.00942,17.6524,-3.23171,-28.5976,-20.3625,0.0910107,36.1217,-35.0305,-122.47,55.4573
179.866,78.0117,53.745,0,9.75252,2.49322,1.59748,17.9268,-2.62195,-30.2744,-20.2667,0.100591,36.2941,-40.3659,-129.421,54.4207
179.876,77.6423,54.0404,0,9.5705,2.62255,1.82979,16.9207,-0.0304878,-30.8841,-19.9888,0.167651,35.4032,-40.2744,-131.799,48.9939
179.886,77.2922,54.343,0,9.93454,2.5507,1.47773,17.439,-0.487805,-31.5549,-19.3182,0.397573,34.9242,-40.3049,-127.683,43.1402
179.896,76.9382,54.6846,0,9.80042,2.68482,1.825,17.3171,3.07927,-30.7927,-18.8775,0.282612,36.0067,-40.2134,-128.384,39.7256
179.906,76.5965,55.0433,0,9.63995,2.62015,1.49449,17.561,5.39634,-30.4878,-18.6668,0.138911,36.7923,-41.4024,-130.366,34.939
179.917,76.261,55.3891,0,9.56331,2.46448,1.60227,19.2073,2.71341,-32.1037,-18.8296,-0.196392,37.1468,-44.9695,-132.47,30.9451
179.926,75.9076,55.6926,0,9.50583,2.66805,1.4418,21.4024,-0.304878,-32.1037,-19.3374,-0.158071,36.9839,-46.8293,-132.47,28.3537
179.936,75.5282,55.9769,0,9.02443,2.71835,1.57592,20.122,-3.90244,-33.2622,-19.5577,-0.196392,37.1468,-48.7195,-129.36,26.128
179.946,75.1257,56.2218,0,9.20166,2.87881,1.74836,18.75,-8.17073,-35.1524,-19.6344,-0.541274,36.2079,-48.1402,-127.409,23.75
179.956,74.7123,56.4691,0,9.63516,3.08718,1.67891,18.3537,-9.17683,-36.2805,-19.6248,-0.857417,36.639,-47.6829,-129.36,21.4939
179.966,74.2817,56.7275,0,9.81719,3.39374,1.81303,18.5366,-7.9878,-36.2195,-19.3086,-1.23104,36.821,-45.8537,-134.695,17.561
179.976,73.8393,56.9899,0,9.80281,3.559,1.85135,18.7195,-9.11585,-36.4939,-19.0404,-1.57592,36.8306,-43.689,-139.939,12.7439
179.986,73.3936,57.267,0,9.61121,3.55181,1.6837,17.0732,-7.80488,-37.0732,-18.3219,-1.90165,36.3995,-43.0488,-142.591,10.8841
179.996,72.972,57.5955,0,9.8555,3.34105,1.46815,18.0183,-8.41463,-38.689,-17.7279,-1.96871,37.7407,-40.5488,-146.067,11.0671
180.006,72.5457,57.9505,0,9.81,3.34584,1.35079,18.6585,-8.41463,-39.8171,-17.316,-1.86333,38.5359,-44.0549,-152.988,15.0305
180.016,72.102,58.3108,0,9.67109,3.48236,1.36995,18.5366,-7.2561,-40.4878,-16.8945,-1.81542,38.4401,-45.2439,-156.22,17.3476
180.026,71.6638,58.6333,0,9.7142,3.43206,1.36037,19.2683,-8.56707,-41.5244,-16.7316,-1.61424,37.0605,-45.2439,-152.104,19.2683
180.037,71.2083,58.9586,0,9.65432,3.63803,1.32684,19.4817,-8.9939,-41.7683,-16.358,-1.96871,36.9552,-43.1402,-146.159,19.4207
180.046,70.7485,59.2566,0,9.2831,3.59732,1.58311,17.2866,-6.4939,-42.0427,-16.1951,-1.91123,36.0355,-40.4878,-138.506,17.2866
180.056,70.3029,59.5674,0,9.30465,3.57816,1.65975,16.1585,-6.7378,-41.8293,-15.8119,-1.98787,36.2558,-36.7073,-134.817,14.3293
180.066,69.8657,59.9075,0,9.38129,3.559,1.66693,16.8902,-9.14634,-42.4085,-15.4575,-1.78668,37.3192,-33.872,-132.5,10.3963
180.076,69.4452,60.2707,0,9.33339,3.49194,1.41546,15.8232,-8.65854,-42.1341,-15.0551,-1.87291,38.0569,-32.1951,-133.963,8.17073
180.086,69.023,60.6319,0,9.3765,3.54702,1.50407,15.5793,-9.11585,-42.7439,-14.7677,-2.06451,37.9419,-32.5305,-133.14,6.67683
180.096,68.5933,60.9747,0,9.2831,3.67157,1.31247,15.2134,-8.32317,-42.622,-14.327,-2.16031,36.6869,-32.0427,-124.878,6.18902
180.106,68.1563,61.3014,0,9.2807,3.75779,1.40109,15.3354,-8.56707,-43.2927,-14.2312,-2.50519,36.4187,-28.689,-115.305,6.61585
180.117,67.7027,61.6387,0,9.25196,3.98052,1.44899,15,-8.53659,-43.3537,-13.7235,-2.05493,36.2558,-24.3293,-111.159,7.65244
180.126,67.2303,61.9688,0,9.33339,4.24397,1.59508,13.5976,-9.54268,-43.811,-13.5414,-1.85375,36.0642,-20.8537,-111.921,9.63415
180.136,66.7609,62.3085,0,9.41722,4.3781,1.3939,13.2927,-9.5122,-43.4756,-13.1966,-1.73878,36.2175,-20.2134,-114.787,11.9207
180.146,66.2769,62.6428,0,9.00048,4.43079,1.79147,11.128,-8.01829,-43.3232,-13.1487,-1.93997,36.524,-19.5427,-110.854,11.8902
180.156,65.7861,62.987,0,8.62686,4.22481,1.6358,9.69512,-7.80488,-45.2439,-12.9475,-2.27527,37.1372,-19.3598,-112.317,11.0366
180.166,65.3039,63.3336,0,8.78733,4.14338,1.24541,10.0305,-13.2622,-47.1037,-12.775,-2.04535,37.4629,-20,-114.909,9.5122
180.178,64.8216,63.6644,0,8.81607,4.1362,1.59029,9.66463,-13.8415,-48.3232,-12.296,-1.66214,36.0067,-19.5122,-109.543,6.82927
180.187,64.3243,64.0143,0,8.75859,4.25834,1.21188,8.78049,-13.0793,-49.2073,-11.8553,-1.06818,36.4282,-17.2561,-106.677,5.73171
180.197,63.8266,64.3719,0,8.85439,4.31343,1.43222,7.83537,-14.2988,-50.1829,-11.6158,-0.771196,36.9168,-17.5305,-103.262,6.55488
180.206,63.3306,64.7049,0,8.88792,4.38289,1.34361,8.65854,-17.0122,-50.4573,-11.453,-0.560435,35.9301,-17.7744,-93.1402,5.30488
180.216,62.8317,64.9076,0,8.70111,4.39247,1.32684,9.17683,-15.7927,-50.6707,-13.9534,-0.895737,37.0031,-17.9573,-97.5305,3.75
180.226,62.3307,65.2766,0,8.58375,4.55054,1.44659,7.92683,-14.9085,-49.5732,-10.2651,-1.0107,35.863,-21.7073,-40.1829,0.731707
180.237,61.8511,65.5873,0,8.66518,4.55772,0.969983,5.70122,-17.7439,-48.7805,-11.2901,-1.69088,36.6677,-17.8354,-47.9268,-2.7439
180.246,61.3901,65.9532,0,8.76338,4.62718,0.919688,5.09146,-20.122,-47.6829,-10.2267,-2.50519,37.0989,-21.0366,-48.2927,-5.73171
180.256,60.9299,66.341,0,8.61968,4.70861,1.08973,1.67683,-19.0244,-46.8902,-9.57529,-2.41897,37.0031,-21.8598,-51.25,-8.14024
180.266,60.4875,66.7429,0,8.44963,4.41163,0.737666,1.7378,-15.6098,-48.2012,-8.7514,-2.08367,35.863,-21.7073,-41.0061,-9.29878
180.277,60.0175,67.1639,0,8.29156,4.54096,0.960403,0.792683,-15.3659,-49.6037,-7.77423,-1.85375,34.1769,-18.811,-38.3232,-7.59146
180.286,59.5309,67.5044,0,8.27479,4.59604,0.641865,1.4939,-17.0122,-51.5549,-8.7035,-1.4418,34.2823,-10.2134,-1.37195,-3.41463
180.296,59.0264,67.786,0,8.56219,4.8571,0.268242,2.62195,-17.3171,-53.3232,-9.74773,-1.16398,35.5086,-7.65244,6.76829,0.487805
180.306,58.4897,68.0272,0,8.464,5.16606,0.471819,3.04878,-15.3049,-53.9024,-10.5716,-1.49928,36.7061,-5.7622,11.128,0.579268
180.316,57.947,68.2303,0,8.21252,5.28341,0.474214,4.84756,-14.7256,-52.8354,-11.1847,-2.20821,37.1084,-8.78049,14.4817,-2.31707
180.326,57.4199,68.4598,0,8.30114,5.32892,0.447869,5.7622,-19.4207,-52.4695,-10.5141,-1.22146,36.8785,-13.1402,12.1341,-4.87805
180.337,56.888,68.6553,0,8.11433,5.32413,0.792751,5.27439,-20.7012,-52.8659,-10.7536,-1.19272,36.3612,-13.689,25.9451,-8.44512
180.347,56.3693,68.847,0,8.09996,5.21156,0.440684,4.93902,-23.1707,-53.6585,-10.5812,-1.09692,36.1217,-14.0854,35.7317,-11.6159
180.356,55.8775,69.0456,0,8.37538,5.22114,0.6251,5.15244,-27.1341,-53.628,-10.5429,-1.26936,36.8785,-14.0549,37.2561,-13.2317
180.366,55.3908,69.2383,0,8.30114,5.30257,0.603545,4.08537,-24.9085,-52.8354,-10.2363,-1.47054,35.978,-14.2683,41.4634,-14.3902
180.376,54.9053,69.4137,0,8.28198,5.40556,0.330513,2.92683,-22.6524,-52.561,-10.2363,-1.6334,35.5565,-8.9939,55.1829,-15.2744
180.386,54.3975,69.5861,0,7.88919,5.45585,0.402363,2.7439,-20.4878,-52.6829,-10.2842,-1.67172,36.0067,-2.80488,59.0244,-15.4268
180.396,53.8817,69.7184,0,7.70717,5.45346,0.661025,3.71951,-20.5793,-53.2927,-10.5141,-1.93997,34.8859,-0.731707,60.8841,-15.122
180.406,53.3271,69.8677,0,7.36947,5.54447,0.502954,4.54268,-21.9512,-54.878,-10.2459,-1.6813,35.3074,0.548781,66.2805,-13.3537
180.416,52.7546,70.0069,0,7.53473,5.78397,0.306563,2.83537,-23.2927,-56.7073,-10.5908,-1.40348,36.3229,1.43293,73.4146,-12.6829
180.426,52.187,70.1111,0,7.68801,5.85343,0.146096,3.90244,-24.8171,-57.8354,-11.0889,-1.43222,36.3516,1.64634,80,-11.372
180.436,51.6241,70.1792,0,7.92033,6.08095,0.469424,5.42683,-26.7683,-58.0488,-11.4242,-1.37474,35.6906,2.43902,84.9695,-8.93293
180.446,51.0688,70.1933,0,7.98739,6.24621,0.261057,5.4878,-26.7683,-57.378,-11.817,-1.25978,34.4068,3.62805,103.11,-8.20122
180.456,50.5159,70.1796,0,8.00655,6.38752,0.191602,5.30488,-22.4695,-57.1341,-12.2098,-0.876577,34.3685,4.72561,120.061,-6.52439
180.466,49.9616,70.1156,0,7.68322,6.33004,0.182021,6.06707,-17.9573,-56.5549,-12.775,-0.953218,33.6021,6.15854,125.213,-2.5
180.477,49.3783,69.9992,0,7.44133,6.53361,0.55804,4.60366,-19.7256,-56.9817,-13.369,-0.924478,32.7687,7.37805,127.287,0.701219
180.486,48.7994,69.8786,0,7.39343,6.45458,0.107776,3.23171,-21.7378,-58.0488,-13.7426,-0.790356,33.3435,13.0488,130.488,1.76829
180.496,48.1925,69.7565,0,7.10842,6.49769,0.361648,2.83537,-19.0549,-59.4207,-14.1641,-0.914897,34.1003,10.7317,131.159,3.17073
180.506,47.6013,69.6544,0,7.29762,6.49529,0.119751,3.56707,-20.9146,-60.6098,-14.0875,-1.0586,34.6176,8.87195,136.768,3.65854
180.516,47.0088,69.5504,0,7.24493,6.53601,0.0838257,3.2622,-23.2622,-61.1585,-13.9342,-1.52802,34.0332,4.63415,142.805,4.14634
180.526,46.4538,69.4704,0,7.49641,6.43063,-0.0694556,4.35976,-23.3841,-61.4634,-13.3977,-1.36516,33.6404,4.17683,152.47,2.43902
180.536,45.947,69.3954,0,7.69999,6.28693,-0.0287402,4.29878,-19.7561,-60.5183,-13.1295,-0.886157,33.104,-0.792683,159.665,0.914634
180.546,45.457,69.3481,0,7.5491,6.17676,-0.0742456,5,-16.4939,-59.7256,-12.6601,-0.684976,33.0369,-0.365854,168.018,0.853659
180.556,44.9811,69.2863,0,7.5515,6.28214,-0.0119751,3.93293,-12.439,-58.3232,-12.3918,-0.684976,31.734,0.0304878,178.323,1.61585
180.566,44.5031,69.2192,0,7.23775,6.24142,-0.158071,3.53659,-7.04268,-57.439,-12.5355,-0.311353,31.8585,0.304878,187.53,2.5
180.577,43.9888,69.1583,0,6.88089,6.41147,-0.311353,2.07317,-6.0061,-57.622,-12.6313,-0.330513,32.2705,-4.87805,190.762,1.46341
180.586,43.4607,69.074,0,6.68689,6.42105,-0.467029,-1.31098,-7.80488,-58.3232,-12.6218,-0.397573,31.2454,-6.58537,196.463,1.85976
180.596,42.9224,68.9688,0,6.51685,6.43781,-0.347278,1.46341,-7.80488,-58.7805,-13.3019,-0.311353,31.9927,-8.93293,203.384,1.28049
180.606,42.3512,68.8849,0,6.42823,6.84018,-0.208367,0.853659,-7.53049,-58.9024,-13.1295,-0.0239502,32.3376,-11.0061,212.5,1.28049
180.617,41.7877,68.75,0,6.5863,7.03178,-0.467029,-0.457317,-6.25,-59.0854,-13.7235,-0.445474,31.6669,-10.5183,220.427,3.44512
180.626,41.2527,68.5602,0,6.82581,7.15153,-0.414338,1.25,-10.2744,-58.4146,-14.2599,-0.962798,30.7281,-8.35366,232.134,4.69512
180.637,40.7142,68.3085,0,6.74198,7.36947,-0.462239,1.15854,-10.7622,-57.4085,-15.4287,-1.16398,30.8239,-7.37805,243.659,5.51829
180.646,40.1924,67.9952,0,6.62462,7.41259,-0.428708,-0.792683,-10.061,-55.4268,-16.1568,-1.346,29.9234,-7.40854,249.695,6.28049
180.656,39.7307,67.6187,0,6.67492,7.1635,-0.543669,0.853659,-9.45122,-52.8049,-17.2681,-1.23104,29.6168,-3.41463,256.311,4.5122
180.666,39.2654,67.2156,0,6.3947,7.26409,-0.268242,2.19512,-8.78049,-50.7927,-18.6764,-1.00112,30.6898,-5.33537,250.366,3.75
180.677,38.787,66.7355,0,6.057,7.33594,-0.160466,1.52439,-9.69512,-49.3902,-19.9793,-0.924478,29.9617,-9.93902,244.787,-0.914634
180.686,38.2949,66.2268,0,5.90851,7.33594,-0.416733,1.79878,-12.2866,-50.3354,-20.7361,-0.148491,29.7318,-13.2317,245.64,-2.83537
180.696,37.8046,65.7514,0,5.89414,7.26409,-0.471819,3.10976,-12.9878,-51.5854,-20.7936,0.110171,30.182,-15.8232,245.549,-5.54878
180.706,37.308,65.2736,0,6.0115,7.44851,-0.445474,2.16463,-14.939,-52.9268,-20.966,0.397573,29.818,-22.622,242.409,-6.4939
180.716,36.8651,64.8059,0,6.41386,7.32636,-0.538879,1.58537,-13.5366,-53.1402,-20.9564,0.234712,29.5785,-27.1341,246.433,-4.96951
180.726,36.4258,64.3635,0,6.39231,7.31918,-0.344883,2.71341,-9.48171,-53.5366,-20.851,-0.00479004,29.6264,-30.8841,248.171,-1.85976
180.737,35.9784,63.8596,0,6.30369,7.34552,-0.471819,2.13415,-6.79878,-54.2378,-20.8606,-0.445474,27.6146,-29.4817,261.037,0.884146
180.746,35.5294,63.3456,0,6.16718,7.26888,-0.541274,2.53049,-5.12195,-54.6646,-20.6594,-1.19272,26.647,-24.3293,269.573,2.10366
180.756,35.0589,62.9144,0,6.02826,7.59221,-0.225132,1.82927,-2.53049,-53.9634,-20.7361,-1.50886,28.3139,-23.872,267.713,5.54878
180.766,34.5578,62.4372,0,5.65704,7.87722,-0.337698,0.213415,-1.18902,-52.4085,-21.627,-1.62382,27.8541,-23.1707,264.482,7.07317
180.776,34.0613,61.9717,0,5.57561,7.96104,-0.507744,1.67683,-1.37195,-51.5854,-21.7516,-1.90165,27.8062,-21.2805,259.268,8.41463
180.786,33.5699,61.55,0,5.70494,8.63884,-0.380808,0.914634,-1.37195,-48.872,-22.3168,-1.38432,29.1761,-22.378,255.793,8.84146
180.796,33.0892,61.0408,0,5.58758,8.83283,-0.356858,-0.304878,0.182927,-46.4939,-22.2689,-1.70046,26.5512,-18.5061,266.829,7.46951
180.806,32.6398,60.5268,0,5.55645,8.54782,-0.256267,0.457317,1.15854,-45.7317,-22.9395,-1.49928,26.7236,-13.4451,261.86,6.40244
180.816,32.1943,60.0346,0,5.43909,8.40412,-0.342488,0.243902,2.83537,-46.0061,-23.7634,-1.346,27.6625,-13.8415,250.488,6.06707
180.826,31.7487,59.4643,0,5.25946,8.49274,-0.0694556,0.304878,4.11585,-44.6037,-24.6543,-1.40348,26.3117,-9.96951,248.11,4.54268
180.837,31.3052,58.894,0,5.1469,8.51669,0.213157,-0.97561,2.40854,-44.0244,-24.9609,-1.50886,26.1105,-11.6159,247.774,2.80488
180.846,30.8676,58.3216,0,5.07984,8.42568,-0.0862207,-1.98171,0.0609756,-44.2073,-25.7273,-1.46096,26.3308,-11.0976,247.774,3.35366
180.856,30.4558,57.7151,0,5.08942,8.33227,-0.289797,-2.71341,0.243902,-43.1402,-25.9285,-1.14482,25.2387,-11.372,246.86,2.65244
180.866,30.0629,57.144,0,5.0032,7.98979,-0.239502,-3.5061,0.182927,-43.3537,-26.2446,-0.742456,25.7944,-10.4573,244.421,4.17683
180.876,29.6368,56.6209,0,4.7613,8.04727,-0.407153,-1.21951,0.0609756,-44.6037,-26.0147,-0.531694,26.1392,-11.0366,242.896,4.66463
180.887,29.18,56.0541,0,4.5697,8.59573,-0.205972,-0.762195,-2.9878,-43.2622,-26.3213,-0.282612,25.0184,-11.7073,250.274,4.39024
180.896,28.7312,55.5139,0,4.51701,8.58136,-0.258662,-2.95732,-8.01829,-42.8963,-26.2925,-0.158071,25.0663,-11.4024,246.646,5.79268
180.906,28.3364,55.0061,0,4.78525,8.18139,-0.809517,-3.10976,-7.71341,-43.5366,-26.0818,0.100591,25.0854,-15.0915,241.037,8.44512
180.916,27.9452,54.4726,0,4.78285,8.30832,-0.627495,-1.28049,-5.36585,-43.1707,-26.2734,-0.129331,24.2711,-15.9146,241.982,9.32927
180.926,27.5536,53.8986,0,4.81638,8.52148,-0.352068,-1.06707,-5.94512,-43.0793,-26.465,-0.158071,23.1598,-15.8841,244.878,11.189
180.937,27.1736,53.3635,0,4.8547,8.68195,-0.215552,-2.89634,-4.02439,-42.1646,-26.8769,-0.215552,23.8688,-20.4573,246.89,11.2805
180.946,26.7891,52.8105,0,4.73256,8.74182,-0.162861,-4.72561,-2.16463,-41.7988,-27.2601,-0.608335,23.3802,-21.5549,246.25,12.622
180.956,26.4281,52.2631,0,4.67987,8.61249,-0.304167,-4.90854,-3.01829,-40.3659,-27.5763,-0.311353,23.3131,-25.3659,247.317,11.5244
180.966,26.0917,51.7252,0,4.70142,8.63405,-0.438289,-4.69512,-2.83537,-38.689,-27.787,-0.330513,23.2461,-26.0366,249.634,10.5488
180.977,25.7686,51.1476,0,4.56251,8.43765,-0.56762,-4.63415,-3.23171,-37.6829,-27.9211,-0.359253,22.1252,-28.5671,253.506,9.20732
180.986,25.4516,50.5956,0,4.50264,8.25084,-0.60115,-1.95122,-1.70732,-38.1707,-28.0744,0.0431104,22.3168,-32.1341,257.165,8.23171
180.996,25.1311,50.0556,0,4.48348,8.34425,-0.462239,0.304878,-0.914634,-38.4146,-28.2756,-0.0622705,22.3072,-32.378,265.274,8.62805
181.006,24.7792,49.4821,0,4.34457,8.76817,-0.390388,-0.548781,0.823171,-38.4146,-29.2911,0.0718506,22.106,-37.4695,296.677,9.05488
181.016,24.4124,48.8671,0,4.23439,9.0412,-0.208367,-3.56707,2.7439,-38.0793,-30.2683,0.196392,21.5216,-36.5854,295.335,10.4268
181.026,24.043,48.219,0,4.12901,9.05557,-0.296982,-5.67073,1.85976,-37.8963,-30.9963,0.0239502,20.8031,-34.3902,276.341,12.378
181.036,23.6781,47.6098,0,3.97573,8.98851,-0.58199,-4.45122,3.32317,-36.8598,-31.3508,0.368833,21.2342,-34.3598,257.348,14.1768
181.046,23.3261,46.9816,0,3.8943,8.89271,-0.433499,-2.37805,3.44512,-35.8537,-31.6382,0.273032,20.5349,-36.7073,250.427,14.939
181.056,22.9708,46.3518,0,3.80329,8.78972,-0.177231,-0.823171,1.25,-36.4024,-31.6478,0.292192,20.0367,-43.3232,254.634,14.6951
181.066,22.6169,45.7198,0,3.8967,8.87355,-0.356858,-0.335366,2.28659,-37.622,-31.3604,-0.0239502,19.3661,-52.1646,263.75,13.2317
181.076,22.2715,45.1498,0,3.97573,8.93342,-0.407153,-0.396341,3.75,-38.0488,-31.5328,-0.196392,20.1804,-53.7805,261.22,11.6768
181.086,21.9498,44.5094,0,4.02124,8.79212,-0.390388,-1.43293,3.38415,-37.5305,-31.7244,-0.493374,18.4943,-55.0915,255.183,14.0244
181.097,21.601,43.8727,0,3.84161,8.9909,-0.308958,0.0609756,4.11585,-38.0183,-31.3508,-0.914897,17.8812,-50.6707,255.945,14.4817
181.106,21.2035,43.2712,0,3.46799,9.32381,-0.158071,-2.10366,5.42683,-38.1098,-31.7627,-0.761616,18.3123,-49.2378,258.902,14.7256
181.116,20.7726,42.6097,0,2.99617,9.60163,0.100591,-4.54268,2.22561,-36.0671,-32.2609,-1.07776,17.0477,-45.9451,260,16.311
181.126,20.3892,41.9531,0,3.18777,9.38848,-0.162861,-3.41463,1.89024,-35,-33.171,-0.972378,17.134,-43.4756,260.335,17.8049
181.136,20.0058,41.2841,0,3.05125,9.07952,-0.0694556,-2.34756,0.945122,-35.4268,-33.5159,-1.22146,16.5975,-38.9939,260.213,17.4695
181.146,19.6137,40.6032,0,2.96264,8.82804,-0.165256,-0.0609756,0.396341,-37.0427,-33.8033,-1.12566,16.0227,-37.5,256.799,18.5061
181.156,19.2044,39.9341,0,3.00814,9.06994,-0.0455054,-0.0609756,-0.945122,-39.1768,-33.8225,-1.4418,15.7257,-38.2927,248.171,20.6402
181.167,18.7957,39.2871,0,3.11832,9.26154,-0.354463,-1.70732,-0.884146,-40.4878,-33.6309,-1.23104,15.5533,-40.061,247.134,20.5488
181.177,18.3965,38.6334,0,3.15903,9.5202,-0.0862207,-2.56098,-1.82927,-39.8476,-33.7075,-1.36516,15.0168,-40.7622,249.421,21.128
181.187,18.0644,38.0036,0,3.64522,9.69743,-0.0526904,-5.2439,0.243902,-38.3841,-34.0715,-1.19272,15.1796,-41.9512,259.573,21.2805
181.197,17.7329,37.3566,0,3.32429,9.45314,-0.0886157,-5.94512,-3.07927,-36.4939,-34.2823,-1.60466,14.5186,-40.3354,259.848,19.6646
181.207,17.4324,36.6895,0,3.18777,8.98851,-0.299377,-4.7561,-3.10976,-34.3293,-34.6176,-0.981958,13.848,-35.7927,261.25,17.5915
181.216,17.136,36.0451,0,3.08718,8.92863,-0.431104,-2.53049,-3.2622,-33.5976,-34.5506,-0.502954,13.7426,-32.1341,257.409,15.3659
181.226,16.8537,35.3881,0,3.06562,9.07712,-0.287402,-0.823171,-5.85366,-31.9207,-34.6464,-0.522114,13.1103,-28.75,256.921,14.2378
181.236,16.559,34.769,0,2.91713,9.2304,-0.301772,-1.46341,-4.57317,-31.4634,-34.8667,-0.378413,13.3882,-28.5061,252.774,14.4817
181.246,16.2589,34.167,0,2.81894,9.34058,-0.443079,-3.35366,-3.62805,-31.0976,-35.3553,-0.0814307,13.4456,-34.7256,253.537,12.7439
181.256,15.9648,33.5439,0,2.80217,9.32142,-0.445474,-3.20122,-4.05488,-30.9756,-35.5086,-0.253872,12.6984,-39.3902,252.073,12.2256
181.266,15.6887,32.9509,0,2.90995,9.20406,-0.428708,-2.92683,-3.96341,-31.4024,-35.9492,-0.320933,12.9379,-44.7561,246.921,11.4939
181.277,15.4025,32.3323,0,2.88839,9.26394,-0.433499,-1.82927,-3.41463,-32.5305,-35.9684,-0.608335,12.0469,-46.1585,240.366,12.1951
181.286,15.1268,31.6711,0,2.92911,9.39327,-0.440684,-2.0122,-3.62805,-32.0427,-35.9492,-0.819097,10.8686,-46.311,239.665,13.9024
181.296,14.8857,31.0135,0,3.06083,9.34776,-0.426313,-3.23171,0,-30.7317,-35.9876,-0.723296,10.4854,-44.0854,237.988,16.2805
181.306,14.6665,30.4083,0,3.04646,9.30944,-0.251477,-1.82927,2.59146,-28.9634,-36.1313,-0.981958,10.9644,-43.6585,232.378,19.7866
181.316,14.4571,29.8142,0,2.95785,9.35255,-0.232317,-1.79878,3.62805,-27.2561,-36.6103,-1.16398,10.8686,-44.9695,228.171,21.0671
181.326,14.2505,29.1987,0,2.80457,9.34537,-0.402363,-1.64634,6.76829,-25.6707,-36.821,-1.27894,10.1501,-44.8171,230.213,20.8841
181.337,14.0206,28.578,0,2.61057,9.4244,-0.416733,-1.52439,7.22561,-25.9756,-37.1755,-1.81542,9.71899,-43.75,228.049,18.4146
181.346,13.7958,27.9696,0,2.6441,9.38369,-0.426313,-0.884146,4.96951,-26.4329,-37.1276,-1.80584,9.47949,-39.5122,223.933,19.2378
181.356,13.5807,27.3773,0,2.65608,9.43398,-0.548459,-1.09756,5.64024,-25.8841,-36.9935,-1.54718,9.29747,-38.2622,221.098,20.5183
181.366,13.3625,26.7837,0,2.48603,9.48907,-0.510139,-0.762195,8.62805,-24.5122,-37.1372,-1.24062,8.8951,-38.3537,218.506,20.5793
181.377,13.1535,26.2218,0,2.42376,9.47949,-0.313748,-0.640244,11.0976,-23.3232,-37.2234,-1.32684,9.04838,-41.4634,216.25,20.9451
181.386,12.9527,25.6365,0,2.37825,9.43159,-0.356858,0.335366,12.2866,-22.5305,-37.7216,-1.26936,8.3682,-39.4207,215.396,22.7134
181.396,12.748,25.0427,0,2.23934,9.44356,-0.277822,1.58537,12.9268,-21.6768,-37.6258,-1.12566,7.79339,-38.3232,213.994,22.2866
181.406,12.533,24.4523,0,2.05732,9.49146,-0.249082,1.85976,10.7012,-20.8841,-37.9036,-1.27894,7.48683,-33.2622,210.427,21.0671
181.416,12.3199,23.8912,0,1.96871,9.51302,-0.268242,2.22561,8.84146,-20.0305,-38.076,-0.962798,7.61137,-34.5427,206.067,20.7927
181.426,12.1032,23.3656,0,1.86812,9.64953,-0.170046,2.46951,7.62195,-19.3293,-38.3826,-1.12566,7.90835,-34.4512,207.165,19.3293
181.437,11.8746,22.792,0,1.74357,9.71659,-0.0598755,1.18902,6.67683,-19.3902,-38.5838,-0.972378,6.73958,-36.128,207.104,16.7988
181.446,11.6319,22.2406,0,1.58071,9.71659,-0.0718506,0.335366,5.42683,-19.3902,-38.6125,-1.16398,6.72042,-36.0976,203.598,12.561
181.456,11.3945,21.7197,0,1.59269,9.73096,-0.186812,-1.18902,3.59756,-19.4512,-38.5933,-1.02028,6.84497,-37.7744,195.884,11.311
181.466,11.1656,21.2089,0,1.5855,9.60163,-0.318538,-0.609756,2.04268,-19.2378,-38.7658,-0.483794,6.65336,-39.8171,185.579,12.561
181.476,10.9445,20.6839,0,1.58071,9.54655,-0.304167,0.762195,-0.701219,-18.9634,-38.9095,0.0622705,6.04982,-41.4939,179.085,15.4268
181.487,10.7408,20.1674,0,1.68609,9.52739,-0.287402,0.27439,-1.46341,-18.9329,-39.0532,0.110171,5.84864,-44.2988,176.921,19.6037
181.496,10.5613,19.6856,0,1.83938,9.54415,-0.261057,0.426829,-0.27439,-18.6585,-39.2544,0.00479004,6.1073,-45.6707,170.427,21.7988
181.506,10.4122,19.1784,0,1.97829,9.70701,-0.220342,0.609756,2.43902,-17.1646,-39.3406,-0.292192,5.32173,-44.5732,167.165,22.3476
181.516,10.2738,18.6622,0,1.9256,9.79323,-0.416733,0.0304878,5.64024,-15.5793,-39.5322,-0.579595,4.82357,-44.3598,164.024,21.6159
181.526,10.1399,18.1759,0,1.92081,9.72857,-0.344883,1.40244,7.5,-15.4878,-39.8292,-0.742456,5.01517,-45.3659,160.488,19.5427
181.536,9.98222,17.6588,0,1.76752,9.86509,-0.227527,2.04268,8.59756,-16.128,-39.4651,-1.19272,4.0859,-45.5183,160.396,16.8293
181.546,9.8078,17.1303,0,1.53521,9.92736,-0.170046,2.10366,8.87195,-15.3659,-39.1873,-1.13524,3.50152,-44.2683,160.091,14.8476
181.556,9.60848,16.6499,0,1.31008,9.78605,-0.174836,2.0122,8.75,-15.8841,-39.216,-0.694556,3.96136,-42.439,155.701,15.1524
181.566,9.38906,16.1734,0,1.23344,9.62558,-0.114961,2.16463,8.71951,-17.6829,-39.1777,-0.675395,3.67396,-44.5122,149.482,17.561
181.577,9.17601,15.7097,0,1.25499,9.52499,-0.170046,2.37805,10.9451,-17.8963,-39.3023,-0.445474,3.559,-43.872,143.476,20.2439
181.586,8.98151,15.2309,0,1.36995,9.58966,-0.241897,2.56098,13.1402,-17.7134,-39.149,-0.407153,2.94587,-44.1768,138.171,22.9268
181.596,8.81185,14.765,0,1.51844,9.76928,-0.256267,2.13415,13.0488,-17.0122,-39.331,-0.320933,2.84049,-42.8354,134.421,23.811
181.606,8.66197,14.2915,0,1.58071,9.78605,-0.368833,0.701219,11.128,-16.0366,-39.2831,0.292192,2.38065,-41.0671,133.445,25.6707
181.616,8.5292,13.8157,0,1.54479,9.68785,-0.134121,1.28049,10.122,-14.3598,-39.5035,0.205972,2.02619,-42.4695,133.415,26.4024
181.626,8.40067,13.3692,0,1.46575,9.69025,-0.00479004,2.0122,8.93293,-13.2622,-39.8675,-0.0431104,2.22737,-42.7134,132.774,23.1402
181.636,8.25575,12.9369,0,1.29331,9.89862,0.0359253,1.95122,7.68293,-12.8354,-39.8483,-0.416733,2.16031,-42.9268,131.463,19.878
181.646,8.09509,12.4732,0,1.09692,9.8603,-0.0694556,0.670732,5.03049,-12.5,-39.8867,-0.790356,1.30768,-43.8415,131.25,16.5854
181.656,7.92871,12.0382,0,1.02267,9.81958,-0.186812,0.97561,3.41463,-12.5915,-39.6472,-0.962798,1.47054,-42.6829,128.628,14.9695
181.666,7.77604,11.6178,0,1.10171,9.63277,-0.203577,1.37195,3.35366,-12.7134,-39.446,-1.22146,1.40348,-41.5244,124.329,15.2134
181.676,7.66679,11.1935,0,1.45138,9.36213,-0.325723,1.37195,4.20732,-13.2622,-39.3885,-1.2981,1.02986,-38.689,120.366,15.6098
181.687,7.60178,10.7267,0,1.73399,9.30465,-0.423918,1.76829,7.22561,-12.5305,-39.0819,-0.828677,-0.0143701,-33.4756,115.732,16.7073
181.696,7.55103,10.2752,0,1.7316,9.35495,-0.498164,1.89024,9.42073,-11.0671,-38.7466,-0.0910107,-0.0814307,-28.9024,112.134,20.3659
181.706,7.49293,9.84189,0,1.51844,9.49865,-0.311353,0.487805,9.17683,-9.05488,-39.0915,0.426313,-0.0814307,-29.6341,110.396,23.5671
181.716,7.38419,9.42344,0,0.991538,9.72378,-0.184417,0.121951,7.80488,-7.68293,-40.0495,0.397573,-0.119751,-29.6646,111.89,22.2561
181.726,7.23073,9.03326,0,0.670605,9.84832,-0.0622705,1.21951,5.03049,-8.53659,-40.4806,0.426313,0.0814307,-31.0366,110.061,20.6707
181.736,7.06396,8.64961,0,0.725691,10.1836,-0.0766406,0.853659,2.0122,-10.5793,-40.8542,-0.205972,-0.0910107,-33.2622,106.555,16.4024
181.746,6.9057,8.26988,0,0.866997,10.2651,-0.251477,0.426829,1.03659,-11.5854,-40.883,-0.560435,-0.301772,-33.4756,104.36,11.2805
181.756,6.76416,7.87856,0,1.01549,10.0423,-0.277822,0.457317,2.80488,-12.1341,-40.4806,-0.637075,-0.771196,-31.4329,105.183,7.62195
181.767,6.64813,7.48457,0,1.14003,9.77168,-0.285007,0.731707,5.67073,-11.6159,-40.1836,-0.732876,-1.09692,-29.7866,102.439,6.52439
181.777,6.53728,7.13176,0,1.12087,9.57289,-0.215552,1.06707,8.81098,-11.372,-39.925,-0.675395,-0.656235,-27.9573,97.5915,7.59146
181.786,6.43119,6.77799,0,1.14003,9.36692,-0.158071,2.28659,9.66463,-11.6463,-39.513,-0.598755,-0.924478,-25.5793,93.2622,11.25
181.796,6.33557,6.41175,0,1.18553,9.43398,-0.244292,2.04268,8.62805,-11.25,-39.2256,-0.263452,-1.3939,-23.9024,87.9268,14.2683
181.806,6.26066,6.06934,0,1.31487,9.57529,-0.335303,2.28659,7.13415,-10.6707,-39.2065,0.215552,-1.24062,-20.9451,85.3963,17.7134
181.816,6.19505,5.7435,0,1.30529,9.9058,-0.409548,2.0122,7.19512,-9.2378,-39.8579,-0.0335303,-1.21188,-18.0488,84.3293,19.2378
181.826,6.12646,5.42058,0,1.22386,10.0208,-0.328118,2.43902,7.65244,-8.56707,-40.1357,-0.138911,-1.40348,-16.4329,82.4695,16.7988
181.837,6.05986,5.08739,0,1.2023,10.1285,-0.280217,2.10366,9.78659,-8.10976,-40.2794,-0.483794,-1.825,-15.3963,80.6707,13.75
181.846,5.97255,4.8027,0,0.991538,10.016,-0.330513,1.67683,12.3171,-8.07927,-40.5573,-0.550855,-1.21188,-14.8171,78.8415,8.17073
181.856,5.86338,4.52627,0,0.814307,9.94173,-0.210762,2.16463,12.7134,-8.5061,-39.9441,-0.416733,-1.25978,-15.3963,75.0305,4.66463
181.866,5.74136,4.29517,0,0.730481,9.91299,-0.186812,1.37195,12.6829,-9.08537,-39.4747,-0.205972,-0.656235,-18.1707,72.1646,2.53049
181.876,5.61568,4.04077,0,0.728086,9.79084,-0.349673,1.43293,13.5671,-9.78659,-39.3119,-0.138911,-1.22146,-21.5244,70.5793,2.31707
181.887,5.48706,3.77428,0,0.713716,9.63995,-0.311353,1.09756,14.0549,-10.3049,-39.2256,0.0622705,-1.60466,-22.7744,69.939,2.86585
181.896,5.37287,3.51404,0,0.756826,9.46272,-0.306563,1.12805,13.1707,-9.78659,-39.2735,0.349673,-1.69088,-25.8232,67.1341,4.14634
181.906,5.27592,3.25571,0,0.850232,9.47709,-0.227527,2.0122,12.1341,-9.39024,-39.5993,0.435894,-1.86333,-26.5244,63.689,5.51829
181.916,5.2119,2.99213,0,1.06099,9.67588,-0.332908,2.07317,11.9512,-8.53659,-39.81,0.570015,-2.16031,-27.9878,59.4512,6.40244
181.926,5.14751,2.72856,0,0.996328,9.78126,-0.364043,1.98171,9.35976,-7.80488,-39.992,0.407153,-2.36149,-28.4451,57.439,6.31098
181.936,5.08842,2.46198,0,0.977168,9.88904,-0.299377,2.40854,7.43902,-7.04268,-40.107,-0.0239502,-2.61057,-28.0488,56.4024,6.46341
181.946,5.06815,2.21234,0,1.2502,9.86748,-0.385598,2.40854,8.65854,-6.43293,-40.3273,-0.234712,-2.51477,-27.7439,55.3049,5.33537
181.956,5.06334,1.98318,0,1.26697,9.85072,-0.423918,2.65244,12.3476,-5.15244,-40.0783,-0.273032,-2.32317,-26.372,51.9512,3.2622
181.966,5.04889,1.76467,0,1.11608,9.87946,-0.330513,1.76829,15.7927,-4.35976,-40.0112,-0.426313,-2.30401,-24.7256,48.3232,2.34756
181.977,5.01161,1.55352,0,0.857417,9.89862,-0.376018,1.40244,16.7378,-3.59756,-40.2794,-0.704136,-2.35191,-22.2561,45.6098,0.670732
181.986,4.95611,1.34478,0,0.689766,9.87706,-0.368833,1.52439,15.2439,-3.47561,-40.1549,-0.416733,-2.45729,-21.2805,43.5671,-1.21951
181.997,4.87818,1.12025,0,0.510139,9.7142,-0.292192,1.40244,12.439,-3.78049,-39.9537,0.0910107,-2.86923,-22.4085,43.9634,-0.518293
182.006,4.79416,0.901172,0,0.447869,9.58966,-0.177231,0.853659,9.69512,-3.84146,-40.0591,0.550855,-2.93629,-26.4024,44.4207,1.4939
182.016,4.72383,0.694831,0,0.519719,9.5681,-0.167651,-0.243902,6.43293,-3.47561,-40.5189,0.301772,-2.90755,-29.8476,41.4329,1.61585
182.026,4.66604,0.475127,0,0.56762,9.69504,-0.359253,-0.335366,4.66463,-2.68293,-40.3561,0.196392,-3.29076,-31.9512,38.689,0.457317
182.036,4.61426,0.260602,0,0.589175,9.81,-0.296982,0.304878,2.46951,-2.28659,-40.3561,0.253872,-3.3674,-33.5671,34.8171,-1.40244
182.046,4.58321,0.0450378,0,0.713716,9.86748,-0.318538,0.0304878,0.335366,-1.95122,-40.289,0.340093,-3.53984,-35.7012,32.6829,-3.29268
182.056,4.55861,-0.157008,0,0.759221,9.88185,-0.431104,-0.731707,-1.06707,-2.04268,-40.4327,0.340093,-3.47278,-36.5549,29.9085,-4.11585
182.066,4.53974,-0.367304,0,0.797541,9.9082,-0.464634,-0.426829,-0.457317,-2.04268,-40.4423,0.138911,-3.77934,-37.0122,26.0061,-5.42683
182.076,4.5207,-0.569429,0,0.792751,9.93215,-0.402363,-0.182927,1.25,-2.0122,-40.2794,-0.292192,-3.77934,-36.2195,22.4695,-6.43293
182.086,4.50292,-0.784315,0,0.821492,9.85072,-0.282612,0.335366,3.38415,-2.40854,-40.2603,-0.455054,-4.16254,-33.5061,18.7805,-6.25
182.096,4.49132,-0.98917,0,0.871787,9.76928,-0.256267,0.0914634,5.67073,-2.59146,-39.9633,-0.483794,-4.11464,-32.3171,15.9451,-5.85366
182.107,4.48303,-1.18212,0,0.888552,9.76449,-0.210762,-0.27439,7.86585,-2.53049,-39.9825,-0.608335,-4.05716,-31.4329,13.628,-4.84756
182.116,4.47473,-1.37199,0,0.869392,9.82677,-0.198787,-0.548781,8.62805,-2.2561,-39.7621,-0.483794,-4.12422,-29.6951,11.128,-4.5122
182.126,4.45979,-1.5412,0,0.809517,9.92017,-0.234712,-0.640244,9.17683,-2.0122,-39.8867,-0.387993,-3.92304,-29.5122,5.60976,-1.85976
182.136,4.4334,-1.72149,0,0.742456,9.90341,-0.287402,-0.152439,9.45122,-2.28659,-39.743,-0.244292,-4.2296,-29.0244,3.87195,-0.640244
182.146,4.38427,-1.92261,0,0.60594,9.95849,-0.198787,0.121951,8.84146,-2.89634,-40.0304,-0.0335303,-4.76609,-29.0244,2.13415,2.0122
182.156,4.32307,-2.11091,0,0.543669,9.93694,-0.191602,-0.579268,6.70732,-3.56707,-40.1166,0.205972,-4.68945,-30.1829,2.10366,3.29268
182.166,4.2725,-2.29203,0,0.608335,9.86748,-0.222737,-0.365854,4.32927,-3.44512,-40.2124,0.215552,-4.70861,-31.5244,1.18902,5.4878
182.176,4.23102,-2.46093,0,0.651445,9.83874,-0.268242,-0.335366,2.71341,-3.17073,-40.222,-0.0143701,-4.62239,-29.7866,0.304878,7.04268
182.187,4.19871,-2.60465,0,0.699346,9.87706,-0.172441,-1.0061,1.7378,-2.89634,-40.2699,-0.273032,-4.29667,-32.3476,-0.0304878,8.41463
182.196,4.1735,-2.7488,0,0.720901,9.90101,-0.170046,-1.40244,0.792683,-2.5,-39.8004,-0.474214,-4.36373,-31.4024,-2.43902,7.65244
182.206,4.15194,-2.90064,0,0.735271,9.84593,-0.203577,-1.89024,-0.762195,-2.43902,-39.4268,-0.416733,-4.56491,-31.4939,-4.26829,7.9878
182.216,4.14699,-3.0379,0,0.823887,9.81479,-0.191602,-1.40244,-1.0061,-2.13415,-38.9957,-0.455054,-4.37331,-28.8415,-6.4939,7.68293
182.226,4.14457,-3.16132,0,0.814307,9.77647,-0.167651,-1.21951,-0.762195,-1.89024,-38.9286,-0.196392,-4.2296,-26.0366,-9.35976,8.68902
182.236,4.14827,-3.28082,0,0.871787,9.71899,-0.131726,-1.03659,-1.4939,-2.13415,-38.967,-0.541274,-4.25834,-24.6646,-11.6159,8.29268
182.246,4.1615,-3.42967,0,0.910107,9.71899,-0.184417,-0.518293,-2.34756,-1.89024,-39.1298,-0.541274,-4.87147,-21.7073,-11.5244,9.17683
182.256,4.18241,-3.58375,0,0.910107,9.70222,-0.182021,-0.457317,-2.80488,-1.4939,-39.4843,-0.943638,-5.11097,-19.1768,-11.0671,7.9878
182.266,4.21776,-3.7394,0,0.929268,9.78844,-0.285007,-1.18902,-3.17073,-0.914634,-39.446,-0.761616,-5.23551,-14.8171,-9.35976,8.23171
182.276,4.30956,-3.87632,0,1.03944,9.79323,-0.289797,-1.79878,-2.46951,-0.213415,-39.4939,-0.761616,-5.02475,-12.9878,-10.8537,8.35366
182.287,4.39136,-4.00285,0,1.05381,9.84593,-0.244292,-2.19512,-1.21951,0.457317,-39.3598,-0.713716,-4.91937,-11.0366,-10.6098,9.35976
182.296,4.46214,-4.13049,0,1.03465,9.79323,-0.213157,-1.85976,0.0304878,0.701219,-39.1969,-0.732876,-5.00559,-8.81098,-10.3963,9.7561
182.306,4.53486,-4.24451,0,1.05381,9.78605,-0.148491,-2.04268,-0.365854,0.701219,-38.8807,-0.435894,-4.81399,-7.7439,-9.78659,10.7012
182.316,4.58869,-4.35603,0,0.974773,9.82437,-0.241897,-1.79878,-0.27439,0.457317,-38.9957,-0.292192,-4.86189,-7.95732,-9.29878,12.6829
182.326,4.60787,-4.43714,0,0.852627,9.87706,-0.301772,-1.61585,-1.0061,0.487805,-39.034,-0.167651,-4.41163,-6.18902,-8.87195,14.3902
182.336,4.61721,-4.53715,0,0.819097,9.82916,-0.320933,-1.43293,-1.89024,0.0914634,-39.034,-0.301772,-4.79483,-6.4939,-8.17073,13.2012
182.346,4.62957,-4.63999,0,0.831072,9.81719,-0.261057,-1.58537,-3.29268,-0.0304878,-39.3598,-0.273032,-4.95769,-4.93902,-9.08537,12.8049
182.356,4.66002,-4.75952,0,0.893342,9.79563,-0.270637,-1.61585,-3.10976,-0.121951,-39.513,-0.158071,-5.34089,-3.53659,-7.95732,12.622
182.366,4.71464,-4.8417,0,0.955613,9.72138,-0.186812,-1.79878,-3.17073,0.152439,-39.5609,-0.282612,-4.77567,-2.5,-9.78659,11.4329
182.376,4.75126,-4.93565,0,0.924478,9.76449,-0.162861,-2.65244,-3.93293,0.365854,-39.7717,-0.282612,-5.06307,-3.41463,-8.23171,10
182.386,4.80296,-5.02879,0,0.967588,9.7621,-0.277822,-2.28659,-4.05488,-0.0609756,-39.8196,-0.263452,-5.12055,-3.53659,-8.07927,10.7317
182.396,4.85377,-5.1058,0,0.986748,9.82197,-0.277822,-2.46951,-4.81707,0.121951,-39.6472,-0.282612,-4.88105,-3.65854,-9.08537,8.90244
182.406,4.93203,-5.20051,0,1.07776,9.80281,-0.352068,-2.40854,-5.7622,-0.0609756,-39.3693,-0.215552,-5.20677,-3.29268,-7.37805,9.26829
182.416,5.0437,-5.28276,0,1.2023,9.76928,-0.265847,-2.56098,-5.7622,-0.121951,-39.216,-0.512534,-5.03433,-3.78049,-7.62195,10.8841
182.426,5.12847,-5.37475,0,1.19751,9.74054,-0.227527,-2.31707,-4.05488,0.701219,-39.2256,-0.349673,-5.26425,-2.83537,-7.65244,10.6707
182.436,5.19452,-5.47284,0,1.13524,9.73096,-0.229922,-2.9878,-2.43902,0.792683,-39.3119,-0.445474,-5.44627,-0.853659,-7.2561,10.1524
182.446,5.25315,-5.54356,0,1.08255,9.7142,-0.366438,-3.14024,-1.61585,0.426829,-39.446,-0.186812,-5.05349,-0.182927,-8.44512,11.25
182.456,5.31144,-5.62561,0,1.06099,9.68067,-0.244292,-3.65854,-2.65244,0.152439,-39.5514,-0.0814307,-5.32173,-0.152439,-9.66463,12.7744
182.466,5.37299,-5.66724,0,1.07776,9.70222,-0.253872,-3.23171,-3.29268,0.0609756,-39.4747,0.167651,-4.66071,-1.43293,-11.4634,13.5671
182.477,5.4171,-5.69912,0,1.04902,9.75252,-0.246687,-2.40854,-3.29268,0.0914634,-39.4939,0.158071,-4.52659,-5.70122,-13.3537,13.0488
182.486,5.45314,-5.7251,0,1.05141,9.8555,-0.256267,-3.01829,-3.87195,0.121951,-39.5035,-0.186812,-4.44995,-9.7561,-14.5427,11.4939
182.496,5.48774,-5.76708,0,1.07057,9.83635,-0.292192,-2.71341,-3.04878,-0.243902,-39.5418,-0.186812,-4.75651,-11.0061,-14.9085,9.72561
182.506,5.50826,-5.83062,0,1.0562,9.79803,-0.232317,-2.89634,-2.62195,-0.640244,-39.1969,-0.177231,-5.12055,-10.8232,-14.3902,9.72561
182.516,5.53117,-5.89221,0,1.07776,9.72857,-0.227527,-2.5,-3.07927,-0.823171,-38.967,-0.0143701,-5.10139,-11.7683,-14.6646,10.3659
182.526,5.57162,-5.95375,0,1.18074,9.70701,-0.261057,-2.56098,-3.56707,-0.97561,-39.0149,0.205972,-5.14929,-11.3415,-14.6341,12.6524
182.536,5.65535,-6.01462,0,1.28373,9.70462,-0.222737,-2.92683,-3.41463,-0.487805,-39.0244,0.407153,-5.17803,-10.4878,-13.5976,15
182.546,5.75339,-6.06324,0,1.2981,9.67588,-0.244292,-3.71951,-5.60976,-0.304878,-39.0723,0.158071,-5.01517,-10.3963,-14.5427,16.7683
182.556,5.85598,-6.09334,0,1.29571,9.70462,-0.186812,-3.62805,-5.39634,-0.121951,-39.1969,0.129331,-4.73735,-12.3476,-13.7195,18.1098
182.566,5.93973,-6.11766,0,1.3005,9.75491,-0.220342,-3.87195,-3.59756,0.396341,-39.4747,-0.0910107,-4.69903,-12.7439,-16.372,19.5122
182.577,6.00044,-6.14535,0,1.22864,9.83635,-0.241897,-3.96341,-2.65244,0.182927,-39.4364,-0.483794,-4.77567,-14.2073,-17.7439,18.9329
182.587,6.03027,-6.21487,0,1.13763,9.8555,-0.258662,-4.14634,-2.28659,-0.0914634,-39.4651,-0.981958,-5.5325,-14.3293,-16.0061,17.1341
182.597,6.01931,-6.29188,0,1.00351,9.75491,-0.311353,-3.93293,-3.23171,-0.365854,-39.4364,-1.06818,-5.71452,-14.1159,-17.2866,14.6037
182.606,5.98778,-6.34747,0,0.922083,9.76928,-0.249082,-4.11585,-4.72561,-1.12805,-39.1011,-0.866997,-5.34089,-10.6707,-16.6463,14.6037
182.616,5.95906,-6.42079,0,0.946033,9.83874,-0.282612,-4.72561,-5.82317,-1.52439,-39.1777,-0.368833,-5.70494,-7.9878,-17.3476,17.1341
182.626,5.94068,-6.49493,0,1.04423,9.8579,-0.280217,-5,-7.83537,-2.10366,-39.216,-0.512534,-5.772,-5.97561,-16.1585,18.628
182.636,5.92686,-6.58199,0,1.17356,9.92257,-0.316143,-5.64024,-8.04878,-3.17073,-39.0723,-0.771196,-6.02108,-5.06098,-13.5366,19.6037
182.646,5.9325,-6.63808,0,1.44899,9.99202,-0.450264,-5.82317,-6.46341,-4.26829,-39.0149,-0.847837,-5.5325,-4.84756,-14.6646,21.2195
182.656,5.95406,-6.67038,0,1.80584,10.0375,-0.56762,-7.92683,-3.65854,-6.52439,-39.4364,-0.426313,-5.21635,-4.81707,-16.4024,23.0488
182.666,5.99661,-6.69396,0,1.94476,9.75012,-0.694556,-9.35976,1.82927,-6.55488,-39.8867,-0.780776,-5.14929,-3.38415,-18.2622,24.4817
182.676,6.02074,-6.74431,0,1.61903,9.44835,-0.574805,-7.65244,7.53049,-5.2439,-39.992,-1.11608,-5.66662,-5.2439,-20.061,23.4756
182.686,6.00812,-6.80283,0,1.29092,9.54655,-0.287402,-5.79268,9.7561,-4.78659,-40.0783,-1.4897,-5.85822,-4.66463,-18.9634,20.4268
182.696,5.98499,-6.89653,0,1.08973,9.7142,-0.179626,-6.40244,9.35976,-3.23171,-39.7909,-1.61424,-6.48092,-1.85976,-16.5244,18.3841
182.706,5.94505,-6.9837,0,0.910107,9.69025,-0.222737,-6.34146,6.95122,-2.62195,-39.3885,-1.48012,-6.35638,-0.762195,-14.0244,16.5244
182.716,5.89025,-7.06057,0,0.807122,9.73815,-0.162861,-5.67073,3.35366,-2.83537,-39.0915,-1.36516,-6.18394,0.97561,-12.9878,14.9085
182.727,5.83445,-7.11072,0,0.819097,9.79563,-0.126936,-6.06707,1.58537,-3.2622,-39.0436,-1.14482,-5.76242,2.04268,-13.872,13.3537
182.736,5.77139,-7.14726,0,0.811912,9.77886,-0.0479004,-6.82927,-0.365854,-4.14634,-39.2256,-1.03944,-5.58998,0.579268,-15.5793,13.689
182.746,5.70552,-7.17678,0,0.819097,9.79323,-0.0814307,-7.22561,-3.59756,-4.66463,-38.9765,-0.780776,-5.45585,-0.243902,-15.2744,14.1159
182.756,5.64377,-7.22527,0,0.864602,9.81958,0.00718506,-7.95732,-6.7378,-4.90854,-39.331,-0.905317,-5.8678,-2.19512,-17.0122,14.3598
182.766,5.59794,-7.27366,0,1.00351,9.75491,-0.0431104,-8.41463,-8.20122,-5.15244,-39.2065,-0.694556,-5.87738,-5.12195,-15.8232,15.061
182.777,5.57262,-7.32202,0,1.19272,9.70222,-0.0910107,-8.78049,-8.10976,-5.4878,-39.4076,-0.876577,-5.94444,-8.38415,-16.8293,13.3841
182.786,5.56052,-7.35042,0,1.30289,9.6184,-0.148491,-8.81098,-6.61585,-5.64024,-39.2256,-0.828677,-5.59956,-8.41463,-17.1646,13.9024
182.796,5.5654,-7.39268,0,1.44659,9.54176,-0.184417,-8.68902,-5.73171,-5.79268,-39.1969,-0.732876,-5.85822,-9.45122,-16.7073,14.3598
182.806,5.59941,-7.41856,0,1.64298,9.48188,-0.270637,-8.23171,-5.54878,-5.33537,-39.1777,-0.579595,-5.59956,-11.372,-17.7439,12.2561
182.816,5.65776,-7.44499,0,1.825,9.49146,-0.246687,-8.47561,-5.60976,-5,-39.1873,-0.493374,-5.6283,-13.5976,-17.622,11.4024
182.826,5.73818,-7.44931,0,1.98547,9.47709,-0.383203,-7.92683,-4.90854,-4.66463,-39.216,-0.349673,-5.26425,-16.9817,-18.4756,8.96341
182.836,5.84715,-7.46943,0,2.13396,9.49146,-0.402363,-7.68293,-2.68293,-3.75,-39.149,-0.320933,-5.5325,-19.6646,-17.4695,6.61585
182.847,5.98749,-7.48128,0,2.24174,9.40285,-0.387993,-7.34756,-0.121951,-2.95732,-38.8616,-0.349673,-5.36963,-19.8476,-19.8476,3.84146
182.856,6.21652,-7.48522,0,2.39023,9.34776,-0.337698,-6.55488,1.76829,-1.61585,-39.0149,-0.464634,-5.26425,-21.2195,-20.9451,1.21951
182.866,6.80572,-7.48656,0,2.60818,9.29747,-0.261057,-5.39634,2.53049,-0.0914634,-38.8041,-0.541274,-5.19719,-22.1037,-22.1037,-1.06707
182.876,7.10924,-7.50449,0,2.90516,9.13221,-0.220342,-4.20732,2.77439,2.10366,-38.7275,-0.119751,-5.48459,-20.2744,-24.4817,-1.34146
182.886,7.44425,-7.51656,0,3.45841,9.00288,-0.313748,-3.62805,4.60366,5.54878,-38.8233,0.00479004,-5.40795,-17.5305,-24.4207,-0.518293
182.896,7.87726,-7.51844,0,3.87993,8.67237,-0.282612,-2.7439,7.34756,10.1829,-38.9286,0.225132,-5.26425,-12.9573,-27.7134,0.487805
182.906,8.41811,-7.48055,0,4.30146,8.43047,-0.0910107,-2.07317,11.4329,16.0976,-39.149,0.637075,-4.61281,-7.40854,-32.0122,1.46341
182.916,9.05583,-7.46336,0,4.61999,8.31072,0.0622705,-0.792683,14.4207,22.9268,-39.034,0.694556,-4.94811,-1.58537,-35.9756,1.92073
182.926,9.77225,-7.42359,0,4.84512,8.49992,0.241897,0.701219,16.5549,31.0061,-38.7658,0.886157,-4.52659,6.40244,-40.6098,1.25
182.936,10.5356,-7.35015,0,4.87386,8.88073,0.366438,1.15854,19.0244,39.1463,-38.3922,1.18314,-3.8943,14.1159,-45.061,-2.0122
182.947,11.3315,-7.27107,0,4.77327,9.1849,0.443079,0.97561,21.128,46.6768,-38.2101,1.14482,-3.7506,21.25,-51.0671,-4.72561
182.956,12.1264,-7.19407,0,4.426,9.48188,0.361648,0.914634,22.9573,53.1707,-38.373,1.59508,-3.76976,26.128,-57.4085,-8.5061
182.966,12.9032,-7.1382,0,4.11943,9.88425,0.00239502,0.640244,24.5122,57.8354,-38.4305,2.37107,-4.10506,31.7988,-63.4146,-11.3415
182.976,13.6501,-7.0995,0,3.86317,10.3058,-0.184417,0.548781,27.8354,60.6098,-38.5646,2.91713,-4.39247,41.0671,-68.1098,-9.5122
182.986,14.3663,-7.06395,0,3.71468,10.9452,-0.488584,1.37195,30,62.6829,-39.0053,3.42488,-4.48827,49.2378,-73.1707,-3.56707
182.996,15.0474,-7.03046,0,3.52068,11.6637,-0.517324,1.37195,28.9024,64.5427,-40.1453,3.43446,-4.63197,55.4268,-73.4451,4.45122
183.007,15.7102,-7.08469,0,3.33626,12.2649,-0.344883,1.03659,24.2073,67.2866,-41.0363,2.06451,-6.30848,57.7134,-68.6585,7.53049
183.016,16.3634,-7.1267,0,3.10395,12.5523,-0.174836,1.64634,18.1098,70.3659,-42.7511,2.03577,-6.3468,60.7012,-60.3659,9.78659
183.026,17.0128,-7.16049,0,2.84049,12.0757,0.0598755,1.40244,14.1463,72.6524,-44.1977,1.62382,-6.41386,64.4817,-55.9451,12.6524
183.036,17.6488,-7.22583,0,2.56986,11.1297,0.486189,4.7561,13.5671,73.0793,-44.5426,1.3939,-7.11321,65.7317,-53.0793,16.9512
183.046,18.2709,-7.29448,0,2.42615,10.6315,0.862207,8.78049,12.6829,73.2622,-44.0827,2.02619,-7.14195,65.3354,-49.1768,20.4573
183.056,18.8783,-7.36836,0,2.39502,10.6794,1.06818,10.6098,12.1037,73.4756,-43.2109,3.14706,-7.15153,64.4512,-47.9268,27.2866
183.066,19.4916,-7.43151,0,2.61057,10.6962,0.914897,11.1585,15.7927,73.1098,-42.1667,3.69312,-6.83539,61.3415,-49.4207,33.9634
183.076,20.1229,-7.46653,0,2.85965,10.5668,0.890947,11.128,18.8415,73.2927,-41.429,4.40205,-6.23184,54.9695,-48.2317,38.9939
183.086,20.7543,-7.49571,0,2.92671,10.3034,1.01309,10.8232,17.8354,73.1402,-40.9596,4.75651,-6.07856,49.0549,-48.0488,39.8171
183.096,21.3629,-7.4837,0,2.86205,10.0088,1.11847,11.0671,13.75,71.8902,-40.9788,5.43669,-5.35047,42.5,-49.8171,38.689
183.106,21.9317,-7.4522,0,2.77822,9.82677,1.0586,11.4024,8.53659,69.4207,-40.404,5.15887,-4.92895,33.8415,-53.9024,37.0427
183.117,22.4763,-7.38969,0,2.9315,9.89383,0.969983,12.5305,6.76829,66.6463,-40.4806,5.78158,-4.37331,21.6463,-59.0854,35.0915
183.126,23.0319,-7.33349,0,3.34345,9.85072,0.941243,12.7439,7.56098,64.2988,-39.8004,4.10506,-4.38289,17.0122,-63.3537,32.9878
183.136,23.613,-7.23864,0,3.79371,9.5681,0.895737,13.0183,9.60366,62.1646,-39.7909,3.52068,-3.67396,8.81098,-68.1098,29.8476
183.147,24.2263,-7.14974,0,4.16015,9.29268,0.989143,14.1463,12.561,61.5549,-38.737,3.18538,-3.61648,3.20122,-68.6585,26.9817
183.156,24.8831,-7.05339,0,4.57209,9.09868,0.969983,14.939,16.9512,62.0122,-37.8653,2.61057,-3.35782,-0.792683,-70.9146,25.5793
183.166,25.5628,-6.97775,0,4.75172,8.91905,0.802332,13.9329,23.2317,62.8963,-37.1851,2.59141,-3.57816,-5.85366,-71.3719,26.3415
183.176,26.2584,-6.87199,0,4.84512,8.71787,0.718506,12.4085,28.1098,63.8415,-36.3995,2.93629,-2.97461,-7.37805,-73.7195,27.9878
183.186,26.9475,-6.75988,0,4.75651,8.47358,0.546064,12.3476,32.1646,64.0854,-36.1408,3.1758,-2.78301,-12.2256,-73.2012,28.1098
183.196,27.6067,-6.66712,0,4.59365,8.48316,0.258662,10.3354,35.4878,64.2378,-35.5852,3.25244,-2.97461,-17.622,-72.9268,28.9939
183.206,28.2415,-6.58195,0,4.36133,8.18139,-0.0215552,9.32927,34.4207,63.8415,-35.5756,3.76976,-3.03209,-22.6829,-71.7683,27.378
183.217,28.8281,-6.52456,0,3.96615,7.89877,-0.179626,8.93293,30.8537,63.0793,-35.6523,3.8464,-3.4153,-27.3476,-68.5061,23.9939
183.226,29.3641,-6.49178,0,3.62127,7.57784,0.126936,8.96341,24.2073,61.4024,-35.9684,4.29667,-3.78892,-32.1951,-63.9634,19.0244
183.236,29.8448,-6.482,0,3.37937,7.4078,0.469424,10.3049,15.4878,58.9329,-35.9205,4.31582,-4.11464,-37.2866,-58.5671,13.5671
183.247,30.2871,-6.49438,0,3.42727,7.45809,0.735271,9.35976,4.93902,55.6707,-36.7731,4.05716,-4.55533,-43.1402,-53.9329,7.71341
183.256,30.7139,-6.51273,0,3.63085,7.48683,0.366438,11.0671,-1.55488,52.561,-37.1755,3.69312,-4.69903,-47.7134,-49.7561,3.47561
183.266,31.125,-6.57826,0,3.93023,7.66167,0.294587,13.75,-3.2622,49.2073,-37.4629,3.33866,-5.5325,-52.1646,-47.1341,-1.76829
183.276,31.5279,-6.67714,0,4.24158,7.82453,0.493374,13.5366,-2.2561,46.5549,-37.4342,2.79259,-6.11688,-55.8841,-41.4329,-4.72561
183.286,31.9532,-6.79185,0,4.58167,7.73112,1.02028,12.2866,-0.731707,45.1829,-37.4533,2.50519,-6.4426,-60.8841,-37.6829,-7.19512
183.296,32.3967,-6.87534,0,4.96009,7.71196,0.828677,7.65244,-1.7378,43.628,-37.8557,2.27527,-6.03066,-64.2988,-30.5793,-8.90244
183.306,32.8398,-6.9898,0,5.04391,7.44133,0.452659,5.12195,0.152439,41.6768,-38.0664,2.21779,-6.6342,-65,-24.3293,-8.87195
183.316,33.2371,-7.10546,0,4.8068,7.21859,0.716111,6.03659,1.43293,38.872,-38.3347,1.92081,-6.76833,-65.7622,-20.6707,-11.372
183.326,33.5738,-7.23631,0,4.76609,7.32397,0.962798,7.83537,0.670732,34.7256,-38.2006,2.19863,-7.08447,-65.9451,-19.5122,-13.2012
183.336,33.8854,-7.35429,0,5.02715,7.45091,0.984353,6.61585,-1.85976,30.9146,-38.4975,2.57225,-6.99825,-67.439,-17.6524,-15.3963
183.346,34.1744,-7.46082,0,5.23551,7.43654,0.62989,4.35976,-5.70122,26.9207,-38.4688,2.62973,-6.87371,-69.1768,-17.4695,-15.8232
183.356,34.4563,-7.53455,0,5.37442,7.22098,0.447869,3.44512,-6.55488,23.689,-38.8424,2.70637,-6.4426,-71.3415,-19.1768,-19.3902
183.366,34.7284,-7.59496,0,5.46543,6.93358,0.459844,2.71341,-6.34146,20.0305,-38.8328,2.55309,-6.251,-74.0854,-17.1037,-21.9207
183.376,34.9925,-7.67315,0,5.69536,6.85215,-0.234712,4.87805,2.80488,16.7378,-38.4209,2.39023,-6.52882,-76.5549,-15.061,-26.0061
183.386,35.2011,-7.78659,0,5.76481,7.19224,0.119751,4.54268,5.15244,13.689,-38.2389,2.65847,-7.15153,-79.5122,-11.189,-27.8963
183.397,35.3725,-7.89749,0,5.92528,7.44612,0.340093,3.96341,5.85366,10.7317,-37.9994,2.77343,-7.12279,-81.311,-5.97561,-29.7256
183.406,35.4974,-8.01181,0,5.63069,7.49162,0.565225,0,8.53659,9.57317,-38.0473,2.83091,-7.25691,-84.7561,-2.86585,-30.2744
183.416,35.5894,-8.13607,0,5.42472,7.21619,0.519719,-0.762195,10.1829,6.43293,-37.9802,2.79259,-7.48683,-87.6219,-0.365854,-28.689
183.426,35.6534,-8.24465,0,5.10379,6.80665,0.450264,0.914634,11.189,2.7439,-37.7982,2.79259,-7.25691,-86.7378,2.0122,-26.5549
183.436,35.7134,-8.34341,0,5.09181,6.71803,0.507744,-1.06707,11.3415,-1.64634,-38.076,2.72553,-7.20901,-88.1707,3.56707,-24.0244
183.447,35.7293,-8.44003,0,5.38879,6.65097,0.55804,1.0061,8.17073,-5.33537,-38.1431,2.38065,-7.25691,-86.9512,2.2561,-22.2866
183.456,35.7547,-8.53881,0,5.9133,6.88808,0.809517,1.70732,3.87195,-7.46951,-38.2006,2.35191,-7.37187,-84.1159,2.40854,-21.4024
183.466,35.8279,-8.61604,0,6.51445,6.95514,0.778381,1.31098,1.12805,-7.59146,-38.2676,2.47645,-7.07489,-82.2561,2.95732,-18.1098
183.476,35.9252,-8.69501,0,6.71563,6.98388,0.694556,1.79878,2.10366,-6.55488,-38.4113,2.42855,-7.18027,-82.2256,4.45122,-14.6951
183.486,36.0141,-8.79454,0,6.41865,6.93119,0.859812,3.04878,4.72561,-5.18293,-38.6508,2.46687,-7.64011,-80.8537,5.42683,-13.2317
183.496,36.0794,-8.88557,0,6.21747,6.95274,0.627495,3.38415,11.8598,-5.33537,-38.8233,2.45729,-7.58263,-82.8049,8.47561,-12.3171
183.506,36.0957,-8.99217,0,5.72649,6.74198,0.665815,6.31098,15.9146,-7.07317,-39.4364,2.47645,-8.0329,-81.6768,12.9878,-8.35366
183.516,36.0161,-9.1084,0,5.32652,6.93598,0.797541,8.84146,15.8537,-11.0366,-40.0304,2.32317,-8.39694,-84.2378,16.2195,-7.43902
183.526,35.8507,-9.24067,0,5.11576,7.03178,0.838257,8.2622,11.0061,-16.9207,-40.4327,2.65847,-8.8472,-86.4939,21.4329,-6.70732
183.536,35.6483,-9.43158,0,5.08463,6.83778,0.627495,7.7439,5.03049,-22.2561,-40.6435,2.96503,-10.083,-87.8659,26.0061,-6.15854
183.546,35.4461,-9.65457,0,5.39119,6.75395,0.519719,9.20732,0.304878,-26.6463,-40.883,2.99377,-10.8782,-91.2195,32.8659,-7.71341
183.556,35.2235,-9.82435,0,5.71212,6.90963,0.517324,11.0061,-3.35366,-31.1585,-41.1416,3.3674,-10.0735,-89.7561,37.1341,-7.92683
183.566,34.9307,-9.99058,0,5.77918,7.36469,0.519719,11.4024,-3.56707,-35.7927,-41.7739,3.91346,-10.2938,-85.061,36.189,-7.37805
183.576,34.4655,-10.1159,0,5.03912,8.18139,0.426313,9.29878,-0.0914634,-40.7317,-42.7224,3.82724,-9.85311,-78.7195,34.2073,-2.56098
183.586,33.827,-10.1879,0,3.91586,8.3658,-0.294587,10.4573,-3.9939,-46.0061,-44.4085,2.51477,-9.25915,-71.311,31.2195,1.34146
183.596,32.9967,-10.3012,0,2.61057,8.80409,0.196392,13.8415,-15.3963,-49.3902,-45.9317,0.455054,-10.5046,-62.5915,33.872,3.23171
183.606,32.0623,-10.4538,0,1.93518,9.42919,1.24302,14.4512,-36.0671,-51.6768,-46.2574,-0.866997,-11.4721,-51.6463,45.7927,-0.335366
183.616,31.1772,-10.5138,0,2.67284,10.0423,2.15791,13.4756,-65.5488,-55.3049,-47.0717,-1.57592,-9.74773,-41.9512,54.6037,-2.62195
183.627,30.4077,-10.4524,0,4.20326,10.586,2.41178,12.1646,-101.494,-59.0854,-48.9207,-2.22737,-7.47725,-29.0549,54.7866,-4.84756
183.636,29.7365,-10.2497,0,6.21987,12.1547,2.13157,8.68902,-135.854,-61.7378,-51.8809,-3.99968,-4.64155,-11.0366,44.7561,-8.78049
183.647,29.0863,-10.0629,0,8.09038,14.6767,1.99745,1.0061,-150.152,-64.5732,-53.9694,-6.4905,-5.07265,17.2256,32.9268,-17.3476
183.656,28.5563,-9.96081,0,10.0519,16.2813,0.632285,-3.96341,-151.463,-59.3902,-53.3658,-9.32621,-6.89287,47.9268,25.4268,-23.3841
183.666,28.3609,-9.88525,0,11.7572,15.3712,-1.43222,-3.78049,-149.451,-38.0183,-51.7276,-9.86269,-7.18985,72.8049,28.2012,-22.9573
183.676,28.3703,-9.71682,0,9.78605,13.357,-1.85135,-11.5549,-125.213,-15.0915,-47.886,-7.89877,-4.56491,94.2683,37.7134,-19.1768
183.686,28.3388,-9.4264,0,5.60195,10.8758,-1.36037,-21.2805,-85.8841,-0.762195,-43.3451,-5.38879,-1.60466,108.72,53.1098,-6.0061
183.696,26.8587,-9.05139,0,1.93278,8.89031,-1.50168,-26.3415,-60,0,-41.4865,-0.780776,0.234712,112.866,56.6768,9.17683
183.706,26.1853,-8.52342,0,-0.285007,7.5036,-2.32317,-19.939,-45.9451,-9.39024,-39.5993,3.08,3.16622,111.799,58.628,24.6646
183.716,25.0551,-7.79478,0,-2.24892,7.18745,-2.39502,-12.622,-49.7256,-26.4329,-40.9884,6.42344,7.30481,94.8171,46.1585,34.0244
183.727,23.6649,-6.98195,0,-2.91713,7.46528,-2.12438,-11.4024,-72.6829,-47.1646,-42.5787,9.22083,9.69983,64.2073,20.6402,32.9268
183.736,22.275,-6.2058,0,-1.70046,7.5491,-3.30273,-9.17683,-89.4817,-67.6219,-43.9678,13.0241,9.85311,48.0793,2.71341,26.0061
183.747,21.0842,-5.40667,0,0.536484,8.17181,-4.63197,-1.25,-78.5061,-83.7195,-43.4983,12.4397,10.7728,-8.53659,-12.9573,18.2622
183.757,20.0127,-4.62916,0,1.99745,9.39806,-4.03321,7.5,-52.9573,-90.7927,-40.586,11.6925,10.2076,-33.9024,-22.2561,9.48171
183.766,19.1272,-3.8858,0,3.55181,10.7033,-2.85726,9.93902,-26.4024,-86.9817,-39.3214,9.57529,9.79563,-63.7195,-31.0976,2.2561
183.776,18.4155,-3.19549,0,4.25834,11.053,-1.80824,8.81098,-3.44512,-76.5854,-38.2772,6.24142,9.09628,-84.7561,-36.0061,-4.11585
183.787,17.795,-2.53426,0,3.98771,10.8231,-0.888552,5.54878,13.2317,-67.0122,-38.6221,2.62973,9.10586,-97.4695,-47.6829,-5.39634
183.797,17.1663,-1.99211,0,3.18538,10.4591,-0.55325,3.32317,27.4695,-62.4085,-38.7849,-1.32684,7.44851,-103.049,-57.6829,-5.70122
183.807,16.4372,-1.64418,0,1.86093,10.2818,-0.277822,1.37195,36.189,-60.3049,-38.8712,-4.67987,4.43079,-99.5732,-58.7805,-2.2561
183.816,15.5884,-1.35044,0,0.548459,10.119,-0.155676,0.0304878,36.311,-59.3902,-38.2197,-7.79339,3.68354,-95.3963,-54.2378,-0.884146
183.826,14.664,-1.17916,0,-0.208367,9.81,-0.459844,-2.68293,30.6098,-60.0305,-36.5049,-5.41753,1.75794,-76.8902,-43.9939,6.7378
183.836,13.7139,-1.01216,0,-0.459844,9.44596,-0.869392,0.243902,17.7744,-61.3415,-35.7672,-8.8472,1.7771,-67.3476,-39.1463,8.53659
183.847,12.7094,-0.835629,0,-0.840652,9.29268,-0.893342,2.37805,4.2378,-63.9634,-35.2307,-6.56714,2.01661,-52.2561,-34.2683,15.7927
183.856,11.6693,-0.700839,0,-1.09213,9.34058,-1.03225,2.9878,-7.07317,-66.5854,-34.5027,-6.26058,1.46096,-36.9817,-28.9939,21.4329
183.867,10.6129,-0.595457,0,-1.20948,9.46512,-1.04902,3.01829,-20,-69.1159,-33.8416,-5.17803,1.09692,-17.7134,-20.9756,22.2561
183.876,9.60728,-0.512309,0,-0.862207,9.74773,-1.06099,2.34756,-33.1098,-70.6402,-34.6464,-3.93262,0.866997,-3.41463,-14.2988,20.9146
183.886,8.63872,-0.505911,0,-0.809517,10.0064,-0.946033,0.945122,-45.8232,-69.7866,-35.863,-3.57816,-0.244292,10.8232,-7.9878,14.8171
183.896,7.74751,-0.4852,0,-0.366438,9.99442,-0.938848,-0.792683,-55.4268,-69.0244,-37.3192,-3.07042,-0.00479004,23.5366,-4.93902,8.93293
183.906,6.95127,-0.463464,0,0.253872,9.97047,-1.22625,-2.9878,-58.872,-68.4146,-37.9994,-2.91713,0.0335303,33.4146,-2.65244,1.70732
183.916,6.21815,-0.456105,0,0.689766,9.72378,-1.43701,-2.59146,-66.3415,-68.9024,-37.8748,-1.96871,-0.186812,39.3902,-1.0061,-3.07927
183.926,5.54857,-0.434138,0,1.14721,9.37171,-1.77231,-3.2622,-70.4573,-69.8781,-37.5683,-1.26936,0.0526904,41.6463,-3.68902,-5.12195
183.936,4.92029,-0.408806,0,1.41546,9.1346,-2.05732,-3.96341,-69.5122,-70.7622,-37.1468,-0.857417,0.110171,43.3232,-7.19512,-5.33537
183.947,4.35694,-0.334604,0,1.8753,9.3286,-1.98308,-4.5122,-66.3415,-70.6402,-37.3,-0.349673,0.914897,41.25,-12.1037,-2.92683
183.956,3.89394,-0.290477,0,2.58902,9.45554,-1.97829,-5.85366,-57.7134,-69.6037,-37.3575,-0.225132,0.464634,38.3232,-13.5671,-2.59146
183.966,3.49882,-0.265873,0,2.94587,9.64235,-1.84896,-5.64024,-46.9512,-67.0427,-37.1755,-0.253872,0.158071,34.4817,-17.622,-4.11585
183.976,3.16009,-0.281901,0,2.97222,9.55613,-1.84656,-6.85976,-35.4878,-62.6829,-36.7635,-0.665815,-0.493374,30.8537,-19.8476,-4.48171
183.986,2.86103,-0.32926,0,2.86923,9.09868,-1.99505,-7.0122,-24.4817,-59.7866,-36.2462,-1.32684,-1.00112,29.4817,-21.0671,-5.64024
183.996,2.57481,-0.434921,0,2.63452,8.91905,-2.11241,-5.67073,-13.872,-56.9512,-35.9492,-2.04535,-1.94955,30.3049,-21.5549,-6.37195
184.006,2.24606,-0.553556,0,2.12917,8.92624,-2.01661,-5.73171,-5.51829,-55.6707,-35.8726,-2.83091,-2.22737,32.439,-24.6951,-7.86585
184.016,1.9066,-0.710197,0,1.87051,8.88073,-2.15552,-5.36585,2.04268,-54.3293,-35.384,-3.53026,-2.86923,36.9817,-25.6098,-7.56098
184.026,1.5958,-0.885084,0,1.86572,8.68674,-2.25611,-4.39024,7.65244,-52.561,-34.9721,-3.71228,-3.21412,39.9085,-25.1524,-7.16463
184.036,1.31644,-1.07824,0,1.83219,8.35622,-2.27527,-1.92073,13.3841,-50.4878,-34.4835,-3.4153,-3.54942,43.4756,-23.0183,-6.64634
184.047,1.00615,-1.29908,0,1.48491,8.26761,-2.16031,1.85976,15.2134,-49.7561,-34.3973,-2.97461,-4.07632,47.5915,-20.9146,-5.33537
184.056,0.695447,-1.49889,0,1.45138,8.50232,-2.0214,3.5061,12.8963,-49.4207,-34.0811,-2.32317,-3.8464,50.4268,-19.0854,-3.75
184.066,0.395497,-1.68107,0,1.50407,8.48795,-2.03816,5.67073,11.8902,-49.6951,-33.8225,-1.2502,-3.66438,50.8841,-16.9817,-0.243902
184.076,0.114995,-1.8361,0,1.71723,9.06994,-1.67651,6.67683,11.9817,-49.6951,-33.9853,-0.694556,-3.38656,51.5244,-19.0854,3.56707
184.086,-0.149009,-1.99111,0,1.8777,9.96807,-1.21667,6.61585,14.2683,-48.4756,-34.6943,-0.378413,-3.559,50.7012,-21.5549,7.16463
184.096,-0.417553,-2.20571,0,1.68609,10.4902,-0.902922,4.08537,18.8415,-46.3415,-35.0966,-0.684976,-4.62239,49.5427,-18.689,11.128
184.106,-0.735982,-2.46286,0,1.02746,10.301,-0.747246,3.20122,21.7683,-44.9695,-35.499,-1.13524,-5.47501,49.2683,-13.811,16.7683
184.116,-1.11551,-2.73158,0,0.471819,9.96328,-0.749641,2.2561,17.7439,-45.7622,-35.8439,-1.54718,-5.85822,49.5732,-6.7378,24.1159
184.127,-1.57095,-3.01604,0,0,9.71659,-0.62031,1.58537,9.81707,-48.75,-35.317,-1.32684,-6.17436,49.0244,-0.335366,33.4451
184.136,-2.03824,-3.28365,0,0.00718506,9.65432,-0.728086,1.09756,3.53659,-50.9756,-34.8667,-1.1065,-5.99234,48.628,4.42073,41.6768
184.146,-2.48428,-3.55973,0,0.208367,9.54894,-1.09213,-0.243902,-4.78659,-52.2256,-34.6847,-0.474214,-6.251,46.8598,7.89634,50.4573
184.156,-2.88142,-3.85417,0,0.565225,9.60163,-1.48491,-0.396341,-9.45122,-52.4695,-34.608,0.608335,-6.69168,45.8537,10.4268,59.6037
184.166,-3.24007,-4.14725,0,0.718506,9.39566,-1.35558,-1.28049,-11.6768,-51.4024,-34.9912,1.41306,-6.92161,46.1585,13.3232,68.4146
184.176,-3.59199,-4.41695,0,0.744851,8.87115,-1.46815,-1.15854,-11.9817,-52.3171,-35.3744,1.54718,-6.79707,41.7683,16.4024,75.0305
184.186,-3.89473,-4.6053,0,1.16398,9.05557,-1.89925,-0.487805,-11.7988,-53.1707,-36.4857,0.981958,-5.83906,36.7378,16.3415,73.3841
184.196,-4.19306,-4.72321,0,1.17356,8.49034,-1.95194,-1.95122,-19.0244,-54.4512,-37.2617,0.713716,-4.90979,31.4329,15.4573,67.1951
184.206,-4.40859,-4.81102,0,1.71483,8.31551,-2.36867,0.27439,-15.0915,-54.3293,-37.4725,0.809517,-4.51701,22.8963,13.5976,55.6707
184.216,-4.52645,-4.9061,0,2.38544,8.33227,-2.84049,2.34756,-4.7561,-53.628,-37.6066,1.45138,-4.71819,15.5183,12.3171,46.8293
184.226,-4.6903,-5.0135,0,1.9711,8.53345,-2.26329,2.31707,1.03659,-52.5,-37.8844,1.28852,-5.01517,5.64024,15.5793,37.2866
184.236,-4.94754,-5.12557,0,1.36277,8.5095,-2.18186,2.40854,11.0671,-54.3902,-38.6029,1.06818,-5.25467,-5.4878,18.628,30.061
184.247,-5.17004,-5.26531,0,1.48012,10.6602,-1.81542,4.32927,17.8659,-48.9329,-39.9058,0.0239502,-6.0115,-13.4451,17.6829,19.6646
184.256,-5.54776,-5.46569,0,0.203577,10.5884,-1.0107,-0.884146,12.2256,-51.3415,-41.2183,-0.838257,-7.44851,-18.6585,16.6159,13.8415
184.266,-5.98595,-5.76054,0,-0.258662,10.9045,-0.661025,-3.41463,2.28659,-53.2622,-42.8086,-1.85375,-9.71899,-19.878,24.2683,7.80488
184.276,-6.30695,-6.10946,0,0.706531,11.8218,-1.13524,-6.95122,-0.762195,-51.9512,-43.642,-2.62973,-11.2135,-18.628,32.6524,6.7378
184.286,-6.59948,-6.54486,0,0.718506,11.338,-1.24302,-11.0671,-7.34756,-50.122,-43.9007,-3.4632,-13.3115,-11.7378,47.7134,6.58537
184.296,-6.70932,-6.98209,0,1.77471,11.532,-1.64777,-13.3232,-6.12805,-42.5305,-44.5043,-3.40572,-13.8672,-1.06707,56.4634,6.46341
184.307,-6.71801,-7.3664,0,2.41418,11.2925,-1.77231,-15.7622,-6.21951,-39.2073,-45.2898,-3.09916,-13.3019,9.69512,64.4207,6.0061
184.316,-6.61092,-7.65007,0,3.22609,11.0578,-1.85614,-18.2317,-4.54268,-35.9756,-45.9413,-2.48603,-11.5967,15.8841,73.3232,3.9939
184.326,-6.37234,-7.75395,0,4.07393,10.8638,-1.89446,-20,-3.23171,-31.0976,-47.7423,-0.752036,-8.3203,19.4207,78.2622,-0.213415
184.336,-5.99054,-7.61222,0,4.84273,10.6315,-1.72681,-19.9695,-4.14634,-24.0244,-50.9995,2.06451,-3.38656,11.1585,75.9451,-10.122
184.347,-5.42887,-7.24759,0,5.93965,10.6195,-1.53281,-20.0305,-2.80488,-14.5427,-55.5118,5.35047,1.91123,-13.1707,76.0366,-30.0305
184.356,-4.7109,-6.6742,0,6.73958,11.041,-1.31726,-21.6768,2.2561,-2.43902,-60.4647,-2.03577,7.98499,-76.7683,58.7805,-57.8963
184.366,-3.86139,-6.37863,0,7.23296,11.6637,-1.13524,-24.2988,10.122,12.1646,-65.0918,11.3476,1.33642,-96.0366,78.1098,-90.5488
184.376,-2.88469,-6.19926,0,7.47486,11.9871,-0.64905,-28.1707,15.8537,26.5854,-60.8479,14.0396,-1.59508,-142.348,70.1829,-117.439
184.386,-1.74725,-6.01726,0,8.06164,12.0877,-0.376018,-31.372,18.5366,41.4024,-54.5921,11.2901,-1.26936,-174.756,54.8171,-134.909
184.396,-0.439836,-5.70506,0,8.49034,11.9919,0.471819,-35.0915,19.9085,57.8049,-45.5389,5.85822,1.5855,-200.061,25.7622,-134.573
184.406,1.0577,-5.27642,0,8.51908,11.3237,0.392783,-44.5427,26.4024,76.4939,-41.6685,-1.30768,3.71228,-207.591,-5.67073,-121.189
184.416,2.66533,-4.90012,0,7.3096,10.4591,0.203577,-50.5183,49.1463,94.8781,-41.7644,-6.17436,2.99377,-192.988,-25.4878,-107.073
184.426,4.26346,-4.3983,0,5.51813,10.2555,0.177231,-51.128,63.75,110.793,-40.1453,-2.49561,5.36005,-147.561,-33.75,-85.4268
184.436,5.83828,-4.07083,0,3.8967,10.3728,-1.03704,-43.2012,65.2439,127.378,-39.3789,-11.1943,2.55309,-120.457,-32.6524,-76.1585
184.447,7.30755,-3.62599,0,1.98547,11.1249,-1.68849,-32.3476,60.6402,141.189,-38.6796,-9.52739,4.75651,-73.5671,-30.7012,-58.0183
184.456,8.66658,-3.19424,0,0.392783,11.9751,-1.79387,-25.1829,52.5305,149.756,-38.2006,-8.5598,4.75651,-39.7561,-36.189,-40.8232
184.466,9.91687,-2.82828,0,-0.866997,13.06,-1.69807,-19.7561,47.1037,153.018,-36.6965,-7.51557,3.7985,-9.05488,-27.8049,-25.9756
184.476,11.1056,-2.46318,0,-1.25499,14.1857,-1.7292,-17.8963,45.3049,151.86,-36.0738,-5.57082,3.9901,-0.121951,-16.0976,-13.75
184.486,12.2678,-2.03173,0,-0.716111,14.4468,-2.32077,-17.5915,46.9512,147.043,-37.3767,-3.25244,5.54208,-2.31707,0.457317,-3.87195
184.496,13.3813,-1.61442,0,-0.0910107,13.9869,-2.04774,-11.7683,39.2683,139.421,-39.034,-1.37474,5.83906,-12.1341,0.243902,0.243902
184.506,14.4597,-1.27603,0,0.395178,13.8887,-0.58199,-2.43902,22.7439,134.024,-40.5477,0.359253,4.91937,-23.5366,-2.68293,1.79878
184.516,15.5444,-1.01212,0,0.507744,14.1833,0.119751,0.548781,6.34146,136.006,-41.1895,2.50519,3.86556,-35.6707,-5.45732,1.09756
184.526,16.6724,-0.752858,0,0.57241,13.8193,-1.06578,-0.27439,11.0671,141.982,-40.8447,3.81766,3.93262,-46.311,-7.10366,1.52439
184.536,17.8704,-0.494753,0,0.972378,13.551,-2.4046,0.243902,28.1707,147.896,-39.1873,4.90979,3.9422,-56.8293,-4.11585,5.88415
184.547,19.1574,-0.28283,0,2.23455,13.2924,-2.82852,3.29268,45.9451,148.323,-37.3192,5.12055,3.16622,-70.7927,-1.4939,13.9634
184.556,20.4083,-0.14398,0,2.38065,13.2229,-2.54351,4.29878,62.2561,145.915,-35.6235,4.75651,1.98787,-79.7256,-5.97561,22.1646
184.566,21.4615,-0.0530461,0,0.344883,12.8349,-2.26808,5.82317,68.811,145.976,-34.6943,3.9901,1.2502,-80.0305,-17.8963,33.2927
184.576,22.4679,-0.0106355,0,-0.102986,12.2649,-2.18426,6.76829,67.6524,147.47,-34.0715,3.39614,0.531694,-77.3171,-25.0305,42.2866
184.586,23.3234,0.0225205,0,-1.58071,11.3979,-1.56634,8.68902,69.8781,149.268,-33.8704,2.67763,0.407153,-73.1098,-27.8659,49.0549
184.596,24.026,0.0287761,0,-2.70158,10.7273,-1.41785,10.2439,62.622,148.14,-33.8512,1.25978,0.0335303,-69.2073,-25,51.7988
184.606,24.5404,0.032788,0,-3.85359,10.3489,-0.684976,9.54268,53.2927,143.201,-33.6309,0.205972,0.00479004,-62.5,-24.6341,51.9817
184.616,25.0574,0.0462195,0,-2.62973,9.6639,-0.965193,7.95732,49.2073,133.902,-33.7267,-1.16398,0.129331,-56.4024,-30.7622,46.0366
184.627,25.6108,0.0210401,0,-1.4897,8.92384,-1.41067,15.061,50.7317,126.951,-33.5734,-2.20821,-0.464634,-49.6951,-41.0671,38.872
184.636,26.1788,-0.0448741,0,-0.792751,8.82804,-1.61185,17.6829,49.8171,120.701,-33.3147,-2.84049,-1.06818,-45.7622,-38.9939,33.3537
184.647,26.7104,-0.111749,0,-0.536484,8.44005,-1.66214,17.7439,40.1524,115.091,-32.9698,-3.24286,-1.08734,-42.3171,-31.372,28.1098
184.656,27.2277,-0.165216,0,-0.165256,8.15265,-1.60466,18.5671,30.7317,109.665,-32.9219,-2.39981,-0.914897,-43.2317,-26.25,26.311
184.666,27.675,-0.240767,0,-0.0958008,7.78621,-1.42264,20.7927,21.6463,102.652,-33.1806,-0.991538,-1.25978,-42.5,-20.4573,27.0122
184.676,27.9556,-0.315075,0,-0.486189,7.43654,-1.21188,25.6402,18.2317,92.7439,-33.3435,0.263452,-1.26936,-45.9451,-12.7134,30
184.686,27.9774,-0.398651,0,-1.36756,7.5994,-0.907712,28.4756,17.2866,80.0915,-33.4967,1.67172,-1.4418,-52.6524,-7.89634,32.378
184.696,27.7497,-0.508744,0,-2.2106,7.6473,-0.675395,27.561,17.1646,66.7683,-33.5638,3.21412,-1.88249,-58.4146,-6.34146,33.5061
184.706,27.352,-0.669946,0,-2.51717,7.39343,-0.409548,24.1768,17.9878,54.4207,-34.2344,4.04758,-2.75427,-66.3415,-4.08537,34.0244
184.716,26.8096,-0.718463,0,-2.62734,6.90005,0.0191602,21.8902,17.8963,43.0183,-35.0296,0.866997,-1.17356,-78.9939,-4.78659,28.8415
184.726,26.3537,-0.91551,0,-1.64777,7.18027,0.680186,12.8963,27.1951,34.5732,-34.8284,5.26425,-3.43446,-74.5122,12.6524,21.4939
184.736,25.9734,-1.15255,0,-0.713716,6.26537,0.924478,9.60366,40.7317,28.2317,-35.384,4.41163,-4.2775,-85.061,1.70732,14.5732
184.747,25.527,-1.35771,0,-0.661025,6.34201,1.25739,9.60366,50.3963,19.6037,-36.0067,3.53984,-3.9901,-94.8781,1.98171,5.03049
184.756,24.9812,-1.59682,0,-0.706531,6.62462,1.41067,7.13415,51.0366,9.11585,-35.681,2.73511,-4.63197,-104.268,-0.152439,-3.35366
184.766,24.9782,-1.84416,0,-0.364043,6.82102,1.18074,4.17683,39.9085,-0.304878,-35.7097,1.61424,-4.91937,-111.28,-0.152439,-8.87195
184.776,24.4147,-2.16415,0,0.158071,7.01022,0.64426,1.25,30.7012,-8.96341,-35.8726,0.292192,-6.27016,-116.646,2.04268,-13.6585
184.786,23.8579,-2.54484,0,0.62989,7.22338,0.479004,-2.95732,31.311,-17.1646,-35.7481,-1.00112,-7.42935,-118.537,7.5,-17.0122
184.796,23.3242,-2.92498,0,1.06578,7.23775,0.692161,-8.14024,30.4268,-22.8659,-36.1983,-1.73878,-7.75507,-117.012,10.5488,-23.9939
184.806,22.8106,-3.25957,0,1.62861,7.34792,0.857417,-13.1098,21.9817,-30.3049,-35.8247,-1.69088,-7.17069,-113.293,11.2195,-28.3841
184.816,22.3605,-3.5944,0,2.83331,7.68801,1.152,-18.4146,3.93293,-40.6707,-35.1733,-0.962798,-7.25691,-109.665,11.5244,-29.4207
184.827,22.0484,-3.94133,0,4.4715,7.60658,1.33642,-21.9512,-17.9878,-48.3537,-34.838,-0.608335,-7.58263,-107.957,15.3963,-26.1585
184.836,21.8481,-4.28515,0,5.78397,7.51557,0.955613,-21.3415,-45,-52.1341,-35.0775,-0.177231,-7.79339,-107.012,19.6646,-22.1646
184.846,21.8188,-4.61659,0,7.2593,7.05333,0.208367,-13.75,-71.0061,-51.9207,-36.1983,0.426313,-8.05206,-102.713,23.0183,-15.3659
184.856,21.9023,-4.90174,0,8.65081,7.41019,-0.550855,-8.9939,-83.9634,-47.8049,-38.191,0.589175,-7.91793,-91.6159,21.0976,-5.57927
184.866,22.1135,-5.15389,0,10.0735,7.82692,-1.11608,-7.0122,-82.0427,-40.1829,-40.0687,0.474214,-7.91793,-78.8719,18.3841,4.5122
184.876,22.4893,-5.39595,0,12.4685,8.26282,-1.77231,-2.59146,-68.6281,-31.7683,-41.9368,0.0239502,-8.29156,-64.5427,16.6768,12.1341
184.887,23.0724,-5.6391,0,14.9473,8.57896,-2.31838,4.57317,-45.7012,-17.3476,-43.0481,-0.627495,-8.71308,-50.7622,18.9634,17.378
184.896,23.8429,-5.9458,0,15.9197,9.12502,-3.00335,19.3902,-21.7988,2.89634,-43.6612,-1.5376,-10.2842,-41.4634,26.25,12.1037
184.906,24.6793,-6.34377,0,14.2576,10.4183,-3.32189,32.561,-3.04878,24.1159,-42.9427,-2.33275,-12.1332,-31.8598,44.0854,3.71951
184.916,25.5016,-6.81698,0,11.0195,10.3896,-2.39741,40.7012,5.70122,38.9939,-42.1571,-2.69679,-13.6851,-22.0122,62.439,-6.82927
184.926,26.1705,-7.38625,0,7.7431,9.44835,-1.46096,44.6951,6.85976,40.0305,-41.0363,-2.09325,-15.5916,-12.2561,78.4451,-13.811
184.936,26.5321,-7.9363,0,4.93853,8.52866,-0.895737,46.4939,1.18902,28.9329,-40.9021,-0.799937,-15.5533,-3.87195,92.2866,-11.8598
184.947,26.5179,-8.4753,0,3.07521,7.98739,-0.392783,43.9939,-10.122,9.72561,-42.0518,0.0335303,-16.1664,-0.27439,104.817,-2.34756
184.956,26.0433,-8.92353,0,1.33163,7.8365,-0.665815,35.1829,-20.7927,-13.9939,-44.1019,0.866997,-15.4,-0.518293,110.183,11.25
184.966,25.0649,-9.16134,0,-0.474214,8.36341,-0.479004,25.7927,-24.0854,-40.061,-48.3746,1.13524,-12.4493,2.62195,100.396,22.4695
184.976,23.7309,-9.07292,0,-1.59269,9.94652,0.414338,7.40854,-20.8841,-66.4024,-52.6473,1.51844,-6.04982,13.1707,75.3963,36.9817
184.986,22.3063,-8.74793,0,-0.543669,12.2266,2.08367,-11.4329,-29.6341,-91.7378,-58.2229,0.129331,-0.684976,23.9024,38.811,54.6037
184.997,21.178,-8.36219,0,4.73735,15.7209,3.30034,-36.6463,-42.5915,-103.841,-62.2561,-2.35191,1.16398,39.5427,15.7927,68.2927
185.007,20.4419,-7.92411,0,10.7512,18.444,3.12071,-50.1524,-44.9695,-93.5976,-69.1155,-8.14786,3.29076,50.7317,5.18293,85.4878
185.016,20.4052,-7.52405,0,16.7987,18.08,-0.467029,-37.1037,-15.0915,-49.5732,-61.7963,-9.54655,2.46687,59.2073,21.7378,87.8049
185.026,21.1532,-7.12813,0,15.6658,13.1822,-3.3195,0.518293,36.6463,16.0976,-51.0858,-10.5525,2.40939,61.4939,45.7012,79.3598
185.037,21.8393,-6.5666,0,5.06547,8.45921,-3.21172,19.6037,62.6829,50.0915,-41.5153,-3.58774,5.34089,53.5671,56.3415,76.8598
185.046,21.256,-5.78468,0,-3.98292,6.5384,-2.82133,26.4939,78.9329,49.0244,-37.118,1.2023,8.88552,45.7012,57.2866,78.5061
185.056,19.8494,-4.89683,0,-11.077,6.01629,-0.555645,27.7439,55.2744,25.3354,-35.2116,6.11688,10.6866,15.3049,49.939,78.4451
185.066,17.9233,-4.24262,0,-15.7065,6.61025,2.2585,28.1402,-15.7317,-18.9329,-33.0848,3.83682,6.92161,-29.6037,38.9024,78.7195
185.076,15.7128,-3.60706,0,-14.0085,7.87243,1.6358,8.07927,-94.5427,-65.1829,-35.4032,10.1884,7.36229,-24.1463,-11.9512,69.9085
185.086,13.659,-3.11099,0,-6.50966,8.33467,-2.51477,-14.5427,-127.561,-99.9695,-37.6162,11.0219,5.80074,-56.7988,-31.0061,60.2744
185.096,12.1811,-2.73734,0,-0.265847,8.78972,-6.01868,-11.3415,-112.53,-119.39,-39.8579,10.4471,4.35415,-77.6829,-18.2622,53.9634
185.106,11.1567,-2.43706,0,4.45234,10.7848,-5.47262,8.62805,-72.6219,-125.457,-41.9176,7.83171,3.48236,-99.2073,-19.5122,50.3963
185.116,10.3942,-2.17111,0,7.22817,12.9882,-2.84289,18.2927,-34.0244,-114.421,-43.7666,3.23328,3.20454,-109.787,-18.3841,47.622
185.127,9.83786,-1.94351,0,6.69647,13.2229,-0.706531,12.3476,-4.20732,-90.3659,-45.309,-1.54718,2.75427,-114.207,-19.7561,40.8232
185.136,9.3516,-1.7814,0,4.43318,11.4123,-0.538879,6.18902,16.0366,-72.8659,-44.9162,-4.96727,1.6334,-118.598,-13.628,30.7012
185.147,8.78934,-1.67003,0,2.4046,10.174,-0.910107,5.18293,28.4756,-65.4268,-43.6516,-7.07489,0.752036,-111.86,-8.87195,18.872
185.156,8.07221,-1.6043,0,0.744851,9.69264,-1.00591,6.09756,32.3171,-64.2073,-40.8638,-7.58263,-0.0335303,-96.311,-7.46951,13.9329
185.166,7.0902,-1.62716,0,-1.36516,9.51781,-0.912502,5.85366,23.8415,-67.0732,-37.712,-6.47134,-1.43222,-74.8171,1.37195,11.128
185.176,5.92743,-1.68653,0,-2.51717,9.35495,-0.771196,4.5122,8.53659,-73.4451,-36.1792,-5.68578,-1.94955,-56.8598,8.47561,4.63415
185.186,4.69175,-1.74367,0,-2.61536,8.96216,-1.02507,3.47561,-11.25,-80.7927,-34.3494,-4.44995,-1.83458,-37.0427,14.5732,0.396341
185.196,3.53402,-1.75366,0,-1.55197,8.90468,-1.40827,3.65854,-27.8049,-88.3841,-34.4452,-3.30034,-1.1544,-26.4939,15.4573,-7.0122
185.206,2.61223,-1.70175,0,0.512534,8.95019,-1.75076,5.67073,-41.0671,-93.5366,-34.5218,-2.36149,-0.234712,-16.8293,10.7622,-12.2256
185.216,1.96702,-1.64177,0,2.84049,9.4723,-2.0669,7.53049,-46.0061,-94.5732,-34.8475,-2.40939,-0.0910107,-10.0915,7.53049,-18.4756
185.226,1.39505,-1.56506,0,2.87402,9.50344,-1.79147,5.67073,-52.622,-88.689,-35.1062,-1.94955,0.186812,-6.15854,1.95122,-21.1585
185.236,0.815781,-1.47625,0,2.213,9.47949,-1.51365,5.57927,-51.6463,-83.0793,-35.7385,-1.825,0.407153,-0.548781,-5.03049,-21.6159
185.247,0.259055,-1.37206,0,1.87051,9.70462,-1.27176,4.81707,-44.6646,-77.4085,-36.6869,-1.4897,0.665815,3.5061,-23.2622,-19.939
185.256,-0.289678,-1.31809,0,1.57353,9.98005,-1.29092,0.97561,-37.9878,-73.75,-37.2138,-1.23104,-0.129331,4.7561,-38.3537,-18.1098
185.266,-0.83555,-1.35756,0,1.32684,9.77168,-1.54239,-1.18902,-31.4024,-72.0732,-36.8977,-1.7771,-1.60466,5.21341,-35.4573,-18.5976
185.276,-1.34798,-1.46676,0,1.45378,9.4244,-1.91362,-1.89024,-20.5793,-71.8902,-36.5145,-1.7771,-2.68721,10.0915,-18.9329,-21.4634
185.286,-1.82991,-1.61826,0,1.55437,9.15856,-1.98547,-2.5,-10.4573,-71.5854,-36.1792,-1.99745,-3.39614,17.0427,-14.1768,-23.4756
185.296,-2.2888,-1.79573,0,1.51365,8.76817,-2.09085,-1.06707,-2.65244,-70.5488,-35.3457,-2.75427,-3.82724,26.6463,-16.189,-27.8354
185.306,-2.73024,-1.95416,0,1.49449,8.67476,-2.09325,0.97561,2.95732,-69.6646,-34.6272,-3.05125,-3.56858,37.1951,-17.6829,-33.5061
185.316,-3.17313,-2.15484,0,1.30289,8.73464,-2.1627,1.37195,6.31098,-68.0793,-33.7171,-3.28118,-4.20086,45.7927,-16.189,-36.372
185.326,-3.5891,-2.39254,0,1.37953,8.78493,-2.05732,2.43902,8.87195,-67.1341,-33.6021,-3.00335,-4.85231,53.3232,-12.0427,-37.5
185.336,-3.9784,-2.69221,0,1.39869,8.81128,-1.7795,4.32927,10.5793,-65.4573,-33.0082,-2.99377,-5.8199,54.2683,-7.9878,-35.3049
185.347,-4.33185,-2.96813,0,1.54,9.06036,-1.40109,6.18902,11.4939,-63.872,-32.9411,-2.64889,-5.6283,60.4878,-7.2561,-30.7012
185.356,-4.655,-3.23687,0,1.51605,9.30465,-1.09931,7.04268,9.84756,-60.7012,-32.5483,-2.23695,-5.6283,60.6402,-11.372,-24.2378
185.366,-4.95086,-3.53796,0,1.45617,9.46991,-1.02986,7.43902,11.372,-57.5305,-32.2992,-1.76752,-6.21268,61.189,-9.60366,-14.2073
185.376,-5.24485,-3.81115,0,1.27894,9.62558,-1.08494,7.71341,15.2134,-55.5488,-32.031,-1.65256,-5.92528,60.8841,-8.81098,-3.9939
185.386,-5.57354,-4.12668,0,0.876577,9.72378,-0.890947,7.22561,15.6098,-54.7561,-31.9256,-1.47054,-6.6821,63.2317,-8.59756,9.32927
185.396,-5.93323,-4.47479,0,0.5772,9.48667,-0.902922,5.57927,15.122,-55.1829,-32.1076,-1.43222,-7.38145,68.8719,-6.03659,21.4939
185.406,-6.33234,-4.85058,0,0.347278,9.24238,-0.919688,4.69512,13.5671,-57.2256,-32.5292,-1.31726,-8.09038,74.1463,-0.426829,32.2866
185.416,-6.80154,-5.17886,0,0.100591,9.24238,-0.929268,4.2378,5.54878,-62.0732,-33.2477,-1.0107,-7.73591,75.8537,8.5061,38.811
185.426,-7.24384,-5.45114,0,0.268242,9.67109,-0.783171,5.36585,3.38415,-62.2561,-34.5314,-0.397573,-7.33355,71.3415,13.0793,41.0366
185.436,-7.6806,-5.70206,0,0.411943,9.38129,-0.838257,3.93293,-0.823171,-64.4817,-35.3744,-0.0143701,-7.33355,66.2195,15.1829,42.2256
185.447,-8.11785,-5.91314,0,0.536484,8.95737,-0.780776,2.62195,-7.28659,-67.2866,-36.7635,0.426313,-7.12279,61.0366,13.6585,42.8963
185.456,-8.63287,-6.07134,0,0.399968,8.57177,-0.742456,-0.914634,-14.5122,-74.5732,-38.2485,1.12566,-6.66294,53.3841,5.30488,42.5305
185.466,-9.03081,-6.20494,0,1.09452,9.8076,-0.962798,1.09756,-15.0305,-71.2195,-39.4747,1.30768,-6.57672,43.689,-2.80488,41.4024
185.476,-9.33094,-6.33174,0,1.68609,10.107,-1.36756,-0.792683,-9.2378,-68.3841,-40.1932,1.52802,-6.6821,32.622,-6.52439,39.1768
185.487,-9.57446,-6.44281,0,1.81542,10.0064,-1.80824,1.40244,-10.4878,-64.8781,-40.222,1.67172,-6.47134,20.5488,-0.701219,36.4939
185.496,-9.73548,-6.49949,0,1.89686,10.2148,-1.64777,0.27439,-10.2134,-57.439,-40.3273,1.83458,-5.5804,8.38415,-0.853659,30.9146
185.506,-9.82939,-6.56006,0,2.1172,9.58247,-2.09325,-0.457317,-6.34146,-54.878,-40.1262,1.87291,-5.66662,-4.11585,-1.82927,27.3171
185.516,-9.87175,-6.66637,0,2.37586,9.54894,-2.43813,0.121951,-0.945122,-52.8963,-40.0878,1.88249,-6.5384,-13.7195,-3.81098,21.128
185.526,-9.92126,-6.87425,0,2.16989,9.68306,-2.39741,0.426829,4.60366,-50.9756,-39.8004,2.08367,-8.39694,-23.811,0.487805,16.4939
185.536,-10.0642,-7.21052,0,1.59748,9.17053,-2.33275,-1.06707,12.4695,-55,-39.7334,1.90165,-10.8973,-29.1768,5.88415,12.8963
185.546,-10.1661,-7.68073,0,1.95434,10.4758,-2.47166,3.53659,14.2683,-52.5,-39.7142,0.943638,-13.6756,-28.628,16.8598,10.9756
185.556,-10.2397,-8.28684,0,1.58071,11.2566,-1.51844,2.56098,11.4329,-44.5732,-40.0687,-0.608335,-16.8657,-23.3537,32.1951,4.81707
185.566,-10.2635,-8.98162,0,1.5879,11.0602,-1.31008,1.85976,9.08537,-40,-41.0267,-2.02619,-19.6344,-10.0915,51.9207,1.18902
185.576,-10.2575,-9.7141,0,1.74357,10.871,-1.12805,-0.731707,3.07927,-38.9329,-41.1991,-3.00335,-21.1097,3.71951,70.4573,-3.62805
185.586,-10.2195,-10.3729,0,1.8777,10.6938,-0.905317,-4.78659,-9.5122,-37.378,-41.9272,-3.90388,-20.372,14.0244,87.8963,-9.17683
185.597,-10.1493,-10.9246,0,1.97829,10.3585,-0.64426,-9.39024,-27.4695,-35.7622,-42.8373,-5.04391,-18.8967,20.3354,101.585,-13.9634
185.606,-9.97477,-11.2347,0,2.60099,10.3656,-0.555645,-14.0854,-41.3415,-31.6463,-44.9737,-5.57082,-14.8252,22.8963,103.049,-16.7378
185.616,-9.6439,-11.0829,0,3.66677,10.5165,-0.804727,-19.2378,-51.5244,-25.8232,-48.1638,-4.56491,-5.92528,18.5061,78.3232,-19.3902
185.627,-9.12726,-10.537,0,5.08223,11.0554,-0.967588,-23.2622,-54.5427,-17.3476,-53.3562,-1.42264,2.71595,-6.95122,42.5915,-20.8232
185.636,-8.4064,-9.81642,0,6.58151,11.4745,-1.03465,-26.8293,-51.128,-5.97561,-59.7557,3.40572,8.13828,-39.8171,19.6341,-28.0488
185.647,-7.45548,-9.14828,0,8.09277,11.7452,-1.04183,-30.1524,-44.1159,9.32927,-61.4706,11.2997,7.65927,-72.0427,9.42073,-33.1707
185.656,-6.26626,-8.72531,0,9.07952,11.6494,-0.467029,-33.811,-33.628,28.7195,-59.8132,19.4715,1.51844,-70.6402,-15.8841,-37.8963
185.666,-4.86234,-8.24459,0,9.19448,11.5823,1.24541,-42.8049,-22.9268,52.0122,-58.7307,16.6071,3.53026,-123.049,5.2439,-52.7744
185.676,-3.22113,-7.74828,0,8.97893,11.1776,1.55437,-57.5305,-5.12195,78.4146,-51.0283,9.81479,3.8464,-131.707,4.45122,-76.0671
185.686,-1.45184,-7.20536,0,7.38624,10.7728,2.09085,-66.3719,12.378,103.689,-41.9176,3.01293,4.36373,-120.549,-3.71951,-94.5427
185.696,0.35395,-6.52086,0,5.35287,10.4159,1.23344,-67.0122,21.6159,125.793,-37.6449,-1.19272,6.60546,-104.268,-25.8232,-102.957
185.706,2.06563,-5.87202,0,2.89797,9.9537,-0.799937,-54.878,30.7012,142.256,-37.0318,-5.26425,6.2989,-77.7744,-42.5915,-100.793
185.716,3.6338,-5.3085,0,0.857417,10.3225,-1.54958,-40.6098,31.2805,154.543,-38.67,-9.46991,5.50376,-47.8049,-52.1037,-95.2439
185.726,5.09411,-4.94897,0,-0.622705,11.4602,-2.23695,-28.4451,25.1524,162.774,-40.5477,-11.9128,2.49561,-15.7317,-50.2439,-89.5122
185.736,6.46557,-4.8749,0,-1.78189,13.6229,-2.18186,-21.4634,15.061,165.549,-42.3966,-14.0683,-2.44771,17.6524,-45.5793,-84.2378
185.747,7.74048,-4.69132,0,-2.21779,15.412,-2.4046,-21.0366,10.9756,160,-41.0842,-11.8841,-0.320933,49.1159,-42.1341,-65.1524
185.756,8.96815,-4.4017,0,-1.24541,15.8407,-2.12678,-19.6341,9.84756,150.244,-40.7489,-8.76098,1.7292,65.8537,-38.872,-41.4939
185.766,10.2177,-4.10973,0,0.826282,15.7999,-1.19511,-17.8659,5.33537,139.695,-40.2315,-5.7241,1.97829,69.3902,-31.5549,-15.8537
185.776,11.526,-3.83729,0,2.56267,15.4359,-0.735271,-14.1463,1.25,135.122,-40.7201,-2.26569,1.87291,68.689,-27.622,2.22561
185.786,12.8646,-3.55571,0,2.7902,14.3893,-1.14482,-8.65854,6.7378,137.713,-39.8962,-0.560435,2.22737,59.8171,-15.7317,11.6463
185.797,14.1633,-3.2626,0,1.84656,13.46,-1.36995,-3.75,17.6524,142.835,-39.4747,1.67172,2.61057,49.2988,-12.622,15.9451
185.806,15.3836,-3.00099,0,0.857417,13.2325,-1.69088,0.701219,25.9756,145.854,-38.3347,3.83682,2.20821,36.8598,-9.48171,19.1159
185.816,16.4889,-2.80617,0,-0.285007,13.2085,-1.61903,3.62805,28.2622,146.707,-37.7024,5.87738,1.2502,21.7378,-3.93293,23.5061
185.826,17.4789,-2.6812,0,-1.23823,12.8325,-1.59987,3.90244,26.372,145.915,-36.7156,6.81623,0.234712,7.40854,3.35366,26.2805
185.836,18.3979,-2.55002,0,-1.74836,12.1499,-1.6358,4.45122,24.3902,146.159,-35.6139,7.59221,0.359253,-4.39024,-10.7622,31.128
185.847,19.2611,-2.39029,0,-2.14354,11.3931,-1.52084,6.12805,24.6646,147.378,-35.2786,7.54431,0.866997,-16.0671,-15.3049,33.4146
185.856,20.0215,-2.27668,0,-2.80936,10.6315,-1.13763,7.77439,19.0549,147.104,-34.5793,6.99825,0.225132,-27.2256,-21.3415,33.1098
185.866,20.7029,-2.1519,0,-3.08479,10.0782,-1.02028,11.7988,10.6098,145.122,-34.2631,5.94444,0.445474,-37.5915,-26.1585,31.6159
185.876,21.3858,-2.06575,0,-2.3088,9.87946,-0.747246,16.372,5.42683,138.78,-34.0715,5.06307,-0.0718506,-43.0793,-29.2073,28.5061
185.886,22.0584,-1.99082,0,-1.44899,9.5705,-0.969983,21.1585,4.87805,129.848,-34.3398,4.11464,-0.205972,-47.9573,-34.3293,27.439
185.896,22.6581,-1.91344,0,-1.0586,9.03641,-1.08015,26.9512,7.68293,119.848,-33.9374,3.3674,-0.148491,-53.5671,-43.2317,28.2622
185.906,23.1931,-1.82334,0,-0.732876,8.72266,-1.40348,31.4024,12.7744,110.64,-33.9662,2.38065,0.0622705,-63.1707,-51.8902,31.4024
185.916,23.7267,-1.81101,0,-0.0143701,8.3658,-1.74597,34.2988,21.0061,101.982,-34.4164,0.617915,-1.07776,-75.7317,-56.8902,32.6829
185.926,24.3098,-1.85956,0,0.833467,8.1742,-1.4897,31.2195,28.6585,96.0366,-34.8092,-0.455054,-2.01661,-84.3598,-56.2805,31.4024
185.936,24.8694,-1.92262,0,1.0562,7.81734,-1.51844,30.5488,34.9695,91.0061,-35.1828,-1.31726,-2.28485,-91.0671,-53.2927,29.0549
185.947,25.2567,-2.03602,0,0.411943,7.65688,-1.49689,30.8841,40.3354,83.9939,-35.3936,-1.16398,-3.10874,-95.8232,-47.1646,26.311
185.956,25.3953,-2.15677,0,-0.500559,7.68562,-1.57832,30.5793,42.622,73.2927,-35.2116,-0.0239502,-3.24286,-98.9939,-35.6707,23.5061
185.966,25.335,-2.3219,0,-1.02267,7.72394,-1.50168,29.0244,48.2622,61.0671,-35.0391,1.1065,-3.96136,-102.561,-24.9695,21.0366
185.976,25.1803,-2.53777,0,-0.974773,7.63532,-1.03704,25,58.1402,50.7622,-34.8284,1.61424,-4.80441,-101.829,-16.3415,17.4085
185.986,25.005,-2.79197,0,-0.574805,7.25691,-0.481399,19.939,72.2256,42.7439,-34.6368,1.49928,-5.49417,-98.9024,-11.4024,12.9573
185.996,24.7785,-3.03405,0,-0.330513,6.84257,0.0311353,18.4146,86.6463,33.5671,-34.4835,1.825,-5.41753,-95.0915,-4.69512,4.57317
186.006,24.4265,-3.2923,0,-0.469424,6.90245,0.64426,18.872,94.8171,22.5915,-34.6559,1.2502,-5.81032,-94.1159,7.65244,-3.78049
186.016,24.0058,-3.51158,0,-0.397573,7.08207,0.835862,15.9756,92.5305,13.4756,-34.7038,1.25978,-5.35047,-94.3598,13.1402,-12.1646
186.026,23.5871,-3.68682,0,-0.0958008,7.03896,0.730481,12.6524,81.8293,8.2622,-35.0679,1.7771,-4.85231,-95.5793,11.9207,-16.7683
186.036,22.8747,-3.81933,0,0.0694556,7.03896,0.59157,9.78659,68.1098,3.90244,-35.4798,1.88249,-4.35415,-100.244,7.37805,-18.872
186.047,21.5686,-3.98335,0,0.64905,7.30002,0.524509,7.22561,61.4939,-2.19512,-35.6427,1.4897,-4.96727,-106.921,5.54878,-19.4512
186.056,21.2043,-4.18419,0,1.04662,7.75507,1.02746,3.32317,54.1159,-8.78049,-35.6427,0.981958,-5.66662,-114.085,4.35976,-22.1037
186.066,20.8668,-4.42377,0,1.53042,8.14307,1.5879,-4.63415,39.1159,-12.8963,-35.7768,0.253872,-6.4426,-122.195,5.21341,-26.4024
186.076,20.5844,-4.70601,0,2.06451,7.92991,1.47054,-10.2744,18.2012,-16.0061,-36.0163,-0.0239502,-7.32397,-126.951,11.4329,-33.2317
186.086,20.3696,-5.0169,0,2.60339,7.58503,1.21188,-9.35976,-1.28049,-18.5671,-35.978,-0.0431104,-7.96584,-127.043,14.6646,-38.5366
186.096,20.2271,-5.32716,0,3.26681,7.5491,1.03704,-7.5,-13.628,-20.7317,-36.4091,0.311353,-8.25324,-126.494,16.0976,-41.8902
186.106,20.1477,-5.63399,0,4.03082,7.6473,1.1065,-4.69512,-23.811,-23.5366,-36.457,0.704136,-8.42568,-122.165,12.561,-42.5
186.116,20.0861,-5.9705,0,4.64634,7.94667,1.03225,-3.62805,-36.6768,-27.0427,-36.7731,0.809517,-9.22083,-117.256,11.0976,-35.7927
186.127,20.0452,-6.29732,0,5.23072,8.07361,0.855022,-4.29878,-49.878,-30.3963,-37.3958,0.464634,-9.43159,-112.134,13.7805,-30.2744
