time,angle1,angle2,intgangle,accX1,accY1,accZ1,gyroX1,gyroY1,gyroZ1,accX2,accY2,accZ2,gyroX2,gyroY2,gyroZ2
212.134,91.6308,0.052917,0,9.8603,-0.392783,0.684976,0.0609756,-0.121951,-1.15854,-39.264,-0.531694,-0.138911,-13.9329,-2.31707,2.65244
212.144,91.6342,0.0407609,0,9.83635,-0.368833,0.64905,-0.0609756,-0.0609756,-1.28049,-39.4364,-0.493374,-0.186812,-15.7622,-3.5061,4.29878
212.154,91.6345,0.0324306,0,9.82677,-0.340093,0.732876,-0.0914634,0.213415,-1.12805,-39.3693,-0.512534,-0.119751,-15.8537,-0.945122,4.57317
212.164,91.6369,0.00853368,0,9.83395,-0.361648,0.704136,-0.152439,0.152439,-1.25,-39.4939,-0.368833,-0.397573,-15.4268,-1.15854,4.93902
212.174,91.6432,-0.00163903,0,9.82197,-0.364043,0.670605,-0.0609756,0.396341,-1.03659,-39.2256,-0.349673,-0.167651,-14.4817,0.701219,5.27439
212.184,91.6478,0.00264531,0,9.79563,-0.347278,0.718506,-0.335366,0.213415,-0.945122,-39.4747,-0.522114,0.0718506,-15.7012,-0.457317,5.36585
212.194,91.6442,-0.00406685,0,9.79803,-0.337698,0.694556,-0.365854,-0.152439,-1.37195,-39.513,-0.292192,-0.119751,-15.4878,-1.37195,5.21341
212.204,91.6468,-0.0119045,0,9.83635,-0.347278,0.701741,-0.304878,-0.426829,-1.03659,-39.5226,-0.215552,-0.148491,-14.0549,-2.68293,5.21341
212.214,91.6505,-0.0183558,0,9.85072,-0.347278,0.713716,-0.396341,-0.548781,-0.945122,-39.4268,-0.244292,-0.129331,-12.8659,-2.65244,3.75
212.224,91.6548,-0.0266592,0,9.86269,-0.368833,0.694556,-0.182927,-0.548781,-1.15854,-39.4843,-0.416733,-0.167651,-14.7866,-3.07927,4.32927
212.234,91.6569,-0.0296425,0,9.84593,-0.364043,0.675395,-0.579268,0.0914634,-1.25,-39.5418,-0.426313,-0.0910107,-13.8415,-6.03659,4.81707
212.244,91.6584,-0.0420656,0,9.85311,-0.368833,0.63947,-0.640244,-0.518293,-1.34146,-39.1777,-0.397573,-0.253872,-12.5,-5.64024,3.2622
212.254,91.6618,-0.051843,0,9.84832,-0.352068,0.627495,-0.579268,-0.243902,-1.0061,-39.216,-0.455054,-0.215552,-13.2012,-5.2439,4.66463
212.264,91.6646,-0.052192,0,9.83395,-0.371228,0.680186,-0.304878,-0.121951,-1.28049,-39.4747,-0.426313,-0.0622705,-12.9573,-6.0061,5.36585
212.274,91.6684,-0.0509502,0,9.82197,-0.373623,0.675395,-0.579268,-0.27439,-1.25,-39.4076,-0.541274,-0.0335303,-13.1098,-5.64024,4.7561
212.284,91.6692,-0.028209,0,9.83874,-0.371228,0.684976,-0.548781,-0.27439,-1.40244,-39.4747,-0.340093,0.330513,-12.5,-8.81098,5.82317
212.294,91.6724,-0.0169387,0,9.82916,-0.371228,0.63947,-0.426829,-0.457317,-1.25,-39.446,-0.282612,0.138911,-12.9573,-11.0366,5.64024
212.304,91.6679,-0.0255215,0,9.84353,-0.325723,0.673001,-0.27439,-0.609756,-1.18902,-39.4843,-0.320933,-0.196392,-14.0549,-10.3659,5.67073
212.314,91.6683,-0.0277917,0,9.88185,-0.342488,0.64426,-0.27439,-0.365854,-1.03659,-39.446,-0.311353,-0.0910107,-14.2073,-9.96951,6.03659
212.324,91.6654,-0.0116351,0,9.84832,-0.325723,0.641865,-0.518293,-0.457317,-1.06707,-39.5801,-0.387993,0.234712,-14.2378,-8.17073,7.19512
212.334,91.6621,-0.00243924,0,9.84114,-0.340093,0.627495,-0.121951,-0.396341,-1.31098,-39.513,-0.397573,0.129331,-14.2073,-6.67683,6.61585
212.344,91.663,0.00247942,0,9.8555,-0.344883,0.687371,-0.396341,-0.27439,-1.06707,-39.3693,-0.627495,0.0718506,-15.2439,-3.47561,6.92073
212.354,91.665,0.00472715,0,9.87467,-0.356858,0.720901,-0.27439,0.182927,-1.12805,-39.5897,-0.570015,0.0335303,-15.1829,-2.16463,8.2622
212.364,91.6649,0.00439729,0,9.87706,-0.332908,0.732876,-0.609756,-0.304878,-0.945122,-39.6472,-0.589175,-0.00479004,-17.3476,-0.670732,6.61585
212.374,91.6575,-0.00793604,0,9.85311,-0.301772,0.680186,-0.762195,-0.304878,-1.06707,-39.4843,-0.732876,-0.215552,-16.5854,-1.15854,7.28659
212.384,91.6531,-0.0186522,0,9.88425,-0.313748,0.65863,-0.579268,-0.518293,-1.0061,-39.5609,-0.589175,-0.196392,-17.3476,-1.18902,7.10366
212.394,91.6439,-0.0254695,0,9.89622,-0.277822,0.641865,-0.731707,-0.457317,-0.792683,-39.4651,-0.617915,-0.138911,-16.2805,-2.19512,6.61585
212.404,91.6421,-0.032605,0,9.91059,-0.292192,0.55804,-0.365854,-0.335366,-0.396341,-39.513,-0.857417,-0.148491,-17.4695,-1.95122,7.19512
212.414,91.6411,-0.0497033,0,9.85311,-0.313748,0.55325,-0.548781,-0.27439,-0.792683,-39.7046,-0.809517,-0.311353,-16.3415,3.04878,6.92073
212.424,91.6389,-0.0865937,0,9.87227,-0.306563,0.62031,-0.762195,0.0304878,-0.762195,-39.8771,-0.684976,-0.656235,-14.878,7.77439,5.94512
212.434,91.6484,-0.122643,0,9.84593,-0.364043,0.680186,-0.792683,0.426829,-0.823171,-39.8004,-0.474214,-0.646655,-13.9939,13.3537,3.78049
212.444,91.6684,-0.139906,0,9.85072,-0.435894,0.696951,-0.914634,0.579268,-1.0061,-39.628,-0.368833,-0.330513,-13.6585,16.311,2.7439
212.454,91.6865,-0.14133,0,9.81479,-0.452659,0.682581,-1.18902,0.609756,-1.25,-39.6855,0.0335303,-0.0718506,-12.5915,14.5732,1.43293
212.464,91.7099,-0.188025,0,9.82677,-0.464634,0.687371,-0.853659,0.792683,-1.06707,-38.4209,0.311353,-0.886157,-12.0427,-0.152439,1.03659
212.474,91.7304,-0.195298,0,9.80042,-0.464634,0.66821,-0.945122,0.853659,-1.18902,-39.446,0.426313,-0.273032,-10.7622,-5.03049,0.487805
212.484,91.7541,-0.201707,0,9.78366,-0.490979,0.66821,-0.853659,0.640244,-1.25,-39.3693,0.368833,-0.263452,-9.72561,-5.30488,0.457317
212.494,91.7737,-0.198646,0,9.7621,-0.452659,0.682581,-0.243902,0.0914634,-1.09756,-39.4843,0.205972,-0.100591,-11.3415,-4.35976,-0.304878
212.504,91.7874,-0.211646,0,9.73336,-0.464634,0.692161,-0.121951,-0.487805,-1.4939,-39.4076,0.0143701,-0.378413,-11.25,-4.69512,1.21951
212.514,91.7983,-0.219352,0,9.74773,-0.462239,0.687371,-0.182927,-0.792683,-1.58537,-39.4364,-0.0239502,-0.292192,-13.1707,-3.68902,2.40854
212.524,91.8026,-0.203308,0,9.78605,-0.438289,0.656235,0,-0.701219,-1.70732,-39.4268,-0.129331,0.119751,-13.1402,-2.37805,2.56098
212.534,91.8045,-0.201024,0,9.80281,-0.428708,0.661025,-0.0914634,-1.0061,-1.7378,-39.3502,-0.320933,-0.110171,-15.4268,-2.9878,3.47561
212.544,91.8017,-0.190085,0,9.82197,-0.399968,0.65863,0.0609756,-0.853659,-1.7378,-39.3023,-0.158071,0.0431104,-15.3049,-2.5,5.06098
212.554,91.7921,-0.17565,0,9.84114,-0.359253,0.680186,0.121951,-0.945122,-1.76829,-39.4268,-0.0910107,0.110171,-15.5488,-2.89634,4.08537
212.564,91.7847,-0.170071,0,9.87227,-0.366438,0.66342,0,-1.28049,-1.67683,-39.4843,-0.397573,-0.0335303,-15.122,-2.80488,2.13415
212.574,91.7654,-0.162721,0,9.88185,-0.292192,0.632285,0.27439,-1.03659,-1.7378,-39.4939,-0.502954,-0.00479004,-14.2683,-4.54268,1.67683
212.584,91.7512,-0.133748,0,9.87706,-0.330513,0.646655,0.304878,-0.945122,-1.85976,-39.513,-0.359253,0.368833,-12.9573,-6.89024,2.53049
212.594,91.7359,-0.1164,0,9.8579,-0.313748,0.60594,0.27439,-1.06707,-1.76829,-39.6759,-0.579595,0.186812,-12.9878,-6.98171,1.52439
212.604,91.7214,-0.0931585,0,9.86988,-0.292192,0.613125,0.0609756,-0.670732,-1.37195,-39.5226,-0.368833,0.301772,-13.5976,-6.67683,0.670732
212.614,91.7077,-0.0684417,0,9.87946,-0.289797,0.627495,0.243902,-0.548781,-1.28049,-39.6088,-0.531694,0.349673,-15.122,-5.09146,1.52439
212.624,91.695,-0.066112,0,9.88904,-0.289797,0.617915,0.0914634,-0.335366,-1.21951,-39.5897,-0.608335,-0.0239502,-15.0915,-5.06098,0.853659
212.634,91.683,-0.0563272,0,9.90101,-0.292192,0.60115,0,-0.487805,-1.21951,-39.6376,-0.531694,0.110171,-13.5671,-4.39024,1.18902
212.644,91.6757,-0.0572645,0,9.8603,-0.308958,0.632285,-0.152439,-0.121951,-1.12805,-39.3598,-0.637075,-0.0718506,-13.2622,-4.96951,1.18902
212.655,91.67,-0.0677732,0,9.86988,-0.323328,0.661025,-0.0914634,-0.365854,-1.21951,-39.3789,-0.694556,-0.234712,-13.0793,-3.81098,0.609756
212.665,91.6703,-0.0851906,0,9.84832,-0.325723,0.62989,-0.0609756,-0.548781,-0.823171,-39.4939,-0.656235,-0.368833,-12.6829,-5.54878,0.670732
212.674,91.6737,-0.112652,0,9.87227,-0.340093,0.62031,-0.0914634,-0.457317,-0.792683,-39.446,-0.656235,-0.560435,-12.7744,-7.13415,0.823171
212.684,91.6861,-0.11977,0,9.8603,-0.359253,0.62989,-0.152439,-0.213415,-0.518293,-39.3981,-0.732876,-0.225132,-13.2927,-7.07317,0.945122
212.694,91.6942,-0.117922,0,9.82677,-0.366438,0.632285,-0.152439,-0.0609756,-0.853659,-39.513,-0.646655,-0.0718506,-13.2927,-6.28049,2.65244
212.704,91.7077,-0.112113,0,9.84593,-0.373623,0.65384,-0.396341,0.0609756,-0.609756,-39.2352,-0.579595,-0.00479004,-13.811,-7.22561,2.7439
212.714,91.7285,-0.119889,0,9.80281,-0.431104,0.637075,0,0.0914634,-0.884146,-39.3598,-0.608335,-0.234712,-14.7866,-6.70732,2.68293
212.724,91.7385,-0.141985,0,9.80521,-0.397573,0.641865,-0.518293,0.0609756,-1.03659,-39.1298,-0.656235,-0.483794,-15.6402,-6.15854,2.53049
212.734,91.7488,-0.149976,0,9.80042,-0.399968,0.617915,-0.396341,0.0914634,-1.03659,-39.1969,-0.704136,-0.253872,-16.3415,-5.51829,3.29268
212.744,91.7625,-0.138766,0,9.82197,-0.411943,0.627495,-0.0914634,-0.457317,-0.945122,-39.4172,-0.627495,0.0718506,-15.3049,-5.79268,4.02439
212.754,91.7777,-0.152073,0,9.84114,-0.414338,0.641865,-0.0304878,-0.457317,-0.853659,-39.4843,-0.780776,-0.349673,-16.2805,-6.58537,4.08537
212.764,91.789,-0.162797,0,9.8603,-0.414338,0.64426,-0.213415,-0.152439,-1.0061,-39.5705,-0.502954,-0.311353,-15.6098,-5.64024,4.96951
212.774,91.7963,-0.17504,0,9.83156,-0.385598,0.61552,-0.27439,-0.365854,-0.914634,-39.5418,-0.617915,-0.349673,-17.5,-7.0122,5.70122
212.784,91.799,-0.180173,0,9.82677,-0.364043,0.62989,-0.152439,-0.121951,-0.914634,-39.3981,-0.445474,-0.234712,-19.0549,-7.40854,5.36585
212.794,91.7971,-0.180089,0,9.83874,-0.359253,0.661025,-0.0914634,0.0304878,-1.15854,-39.4843,-0.512534,-0.148491,-17.3171,-7.56098,6.52439
212.804,91.7988,-0.158982,0,9.82916,-0.390388,0.696951,-0.243902,0.0609756,-1.31098,-39.6184,-0.656235,0.215552,-18.872,-8.32317,8.5061
212.814,91.7954,-0.1522,0,9.83156,-0.361648,0.656235,-0.182927,-0.213415,-1.31098,-39.5993,-0.637075,-0.0239502,-17.9268,-9.48171,8.14024
212.824,91.7953,-0.142477,0,9.83635,-0.364043,0.682581,-0.0914634,-0.27439,-1.09756,-39.7238,-0.522114,0.0335303,-17.2561,-9.08537,7.0122
212.834,91.7955,-0.144363,0,9.82197,-0.366438,0.60115,-0.0914634,0,-1.12805,-39.6663,-0.474214,-0.167651,-17.1037,-10.5183,7.28659
212.844,91.7913,-0.144287,0,9.86509,-0.349673,0.58678,-0.0914634,-0.27439,-1.18902,-39.6567,-0.646655,-0.138911,-17.561,-11.7683,6.89024
212.854,91.7781,-0.14405,0,9.89143,-0.313748,0.651445,-0.0609756,-0.152439,-1.43293,-39.5226,-0.531694,-0.138911,-17.4695,-12.7439,7.07317
212.864,91.7794,-0.142185,0,9.87467,-0.359253,0.613125,-0.0609756,0,-0.945122,-39.743,-0.359253,-0.110171,-17.7744,-12.5,6.61585
212.874,91.7761,-0.126583,0,9.83156,-0.330513,0.63947,0,0.213415,-0.884146,-39.6088,-0.483794,0.129331,-18.1707,-13.0793,6.03659
212.884,91.7752,-0.126154,0,9.81958,-0.344883,0.651445,-0.27439,0.365854,-0.945122,-39.5993,-0.522114,-0.129331,-18.2622,-14.4207,6.37195
212.894,91.7821,-0.119706,0,9.82677,-0.380808,0.682581,-0.121951,0.213415,-0.914634,-39.6088,-0.387993,-0.00479004,-20.0915,-8.81098,7.53049
212.904,91.7969,-0.132252,0,9.84353,-0.402363,0.670605,-0.152439,0.121951,-0.701219,-39.6951,-0.483794,-0.292192,-18.1098,2.9878,5.97561
212.914,91.7968,-0.126827,0,9.8555,-0.354463,0.680186,0.0914634,-0.0914634,-0.945122,-39.7238,-0.502954,0.0143701,-18.1707,3.23171,5.70122
212.924,91.8057,-0.129306,0,9.84832,-0.380808,0.641865,0.0609756,-0.27439,-0.731707,-39.6663,-0.541274,-0.119751,-19.2683,3.32317,5.39634
212.934,91.8123,-0.130892,0,9.82197,-0.364043,0.62989,-0.0914634,-0.152439,-0.640244,-39.6184,-0.273032,-0.0910107,-18.4451,7.62195,4.96951
212.944,91.8142,-0.13185,0,9.85072,-0.354463,0.689766,-0.304878,0.0304878,-0.762195,-39.6088,-0.445474,-0.0718506,-18.2317,10.3354,5.18293
212.954,91.8214,-0.123371,0,9.80281,-0.397573,0.65384,-0.182927,-0.426829,-1.03659,-39.7046,-0.253872,0.0718506,-18.5366,4.32927,5.7622
212.964,91.8319,-0.150758,0,9.81,-0.402363,0.665815,-0.27439,-0.0914634,-0.884146,-39.2927,-0.177231,-0.531694,-18.5976,8.01829,5.36585
212.974,91.829,-0.131491,0,9.83395,-0.347278,0.661025,-0.152439,-0.182927,-0.97561,-39.7813,-0.311353,0.234712,-15.7317,0.457317,5.54878
212.984,91.8469,-0.128826,0,9.82197,-0.419128,0.684976,0,-0.548781,-0.670732,-39.8867,-0.790356,-0.0431104,-14.1159,0.457317,5.70122
212.994,91.8529,-0.127835,0,9.83874,-0.380808,0.692161,-0.0914634,-0.243902,-0.792683,-39.4268,-0.340093,-0.0718506,-17.0427,-0.121951,5.42683
213.004,91.8566,-0.146366,0,9.82916,-0.354463,0.692161,-0.121951,-0.518293,-0.548781,-39.81,-0.435894,-0.464634,-6.21951,-14.7256,5.94512
213.014,91.8551,-0.163112,0,9.78844,-0.323328,0.65863,-0.0914634,-0.914634,-0.335366,-39.5705,0.311353,-0.445474,-16.1585,-15.3049,5.94512
213.024,91.8606,-0.183415,0,9.81,-0.347278,0.677791,-0.152439,-1.03659,-0.304878,-39.6184,-1.04902,-0.474214,-10.3049,-2.0122,5.36585
213.034,91.8537,-0.148348,0,9.81479,-0.301772,0.706531,-0.121951,-1.0061,-0.182927,-40.701,-0.665815,0.455054,-3.68902,-12.439,5.42683
213.044,91.8619,-0.162369,0,9.84593,-0.352068,0.651445,-0.335366,-1.03659,-0.182927,-39.5993,-0.646655,-0.359253,-17.3476,-3.5061,5.15244
213.054,91.8558,-0.134654,0,9.88425,-0.304167,0.66342,-0.579268,-1.03659,-0.0914634,-40.0016,-0.914897,0.349673,-7.62195,-7.40854,5.30488
213.064,91.8687,-0.106486,0,9.88664,-0.397573,0.661025,-1.0061,-0.97561,-0.548781,-39.7621,-0.0335303,0.320933,-15.8537,-23.0793,6.52439
213.074,91.8753,-0.120863,0,9.8555,-0.392783,0.651445,-0.884146,-0.731707,-0.853659,-39.034,-1.02986,-0.368833,-12.2866,-14.5122,6.0061
213.084,91.8884,-0.0929157,0,9.80042,-0.440684,0.64426,-1.28049,-0.426829,-1.06707,-40.5381,-0.646655,0.320933,1.67683,-26.5244,7.10366
213.094,91.9093,-0.113307,0,9.75491,-0.495769,0.680186,-1.31098,-0.518293,-1.21951,-39.4747,-1.47054,-0.407153,-11.189,3.41463,6.15854
213.104,91.914,-0.111085,0,9.77647,-0.536484,0.646655,-1.70732,-0.518293,-2.46951,-39.992,-0.752036,-0.0910107,-7.62195,-14.7866,4.90854
213.114,91.9158,-0.0826911,0,9.82437,-0.541274,0.677791,-1.7378,-0.640244,-2.68293,-40.883,0.100591,0.340093,-6.09756,-26.128,5.79268
213.124,91.8972,-0.125716,0,9.80521,-0.426313,0.63947,-1.7378,-0.914634,-3.17073,-39.3789,-0.177231,-0.857417,-11.5854,-15.7927,5.91463
213.134,91.8739,-0.113562,0,9.79803,-0.368833,0.661025,-1.85976,-0.97561,-2.95732,-40.6914,-0.330513,0.0814307,-13.4146,-13.4451,5.27439
213.144,91.8525,-0.107454,0,9.87227,-0.397573,0.637075,-1.76829,-0.914634,-3.14024,-40.2603,-0.0335303,-0.0143701,-15.7317,-12.3476,5.94512
213.154,91.8342,-0.0551996,0,9.87227,-0.397573,0.627495,-1.4939,-1.21951,-2.89634,-40.7776,0.0814307,0.799937,-19.8171,-17.8354,4.54268
213.164,91.8106,-0.0213194,0,9.84593,-0.323328,0.677791,-1.55488,-1.15854,-2.53049,-40.5668,-0.397573,0.512534,-14.3902,-15.4573,5.21341
213.174,91.7869,-0.0061937,0,9.83395,-0.296982,0.694556,-1.82927,-1.55488,-2.22561,-40.3944,-0.282612,0.186812,-20.9146,-19.3293,4.66463
213.184,91.7676,0.00303054,0,9.76689,-0.332908,0.692161,-1.98171,-1.28049,-2.37805,-39.5609,-0.0143701,0.0718506,-21.8293,-24.7866,5.12195
213.194,91.7445,-0.00693477,0,9.79084,-0.294587,0.687371,-2.10366,-1.52439,-2.2561,-38.8328,-0.330513,-0.244292,-19.0549,-22.5915,5.30488
213.204,91.7245,0.0138391,0,9.73336,-0.289797,0.723296,-2.59146,-2.07317,-1.95122,-39.6472,-0.723296,0.282612,-17.1951,-22.0732,5.39634
213.214,91.7148,0.0517635,0,9.77407,-0.332908,0.706531,-2.2561,-2.40854,-1.64634,-40.4806,-0.665815,0.627495,-17.5,-16.8598,4.57317
213.224,91.7263,0.0915516,0,9.78366,-0.421523,0.692161,-2.07317,-2.65244,-1.25,-40.2603,-0.407153,0.627495,-14.7561,-33.0488,5.12195
213.234,91.7314,0.121046,0,9.88904,-0.383203,0.64905,-1.25,-2.40854,-1.09756,-40.7584,-0.541274,0.435894,-13.0183,-45.1829,4.29878
213.244,91.7382,0.127832,0,9.90341,-0.366438,0.58199,-1.4939,-2.07317,-0.762195,-40.1645,-1.06818,0.0814307,-11.4024,-35.6098,1.76829
213.254,91.7261,0.126044,0,9.87706,-0.268242,0.498164,-1.06707,-1.92073,-0.426829,-38.8041,0.464634,-0.177231,-22.8354,-69.5732,0.97561
213.264,91.7259,0.115697,0,9.85311,-0.308958,0.5772,-1.64634,-1.76829,-0.365854,-38.0952,0.608335,-0.311353,-12.439,-67.2866,-0.670732
213.274,91.7498,0.174106,0,9.82677,-0.481399,0.59157,-2.2561,-1.4939,-1.12805,-40.0016,-0.263452,0.866997,-25.9756,-70.5183,-1.55488
213.284,91.7726,0.231299,0,9.91538,-0.538879,0.550855,-2.40854,-0.670732,-1.52439,-40.1166,-0.493374,0.886157,-9.26829,-71.311,-0.182927
213.294,91.7934,0.3194,0,9.97047,-0.656235,0.474214,-2.5,0.304878,-2.5,-40.1453,-0.387993,1.41306,-9.63415,-88.9329,-0.518293
213.304,91.7991,0.324345,0,9.93933,-0.593965,0.419128,-2.53049,0.945122,-3.01829,-38.2006,-0.847837,0.0718506,-10.4268,-67.9878,-1.21951
213.314,91.7895,0.399676,0,9.80042,-0.510139,0.356858,-1.7378,0.823171,-3.53659,-39.3406,-0.646655,1.31726,-10.4573,-62.4085,-1.18902
213.324,91.7763,0.507266,0,9.8579,-0.510139,0.330513,-1.64634,0.426829,-3.84146,-39.5705,-0.684976,1.92081,-11.4024,-68.2012,-2.77439
213.334,91.7559,0.568458,0,9.8555,-0.467029,0.349673,-1.52439,0.213415,-4.05488,-39.8388,-0.713716,1.18314,-12.4695,-71.0061,-2.77439
213.344,91.7282,0.569019,0,9.83874,-0.383203,0.344883,-1.21951,0.243902,-3.84146,-40.0112,-0.857417,0.167651,-14.9695,-69.2073,-1.76829
213.354,91.6959,0.607524,0,9.8603,-0.352068,0.407153,-0.97561,0.396341,-3.96341,-40.1453,-0.455054,0.828677,-16.9817,-72.5,-0.243902
213.364,91.6646,0.665916,0,9.85072,-0.328118,0.440684,-0.884146,0.823171,-3.65854,-40.1549,-1.04902,1.19272,-11.7378,-76.9207,0.365854
213.374,91.6386,0.734084,0,9.92736,-0.352068,0.414338,-0.518293,1.64634,-3.44512,-39.9346,-0.866997,1.40348,-8.14024,-75.6707,1.89024
213.384,91.6162,0.80453,0,9.93454,-0.390388,0.471819,-0.518293,2.62195,-3.59756,-39.9633,-0.704136,1.54718,-8.2622,-59.7866,4.93902
213.394,91.5945,0.892351,0,9.9537,-0.354463,0.488584,-0.213415,3.20122,-3.14024,-39.4747,-0.799937,1.91123,-9.32927,-50.5793,5.45732
213.404,91.5871,1.00749,0,9.97286,-0.464634,0.498164,0.121951,2.92683,-3.10976,-39.5897,-1.04902,2.43813,-9.14634,-55.7012,6.92073
213.414,91.5592,1.13463,0,10.0232,-0.318538,0.440684,0.457317,2.56098,-3.35366,-39.6376,-0.761616,2.67763,-11.2805,-71.4329,6.25
213.424,91.5288,1.27008,0,9.88425,-0.316143,0.510139,0.670732,1.37195,-3.68902,-38.8424,-0.761616,2.83091,-12.3476,-78.1098,4.84756
213.434,91.5043,1.38613,0,9.87467,-0.387993,0.488584,0.609756,1.52439,-4.02439,-38.4975,-0.819097,2.58183,-12.3476,-73.5061,3.9939
213.444,91.481,1.48965,0,9.88425,-0.402363,0.550855,0.213415,2.22561,-4.11585,-38.258,-0.847837,2.44771,-9.78659,-68.5976,2.62195
213.454,91.4462,1.56337,0,9.90341,-0.289797,0.502954,0.335366,3.20122,-3.96341,-38.4209,-0.732876,2.03577,-7.59146,-64.3293,1.92073
213.464,91.4153,1.62449,0,9.82437,-0.282612,0.534089,0.152439,4.66463,-3.59756,-39.0053,-0.455054,1.91123,-6.40244,-60.9146,0.487805
213.474,91.3821,1.69831,0,9.78844,-0.253872,0.65863,-0.213415,5.30488,-3.53659,-39.3789,-0.359253,2.18905,-5.36585,-62.0122,0.701219
213.484,91.3545,1.8374,0,9.78844,-0.282612,0.723296,-0.27439,5.51829,-3.41463,-40.1645,-0.0526904,3.4153,-6.18902,-70.7622,1.06707
213.494,91.3292,1.98157,0,9.71899,-0.304167,0.816702,0.0304878,4.66463,-3.53659,-40.4231,0.129331,3.61648,-7.22561,-73.8719,0.213415
213.504,91.3115,2.12363,0,9.73096,-0.387993,0.797541,0.182927,3.56707,-3.84146,-40.0304,-0.0335303,3.64522,-8.35366,-73.9634,1.12805
213.514,91.297,2.28153,0,9.76689,-0.426313,0.744851,0.914634,2.22561,-3.9939,-39.446,-0.167651,3.98052,-12.378,-70.4268,1.55488
213.524,91.2775,2.46431,0,9.80042,-0.433499,0.742456,1.40244,1.4939,-4.57317,-39.1107,-0.244292,4.50743,-14.2988,-65.2439,3.29268
213.534,91.2487,2.61501,0,9.88904,-0.328118,0.608335,1.85976,1.18902,-4.2378,-39.1777,-0.550855,4.10506,-15.6098,-58.2622,4.93902
213.544,91.2066,2.73582,0,9.91299,-0.213157,0.593965,1.89024,0.884146,-4.26829,-39.1969,-0.723296,3.7027,-14.5122,-54.3902,6.28049
213.554,91.1585,2.8316,0,9.88185,-0.158071,0.62031,2.04268,1.37195,-4.29878,-39.1969,-1.07776,3.34824,-13.7195,-55,7.40854
213.564,91.1113,2.89653,0,9.85311,-0.189207,0.706531,1.70732,1.46341,-4.69512,-39.1969,-1.33642,2.85007,-14.2073,-63.1098,8.9939
213.574,91.066,3.01983,0,9.81719,-0.198787,0.761616,1.61585,1.52439,-4.72561,-39.6184,-1.4897,3.92304,-13.9634,-71.7683,9.66463
213.584,91.0252,3.13827,0,9.81958,-0.241897,0.725691,1.43293,1.43293,-4.87805,-39.9729,-1.42264,3.93262,-12.561,-79.1768,10.8841
213.594,90.9864,3.26475,0,9.81,-0.256267,0.740061,1.28049,1.55488,-4.93902,-40.0974,-1.50886,4.15296,-10,-84.6951,13.4451
213.604,90.9468,3.39652,0,9.8579,-0.241897,0.725691,1.31098,1.34146,-4.90854,-39.992,-1.14482,4.30625,-10.1524,-90.1829,14.6341
213.614,90.9074,3.55745,0,9.93933,-0.215552,0.63468,1.31098,1.31098,-4.63415,-40.0208,-0.876577,4.91937,-10.5183,-91.4634,14.1768
213.624,90.8716,3.68249,0,9.87227,-0.193997,0.65384,1.28049,0.97561,-4.11585,-39.7142,-0.560435,4.37331,-12.2256,-87.1037,11.4939
213.634,90.8321,3.74312,0,9.79803,-0.160466,0.62989,0.670732,0.853659,-4.17683,-39.5226,-0.416733,3.3195,-9.14634,-83.3537,7.04268
213.644,90.7847,3.84993,0,9.72138,-0.105381,0.641865,0.0304878,0.670732,-4.39024,-39.3023,-0.0431104,4.14338,-4.69512,-85.3049,1.95122
213.654,90.7451,4.04705,0,9.68785,-0.165256,0.64426,-0.731707,0.487805,-4.45122,-39.5993,0.00479004,5.8199,-4.66463,-94.3293,-3.20122
213.664,90.7066,4.24542,0,9.70462,-0.153281,0.689766,-1.85976,1.7378,-4.26829,-39.9537,-0.0718506,5.99234,-6.64634,-106.372,-9.2378
213.674,90.675,4.4676,0,9.75252,-0.227527,0.716111,-2.19512,2.46951,-4.54268,-39.81,-0.100591,6.50966,-13.7195,-115.03,-16.7073
213.684,90.6524,4.63261,0,9.83156,-0.292192,0.696951,-1.79878,2.9878,-4.45122,-38.9957,-0.0335303,5.50376,-24.0549,-121.433,-19.3598
213.694,90.6338,4.77782,0,9.9058,-0.356858,0.761616,-1.61585,2.62195,-4.81707,-38.9574,-0.330513,5.28341,-25.061,-116.402,-17.7744
213.704,90.6051,4.94288,0,9.95131,-0.289797,0.790356,-1.18902,1.76829,-5.06098,-38.6796,-0.924478,5.65704,-23.1098,-126.341,-14.0244
213.714,90.5756,5.03875,0,9.9058,-0.347278,0.730481,-1.12805,0.823171,-5.88415,-38.0377,-1.2981,4.49785,-18.689,-125.305,-8.65854
213.724,90.5377,5.10441,0,9.85311,-0.311353,0.720901,-0.518293,0.365854,-6.40244,-38.0856,-1.38432,4.06674,-15.4268,-121.585,-1.61585
213.734,90.4891,5.2261,0,9.76449,-0.232317,0.704136,-0.609756,0.670732,-6.64634,-38.6029,-1.35558,5.12055,-7.34756,-125.579,2.71341
213.744,90.4349,5.4263,0,9.74054,-0.198787,0.775986,-1.06707,1.58537,-6.92073,-38.8903,-1.04902,6.59588,-4.14634,-132.47,5.27439
213.754,90.375,5.68676,0,9.74533,-0.105381,0.713716,-0.731707,2.89634,-6.4939,-39.8196,-0.646655,7.95625,-5.54878,-142.287,6.79878
213.764,90.3164,5.91833,0,9.80281,-0.0766406,0.752036,-0.518293,2.34756,-6.12805,-40.1549,-0.493374,7.66885,-3.9939,-145.945,5.88415
213.774,90.2635,6.14864,0,9.78844,-0.117356,0.833467,-0.365854,1.52439,-6.15854,-40.3752,-0.00479004,7.85087,-5.57927,-147.561,3.90244
213.784,90.2104,6.37261,0,9.78605,-0.124541,0.876577,-0.0609756,-0.335366,-6.37195,-39.6376,-0.0335303,7.76465,-6.09756,-145.671,0.487805
213.794,90.1599,6.56338,0,9.83156,-0.174836,0.878972,0.304878,-1.55488,-6.79878,-39.0149,0.0622705,7.23775,-10.122,-137.5,-3.20122
213.804,90.1056,6.7181,0,9.86269,-0.150886,0.766406,0.0914634,-2.43902,-7.0122,-38.3443,-0.330513,6.6342,-13.2622,-132.226,-5.18293
213.814,90.0465,6.9012,0,9.90101,-0.126936,0.780776,0,-2.5,-7.31707,-37.7886,-0.665815,7.12279,-16.372,-134.817,-3.56707
213.824,89.9853,7.16807,0,9.98244,-0.0766406,0.680186,0.0304878,-2.07317,-7.04268,-37.8844,-0.972378,8.68434,-18.9329,-147.378,-2.89634
213.834,89.9249,7.45565,0,9.91778,-0.0790356,0.656235,0.304878,-0.97561,-7.13415,-38.1814,-1.07776,9.26873,-19.1159,-158.659,0.609756
213.844,89.8709,7.71477,0,9.92736,-0.0838257,0.60115,0.121951,0.0304878,-6.64634,-38.7083,-0.799937,9.06754,-23.4146,-164.665,2.22561
213.855,89.8196,7.97786,0,10.0112,-0.0766406,0.637075,0.792683,1.67683,-6.40244,-38.5071,-0.905317,9.27831,-21.128,-163.933,5.88415
213.865,89.7654,8.25177,0,9.65911,-0.0335303,0.65384,0.853659,1.21951,-6.31098,-38.0664,-0.550855,9.54655,-18.5671,-164.909,9.2378
213.874,89.7149,8.53519,0,9.7118,-0.0694556,0.687371,1.12805,0.121951,-6.46341,-37.779,-0.129331,9.83395,-16.5549,-165.335,10.8841
213.884,89.6686,8.8163,0,9.77647,-0.0958008,0.670605,1.09756,0.243902,-6.46341,-37.4054,-0.205972,9.89143,-15.5488,-166.006,12.1646
213.894,89.6131,9.02497,0,9.78844,-0.0407153,0.730481,0.914634,0.0914634,-6.82927,-36.936,-0.646655,8.71308,-12.0732,-164.207,9.84756
213.904,89.5471,9.22602,0,9.73575,0.0167651,0.754431,0.152439,-0.27439,-7.31707,-36.9743,-1.08734,8.74182,-12.5305,-161.585,6.58537
213.914,89.4893,9.40906,0,9.89383,-0.0287402,0.720901,-0.27439,-0.701219,-7.16463,-36.7827,-1.60466,8.53106,-10.9756,-159.695,3.5061
213.924,89.4272,9.64437,0,9.88664,-0.00479004,0.682581,-0.304878,-0.213415,-7.43902,-37.415,-1.93997,9.71899,-11.25,-159.573,0.182927
213.934,89.3645,9.95195,0,9.94891,-0.00479004,0.61073,0.0609756,0.762195,-7.62195,-38.0281,-2.21779,11.338,-12.2256,-163.567,-3.47561
213.944,89.2979,10.2872,0,9.9537,0.0431104,0.632285,0.426829,1.46341,-7.59146,-38.4209,-2.20821,12.1715,-14.3598,-169.695,-6.0061
213.954,89.236,10.6191,0,9.92975,0.0263452,0.62031,0.548781,1.92073,-7.43902,-38.2389,-1.825,12.296,-14.6951,-170.579,-7.40854
213.964,89.1662,10.9569,0,9.94652,0.0981958,0.63947,0.548781,2.77439,-7.53049,-37.6353,-1.19272,12.4589,-12.622,-167.805,-5.64024
213.974,89.0998,11.3005,0,9.94891,0.0574805,0.675395,0.365854,3.38415,-7.80488,-37.1372,-0.608335,12.6505,-10.5183,-166.341,-2.5
213.984,89.0313,11.6638,0,9.95849,0.141306,0.61073,0.731707,3.5061,-7.16463,-36.8785,-0.263452,13.1678,-9.60366,-166.646,-1.34146
213.995,88.9668,11.9984,0,9.92496,0.138911,0.673001,0.182927,3.53659,-6.92073,-36.3899,-0.426313,12.7367,-8.62805,-166.159,0.518293
214.004,88.9037,12.3261,0,9.86269,0.119751,0.730481,-0.335366,3.2622,-7.13415,-36.0259,-0.608335,12.7367,-6.09756,-162.348,0.518293
214.014,88.8479,12.6499,0,9.82916,0.107776,0.720901,-0.518293,2.83537,-6.64634,-35.7576,-0.742456,12.8134,-3.38415,-159.39,-0.670732
214.024,88.7963,12.9744,0,9.73096,0.0479004,0.744851,-0.762195,3.07927,-7.04268,-35.4319,-0.761616,12.9475,-3.29268,-155.671,-0.853659
214.034,88.7359,13.3211,0,9.66869,0.0981958,0.761616,-0.884146,2.7439,-7.43902,-35.3265,-0.991538,13.5319,-3.23171,-155.64,-2.86585
214.044,88.6826,13.6824,0,9.69504,0.0479004,0.744851,-0.731707,3.10976,-7.43902,-35.566,-1.02986,14.1354,-5.82317,-155.732,-4.66463
214.054,88.6232,14.0435,0,9.69743,0.122146,0.735271,-0.121951,2.92683,-7.28659,-35.4128,-1.07776,14.327,-6.85976,-156.433,-6.52439
214.064,88.564,14.4121,0,9.78366,0.191602,0.838257,0.304878,2.59146,-6.55488,-35.3457,-0.953218,14.7006,-6.64634,-155.274,-5.91463
214.074,88.5137,14.8131,0,9.86269,0.182021,0.795146,0.487805,2.07317,-5.91463,-35.1541,-0.905317,15.4766,-9.72561,-156.646,-5.54878
214.084,88.4663,15.2176,0,9.82437,0.131726,0.871787,0.121951,1.46341,-6.31098,-34.9146,-0.847837,15.7353,-9.5122,-155.091,-3.56707
214.094,88.4235,15.6381,0,9.78605,0.0431104,0.919688,-0.640244,0.579268,-6.98171,-34.8092,-0.819097,16.2813,-9.32927,-155.396,-1.89024
214.104,88.3806,16.0345,0,9.72378,-0.00958008,0.828677,-0.365854,0.579268,-7.71341,-34.6368,-0.809517,16.0706,-8.53659,-153.628,0.518293
214.114,88.3308,16.407,0,9.80281,0.0670605,0.826282,0.152439,0.335366,-7.59146,-34.2631,-0.570015,15.7544,-9.69512,-151.098,2.37805
214.124,88.2711,16.7726,0,9.84353,0.158071,0.790356,-0.152439,0.914634,-7.62195,-33.9087,-0.713716,15.7449,-10.0305,-147.5,2.89634
214.134,88.205,17.1842,0,9.9537,0.246687,0.795146,0.243902,0.853659,-7.37805,-33.8895,-0.809517,16.8561,-9.14634,-146.189,4.32927
214.144,88.1364,17.5805,0,9.93933,0.263452,0.843047,-0.243902,1.0061,-7.56098,-34.0907,-1.08734,16.9807,-7.65244,-144.146,5.21341
214.154,88.0618,17.9851,0,9.67109,0.213157,0.852627,-0.853659,0.701219,-8.84146,-34.3781,-1.11608,17.5938,-6.67683,-140.335,5.7622
214.164,87.9837,18.383,0,9.70222,0.263452,0.866997,-0.640244,0.396341,-8.75,-34.1386,-1.16398,17.6513,-5.91463,-139.939,6.12805
214.174,87.8989,18.7928,0,9.80521,0.340093,0.819097,0.0304878,0.182927,-8.71951,-33.5734,-1.24062,17.8908,-4.17683,-136.921,5.39634
214.184,87.8005,19.1783,0,9.94652,0.505349,0.922083,0.670732,1.40244,-8.38415,-33.5734,-1.346,17.7567,-2.04268,-132.256,3.56707
214.194,87.7229,19.5716,0,10.5357,0.407153,0.972378,-0.213415,2.0122,-7.89634,-33.2764,-1.56634,18.0441,0.97561,-129.482,0.640244
214.204,87.6356,19.9466,0,9.83156,0.452659,0.883762,-0.243902,1.46341,-8.17073,-33.1231,-1.73878,17.9291,2.07317,-124.146,-1.34146
214.214,87.5458,20.322,0,9.8124,0.445474,0.756826,-0.457317,1.79878,-8.68902,-33.0561,-2.00703,18.2069,5.27439,-117.805,-1.34146
214.224,87.4624,20.7264,0,9.92017,0.467029,0.764011,-0.518293,1.46341,-8.01829,-33.2477,-1.86333,19.1649,5.73171,-115.579,-0.792683
214.234,87.3774,21.1459,0,9.95849,0.538879,0.780776,-0.304878,1.89024,-7.53049,-33.1806,-1.825,19.7302,5.82317,-118.049,0.579268
214.244,87.2847,21.5255,0,9.83874,0.656235,0.742456,-0.884146,2.07317,-7.0122,-33.1135,-1.28852,19.2224,4.02439,-120.488,1.58537
214.254,87.2098,21.9202,0,9.9058,0.570015,0.735271,-1.15854,1.25,-6.46341,-32.7687,-1.18314,19.6152,2.77439,-118.476,1.98171
214.264,87.1368,22.3088,0,9.84114,0.60115,0.718506,-1.46341,1.52439,-6.0061,-32.7591,-1.08734,19.8068,2.5,-116.585,0.97561
214.274,87.0708,22.6997,0,9.69264,0.565225,0.780776,-1.0061,0.518293,-5.7622,-32.5962,-0.656235,20.0559,-0.640244,-116.25,-0.518293
214.284,87.0066,23.0844,0,9.72378,0.62031,0.792751,-1.18902,0.121951,-5.06098,-32.6058,-0.340093,20.2571,-1.7378,-114.024,0.121951
214.294,86.9549,23.4361,0,9.90341,0.58678,0.641865,-0.884146,0.335366,-4.45122,-32.1651,-0.119751,19.6439,-3.68902,-111.585,0.548781
214.304,86.9127,23.7381,0,9.88425,0.531694,0.708926,-1.31098,0.121951,-4.2378,-31.9735,-0.301772,18.8584,-5.30488,-107.012,0.213415
214.314,86.8728,24.1023,0,9.80042,0.507744,0.689766,-1.79878,0.548781,-4.32927,-31.5041,-0.876577,20.008,-9.66463,-103.902,0.640244
214.324,86.8544,24.4932,0,9.77407,0.376018,0.589175,-1.12805,1.76829,-3.84146,-31.8969,-0.684976,21.0714,-10.7317,-106.189,1.0061
214.334,86.8374,24.8385,0,9.8603,0.440684,0.59636,-0.579268,2.71341,-3.04878,-32.3376,-1.08734,20.7648,-11.6768,-102.378,1.15854
214.344,86.8297,25.1566,0,9.98723,0.414338,0.598755,-0.365854,2.71341,-2.59146,-32.2418,-1.18314,20.4487,-12.3171,-98.3232,0.426829
214.354,86.8309,25.4577,0,10.0351,0.347278,0.65863,0.213415,1.82927,-2.59146,-32.213,-1.43222,20.3625,-10.4878,-93.5976,0.0304878
214.364,86.8365,25.7632,0,9.97047,0.287402,0.742456,0.0304878,1.67683,-2.83537,-31.9065,-1.07776,20.5062,-9.26829,-89.8171,-0.243902
214.374,86.8479,26.0638,0,9.87467,0.186812,0.735271,-0.0609756,2.0122,-3.35366,-31.8585,-1.12566,20.6307,-8.81098,-86.4024,0.731707
214.384,86.8582,26.335,0,9.80521,0.160466,0.764011,0.27439,2.37805,-3.68902,-31.734,-1.02986,20.2188,-11.311,-82.6524,0.487805
214.394,86.8642,26.6471,0,9.8579,0.205972,0.761616,0.731707,2.92683,-3.56707,-31.6382,-0.895737,21.2055,-13.5061,-77.8963,-0.396341
214.404,86.8662,26.9633,0,9.92736,0.256267,0.775986,1.21951,3.20122,-3.38415,-31.14,-1.17356,21.2247,-11.8902,-71.4634,-0.884146
214.414,86.8618,27.2673,0,9.88425,0.306563,0.811912,1.21951,3.56707,-3.38415,-30.9772,-1.07776,21.1384,-11.8293,-66.4939,0.945122
214.424,86.8528,27.5646,0,9.79084,0.299377,0.804727,0.914634,3.04878,-3.87195,-30.6419,-0.895737,21.0426,-9.20732,-60.3049,2.37805
214.434,86.8426,27.857,0,9.66151,0.280217,0.778381,1.34146,2.5,-4.17683,-30.6323,-0.799937,21.1863,-9.48171,-56.4939,3.01829
214.444,86.8232,28.1665,0,9.63516,0.304167,0.708926,2.0122,2.86585,-4.78659,-30.5461,-0.627495,21.7228,-8.78049,-51.1585,5
214.454,86.7958,28.4422,0,9.78366,0.399968,0.728086,1.92073,2.65244,-4.54268,-30.5365,-0.502954,21.3013,-10.2439,-46.6159,6.40244
214.464,86.7635,28.7329,0,9.86988,0.500559,0.756826,2.40854,2.86585,-3.93293,-30.6994,-0.407153,21.9527,-11.6463,-43.1707,6.34146
214.474,86.7249,29.0148,0,9.91538,0.59157,0.771196,2.2561,2.65244,-3.56707,-30.9101,-0.378413,22.1635,-13.1402,-42.622,7.53049
214.484,86.6844,29.2625,0,9.87946,0.62031,0.866997,2.37805,3.14024,-3.44512,-31.1975,-0.589175,21.9048,-12.5915,-39.5427,6.70732
214.494,86.6466,29.4923,0,9.83635,0.61073,0.864602,2.53049,3.38415,-3.35366,-31.1975,-0.723296,21.742,-12.8354,-38.8415,5.73171
214.504,86.6056,29.7064,0,9.78126,0.682581,0.912502,2.92683,3.47561,-2.71341,-31.4945,-1.02028,21.809,-11.8293,-39.6037,4.5122
214.514,86.5585,29.9332,0,9.8076,0.716111,0.895737,2.83537,3.2622,-3.07927,-31.734,-1.00112,22.403,-11.8293,-43.4756,3.68902
214.524,86.5202,30.1432,0,9.86269,0.706531,0.855022,3.07927,3.10976,-2.34756,-31.6669,-0.847837,22.1923,-12.0122,-43.0488,3.20122
214.534,86.4842,30.3421,0,9.88425,0.713716,0.847837,2.53049,3.44512,-2.07317,-31.619,-0.780776,22.106,-11.4939,-41.5244,2.10366
214.545,86.4626,30.5526,0,9.85072,0.65384,0.862207,2.59146,3.56707,-1.37195,-31.4753,-0.646655,22.4126,-12.378,-41.4634,3.32317
214.554,86.4517,30.767,0,9.82916,0.60594,0.986748,2.62195,3.38415,-1.15854,-31.4083,-0.656235,22.6234,-13.8415,-40.8232,2.40854
214.564,86.4546,30.965,0,9.79803,0.546064,0.934058,2.77439,3.56707,-0.97561,-31.3795,-0.675395,22.4413,-13.7195,-39.4512,1.98171
214.574,86.4646,31.14,0,9.76928,0.517324,1.03465,2.5,3.38415,-0.884146,-31.3891,-0.752036,22.1348,-13.9024,-39.3293,0.426829
214.584,86.4692,31.313,0,9.75731,0.529299,1.08494,2.83537,2.37805,-1.03659,-31.5328,-0.790356,22.336,-14.878,-39.9695,1.58537
214.594,86.477,31.4685,0,9.75252,0.479004,1.05141,2.53049,2.16463,-1.40244,-31.5137,-0.991538,22.0965,-15.7927,-40.6707,2.19512
214.604,86.4832,31.6274,0,9.68785,0.514929,1.06578,2.56098,1.82927,-1.06707,-31.4562,-0.819097,22.2497,-15.3659,-42.1646,2.53049
214.614,86.483,31.773,0,9.6663,0.514929,1.07536,2.07317,1.58537,-1.46341,-31.4083,-0.646655,22.0677,-13.9329,-42.8354,4.29878
214.624,86.4882,31.9033,0,9.73336,0.507744,0.962798,3.23171,1.43293,-1.21951,-31.3412,-0.675395,21.8186,-13.628,-44.1159,4.90854
214.634,86.4825,32.0287,0,9.73575,0.57241,1.0083,3.04878,2.22561,-1.09756,-31.5424,-0.627495,21.9719,-14.2073,-42.6524,6.21951
214.645,86.4783,32.1546,0,9.88185,0.593965,1.00351,2.89634,2.28659,-0.731707,-31.8011,-0.732876,22.2497,-14.1159,-46.4024,6.95122
214.654,86.4895,32.2605,0,9.85072,0.536484,1.02028,2.71341,2.77439,-0.548781,-32.0981,-1.0586,22.1348,-13.2927,-48.1402,8.20122
214.664,86.5005,32.3576,0,9.71899,0.428708,1.08494,2.13415,2.53049,-1.67683,-32.4142,-1.13524,22.2402,-13.1402,-51.9207,7.37805
214.674,86.5086,32.465,0,9.70462,0.354463,1.0083,1.70732,1.40244,-2.53049,-32.3471,-1.2023,22.4797,-12.1951,-55.061,6.7378
214.684,86.5063,32.5505,0,9.7621,0.352068,0.958008,2.77439,1.06707,-3.35366,-32.3663,-1.17356,22.1156,-12.1037,-56.4024,5
214.694,86.4819,32.634,0,9.93454,0.529299,1.02028,0.396341,1.28049,-3.44512,-32.1076,-1.24062,21.9623,-11.4939,-57.7439,3.75
214.704,86.4605,32.7334,0,10.1333,0.512534,0.845442,-1.92073,2.68293,-3.5061,-32.2705,-1.24062,22.4701,-11.2195,-59.6037,2.13415
214.714,86.4289,32.813,0,10.0854,0.548459,0.881367,-3.71951,2.89634,-4.11585,-32.2609,-1.26936,22.1156,-9.42073,-63.1402,1.92073
214.724,86.404,32.8911,0,9.96328,0.435894,0.955613,-3.68902,1.28049,-4.7561,-32.1843,-1.3939,22.0869,-8.44512,-65.7012,1.18902
214.734,86.3829,32.9672,0,9.77647,0.285007,1.0562,-1.85976,-1.25,-6.09756,-32.1747,-1.27894,22.0965,-4.87805,-67.2866,0.152439
214.744,86.3594,33.0482,0,9.6184,0.253872,1.11847,-1.21951,-0.762195,-6.70732,-32.1172,-1.02986,22.2114,-5.67073,-69.939,-0.0609756
214.754,86.3216,33.1213,0,9.7597,0.306563,1.1041,-1.31098,2.37805,-7.62195,-31.8298,-0.943638,21.9048,-2.37805,-72.3476,0.213415
214.764,86.2532,33.2032,0,9.9537,0.519719,0.809517,-2.5,5.70122,-8.38415,-31.8681,-0.886157,22.1635,-3.38415,-75.0305,-1.7378
214.774,86.1781,33.3313,0,10.1908,0.59636,0.57241,-3.75,5.97561,-8.47561,-31.8202,-1.38432,23.1598,-4.48171,-78.6281,-3.81098
214.784,86.1013,33.4533,0,10.2363,0.60594,0.502954,-2.83537,2.13415,-8.71951,-31.9544,-1.46096,23.2269,-1.58537,-81.0366,-6.55488
214.794,86.0315,33.5389,0,9.91778,0.550855,0.512534,-1.21951,0.396341,-8.59756,-32.0118,-1.55676,22.585,1.43293,-82.9573,-7.56098
214.804,85.97,33.5933,0,9.68067,0.486189,0.699346,0.670732,1.09756,-8.5061,-32.0502,-1.86333,22.0294,7.56098,-83.0183,-7.2561
214.814,85.9085,33.6378,0,9.58726,0.529299,0.986748,1.06707,0.97561,-8.04878,-32.1364,-2.16031,21.9144,12.8659,-86.1281,-5.91463
214.824,85.8551,33.6818,0,9.61361,0.443079,0.998723,1.15854,0.548781,-8.41463,-32.0693,-2.18905,21.8761,14.6646,-90.4573,-6.21951
214.834,85.8017,33.7377,0,9.62558,0.390388,1.01549,1.09756,1.98171,-9.17683,-32.4142,-2.38065,22.3743,18.1098,-96.7073,-6.98171
214.844,85.7275,33.8158,0,9.83395,0.464634,1.1041,-0.640244,0.914634,-10.6098,-32.6058,-2.08367,22.997,18.0488,-103.628,-8.53659
214.854,85.6543,33.884,0,10.0806,0.450264,0.941243,-1.09756,0.365854,-10.9756,-32.7974,-1.31726,22.9682,19.2378,-108.11,-10.2439
214.864,85.5769,33.9623,0,9.8555,0.455054,1.01309,-0.670732,1.52439,-11.372,-32.692,-0.0335303,23.1598,20.3049,-110.579,-11.128
214.874,85.4973,34.0376,0,9.69264,0.474214,1.14003,0.27439,0.884146,-11.4329,-32.692,0.905317,23.1503,18.1402,-112.866,-10.7012
214.884,85.4314,34.1324,0,9.57768,0.414338,0.929268,1.85976,0.487805,-10.8537,-32.5962,1.4897,23.543,14.0549,-119.756,-9.39024
214.894,85.3697,34.2681,0,9.63277,0.378413,1.346,2.53049,-1.25,-11.0366,-32.5387,1.52802,24.4531,7.04268,-128.201,-7.71341
214.904,85.3145,34.4189,0,9.87946,0.359253,1.26457,4.57317,-2.7439,-10.8232,-32.213,1.71004,24.6256,1.12805,-137.165,-5.64024
214.914,85.2507,34.5248,0,10.0926,0.438289,0.931663,5.73171,0.0609756,-11.0061,-31.7915,1.03944,23.4281,-3.53659,-142.866,-3.68902
214.924,85.1564,34.6546,0,9.86269,0.608335,1.09692,4.42073,3.07927,-12.1037,-30.9389,0.665815,23.3802,-7.43902,-146.128,-0.731707
214.934,85.0569,34.8121,0,9.82197,0.677791,1.15919,3.44512,2.46951,-11.9817,-30.6898,-0.0622705,23.8783,-5.06098,-151.037,1.0061
214.944,84.9533,34.9726,0,9.74054,0.737666,0.938848,2.22561,1.61585,-11.8293,-30.6323,-0.943638,24.0125,-7.34756,-156.067,3.78049
214.954,84.8807,35.1482,0,9.54894,0.622705,0.838257,-0.640244,2.86585,-10.0915,-30.4982,-1.71004,24.3573,-3.01829,-160.671,5.21341
214.964,84.7818,35.3421,0,9.47949,0.809517,1.01309,-1.70732,0.396341,-10.5793,-30.4311,-1.83458,24.8459,-2.56098,-164.085,3.14024
214.974,84.7072,35.5983,0,9.8076,0.665815,1.12566,0.182927,-3.07927,-10.3354,-30.4407,-1.69088,26.4458,-1.89024,-167.744,-0.762195
214.984,84.6347,35.8605,0,10.4662,0.795146,1.01549,2.80488,-5.85366,-9.32927,-30.5652,-1.12566,26.9152,0.548781,-172.317,-3.53659
214.994,84.5437,36.0423,0,10.3082,0.912502,1.00591,3.23171,-6.0061,-9.90854,-30.5844,-0.416733,25.2962,0.670732,-173.354,-7.31707
215.004,84.4606,36.2256,0,10.1812,0.735271,1.36037,3.59756,-3.68902,-11.189,-30.5748,0.359253,25.4974,1.98171,-170.518,-11.0976
215.014,84.3536,36.518,0,10.0495,0.843047,1.17595,-1.21951,-1.06707,-12.439,-31.073,0.225132,28.6971,0.121951,-179.146,-13.689
215.024,84.2489,36.7552,0,10.2818,0.764011,0.826282,-4.05488,-3.90244,-13.5366,-31.4562,0.0143701,27.8828,1.40244,-192.5,-16.6768
215.034,84.1572,37.0322,0,9.98244,0.457449,0.387993,0.213415,-6.64634,-15.7317,-31.2742,-0.464634,28.9079,-4.05488,-202.348,-18.3841
215.044,84.043,37.3595,0,9.83874,0.416733,0.730481,4.54268,-10.7622,-18.628,-30.9484,-0.704136,30.1533,-1.61585,-211.067,-17.9268
215.055,83.9069,37.6992,0,9.92975,0.560435,0.749641,2.40854,-12.5305,-19.4512,-30.1725,-0.905317,29.9904,-2.07317,-224.299,-17.0427
215.064,83.7214,38.0132,0,9.79323,0.713716,0.519719,-0.487805,-8.01829,-22.8659,-29.2049,-1.56634,28.7067,-2.40854,-226.738,-17.561
215.074,83.559,38.3651,0,9.56331,0.383203,0.541274,-0.792683,-4.42073,-24.6951,-28.0744,-2.61057,28.8312,-7.53049,-229.482,-21.4939
215.084,83.3963,38.7012,0,9.54415,0.320933,0.661025,1.43293,-4.02439,-25.8232,-26.7524,-2.68721,27.4326,-11.189,-229.207,-26.9817
215.094,83.2286,39.0805,0,9.46272,0.474214,1.42983,1.98171,-7.28659,-24.7256,-25.2866,-2.45729,27.2697,-8.41463,-225.884,-31.2195
215.104,83.0158,39.5117,0,8.76338,0.764011,0.689766,1.67683,-7.77439,-25.3659,-23.7059,-1.69088,27.1547,0.243902,-220.366,-32.3476
215.114,82.799,39.9915,0,9.30944,0.974773,1.32684,2.2561,-9.81707,-24.1768,-22.7383,-0.771196,27.6337,8.71951,-217.53,-29.3902
215.124,82.5708,40.5714,0,9.88185,1.2981,1.16158,1.03659,-11.2805,-22.7134,-21.6079,-0.368833,29.2815,10.7927,-214.543,-27.0122
215.134,82.3544,41.1752,0,9.73575,1.29092,1.74357,0.792683,-8.87195,-21.8293,-21.4642,0.177231,30.4503,10.4878,-201.738,-24.2683
215.144,82.1718,41.8034,0,9.89383,1.0586,1.52323,0.457317,-4.7561,-21.7683,-21.7899,0.407153,32.4334,5.30488,-188.567,-21.0366
215.154,81.9526,42.3547,0,9.29028,1.346,1.6358,0.426829,-3.56707,-21.5244,-22.4222,0.483794,31.8585,0,-174.024,-19.2683
215.164,81.6926,42.8516,0,9.76689,1.60227,1.22146,-2.10366,-6.76829,-23.9329,-22.997,0.828677,31.8106,-3.9939,-154.939,-18.9939
215.174,81.4305,43.2955,0,9.92017,1.71723,0.876577,-0.0304878,-6.03659,-23.6585,-23.8113,0.263452,31.9927,-9.2378,-145.549,-21.0061
215.184,81.1815,43.6989,0,9.74294,1.65735,0.972378,-0.27439,-4.81707,-23.2012,-24.5394,-0.119751,32.3376,-6.18902,-136.463,-25.6402
215.194,80.9308,44.0869,0,9.80281,1.68609,0.938848,1.21951,-7.22561,-23.6585,-24.2807,-0.608335,32.0214,-11.7683,-135.122,-30.0915
215.204,80.6913,44.5114,0,9.53457,1.51605,0.859812,1.64634,-6.76829,-24.5122,-23.7921,-0.570015,32.9411,-11.3415,-130.518,-32.1037
215.214,80.4648,44.9537,0,9.53936,1.41785,0.684976,2.28659,-8.5061,-24.8476,-22.8916,-0.809517,32.7399,-12.6524,-129.573,-31.25
215.224,80.2146,45.3979,0,9.77407,1.5855,0.993933,2.71341,-10.1829,-26.189,-22.039,-1.07776,32.1268,-8.75,-125.762,-28.5671
215.234,79.9459,45.8538,0,9.83156,1.78429,0.787961,1.92073,-10,-26.4024,-21.6941,-1.18314,32.5483,-6.09756,-120.305,-24.5122
215.244,79.6641,46.3388,0,9.83874,1.93278,0.902922,1.06707,-9.11585,-26.5854,-21.2342,-1.38432,33.3243,-8.53659,-122.134,-20.5793
215.254,79.3786,46.803,0,9.86988,2.00463,0.996328,0.579268,-8.81098,-26.7988,-20.8606,-1.66214,32.692,-11.9817,-121.86,-19.7256
215.264,79.1036,47.2586,0,10.2818,1.9711,0.732876,1.82927,-9.48171,-27.5915,-20.7073,-1.35558,32.7782,-12.2561,-119.543,-18.1402
215.274,78.8215,47.6868,0,10.1381,2.10283,1.07297,1.21951,-7.10366,-27.1037,-20.6211,-1.41306,32.3567,-13.8415,-117.104,-16.0671
215.284,78.55,48.0927,0,10.0687,2.05972,1.04183,0.27439,-3.78049,-26.9207,-20.487,-2.10283,31.9927,-11.9512,-115.335,-13.628
215.294,78.2502,48.4937,0,9.64953,2.23216,1.05381,-1.52439,-2.13415,-27.378,-20.3433,-2.55309,32.1364,-6.79878,-112.287,-11.0976
215.304,77.95,48.9075,0,9.97526,2.24892,0.953218,-2.22561,-3.93293,-28.689,-20.1613,-2.57225,32.7495,-1.09756,-112.866,-8.20122
215.314,77.6308,49.3164,0,10.2052,2.46208,1.02267,-1.61585,-6.7378,-29.4817,-20.0655,-2.38065,32.9603,5.54878,-114.573,-5.18293
215.324,77.3066,49.7193,0,9.9537,2.51717,0.821492,-1.95122,-2.37805,-29.3598,-19.9601,-1.66214,33.104,7.59146,-116.646,-3.62805
215.334,76.983,50.1327,0,10.0184,2.60578,0.807122,-2.89634,-0.670732,-29.1768,-19.5961,-0.857417,33.4105,10.5183,-111.463,-1.0061
215.344,76.6709,50.5074,0,9.73336,2.50998,1.04423,-5.30488,3.17073,-28.9024,-19.9984,-0.570015,33.353,8.96341,-109.36,-0.365854
215.354,76.3796,50.8701,0,9.3789,2.23934,0.493374,-6.34146,3.62805,-29.5122,-20.0463,-0.617915,33.5446,9.78659,-107.165,-1.21951
215.364,76.0785,51.2377,0,9.37171,2.23695,0.677791,-4.17683,0.121951,-31.128,-19.8643,-0.761616,33.8704,9.26829,-109.634,-1.82927
215.374,75.7761,51.6245,0,9.51541,2.33754,0.898132,-3.56707,-4.7561,-31.0976,-19.6823,-0.684976,34.723,8.65854,-111.738,-4.02439
215.384,75.4504,52.0151,0,9.51302,2.62973,0.364043,-4.78659,-5.06098,-30.7317,-19.6344,-0.349673,35.2978,3.35366,-115.457,-3.75
215.394,75.1486,52.3562,0,9.616,2.44771,0.670605,-3.17073,-7.71341,-31.3415,-19.8356,-0.100591,34.4164,2.9878,-118.506,-2.62195
215.404,74.82,52.667,0,9.48667,2.68003,0.476609,-1.98171,-6.79878,-31.6463,-19.8547,0.330513,33.8608,1.85976,-119.299,-1.21951
215.414,74.4856,52.9813,0,9.69264,2.88121,0.328118,-2.04268,-5.51829,-31.311,-19.7685,0.397573,34.2344,3.41463,-122.53,-0.182927
215.424,74.1445,53.3154,0,9.7118,2.98659,0.464634,-2.34756,-2.86585,-31.5854,-19.5961,0.445474,35.0391,-0.0914634,-128.445,-0.304878
215.434,73.8348,53.6623,0,9.74054,2.71356,0.428708,-1.09756,-1.98171,-32.1951,-19.117,0.694556,35.0966,-4.02439,-131.616,-0.518293
215.444,73.5108,54.032,0,9.73575,2.84768,0.651445,-1.82927,-3.62805,-32.7744,-18.9542,0.761616,36.1504,-9.54268,-134.878,-1.37195
215.454,73.214,54.3889,0,9.60882,2.5962,0.189207,0.396341,-3.41463,-33.0793,-18.6476,0.608335,35.6235,-13.872,-136.311,-0.182927
215.464,72.9164,54.7554,0,9.27112,2.57465,0.570015,0.823171,-3.14024,-32.9573,-18.2069,0.330513,35.681,-17.7134,-136.921,-0.97561
215.474,72.6102,55.1329,0,9.3789,2.60578,0.402363,0.609756,-3.84146,-34.4207,-17.9674,0.100591,36.2079,-19.4512,-137.774,0.0304878
215.484,72.2813,55.4989,0,9.17772,2.64171,0.316143,0.823171,-4.42073,-36.2805,-17.7375,0.0526904,35.8534,-20.6707,-140.915,-0.457317
215.494,71.9364,55.8513,0,9.4244,2.78062,0.165256,5.42683,-7.5,-37.8049,-17.4789,-0.205972,35.384,-22.1951,-138.506,0.335366
215.504,71.5579,56.2043,0,9.43877,3.15664,0.438289,4.93902,-6.95122,-37.7439,-17.2202,-0.0431104,35.4798,-23.75,-132.378,0.914634
215.514,71.1716,56.5599,0,9.64474,3.28597,0.256267,3.32317,-6.82927,-38.6585,-17.0669,-0.0718506,35.8726,-25.7012,-126.738,2.92683
215.524,70.8074,56.9104,0,9.68067,3.11353,0.208367,3.20122,-8.75,-39.2073,-17.019,-0.311353,36.16,-30.4878,-124.238,3.96341
215.534,70.4278,57.2643,0,9.4723,3.27639,0.423918,4.5122,-6.09756,-38.9634,-16.904,-0.512534,36.6294,-32.2256,-125.518,6.82927
215.544,70.0435,57.6115,0,9.36213,3.2692,0.699346,1.18902,-3.14024,-39.878,-16.6166,-0.790356,36.2941,-29.1463,-127.744,8.5061
215.554,69.6743,57.9558,0,9.76449,3.21891,0.433499,5.21341,-8.01829,-41.1585,-16.5783,-0.905317,36.6486,-29.6646,-130.549,10.3659
215.564,69.2577,58.2939,0,9.70941,3.6524,0.984353,5.97561,-8.2622,-41.9207,-16.3197,-1.56634,36.3995,-27.6524,-129.421,11.2805
215.574,68.8235,58.587,0,9.55613,3.7027,0.931663,5.09146,-5.30488,-43.4146,-16.8466,-2.54351,36.2175,-28.3232,-129.604,11.4329
215.584,68.362,58.8663,0,9.30944,3.80808,0.950823,3.75,-1.67683,-44.9085,-17.2777,-3.61648,37.0701,-24.4817,-127.226,11.7378
215.594,67.8753,59.1211,0,8.95019,3.66438,0.862207,4.32927,-2.5,-48.3841,-17.2298,-4.74693,36.4282,-17.2561,-123.902,13.689
215.604,67.3506,59.3966,0,8.97174,3.83443,0.421523,4.20732,-7.9878,-51.4634,-16.358,-4.34457,35.8726,-5.88415,-119.482,16.5854
215.614,66.8272,59.7233,0,9.24478,3.95897,0.210762,4.39024,-5.97561,-52.3171,-15.467,-2.28485,36.5145,0.640244,-122.104,22.7744
215.624,66.2908,60.0564,0,9.48188,4.38289,0.773591,1.25,-3.59756,-51.4024,-15.3904,-0.761616,37.118,4.57317,-132.378,31.2195
215.634,65.79,60.3934,0,9.54655,4.30625,0.682581,0.335366,-3.04878,-49.939,-15.0743,0.761616,37.118,-1.03659,-135,33.9634
215.644,65.3042,60.7174,0,9.67588,4.4236,0.852627,0.0914634,-3.68902,-48.8415,-15.103,1.2023,37.2905,-4.20732,-126.037,35.4573
215.654,64.8399,61.0547,0,9.49386,4.33259,0.445474,2.22561,-3.96341,-47.7134,-14.9306,1.42264,38.2485,-5.67073,-113.049,31.0976
215.664,64.3527,61.3814,0,8.86876,4.22721,0.445474,3.32317,-5.2439,-49.0549,-15.0168,0.790356,38.67,-8.14024,-106.524,25.3963
215.674,63.8642,61.721,0,8.67955,4.02842,0.00718506,6.09756,-10.7317,-51.372,-14.3366,0.550855,38.2485,-12.2866,-101.86,18.0793
215.684,63.3298,62.053,0,8.44484,4.31104,0.129331,6.61585,-15.1829,-52.6829,-13.8863,0.138911,37.415,-12.8354,-94.2683,11.8598
215.694,62.7836,62.4097,0,8.54303,4.6631,-0.155676,2.9878,-15.5183,-51.7378,-13.0624,-0.00479004,37.118,-14.4512,-90.9756,7.5
215.704,62.2392,62.7576,0,8.66039,4.90021,0.184417,2.71341,-15.8841,-50.8841,-12.9092,-0.311353,36.9647,-17.0732,-89.6341,5.94512
215.714,61.7403,63.125,0,9.02683,4.89063,-0.421523,3.53659,-14.5122,-49.5122,-12.3535,-0.292192,37.1468,-18.2317,-87.1951,4.60366
215.724,61.2293,63.4734,0,9.0412,5.25946,0.318538,3.44512,-7.92683,-48.2012,-12.2002,0.00479004,36.4666,-20.8537,-85.2439,6.03659
215.734,60.7457,63.8437,0,8.6053,4.63676,-0.246687,1.92073,-7.10366,-50.2744,-11.5871,0.138911,36.5815,-25.2439,-80.6402,8.35366
215.744,60.246,64.2368,0,8.31551,4.51222,-0.160466,4.14634,-8.78049,-52.561,-11.1273,-0.129331,37.3096,-28.1402,-76.1281,9.17683
215.754,59.7085,64.6225,0,8.07122,4.69184,0.0263452,6.4939,-10.2744,-53.9939,-10.9261,-0.349673,37.2234,-30.4878,-67.7134,9.66463
215.764,59.1576,65.0044,0,8.15744,5.0966,0.359253,10.061,-17.7134,-52.7439,-10.6578,-0.522114,37.1084,-34.6037,-58.75,9.26829
215.774,58.6207,65.3916,0,8.49992,5.43669,-0.0981958,10.7012,-21.6768,-51.189,-10.3417,-0.560435,37.3575,-34.2073,-51.9817,9.84756
215.784,58.1054,65.7392,0,8.64123,5.66662,-0.249082,12.9268,-20.4878,-48.75,-10.4662,-0.656235,36.3516,-37.4085,-46.4329,10
215.794,57.5994,66.0857,0,8.75859,5.87019,0.114961,11.9817,-16.8902,-47.6829,-10.1693,-0.675395,36.1983,-33.9329,-36.5854,10.8232
215.804,57.0867,66.4094,0,8.4137,5.62351,-0.450264,3.20122,-7.37805,-49.5427,-10.1214,-0.761616,35.566,-30.7012,-29.2073,11.2805
215.814,56.6018,66.7472,0,8.37059,5.04152,-0.270637,5.54878,-4.5122,-53.2622,-9.71899,-0.895737,35.8343,-30.6402,-23.3232,14.2073
215.824,56.0637,67.1061,0,8.11672,5.47741,-0.0191602,2.37805,-6.43293,-53.6585,-9.44117,-0.953218,37.0701,-31.7073,-19.9085,15.8232
215.834,55.5473,67.4532,0,8.27958,5.578,-0.198787,5.21341,-9.78659,-52.622,-9.50823,-1.47054,37.5395,-34.5122,-17.2866,15.6707
215.844,55.0169,67.7584,0,7.91793,5.80553,-0.114961,6.21951,-11.1585,-50.4573,-9.82437,-1.70046,36.9264,-37.0732,-11.9207,13.5671
215.854,54.5242,68.0247,0,8.0808,5.81032,-0.416733,9.54268,-13.4756,-48.7805,-10.1693,-1.81542,36.5719,-36.372,-4.45122,14.2073
215.864,54.0343,68.2699,0,8.04008,5.84624,-0.371228,10.4268,-13.4146,-48.872,-10.313,-2.07409,36.5336,-33.4146,4.17683,15.122
215.874,53.5478,68.4925,0,7.97302,5.76481,-0.385598,11.189,-12.9878,-49.8476,-10.5429,-2.09325,36.6199,-28.1402,9.57317,16.2195
215.884,53.0243,68.6987,0,7.58263,5.71452,-0.270637,11.0671,-14.4817,-52.2866,-10.4758,-2.15073,36.045,-23.5671,19.3598,17.0122
215.894,52.4773,68.901,0,7.62095,5.92288,-0.0670605,11.7378,-15.9146,-54.0244,-10.3609,-1.43222,35.9876,-19.4817,26.372,20.1524
215.904,51.9143,69.1078,0,7.68562,6.32285,-0.280217,9.90854,-17.0427,-53.5366,-10.2459,-0.780776,36.3899,-17.8354,30.5793,23.1707
215.914,51.374,69.2898,0,7.6473,6.28932,-0.256267,6.85976,-13.5366,-52.378,-10.4567,-0.359253,36.1504,-19.6951,33.0793,25.8841
215.924,50.8509,69.4435,0,7.56108,6.40428,0.0263452,5.88415,-15.5793,-50.0305,-10.6578,-0.378413,35.6714,-24.939,39.4512,24.4512
215.934,50.3636,69.6052,0,7.5515,6.21987,-0.268242,5.4878,-17.1951,-49.0549,-10.6004,-0.684976,36.4282,-30.7622,50.1524,22.7439
215.944,49.8935,69.7632,0,7.63532,6.36357,-0.426313,5.88415,-18.5366,-47.622,-10.5525,-1.03944,36.524,-37.4695,58.3232,17.9573
215.954,49.4418,69.8868,0,7.4557,6.2055,-0.428708,5.4878,-16.5549,-46.7683,-10.7536,-1.38432,35.7002,-39.1159,71.0366,12.3171
215.964,48.9885,70.0004,0,7.28086,6.057,-0.387993,5.85366,-18.2012,-47.8963,-10.7153,-1.69088,35.4798,-39.5122,89.2988,8.07927
215.974,48.5163,70.1027,0,7.23056,6.27256,-0.438289,7.7439,-19.6951,-48.3232,-10.6578,-1.6813,35.0679,-39.6341,102.835,4.5122
215.984,48.0397,70.1954,0,7.38145,6.60307,-0.58199,6.0061,-19.6951,-47.9573,-10.8303,-1.52802,35.3936,-39.1768,110,3.41463
215.994,47.563,70.2791,0,7.46288,6.86892,-0.584385,4.90854,-17.7744,-47.2866,-11.0027,-1.3939,35.7097,-38.872,114.177,3.23171
216.004,47.111,70.3266,0,7.49402,6.78988,-0.61552,4.17683,-15.7012,-46.6463,-11.5871,-1.4418,35.7864,-41.2805,117.043,3.29268
216.014,46.6722,70.3363,0,7.4054,6.79946,-0.474214,3.96341,-15.8232,-45.4573,-11.7979,-1.79626,34.6368,-41.7683,125.335,3.2622
216.024,46.2602,70.2972,0,7.34313,6.52403,-0.632285,3.93293,-14.4817,-45.5183,-12.2769,-1.87291,33.7746,-39.8476,136.128,4.11585
216.034,45.8508,70.2547,0,7.23296,6.48092,-0.768801,5.21341,-15.7317,-45.6098,-12.3535,-2.21779,33.8225,-39.9695,143.902,4.84756
216.044,45.4734,70.2039,0,7.57784,6.52882,-0.958008,7.95732,-15.1829,-45.4573,-12.4685,-2.50519,33.7554,-41.4939,152.652,5.51829
216.054,45.0774,70.1499,0,7.33115,6.65815,-0.570015,6.55488,-9.05488,-45.061,-12.5739,-2.51477,33.8704,-48.4451,159.939,5.91463
216.064,44.6834,70.0761,0,7.11321,6.48332,-0.490979,4.90854,-5.15244,-45.4573,-12.8325,-2.52435,33.6979,-49.2073,175,6.70732
216.074,44.2668,69.953,0,6.91203,6.59349,-0.517324,3.96341,-9.14634,-45.9146,-13.4648,-2.40939,33.1327,-47.1341,185.183,7.34756
216.084,43.8359,69.8078,0,6.92161,6.81862,-0.787961,3.84146,-8.41463,-46.3415,-13.848,-2.41897,33.0177,-47.1037,193.963,6.92073
216.094,43.3986,69.6179,0,6.80186,6.97669,-1.04183,1.70732,-7.37805,-45.5183,-14.4803,-2.62973,32.5196,-40.4878,199.238,6.31098
216.104,42.9666,69.4037,0,6.8306,7.00064,-0.878972,3.5061,-7.0122,-45.9146,-14.9114,-2.38065,32.3184,-37.1037,206.738,4.54268
216.114,42.5229,69.1826,0,6.88808,7.31439,-0.902922,3.23171,-6.76829,-45.9146,-14.8827,-2.75427,31.8969,-32.7744,235.366,2.77439
216.124,42.0857,68.9372,0,6.86892,7.29762,-1.10171,3.87195,-6.46341,-46.128,-15.6682,-2.85965,32.4621,-30.2744,252.561,1.61585
216.134,41.6344,68.6817,0,6.7348,7.42456,-0.811912,4.66463,-6.21951,-46.311,-16.0323,-2.79259,32.51,-33.4451,255.671,1.28049
216.144,41.182,68.3843,0,6.59588,7.36947,-0.684976,2.83537,-4.69512,-46.5549,-16.722,-2.85965,32.0214,-30.6402,253.445,1.67683
216.154,40.7453,68.0471,0,6.57672,7.21859,-0.59157,1.55488,-4.87805,-46.9207,-17.1052,-2.51477,30.9963,-32.9878,250.213,3.53659
216.164,40.3594,67.6803,0,6.64378,6.94316,-0.708926,1.4939,-3.75,-45.4878,-17.3352,-2.09325,30.0575,-30.3049,250.976,5.12195
216.174,39.961,67.335,0,6.43302,7.02938,-0.124541,0.853659,-2.77439,-44.939,-17.3926,-1.83458,30.3353,-30.6098,244.756,7.89634
216.184,39.5446,66.9861,0,6.21747,7.10842,-0.483794,-2.0122,-2.28659,-44.9695,-17.6034,-1.825,30.1629,-30.7317,244.055,10.3354
216.194,39.1186,66.6317,0,6.00671,7.0701,-0.62031,-0.762195,-4.02439,-45.122,-18.1495,-2.15073,30.4694,-25.4878,238.872,10.0915
216.204,38.6803,66.2467,0,6.00192,7.24014,-0.785566,-0.823171,-7.07317,-45.8232,-18.7243,-2.19863,30.0288,-24.2988,231.311,10.2134
216.214,38.2174,65.8459,0,5.8678,7.38864,-0.732876,-1.12805,-8.04878,-46.7683,-18.9159,-2.66805,29.4348,-21.7378,231.982,8.10976
216.224,37.7539,65.4503,0,6.0091,7.51557,-0.720901,0.243902,-9.96951,-48.1707,-19.0308,-2.82133,29.3198,-20.7927,233.75,8.17073
216.234,37.2849,65.0379,0,6.09053,7.86764,-0.684976,-0.0304878,-9.17683,-47.8354,-19.1554,-3.35782,28.6205,-21.8598,236.311,8.56707
216.244,36.8261,64.6315,0,6.04263,8.0305,-0.589175,-2.92683,-5.39634,-46.1585,-19.5577,-3.38656,28.9175,-19.3598,232.927,8.44512
216.255,36.4011,64.2405,0,5.90851,7.80297,-0.66821,-4.69512,-3.32317,-43.9939,-19.5481,-3.42488,28.8887,-15.5183,233.933,9.60366
216.264,35.9912,63.8722,0,5.80792,7.73591,-0.548459,-3.9939,-5.70122,-42.8354,-19.6344,-3.23328,29.2144,-14.2378,233.354,9.45122
216.274,35.5887,63.4874,0,5.61153,7.55629,-0.785566,-2.86585,-7.34756,-42.3171,-19.5961,-2.87881,28.3522,-11.372,241.707,10.7012
216.284,35.1485,63.0287,0,5.25228,7.6952,-0.778381,-2.5,-8.96341,-42.3171,-20.1709,-2.82133,26.9727,-2.83537,263.72,10.3049
216.294,34.702,62.5878,0,5.20917,7.791,-0.699346,-3.5061,-13.2622,-42.7439,-20.6403,-2.49561,27.605,-0.914634,266.402,9.72561
216.304,34.2581,62.122,0,5.30976,7.90596,-0.888552,-4.60366,-17.2561,-43.628,-20.966,-2.14115,26.9727,2.9878,266.372,11.7378
216.314,33.8522,61.608,0,5.49657,7.75986,-1.3005,-3.38415,-18.2012,-43.5671,-21.4163,-2.07409,26.0339,2.59146,286.037,10.9451
216.324,33.4654,61.1244,0,5.5301,7.77423,-1.27655,-2.65244,-14.6341,-42.6829,-22.5563,-1.6813,27.7391,0.457317,300.61,10.9146
216.334,33.0816,60.5555,0,5.50136,7.7407,-1.4897,-4.42073,-12.5915,-43.1098,-23.476,-1.88249,26.3692,-3.29268,315.671,10.3049
216.344,32.7184,59.9822,0,5.54447,7.55629,-1.63819,-3.38415,-10.2134,-43.5671,-24.3957,-2.13157,26.7045,-3.71951,304.848,8.81098
216.354,32.3571,59.3862,0,5.55166,7.3072,-1.52323,-2.86585,-5.39634,-46.0671,-25.2866,-1.79626,26.5512,-8.9939,296.189,8.32317
216.364,31.9941,58.7512,0,5.7241,7.31439,-1.21906,-4.02439,-1.79878,-48.6585,-25.756,-1.60466,25.6028,-11.9817,298.72,8.59756
216.374,31.6053,58.1344,0,5.58279,7.48683,-1.3484,-3.81098,1.76829,-49.2988,-26.6278,-0.962798,26.2829,-17.7744,293.293,8.04878
216.384,31.1635,57.509,0,5.19959,8.02092,-1.38432,-3.32317,2.77439,-47.8354,-26.3979,-1.76752,25.3441,-15.9146,301.341,8.87195
216.394,30.7475,56.8807,0,5.47741,8.45442,-1.33642,-2.7439,-1.43293,-46.0671,-27.4421,-1.22146,25.6219,-12.1951,281.494,10.2134
216.404,30.3579,56.2375,0,5.68817,8.53585,-1.62143,-2.92683,-2.10366,-45.7317,-27.5571,-1.35558,24.7597,-17.6829,262.652,11.0061
216.414,29.9964,55.5988,0,5.76242,8.27479,-1.62861,-0.731707,4.05488,-46.0671,-27.605,-1.12566,24.3478,-21.3415,263.232,12.7439
216.424,29.6545,54.946,0,5.77439,8.21492,-1.2023,1.03659,9.66463,-45.3049,-27.6912,-1.02986,23.5814,-26.5549,263.445,13.3841
216.434,29.2814,54.3019,0,5.40795,8.32269,-1.07057,0.182927,13.689,-44.939,-28.2277,-0.895737,23.6676,-30.1524,262.195,17.8963
216.444,28.8924,53.6324,0,5.13732,8.23887,-0.931663,1.28049,13.4451,-45.122,-28.4193,-1.12566,22.7671,-33.8415,263.384,17.7134
216.454,28.4763,52.968,0,4.91937,8.40412,-0.893342,1.06707,10.5793,-45.4268,-28.6013,-1.80584,22.4892,-31.6159,267.134,21.0061
216.464,28.062,52.2859,0,4.81159,8.28198,-0.981958,1.58537,12.2256,-45.7012,-28.8217,-2.13157,21.7803,-30.7317,269.543,21.7683
216.474,27.6333,51.628,0,4.68945,8.33946,-0.775986,2.13415,14.2378,-46.372,-28.8025,-2.32317,21.7132,-29.6951,270.793,23.5671
216.484,27.2076,50.941,0,4.68466,8.43765,-0.548459,0.670732,15.3354,-46.311,-28.9079,-2.28485,20.7169,-31.3415,272.256,25.6707
216.494,26.7878,50.27,0,4.67747,8.43286,-0.481399,-0.914634,13.9024,-46.5244,-28.9558,-2.21779,20.5445,-29.0854,274.726,27.0122
216.504,26.3706,49.6311,0,4.65113,8.64123,-0.404758,-1.76829,13.9634,-45.6402,-29.0324,-2.16031,20.7073,-29.878,275.366,28.3537
216.514,25.9334,48.9648,0,4.38528,8.68674,-0.455054,-3.29268,12.9268,-45.4573,-29.224,-1.76752,19.8451,-30.5183,277.652,29.3598
216.524,25.4981,48.2613,0,4.28469,8.63884,-0.364043,-3.81098,9.17683,-45.3354,-28.8025,-1.67172,18.4656,-27.4085,295.671,29.4207
216.534,25.0902,47.5884,0,4.33978,8.54303,-0.273032,-3.29268,7.16463,-44.5427,-29.6743,-1.97829,19.1075,-24.6037,304.787,27.3476
216.544,24.7119,46.9496,0,4.41881,8.57177,-0.246687,-4.17683,3.56707,-43.0488,-30.4694,-1.825,19.7014,-32.5305,289.116,26.2195
216.554,24.3424,46.2922,0,4.3302,8.56938,-0.170046,-3.65854,2.40854,-41.9817,-30.6131,-1.90165,18.935,-36.8598,280.366,25.2439
216.564,23.9475,45.6256,0,3.92304,8.71308,-0.189207,-4.08537,0.609756,-40.0915,-30.2491,-1.81542,18.0632,-40.8232,280.122,24.5732
216.574,23.5434,44.9468,0,3.71707,8.8017,-0.277822,-6.15854,-2.77439,-39.0854,-30.4886,-1.41306,17.5459,-41.8598,290.03,25.6402
216.584,23.167,44.2662,0,3.79132,8.69392,-0.754431,-7.31707,-5.60976,-38.4451,-30.9005,-1.31726,17.2968,-42.4695,298.659,27.5
216.594,22.8015,43.5996,0,3.85598,8.82804,-1.00351,-7.77439,-4.57317,-38.1707,-31.7244,-1.4418,17.5076,-37.7744,294.848,29.7256
216.604,22.4341,42.8903,0,3.90628,8.82804,-0.883762,-6.21951,-4.32927,-39.6646,-32.4429,-1.74836,16.6262,-36.7683,292.134,31.4939
216.614,22.0733,42.198,0,3.96136,8.83762,-0.66821,-6.43293,-8.01829,-40.3049,-33.104,-1.90165,16.7508,-34.2988,289.451,32.7744
216.624,21.7386,41.5002,0,4.10746,8.86397,-0.840652,-5.64024,-5.39634,-39.8476,-33.3818,-2.00703,16.3005,-31.5549,292.805,32.2256
216.634,21.4142,40.7787,0,4.1338,9.03162,-0.996328,-6.92073,-1.34146,-38.9329,-33.6404,-2.10283,15.5054,-28.8415,295.976,32.5305
216.644,21.1053,40.0879,0,4.038,9.00527,-1.00591,-7.28659,0,-37.1037,-33.6117,-1.80584,15.5149,-29.4207,291.86,32.1646
216.654,20.8095,39.3941,0,4.01645,9.00048,-1.05381,-6.52439,1.37195,-36.189,-33.6404,-1.6334,14.9593,-27.5,283.963,31.4329
216.664,20.5158,38.7081,0,3.87754,9.00767,-1.02746,-6.98171,2.28659,-35.0305,-33.7362,-0.991538,14.624,-29.6646,275.854,31.5244
216.674,20.2263,38.0439,0,3.73144,8.95498,-1.03944,-6.67683,5.12195,-33.8415,-34.3206,-0.886157,14.7677,-34.3293,271.707,32.2561
216.684,19.93,37.3828,0,3.49433,8.91187,-1.16877,-4.63415,7.89634,-32.6524,-34.723,-0.752036,14.5282,-35.9146,273.933,32.6829
216.694,19.5905,36.7423,0,3.25244,9.10347,-0.962798,-2.37805,9.69512,-34.0854,-35.1924,-0.579595,14.624,-40.6402,274.268,30.4878
216.704,19.1908,36.0747,0,2.86684,9.33818,-0.641865,-2.0122,8.10976,-35.6402,-35.8726,-0.349673,13.9725,-43.4451,282.287,28.8415
216.714,18.7834,35.3757,0,2.82133,9.37411,-0.505349,-2.46951,6.70732,-36.5854,-35.9013,-0.368833,12.9283,-45.5488,278.963,29.1159
216.724,18.395,34.7009,0,2.9818,9.34058,-0.452659,-3.65854,4.45122,-37.439,-35.978,-0.234712,12.8804,-45.2134,275.427,30
216.734,18.0297,34.0323,0,3.06562,9.30465,-0.399968,-5,3.81098,-36.9512,-36.0738,-0.387993,12.5355,-49.4512,271.463,30.3049
216.744,17.6829,33.3479,0,3.11113,9.25915,-0.479004,-5.4878,4.42073,-36.4939,-35.9397,-1.13524,11.7404,-52.561,271.25,31.7988
216.754,17.3235,32.6618,0,2.92192,9.38129,-0.584385,-4.54268,8.81098,-35.8841,-36.16,-1.37474,11.3093,-53.689,271.402,31.189
216.764,16.948,31.9888,0,2.70158,9.55613,-0.390388,-5.18293,9.48171,-35.1829,-36.0834,-1.76752,11.0123,-50.5183,263.75,31.4939
216.774,16.6049,31.2925,0,2.86444,9.42919,-0.325723,-5.54878,8.20122,-34.9085,-36.2462,-1.35558,10.1884,-47.3476,261.555,33.3232
216.784,16.2784,30.6405,0,2.85007,9.43877,-0.390388,-4.78659,9.48171,-33.7195,-36.4378,-1.14482,10.5141,-46.7378,256.006,34.2378
216.794,15.9365,29.967,0,2.65368,9.44596,-0.409548,-4.26829,10.1524,-33.689,-36.4378,-0.934058,9.69025,-49.6646,254.726,35.5793
216.804,15.5974,29.281,0,2.54351,9.40764,-0.258662,-4.39024,8.41463,-32.9573,-36.7444,-0.934058,9.10586,-47.4695,257.5,35.7012
216.814,15.2584,28.633,0,2.40699,9.25915,-0.148491,-3.20122,6.12805,-32.5,-36.9743,-0.838257,9.34537,-45.3963,255.793,35.7927
216.824,14.9121,28.011,0,2.34233,9.29747,-0.265847,-1.82927,4.02439,-33.0488,-37.6737,-0.876577,9.48907,-40.8232,245.213,34.0244
216.834,14.568,27.3745,0,2.35191,9.4723,-0.373623,-2.40854,3.17073,-33.1402,-37.4916,-0.675395,8.74182,-41.4634,239.817,33.2012
216.844,14.2239,26.7397,0,2.28485,9.60882,-0.62989,-4.90854,2.10366,-32.6829,-37.118,-0.502954,8.25324,-40.8537,240.549,31.6159
216.854,13.9103,26.1283,0,2.38065,9.50104,-0.780776,-4.29878,4.54268,-31.6768,-36.8785,-0.253872,8.15744,-39.6646,237.104,34.0244
216.864,13.6322,25.5018,0,2.46448,9.35016,-0.603545,-1.85976,7.68293,-30.122,-37.2138,-0.311353,7.54431,-36.9207,232.957,36.4939
216.874,13.3903,24.8873,0,2.61297,9.29747,-0.316143,-0.152439,8.96341,-28.9024,-37.5874,-0.340093,7.38145,-35.4268,227.256,36.7683
216.884,13.1967,24.3047,0,2.82612,9.41482,-0.153281,-0.884146,9.7561,-26.5244,-37.9706,-0.100591,7.57305,-34.8476,222.957,36.7378
216.894,13.0009,23.7116,0,2.61536,9.55134,-0.253872,-3.04878,11.5549,-24.2988,-37.8653,-0.0239502,6.95993,-37.4085,219.939,35.5488
216.904,12.7959,23.1075,0,2.34951,9.38129,-0.431104,-3.01829,13.2012,-23.0793,-38.3826,-0.0335303,6.45218,-36.0061,219.36,34.9085
216.914,12.5647,22.5467,0,2.03816,9.3789,-0.383203,-3.04878,11.7378,-22.5,-38.5454,-0.0718506,6.79707,-37.2256,212.988,32.1646
216.924,12.3021,22.002,0,1.71004,9.42919,-0.399968,-1.95122,12.2561,-22.1341,-38.9095,-0.0143701,6.73958,-36.6463,209.055,29.6951
216.934,12.0274,21.4625,0,1.64059,9.55373,-0.146096,-1.15854,11.2805,-22.8049,-39.3119,0.0718506,6.4905,-38.4146,201.738,28.9634
216.944,11.7433,20.9603,0,1.54718,9.49865,-0.0838257,-1.03659,7.83537,-23.3232,-39.446,0.100591,6.76833,-40.4573,192.744,27.2866
216.954,11.4887,20.4627,0,1.76752,9.49625,-0.232317,-0.914634,6.28049,-23.5366,-39.4364,0.292192,6.46176,-42.9268,184.238,26.4329
216.964,11.2803,19.939,0,2.03098,9.56331,-0.385598,-0.0914634,9.45122,-22.2866,-39.5035,-0.110171,5.6283,-42.2561,176.067,26.7988
216.974,11.1169,19.4432,0,2.21539,9.6184,-0.474214,-0.97561,13.1402,-20.122,-39.2065,-0.0910107,5.68578,-44.2988,167.866,26.372
216.984,10.9905,18.9373,0,2.27287,9.74294,-0.701741,-0.97561,17.7134,-17.0122,-38.9957,0.0335303,5.11097,-44.878,161.86,27.1646
216.994,10.8082,18.4288,0,1.61424,9.77407,-0.565225,-0.487805,16.128,-15.3049,-38.8137,0.780776,4.68945,-46.8293,159.817,27.1341
217.004,10.5887,17.9409,0,1.2526,9.55852,-0.361648,-0.609756,12.439,-15.5793,-38.8807,0.646655,4.67987,-47.7439,152.805,30.6098
217.014,10.3452,17.4471,0,1.18074,9.39087,-0.205972,-0.243902,7.59146,-17.8659,-39.4747,1.07776,4.28709,-46.7073,146.738,32.622
217.024,10.1219,16.9698,0,1.33642,9.38848,-0.141306,-0.640244,6.67683,-18.2012,-39.8483,0.838257,4.24876,-47.8659,139.939,34.8171
217.034,9.94296,16.519,0,1.61903,9.49865,-0.0550855,-0.457317,6.55488,-17.3476,-40.3752,0.407153,4.42121,-46.4024,133.963,34.7256
217.044,9.80235,16.092,0,1.81782,9.73575,-0.0598755,-1.0061,6.76829,-15.6402,-40.6435,0.311353,4.52659,-51.0671,125.061,29.939
217.054,9.68772,15.656,0,1.86333,9.77407,-0.162861,-1.76829,7.43902,-13.7195,-40.9117,-0.177231,4.06674,-49.6646,120.213,24.5122
217.064,9.58896,15.203,0,1.87291,9.77647,-0.301772,-0.152439,8.2622,-12.439,-40.6626,-0.512534,3.40572,-47.4695,115.488,20.0915
217.074,9.49737,14.7775,0,1.8274,9.83874,-0.364043,0.853659,7.37805,-11.25,-40.2699,-0.531694,3.52068,-46.3415,108.354,15.6707
217.084,9.41076,14.3551,0,1.76273,9.60882,-0.512534,0.0304878,6.25,-10.6707,-39.6567,-0.474214,3.21412,-43.6585,105.762,14.6341
217.094,9.31733,13.9596,0,1.55437,9.52739,-0.517324,-1.37195,7.68293,-9.2378,-39.0628,0.00479004,3.34824,-42.0122,107.287,15.6402
217.104,9.17991,13.54,0,1.07776,9.50823,-0.598755,-2.37805,10.6098,-8.20122,-38.5742,0.349673,2.62015,-46.0061,105.671,18.9024
217.114,8.99953,13.1318,0,0.766406,9.52739,-0.452659,-2.40854,10.3049,-9.05488,-38.8424,0.474214,2.53393,-50.6402,101.006,22.3171
217.124,8.80316,12.7285,0,0.713716,9.51302,-0.296982,-1.58537,6.25,-10.4268,-39.4939,0.244292,2.35191,-51.7988,93.0183,24.2988
217.135,8.6277,12.3377,0,0.934058,9.73096,-0.162861,-1.52439,0.853659,-11.128,-40.3273,0.158071,2.30401,-53.75,83.2317,24.0549
217.145,8.49151,11.9897,0,1.18314,9.91059,-0.189207,-2.86585,-2.19512,-10.1829,-40.7201,0.0143701,2.78301,-52.7134,72.3171,22.5305
217.155,8.41002,11.6495,0,1.49449,9.93454,-0.241897,-3.35366,-3.07927,-8.44512,-40.9788,-0.177231,2.66805,-52.6829,66.2195,19.7256
217.165,8.36938,11.2747,0,1.66933,9.86748,-0.450264,-2.92683,-1.34146,-6.58537,-41.1033,-0.531694,1.78668,-48.0183,61.0976,17.439
217.175,8.32477,10.8634,0,1.57113,9.94891,-0.57241,-2.9878,4.08537,-5.79268,-40.9405,-0.886157,0.847837,-45.6402,60.5183,14.7866
217.184,8.24184,10.452,0,1.23344,9.97047,-0.60115,-2.71341,6.85976,-5.85366,-40.3369,-0.905317,0.541274,-42.7744,59.3293,12.2256
217.194,8.10571,10.0216,0,0.850232,9.9058,-0.526904,-2.83537,5.36585,-7.07317,-39.6376,-0.761616,-0.0814307,-40,60.3049,12.7439
217.204,7.9389,9.61923,0,0.64905,9.73096,-0.390388,-2.34756,2.22561,-8.2622,-39.1586,-0.742456,0.119751,-39.1463,63.689,13.2927
217.215,7.7541,9.25245,0,0.62989,9.61361,-0.198787,-1.52439,-0.0914634,-10.3049,-39.6088,-0.579595,0.464634,-37.1037,63.628,16.7073
217.224,7.59531,8.9107,0,0.931663,9.6639,-0.0886157,-1.03659,-1.4939,-11.6159,-39.7813,-0.311353,0.637075,-38.2012,59.6341,18.9939
217.234,7.47616,8.57443,0,1.24302,9.80521,-0.0886157,-1.0061,-1.31098,-11.4024,-39.9441,-0.407153,0.483794,-38.3841,55.5183,19.7561
217.244,7.383,8.2613,0,1.38672,9.99681,-0.179626,-3.04878,-0.304878,-10.3659,-40.222,-0.579595,0.646655,-38.5366,51.311,19.1463
217.254,7.31015,7.94529,0,1.3939,9.86509,-0.385598,-3.23171,-0.0609756,-8.78049,-40.404,-0.435894,0.368833,-37.5915,48.872,15.6707
217.265,7.26129,7.60595,0,1.49689,9.81,-0.548459,-2.62195,0.640244,-7.77439,-40.3944,-0.598755,-0.282612,-34.878,45.061,13.811
217.274,7.22801,7.27707,0,1.61424,9.7142,-0.514929,-2.53049,0.0914634,-7.83537,-40.4615,-0.617915,-0.349673,-31.189,41.2195,10.2134
217.284,7.19815,6.94886,0,1.65017,9.616,-0.57241,-2.56098,0.243902,-8.17073,-40.3082,-0.675395,-0.579595,-28.5061,37.8049,10
217.294,7.1614,6.61269,0,1.55437,9.64714,-0.474214,-2.37805,-0.182927,-7.7439,-39.9537,-0.665815,-0.953218,-25.8537,35.061,10.3659
217.304,7.10968,6.27583,0,1.346,9.60163,-0.548459,-2.31707,1.34146,-6.95122,-39.6376,-0.464634,-1.2023,-26.4329,31.6463,12.4695
217.314,7.0499,5.9785,0,1.27894,9.56571,-0.380808,-2.53049,2.19512,-7.13415,-39.0915,-0.282612,-0.742456,-26.6159,29.1768,13.689
217.324,7.00094,5.68019,0,1.32684,9.56092,-0.368833,-2.07317,3.9939,-6.7378,-38.7275,-0.167651,-0.972378,-28.2012,23.5061,15.5183
217.334,6.97068,5.39931,0,1.47773,9.52978,-0.404758,-1.92073,4.81707,-6.79878,-38.7179,-0.225132,-0.886157,-28.2622,20.5183,15.3659
217.344,6.96416,5.13394,0,1.67172,9.5705,-0.524509,-2.13415,5.60976,-6.67683,-38.8807,-0.167651,-0.828677,-27.6524,16.372,17.5305
217.354,6.97011,4.86836,0,1.75315,9.50823,-0.725691,-2.19512,7.56098,-6.52439,-39.4172,-0.0526904,-1.03944,-29.0854,12.5305,16.128
217.364,6.97898,4.57421,0,1.78668,9.6184,-0.519719,-1.64634,9.57317,-6.37195,-39.4556,-0.0431104,-1.7292,-26.0061,10.122,15.7622
217.374,6.97664,4.27777,0,1.64777,9.8124,-0.397573,-1.46341,11.5854,-5.4878,-39.5226,0.0526904,-1.97829,-24.2988,9.32927,15.4268
217.384,6.97428,3.99671,0,1.60945,9.71899,-0.332908,-1.03659,10.7622,-5.2439,-39.2256,-0.340093,-1.90165,-24.2988,8.93293,14.5122
217.394,6.99009,3.70063,0,1.69807,9.53218,-0.416733,-1.12805,8.41463,-4.87805,-39.0819,-0.378413,-2.34233,-22.7744,10.1524,12.0427
217.404,7.03129,3.40571,0,1.80105,9.41482,-0.438289,-1.82927,7.5,-3.9939,-38.967,-0.627495,-2.50519,-23.5366,13.7805,10
217.414,7.08847,3.11457,0,1.88488,9.30944,-0.507744,-1.85976,8.04878,-3.75,-39.0436,-0.646655,-2.63931,-24.2683,16.0061,7.0122
217.424,7.12906,2.83148,0,1.84896,9.60882,-0.407153,-1.67683,9.14634,-3.93293,-39.1681,-0.455054,-2.70637,-22.9878,16.4634,4.60366
217.434,7.17219,2.55187,0,1.88249,9.84593,-0.373623,-1.46341,8.29268,-3.5061,-38.8424,0.110171,-2.81175,-22.1037,17.9878,4.57317
217.444,7.23844,2.27277,0,2.019,9.8555,-0.359253,-2.22561,6.06707,-2.95732,-38.6508,0.215552,-2.97461,-20.8232,19.2378,5.64024
217.455,7.34808,2.0173,0,2.1651,9.63277,-0.443079,-1.85976,5.60976,-2.19512,-38.5359,0.186812,-2.74469,-20.9451,21.128,7.34756
217.464,7.52387,1.76504,0,2.33035,9.43159,-0.352068,-0.97561,6.64634,-1.55488,-38.4975,0.177231,-2.85965,-24.7561,21.1585,6.15854
217.474,7.71682,1.51467,0,2.24413,9.48428,-0.277822,-0.487805,9.02439,-1.03659,-38.6508,0.110171,-3.00335,-24.6646,23.0488,5.70122
217.484,7.87292,1.28325,0,2.18186,9.55852,-0.368833,-0.884146,9.84756,-1.15854,-38.5646,0.263452,-2.84049,-25.6707,23.5976,3.93293
217.494,8.05498,1.04766,0,2.19863,9.62798,-0.371228,-0.914634,10.7927,-0.731707,-38.5454,0.167651,-3.06083,-26.4634,25.3963,1.85976
217.504,8.26041,0.774353,0,2.23934,9.54415,-0.364043,-0.853659,11.7683,-0.640244,-38.4113,0.253872,-3.83682,-26.0366,30.2744,0.396341
217.514,8.53615,0.494306,0,2.30161,9.34776,-0.294587,-0.27439,13.4451,-0.457317,-38.3059,0.416733,-4.11464,-26.4329,33.6585,-1.18902
217.524,8.86966,0.232985,0,2.28964,9.22801,-0.299377,1.15854,15.4878,-0.243902,-38.1431,0.627495,-3.96136,-27.6524,35.4573,-0.457317
217.534,9.10692,-0.0390613,0,2.22018,9.30944,-0.191602,2.31707,16.8598,-0.426829,-38.2006,0.694556,-4.32541,-29.6951,35.7317,0.701219
217.544,9.38097,-0.28939,0,2.2585,9.44117,-0.0167651,2.2561,15.3354,0.0304878,-38.3155,0.637075,-4.15296,-31.5244,35.2439,2.37805
217.554,9.61867,-0.54924,0,2.44292,9.53218,-0.0981958,2.22561,13.7805,0.365854,-38.1718,1.14482,-4.46911,-33.3537,35.061,5.18293
217.564,9.79398,-0.804862,0,2.64171,9.55373,-0.172441,2.2561,12.7439,1.58537,-38.5742,0.713716,-4.61281,-34.1159,37.4085,7.9878
217.574,9.98306,-1.07553,0,2.90037,9.41722,-0.249082,0.487805,12.8354,3.32317,-38.7275,0.311353,-5.05349,-32.378,41.5244,7.71341
217.584,10.1823,-1.34354,0,2.89558,9.25436,-0.198787,0.121951,14.878,5.03049,-38.8328,0.0526904,-5.18761,-33.0488,47.3476,6.89024
217.594,10.3444,-1.57726,0,2.39023,9.29028,-0.143701,2.0122,19.3902,7.86585,-38.8233,0.167651,-4.75651,-31.5854,52.6524,4.2378
217.604,10.4629,-1.78618,0,2.09085,9.42919,-0.00958008,1.12805,15.5793,7.68293,-38.7849,0.378413,-4.47869,-31.128,53.75,1.40244
217.614,10.5846,-1.95827,0,2.1148,9.43638,-0.0934058,0.97561,10.2134,7.9878,-38.7275,0.771196,-3.98052,-30.3963,53.2317,-1.03659
217.624,10.7365,-2.12122,0,2.34472,9.36692,-0.268242,0.579268,5.54878,8.41463,-38.7179,0.799937,-3.9422,-32.5305,52.439,-1.58537
217.634,10.958,-2.27864,0,2.78541,9.14418,-0.347278,-0.365854,2.56098,9.93902,-38.7658,0.914897,-3.96136,-34.3598,52.8659,-1.46341
217.644,11.2656,-2.42072,0,3.24286,8.943,-0.256267,-2.19512,2.07317,13.0793,-38.852,1.0107,-3.82724,-36.4939,48.628,-0.670732
217.654,11.682,-2.58492,0,3.71228,8.71308,-0.308958,-4.96951,2.22561,18.3841,-38.67,0.819097,-4.29667,-35.0305,45.8537,0.121951
217.664,12.2262,-2.72043,0,4.28709,8.39215,-0.402363,-5.85366,2.83537,24.1463,-38.488,0.455054,-3.91346,-29.4512,40.6098,-0.853659
217.674,12.8821,-2.85335,0,4.80441,8.32509,-0.359253,-5.15244,4.90854,30.6707,-38.1431,0.301772,-3.9422,-23.7805,35.6098,-1.61585
217.684,13.5975,-3.01664,0,5.13971,8.71308,-0.275427,-4.08537,8.17073,36.9817,-38.0185,-0.100591,-4.53617,-13.1402,34.939,-4.5122
217.694,14.3407,-3.20212,0,5.33371,9.3765,-0.215552,-4.48171,12.2561,43.1098,-38.3155,-0.407153,-5.06307,-2.9878,34.939,-8.32317
217.704,15.0751,-3.36059,0,5.19001,10.0399,-0.335303,-6.67683,16.311,48.4146,-38.5071,-0.493374,-4.76609,7.13415,29.9085,-11.0671
217.714,15.7844,-3.48921,0,4.90261,10.653,-0.737666,-8.38415,20.7927,52.7134,-39.3789,-0.301772,-4.47869,18.8415,24.2378,-12.2866
217.724,16.4675,-3.60741,0,4.66071,11.0746,-1.21427,-9.39024,24.4817,55.3354,-39.81,-0.158071,-4.45953,30.8537,16.6463,-9.84756
217.734,17.1452,-3.73107,0,4.63676,11.3332,-1.7771,-8.71951,29.3293,57.3476,-40.7872,0.0718506,-4.77567,41.8902,10.5183,-4.08537
217.744,17.8419,-3.84238,0,4.61281,11.2494,-2.10283,-5.85366,33.1707,60.5793,-42.3392,-0.00479004,-4.83315,52.7439,6.0061,2.2561
217.754,18.5802,-4.03321,0,4.64873,11.0243,-2.04774,0,35.8841,65.0915,-42.8373,-0.819097,-6.4905,59.4207,9.20732,8.53659
217.764,19.3359,-4.2592,0,4.48108,10.8423,-1.72681,6.95122,40.1829,69.2073,-43.4121,-0.876577,-7.39103,66.4329,15.7317,14.8476
217.774,20.0931,-4.48412,0,4.21523,10.6818,-1.00591,12.8963,44.2683,72.7744,-43.575,-0.656235,-7.55389,72.8049,21.0976,18.1402
217.784,20.8619,-4.71537,0,4.09069,10.7465,0.110171,16.9817,52.439,76.9207,-43.0864,0.0239502,-7.75507,74.4512,24.3293,19.6341
217.794,21.5777,-4.92229,0,3.21891,10.4878,1.61664,19.6037,55.2744,80.7927,-42.6553,1.14482,-7.39103,74.3293,22.2866,18.75
217.804,22.2098,-5.09377,0,2.29203,10.3728,2.32556,17.5,48.7195,83.1098,-42.7415,2.43813,-6.91203,70.3963,13.4146,20.4573
217.814,22.7808,-5.23721,0,1.86812,10.8327,1.15919,10.061,49.8476,83.6281,-42.684,3.00335,-6.5384,65.5488,1.40244,21.5244
217.824,23.2885,-5.36043,0,1.76992,10.871,-0.232317,7.43902,58.5671,79.4207,-42.5403,3.43446,-6.27016,58.2622,-7.19512,21.8902
217.834,23.6993,-5.47311,0,1.75315,10.4758,-0.136516,10.6098,53.2012,70.061,-42.4924,3.6069,-6.19352,51.25,-17.5915,25.4573
217.844,24.0293,-5.56117,0,1.71004,10.4399,0.277822,10.6402,35,63.0488,-42.4541,3.58774,-5.82948,42.1951,-24.5732,28.9939
217.854,24.3085,-5.64206,0,1.73399,10.4782,0.57241,8.9939,16.189,58.3537,-41.7835,3.08958,-5.68578,34.5427,-29.3598,31.2195
217.864,24.5447,-5.71274,0,1.74597,10.4351,0.431104,7.92683,6.34146,54.3293,-41.4769,2.59141,-5.52291,25.0915,-31.8598,32.2256
217.874,24.7854,-5.77449,0,2.10283,10.2291,0.299377,7.46951,8.65854,50.9451,-40.8734,2.13157,-5.33131,15.2134,-32.1951,33.4146
217.884,25.0645,-5.82678,0,2.7878,9.98484,0.383203,6.06707,18.2622,47.2256,-40.0783,2.19863,-5.11097,6.03659,-34.8171,32.8354
217.894,25.3796,-5.84632,0,3.40093,9.55613,0.835862,4.45122,28.9329,43.3232,-39.1969,2.52435,-4.46911,-1.28049,-37.2866,33.9939
217.904,25.7378,-5.86545,0,3.95897,9.12023,1.19751,2.86585,35.8537,40.4573,-38.488,2.50519,-4.41163,-8.07927,-42.3171,36.0366
217.914,26.1432,-5.88426,0,4.38768,8.77296,1.24062,2.19512,39.878,39.6646,-37.9515,2.59141,-4.37331,-15.2134,-47.0427,38.7195
217.924,26.5876,-5.90987,0,4.61999,8.53106,1.12087,2.10366,42.3171,40.6707,-37.8174,2.39023,-4.49785,-21.4329,-50.8841,39.9085
217.934,27.0412,-5.98453,0,4.63676,8.45442,1.1544,0.97561,42.8354,41.8902,-37.6353,1.96871,-5.31215,-24.2073,-48.2622,36.8293
217.944,27.493,-6.10759,0,4.46911,8.18857,0.826282,1.18902,40.2744,42.8659,-37.4916,1.91123,-6.14562,-26.311,-43.8415,32.378
217.954,27.8876,-6.22308,0,4.06674,8.24126,0.479004,1.64634,37.378,42.7744,-37.6737,1.96871,-6.11688,-27.3171,-40.061,30.061
217.964,28.2265,-6.33676,0,3.63324,8.15744,0.514929,-0.0304878,31.0061,42.5,-37.9515,1.85375,-6.2031,-25.5793,-38.2012,26.7378
217.974,28.5085,-6.45086,0,3.25483,8.09996,0.768801,-2.59146,20.9451,41.7073,-37.6258,1.92081,-6.23184,-27.2561,-37.6524,22.2866
217.984,28.7472,-6.54788,0,2.92671,7.87243,0.912502,-3.5061,10.5488,40.9146,-37.712,1.91123,-6.03066,-28.4451,-37.2561,17.7439
217.994,28.9613,-6.65788,0,2.88121,7.8389,1.152,-3.68902,1.4939,39.3293,-37.4054,2.04535,-6.26058,-29.1159,-35.5488,12.0122
218.004,29.2012,-6.75998,0,3.15903,7.56826,1.3939,-2.89634,-6.52439,37.3476,-37.1563,2.05493,-6.1552,-31.5854,-34.3293,8.01829
218.014,29.4908,-6.85909,0,3.86556,7.75268,1.03944,-1.03659,-12.0427,35.061,-37.2617,2.02619,-6.18394,-31.5854,-32.3476,4.32927
218.024,29.8111,-6.96845,0,4.29667,7.88201,0.838257,-3.14024,-12.439,34.5122,-37.5587,1.99745,-6.47134,-32.8659,-31.4024,1.43293
218.034,30.1799,-7.08364,0,4.67987,7.72154,0.58678,-3.04878,-13.8415,34.7561,-37.779,1.97829,-6.6821,-35.1829,-30.9451,-0.0304878
218.044,30.582,-7.1631,0,4.86668,7.48923,0.632285,-2.37805,-15.5793,35.2439,-38.0856,2.14115,-6.2031,-39.8476,-32.4085,-3.32317
218.054,30.9915,-7.24245,0,5.17564,7.46288,0.665815,-1.40244,-17.9878,33.2927,-37.9802,2.29443,-6.24142,-43.4146,-33.4146,-5.64024
218.064,31.3653,-7.36115,0,5.17803,7.48683,0.641865,-0.518293,-21.189,30.6402,-37.9323,2.26569,-6.96951,-45.9756,-34.5732,-8.14024
218.074,31.6946,-7.48075,0,5.01517,7.43175,0.603545,-1.06707,-21.7683,28.2012,-37.7599,2.52435,-7.02699,-48.7805,-32.439,-9.60366
218.084,32.0215,-7.61849,0,5.1469,7.31918,0.397573,0.97561,-25.061,26.372,-37.5012,2.82133,-7.36229,-49.7866,-29.939,-10.6098
218.094,32.3444,-7.75615,0,5.13253,7.15632,0.61073,1.12805,-30.5488,25.5488,-37.4629,2.82133,-7.43893,-51.3415,-27.5305,-12.8049
218.104,32.614,-7.87029,0,5.13732,7.54671,0.59636,-4.14634,-34.6646,23.628,-37.7599,2.92671,-7.18027,-53.7195,-25.8841,-14.7256
218.114,32.9386,-7.97326,0,5.48938,7.08686,-0.414338,-2.04268,-33.7805,22.622,-37.9898,2.79259,-7.10363,-54.6037,-24.3902,-16.9512
218.124,33.2188,-8.09759,0,5.24509,7.07489,-0.114961,-0.579268,-29.0244,21.2195,-37.8748,2.56267,-7.51557,-55.9146,-22.3476,-20.9451
218.134,33.4309,-8.22407,0,4.83554,7.02699,0.0526904,-0.426829,-30.7622,18.9634,-38.1239,2.43813,-7.67843,-59.8476,-19.3598,-24.1159
218.144,33.6261,-8.35397,0,5.01038,7.04136,0.0574805,-0.365854,-30.0915,15.8232,-37.9515,2.66805,-7.77423,-64.0854,-14.6341,-26.5244
218.154,33.8539,-8.4851,0,5.50854,6.90245,-0.102986,-1.28049,-22.1037,13.1098,-37.8557,2.71595,-7.86045,-69.5427,-13.1402,-29.6646
218.164,34.0212,-8.59801,0,5.68578,7.46288,-0.0910107,-1.55488,-19.9085,10.0305,-38.1239,2.48603,-7.67843,-77.0122,-10.3354,-31.128
218.174,34.1647,-8.73036,0,5.87738,7.52276,-0.100591,-1.34146,-17.7744,6.4939,-38.2197,2.72553,-8.11912,-83.4146,-10.7012,-32.0122
218.184,34.3207,-8.89696,0,5.90612,7.14674,-0.138911,-2.31707,-15.8537,4.45122,-37.7503,3.01293,-8.7035,-87.8354,-9.20732,-29.4512
218.194,34.5788,-9.0788,0,5.74326,6.90724,-0.229922,-4.32927,-14.7561,1.28049,-37.6162,2.58183,-9.04838,-88.75,-7.34756,-25.9146
218.204,34.9563,-9.26463,0,6.02826,6.445,-0.519719,-0.365854,-8.71951,-1.40244,-37.4437,2.51477,-9.20166,-86.5854,-7.10366,-21.8598
218.214,35.0794,-9.46111,0,6.17197,6.65815,-0.440684,2.22561,-1.64634,-4.35976,-37.5683,2.01661,-9.54655,-80.5183,-6.34146,-18.1402
218.224,35.1772,-9.62349,0,6.39949,6.81623,-0.261057,2.43902,4.42073,-6.64634,-38.3443,1.78668,-9.26873,-76.8902,-5.57927,-14.4817
218.234,35.2409,-9.78149,0,6.66294,7.19703,-0.155676,5.18293,10.2134,-9.05488,-38.7754,1.3939,-9.41243,-72.7744,-6.18902,-12.9878
218.244,35.2814,-9.91766,0,6.62223,7.19703,-0.0191602,6.28049,13.7195,-10.9146,-39.264,1.62382,-9.24957,-70.6707,-7.19512,-11.7988
218.254,35.3165,-10.0407,0,6.40428,6.89047,-0.0239502,7.13415,19.3293,-11.9817,-39.81,2.07409,-9.2304,-71.7378,-5.91463,-10.1829
218.264,35.3129,-10.1506,0,6.01868,6.61983,0.0502954,9.20732,25,-14.5732,-39.9346,2.45729,-9.10586,-74.4207,-5.82317,-10.6402
218.274,35.2241,-10.2665,0,5.52531,6.66534,0.0191602,11.4329,30.0915,-17.9268,-40.471,3.559,-9.42201,-79.1768,-5.73171,-7.9878
218.284,35.049,-10.4063,0,5.22354,6.84976,0.138911,13.3841,32.1646,-22.1646,-40.2699,3.88472,-9.90101,-83.1402,-3.14024,-8.38415
218.294,34.8166,-10.5649,0,5.13732,6.90484,0.263452,15.4573,31.372,-26.9817,-40.4806,4.45953,-10.4088,-87.1341,-1.82927,-7.10366
218.304,34.5283,-10.7378,0,5.11097,7.04615,0.502954,16.7378,27.2256,-31.7378,-40.4327,4.22002,-10.7824,-93.5366,-0.121951,-5.21341
218.314,34.2074,-10.8737,0,5.24509,7.19464,0.574805,18.75,23.75,-35.9451,-40.9021,3.90388,-10.3225,-95.1219,1.03659,-2.53049
218.324,33.7984,-10.9709,0,5.24749,7.81495,0.737666,18.4756,23.0793,-41.0671,-41.9655,3.8464,-9.94891,-94.5732,-1.95122,-1.76829
218.334,33.2752,-11.0488,0,4.88824,8.27,0.64905,18.5061,23.6585,-46.8293,-42.9523,3.54942,-9.91059,-90.3354,-11.0061,1.82927
218.344,32.5392,-11.1484,0,3.80569,9.19448,0.445474,16.8902,17.8963,-53.0793,-43.872,2.80217,-10.6483,-82.8354,-16.0366,7.37805
218.354,31.6665,-11.2438,0,2.96024,9.8076,0.110171,17.4085,5.88415,-56.9207,-44.418,1.21188,-10.7728,-73.6585,-15.0305,13.1707
218.364,30.7718,-11.3898,0,2.58183,9.92496,0.603545,18.9634,-11.4024,-56.4329,-43.642,-0.416733,-11.6733,-65.7622,-9.11585,15.5183
218.374,30.05,-11.3951,0,3.66198,9.89862,1.13284,18.2012,-37.9268,-52.2866,-45.6347,-1.57592,-9.33579,-51.8293,-7.65244,20.3049
218.384,29.5759,-11.3536,0,5.80074,10.0926,1.21667,17.0427,-65.3049,-48.0488,-47.043,-2.58183,-8.63644,-32.6524,-11.311,22.8963
218.394,29.2737,-11.3337,0,8.27479,10.6962,1.0083,20.2134,-83.0488,-47.4695,-47.5603,-4.19128,-9.17292,-12.378,-13.0488,21.9512
218.404,29.0322,-11.3193,0,9.98484,11.9583,1.19751,22.7439,-85.1829,-46.25,-48.5375,-5.49417,-9.46033,14.4817,-11.7378,16.7073
218.414,28.7857,-11.3499,0,10.586,13.2852,1.37235,17.8659,-77.6524,-44.5732,-48.183,-6.57672,-10.3513,42.9268,-6.79878,10.7012
218.424,28.5904,-11.3851,0,10.7465,14.0204,1.03225,10.2134,-73.2927,-37.6524,-47.2633,-6.4905,-10.2746,73.9634,-5.21341,11.6768
218.434,28.5266,-11.4566,0,10.3632,13.0121,0.0479004,4.7561,-69.3902,-26.7988,-45.2228,-5.64746,-10.5716,101.311,6.79878,17.0427
218.444,28.5273,-11.4412,0,8.24126,11.1033,-0.524509,-3.07927,-55.8841,-16.372,-43.4025,-3.68354,-8.40652,119.787,21.4939,29.2988
218.454,28.4597,-11.2947,0,5.34808,9.30705,-0.711321,-11.2805,-33.4451,-9.66463,-41.2853,-1.346,-5.48459,124.97,35.2744,41.0061
218.464,28.1192,-11.0029,0,2.05014,7.57784,-0.864602,-15.5793,-12.5915,-7.31707,-39.6663,1.73878,-2.55309,118.78,48.872,44.6951
218.474,27.2991,-10.5329,0,-0.783171,6.46895,-0.716111,-10.5488,-3.53659,-12.1951,-39.8867,4.47869,0.771196,104.451,49.1463,39.3902
218.484,26.0687,-9.90151,0,-2.62734,6.38273,-0.481399,-1.98171,-11.311,-24.1768,-41.1129,9.07712,4.02842,81.4024,37.1646,31.5854
218.494,24.7376,-9.07824,0,-2.73751,6.99825,-0.191602,2.2561,-35.8537,-39.0244,-39.4651,12.4685,7.69759,56.7683,30.061,25.8537
218.504,23.5037,-8.34835,0,-1.4897,7.85566,-1.31487,0.243902,-65.2439,-53.5061,-39.3406,13.7426,6.50008,18.7805,5.7622,22.4085
218.514,22.4226,-7.5199,0,0.105381,8.83283,-2.92671,1.64634,-83.8415,-63.75,-40.6147,13.9438,9.02922,-18.2622,-7.7439,20.4878
218.524,21.5,-6.67025,0,1.75555,10.0351,-3.7051,6.82927,-80.4878,-68.6281,-39.216,11.7212,9.67109,-57.9878,-16.6768,17.8049
218.534,20.7273,-5.89687,0,3.13748,11.0291,-3.3195,10.3354,-57.3476,-67.3781,-37.9515,7.67843,8.56938,-86.9512,-27.378,13.689
218.544,20.0915,-5.19713,0,3.83203,11.2183,-2.77104,10.0915,-34.4207,-61.0671,-38.1814,3.18538,7.85087,-100.213,-31.1585,7.68293
218.554,19.5474,-4.57235,0,3.82006,10.8183,-2.10762,7.56098,-13.7195,-54.2073,-38.6987,-0.694556,7.09405,-106.098,-38.872,2.07317
218.564,19.0396,-4.05682,0,3.36261,10.0711,-1.76513,4.54268,5.7622,-49.6037,-38.7275,-4.42121,5.58998,-104.939,-46.9817,-1.21951
218.574,18.4965,-3.66929,0,2.53872,9.24717,-1.56874,6.52439,19.2683,-47.8963,-38.6125,-6.41386,3.72186,-100.793,-45.1829,-2.95732
218.584,17.8709,-3.41047,0,1.7795,8.9933,-1.26697,8.35366,25.3963,-48.9329,-38.0856,-7.69759,1.7771,-90.8841,-39.3902,-0.182927
218.594,17.1813,-3.14885,0,1.28134,9.01964,-0.910107,10.2134,25.5183,-50.3963,-40.6339,-5.89654,2.14115,-79.3902,-36.311,3.68902
218.604,16.432,-3.0655,0,0.907712,9.24238,-0.785566,9.72561,23.4756,-52.8354,-36.1313,-6.99825,-0.723296,-61.372,-20.7622,11.5854
218.614,15.6306,-2.99344,0,0.538879,9.44117,-0.950823,8.56707,18.0793,-54.9085,-36.4282,-4.97685,-0.819097,-47.4085,-8.56707,19.7561
218.624,14.7439,-2.91445,0,-0.0934058,9.55613,-1.16877,9.17683,9.72561,-57.439,-36.6199,-4.06674,-0.646655,-33.3841,-2.59146,25.5793
218.634,13.7606,-2.82537,0,-0.953218,9.7118,-1.25739,10.3354,-1.55488,-58.811,-37.7503,-3.3195,-0.426313,-19.0854,3.59756,26.4939
218.644,12.7175,-2.75401,0,-1.55676,10.0064,-0.835862,8.56707,-16.5549,-60.3049,-39.3981,-2.99377,-0.675395,-11.4634,8.35366,22.2256
218.654,11.7446,-2.73047,0,-0.936453,10.4135,-0.227527,5.39634,-28.9939,-62.8354,-40.4902,-2.76385,-1.47054,-2.59146,16.0671,9.7561
218.665,10.8974,-2.7202,0,0.201182,10.6075,-0.153281,1.43293,-36.9817,-64.6951,-40.9788,-2.38065,-1.69088,4.90854,21.8902,-2.65244
218.674,10.1646,-2.73674,0,1.2526,10.9261,-0.263452,-3.90244,-58.7805,-65.8841,-40.222,-1.86333,-2.12199,8.62805,23.811,-16.1585
218.684,9.45629,-2.7292,0,1.08734,9.64235,0.0694556,-2.19512,-62.4695,-64.6646,-39.9346,-0.905317,-1.71004,16.4024,19.0549,-21.4329
218.694,8.70807,-2.69662,0,0.481399,9.72138,-0.416733,-7.16463,-63.2622,-62.8354,-39.5035,-0.445474,-1.27894,19.878,10.5488,-21.8598
218.704,7.97958,-2.63998,0,0.486189,9.19209,-1.54239,-8.2622,-62.6829,-62.7439,-38.6412,-0.167651,-0.838257,22.0732,4.7561,-19.878
218.714,7.27339,-2.55685,0,0.756826,9.29507,-2.42136,-6.85976,-59.3902,-65.2744,-38.2964,0.502954,-0.368833,22.2866,-2.19512,-20.1524
218.724,6.60648,-2.47375,0,1.11847,9.10586,-2.60578,-3.68902,-57.1646,-67.5,-38.5742,0.656235,-0.340093,18.689,-9.45122,-18.4756
218.734,6.03068,-2.39783,0,2.00463,9.5681,-2.64171,-3.84146,-47.7744,-69.4207,-38.488,0.387993,-0.426313,17.1341,-15.7927,-20.0915
218.744,5.53891,-2.33956,0,2.60578,9.55852,-2.1148,-3.93293,-37.8354,-68.9939,-38.2006,0.359253,-0.694556,9.63415,-23.2622,-23.9024
218.754,5.10882,-2.32956,0,2.85726,9.48428,-1.95913,-3.90244,-28.0488,-66.7988,-37.2426,0.0622705,-1.4418,5.85366,-26.311,-26.4024
218.764,4.69239,-2.32616,0,2.55549,9.35016,-1.91362,-2.5,-19.3902,-63.2622,-37.0414,-1.08734,-1.54718,1.09756,-29.9085,-31.7988
218.774,4.2879,-2.36526,0,2.42136,9.4268,-1.98308,-2.80488,-13.3537,-61.0976,-36.5145,-1.71962,-2.20821,-2.0122,-29.7561,-36.0366
218.784,3.87235,-2.45991,0,2.0693,9.23759,-1.98547,-2.71341,-8.78049,-59.4207,-35.978,-2.44771,-3.08958,-0.121951,-30.8537,-38.5671
218.794,3.44166,-2.57339,0,1.68609,8.98132,-1.81782,-0.762195,-3.07927,-57.7439,-35.4319,-3.04167,-3.39614,3.47561,-30.1829,-37.1037
218.804,3.01089,-2.7463,0,1.4921,9.02204,-1.46336,0.304878,1.25,-56.0976,-35.0008,-3.64522,-4.34457,6.7378,-27.4695,-37.0427
218.814,2.58614,-2.9618,0,1.45617,9.17053,-1.1041,-0.213415,3.35366,-55.6098,-34.2919,-3.91346,-5.00559,11.9512,-23.5671,-35.3049
218.824,2.18252,-3.2033,0,1.4897,9.19209,-0.953218,-1.18902,3.35366,-54.6951,-33.7841,-3.7027,-5.44627,16.4634,-19.6951,-30.6098
218.834,1.83671,-3.44092,0,1.76273,9.12742,-1.00112,-1.06707,4.72561,-53.1402,-33.3339,-3.1758,-5.44627,23.0793,-15.2439,-24.0854
218.844,1.50874,-3.71208,0,1.78429,9.02922,-1.1065,0.823171,4.26829,-52.5305,-32.9507,-2.50519,-6.0115,29.7561,-10.3049,-16.372
218.854,1.19603,-3.98729,0,1.81542,9.02443,-1.26936,1.98171,1.37195,-52.0427,-32.7878,-1.49928,-6.19352,36.6768,-7.10366,-6.40244
218.864,0.888535,-4.24376,0,1.78429,9.03401,-1.33163,2.95732,0.670732,-51.7378,-32.8645,-0.387993,-6.08814,43.872,-6.28049,4.42073
218.874,0.591214,-4.46392,0,1.78668,9.20406,-1.346,3.9939,2.0122,-50.9451,-33.583,0.368833,-5.8199,47.439,-5.73171,13.9939
218.884,0.29909,-4.67576,0,1.71483,9.22562,-1.27655,4.2378,5.36585,-50.0915,-34.0428,0.847837,-5.90612,48.5671,-5.85366,20.1829
218.894,-0.0415159,-4.88287,0,1.32445,9.02204,-1.2526,3.75,8.53659,-51.189,-34.0332,1.17356,-5.95402,44.3598,-3.53659,25
218.904,-0.408024,-5.11845,0,1.05381,9.7118,-1.24062,5.60976,10.6707,-50.122,-34.0811,1.17356,-6.51924,41.5549,0.548781,26.2195
218.914,-0.867232,-5.39977,0,0.435894,9.67109,-1.05381,2.9878,6.7378,-52.9573,-33.947,1.40348,-7.33355,37.0122,6.55488,28.4451
218.924,-1.46832,-5.73451,0,-0.251477,9.10826,-0.960403,1.15854,2.59146,-59.878,-34.2536,1.19272,-8.4161,37.3171,9.81707,32.4695
218.934,-1.97667,-6.00656,0,0.301772,10.0351,-1.14242,2.95732,-1.37195,-58.3841,-35.1349,0.493374,-7.82213,38.75,10.7927,34.4512
218.944,-2.50217,-6.21058,0,0.0718506,9.88425,-0.785566,0.182927,-7.5,-58.5061,-36.5049,-0.301772,-7.17069,38.7195,9.17683,35.7927
218.954,-3.02096,-6.36277,0,0.244292,9.84593,-1.07776,-0.487805,-9.32927,-60.9451,-38.0377,-1.33642,-6.72042,36.311,6.89024,34.6341
218.964,-3.66714,-6.48644,0,0.150886,8.76098,-1.93757,-2.95732,-10.7317,-74.1159,-39.6472,-2.06451,-6.60546,33.3232,5.42683,33.872
218.974,-4.14746,-6.5695,0,1.26457,10.7536,-1.52084,-2.34756,-12.3171,-70.1829,-40.8351,-2.84049,-6.14562,30.3963,5.09146,30.4268
218.984,-4.54692,-6.61401,0,1.48491,10.2195,-1.93039,-3.01829,-4.81707,-66.0976,-41.6302,-2.84049,-5.60914,21.2195,3.9939,26.7683
218.994,-4.93565,-6.65985,0,1.32684,9.58487,-2.09564,-2.37805,0.304878,-65.0305,-41.6973,-2.13157,-5.6762,11.5549,3.9939,23.9939
219.004,-5.20979,-6.74347,0,1.95434,10.016,-2.41897,-0.548781,7.2561,-60.5793,-41.5632,-1.46096,-6.37554,1.31098,10.2134,22.8354
219.014,-5.38301,-6.90174,0,2.49082,10.1549,-2.67763,1.09756,16.5244,-56.4329,-41.2853,-0.273032,-7.76465,-6.18902,17.9268,22.561
219.024,-5.52656,-7.12322,0,2.28006,10.4854,-2.18186,2.2561,19.7561,-50.6707,-41.7356,0.455054,-9.15376,-7.43902,25.0915,19.8171
219.034,-5.6474,-7.43248,0,2.12199,10.7033,-1.87051,3.32317,20.3354,-46.4939,-42.5308,0.320933,-11.2135,-4.2378,32.8354,17.8049
219.044,-6.0215,-7.80885,0,0.246687,9.6663,-0.65863,-1.95122,6.85976,-52.6829,-43.2972,-0.483794,-13.0145,4.2378,41.7378,12.5915
219.054,-6.14721,-8.22831,0,1.82979,12.1954,-0.984353,1.25,9.42073,-42.5305,-44.236,-1.70046,-14.5186,14.8476,46.6768,8.20122
219.064,-6.16126,-8.67046,0,1.9711,12.0374,-0.713716,-3.59756,4.2378,-32.9573,-44.0636,-2.82133,-15.285,29.1159,53.1098,1.0061
219.074,-6.13223,-9.0613,0,1.98547,11.5536,-0.809517,-6.09756,-3.20122,-29.5122,-44.7054,-4.22002,-14.7389,38.2317,59.2378,-5.30488
219.084,-6.04818,-9.31475,0,2.26808,11.3596,-0.852627,-8.75,-12.2561,-26.9817,-45.2802,-4.34457,-12.2481,43.628,65.7927,-13.1707
219.094,-5.89802,-9.41393,0,2.66805,11.0746,-0.924478,-11.6463,-21.4024,-24.6646,-46.5065,-3.2237,-9.44117,40.7012,69.4512,-19.1768
219.104,-5.66196,-9.26542,0,3.2692,10.9237,-1.13763,-13.689,-28.2317,-21.9512,-49.2272,-1.11608,-4.57449,24.0244,71.6463,-26.2805
219.114,-5.28667,-8.99878,0,4.39965,11.0937,-1.2502,-15.8841,-30.3049,-17.4085,-52.6473,1.7292,-1.99745,-10.3963,72.5915,-35.8537
219.124,-4.73987,-8.64218,0,5.54926,11.3045,-1.11368,-19.0854,-29.939,-8.35366,-55.9045,4.68945,0.340093,-45.4268,69.1463,-48.811
219.134,-4.0171,-8.35793,0,6.39949,11.1967,-0.991538,-21.6463,-29.7256,3.07927,-56.8434,9.56571,-1.14482,-79.7561,62.7134,-59.2988
219.144,-3.08963,-8.15555,0,7.32157,11.0003,-0.826282,-23.0488,-30.4878,17.7744,-54.2568,15.2754,-2.77343,-92.7439,64.9085,-61.7988
219.154,-1.9186,-7.8053,0,8.41131,10.8949,-0.546064,-24.2378,-32.4695,36.311,-53.5191,11.2326,0.732876,-136.585,19.2683,-60.6402
219.164,-0.533784,-7.35805,0,8.87834,11.1536,0.570015,-33.1707,-34.4512,58.7805,-49.6775,5.55166,2.99377,-152.317,-8.10976,-59.2683
219.174,1.04924,-6.66049,0,8.53585,10.5357,0.114961,-47.378,-22.5305,80.8232,-46.1137,0.761616,8.16702,-149.756,-43.2317,-54.8171
219.184,2.70913,-6.17125,0,6.78509,9.83156,0.843047,-54.4512,-3.10976,100.884,-43.1056,-4.99601,4.09548,-123.841,-53.8415,-49.2683
219.194,4.40128,-5.73862,0,5.37682,9.72617,0.874182,-55.7622,3.87195,119.146,-41.0075,-9.23999,3.23328,-78.4451,-49.6341,-49.5427
219.204,6.06279,-5.18399,0,3.69073,9.67588,-0.380808,-44.5732,10.5183,135.915,-38.0664,-4.94811,5.37921,-25.4878,-45.2439,-48.3537
219.214,7.57674,-4.79597,0,1.76752,10.2339,-0.203577,-33.7195,8.2622,146.86,-36.9072,-12.1332,2.85007,2.65244,-40.1524,-55.3354
219.224,8.95932,-4.38162,0,0.258662,11.326,-0.529299,-23.6585,9.45122,153.872,-34.9146,-10.2267,3.3674,40.5488,-32.0122,-51.5244
219.234,10.2445,-4.01791,0,-1.04423,13.0648,-0.742456,-19.1159,12.4085,158.75,-33.7075,-8.2724,2.74469,68.2317,-29.8476,-40.1829
219.244,11.4535,-3.57273,0,-1.80105,14.442,-0.646655,-17.7439,6.82927,158.78,-33.9087,-5.74326,4.21044,79.1463,-29.4817,-24.7256
219.254,12.6055,-3.11852,0,-1.5879,15.079,-0.529299,-16.4024,-2.34756,153.201,-35.3553,-3.1758,4.82357,72.8049,-25.8841,-9.60366
219.264,13.7465,-2.6866,0,-0.263452,15.1964,-0.419128,-14.2988,-15.2134,144.177,-37.5012,-0.694556,5.04391,62.4695,-25.9451,3.32317
219.274,14.8939,-2.38234,0,1.12566,14.8324,-0.208367,-10.5793,-26.9207,136.28,-39.2927,1.33642,3.34824,49.0549,-25.4878,12.3476
219.284,16.0203,-2.11867,0,1.35798,13.8169,-0.943638,-5.97561,-30.6402,133.872,-40.5189,3.58774,2.94587,32.0122,-23.75,19.4207
219.294,17.1179,-1.87567,0,0.922083,12.8852,-1.86093,0.0304878,-22.1646,136.341,-41.0554,5.73368,2.80217,14.4207,-22.8963,24.9085
219.304,18.1858,-1.68202,0,0.433499,12.4757,-2.15552,4.60366,-7.95732,139.848,-40.3561,6.62462,2.05493,-4.32927,-20.0915,30.7012
219.314,19.2409,-1.52049,0,0.196392,12.229,-1.99026,7.28659,5.09146,142.896,-38.1527,7.29523,1.56634,-19.3598,-9.29878,36.7988
219.324,20.2978,-1.4284,0,0.153281,11.9009,-1.83219,8.32317,15.6098,145.61,-36.4857,6.23184,0.455054,-31.7683,-18.2927,40.122
219.334,21.3642,-1.34967,0,0.282612,11.4171,-1.90883,10.5488,23.9329,147.348,-35.2307,5.73368,0.273032,-37.0732,-23.3537,41.4939
219.344,22.3735,-1.28537,0,-0.0143701,11.1105,-1.89686,14.1768,32.4085,146.738,-33.9374,4.80441,0.0814307,-39.878,-27.5915,41.25
219.354,23.3659,-1.24726,0,0.0526904,10.483,-2.14115,17.1951,39.4817,146.341,-33.4393,4.36373,-0.273032,-38.3537,-29.2683,39.6037
219.364,24.3073,-1.20423,0,0.241897,9.79323,-1.98068,20.9451,41.8902,140.854,-33.3722,3.42488,-0.186812,-37.9268,-32.3476,38.1707
219.374,25.1927,-1.19079,0,0.438289,9.30705,-2.03816,25.1829,45.8841,134.451,-33.7075,2.56267,-0.608335,-35.2744,-34.1463,36.0366
219.384,25.9731,-1.20009,0,0.261057,9.06036,-2.08606,30.6707,50.1524,127.683,-34.3015,1.11608,-0.962798,-31.7073,-36.8293,32.439
219.394,26.667,-1.26034,0,0.244292,9.01725,-2.11241,33.4451,55.2744,120.64,-34.6176,0.00479004,-1.7771,-29.5732,-43.872,28.3841
219.404,27.3194,-1.32745,0,0.502954,8.8951,-1.90404,31.8598,63.1402,114.39,-34.5697,-0.953218,-1.92081,-27.4695,-45.4878,25.3049
219.414,27.8891,-1.39814,0,0.344883,8.66997,-1.93757,32.7439,69.2988,109.238,-34.2344,-1.16398,-1.97829,-28.75,-39.3293,22.1951
219.424,28.3537,-1.46416,0,0.0598755,8.52866,-1.93757,35.061,73.5366,103.506,-34.2727,-0.637075,-1.93039,-32.1037,-32.0122,22.622
219.434,28.6234,-1.5589,0,-0.720901,8.27,-1.8274,38.4451,72.5915,95.5488,-34.1961,0.282612,-2.39023,-37.8049,-28.6585,23.9634
219.444,28.6604,-1.6434,0,-1.57832,8.56219,-1.11368,33.5671,69.8171,83.5061,-34.4548,1.5376,-2.30401,-43.9329,-26.8598,26.0976
219.454,28.5177,-1.74954,0,-1.89686,7.92512,-1.1041,33.1098,75,71.4024,-34.5122,2.88839,-2.68721,-49.6341,-25.9451,31.8293
219.464,28.1982,-1.88865,0,-2.28724,7.66406,-0.799937,31.7683,74.6037,59.5122,-34.8859,3.48236,-3.28118,-55.6707,-22.378,32.9268
219.474,27.7175,-2.03617,0,-2.58902,7.31678,-0.440684,27.9573,70.3963,48.2622,-34.6176,3.63564,-3.4632,-62.4085,-20.0305,31.2195
219.484,27.1639,-2.2172,0,-2.30161,6.76593,0.124541,25.0305,70.1524,38.4146,-34.5506,3.97094,-4.05716,-68.0793,-18.1098,23.9024
219.494,26.6492,-2.42111,0,-1.5879,6.74917,1.00351,17.9268,72.7744,29.939,-34.244,3.80808,-4.46911,-72.1951,-13.9939,17.2561
219.504,26.2093,-2.62275,0,-0.740061,6.4905,1.60227,11.4024,77.3171,22.7744,-34.4548,3.67396,-4.58407,-78.6281,-13.2012,8.56707
219.514,25.7326,-2.81674,0,-0.531694,6.47853,1.90883,9.69512,79.1159,14.4207,-34.3494,3.14706,-4.56491,-83.9024,-9.81707,1.0061
219.524,24.8979,-3.01642,0,-0.198787,6.95993,1.89446,8.81098,79.4207,3.81098,-34.5218,3.07042,-4.79483,-90.4268,-9.7561,-5.73171
219.534,24.2526,-3.24768,0,-0.225132,7.14434,1.99266,5.45732,61.8293,-5.27439,-35.3074,2.55309,-5.5325,-100.701,-9.93902,-8.75
219.544,23.6427,-3.5035,0,-0.0287402,7.48444,1.74118,2.10366,47.4695,-12.2866,-36.1313,1.99745,-6.2031,-107.591,-6.85976,-12.3476
219.554,22.9806,-3.78633,0,-0.0215552,7.90835,1.72441,-3.41463,36.9512,-18.9939,-36.5815,1.38432,-6.89287,-112.378,-5.06098,-12.7744
219.564,22.3123,-4.06007,0,0.162861,7.94667,1.7771,-9.96951,23.3537,-23.689,-37.0126,0.656235,-7.00783,-114.695,-4.5122,-15.7622
219.574,21.7551,-4.35989,0,1.23583,7.68322,1.96871,-11.7378,7.9878,-29.9695,-36.2845,0.0431104,-7.47725,-113.476,-2.56098,-16.189
219.584,21.4043,-4.69285,0,2.86205,7.33355,2.17707,-11.4634,-8.93293,-34.9085,-35.2882,0.148491,-7.98499,-109.726,3.56707,-14.6341
219.594,21.2301,-5.07155,0,4.55293,7.23296,2.49082,-10.8841,-31.128,-39.7866,-34.9433,-0.301772,-8.83762,-105.732,12.7134,-12.561
219.604,21.0831,-5.4381,0,5.72649,7.87961,2.47166,-12.1037,-68.2012,-45.1524,-35.087,0.0526904,-8.8951,-97.2256,20.6098,-7.65244
219.614,20.9897,-5.77169,0,7.25691,8.51669,1.09213,-13.0183,-112.713,-49.0244,-36.5145,0.0526904,-8.93342,-88.4146,23.1707,-2.2561
219.624,21.126,-6.04251,0,9.04359,7.96104,-0.852627,-8.01829,-142.317,-42.5305,-38.0281,-0.0622705,-8.4161,-77.1341,26.5244,3.38415
219.634,21.5124,-6.26001,0,10.9045,7.58982,-2.18905,-0.640244,-143.659,-30.0305,-40.0974,-0.177231,-8.09996,-64.6951,23.1402,9.26829
219.644,22.0805,-6.51467,0,12.6816,7.85087,-2.38783,4.29878,-124.665,-16.9817,-41.9655,-0.483794,-9.35495,-53.7805,25.0305,13.5061
219.654,22.8087,-6.79975,0,13.9534,8.0329,-3.16861,14.6646,-97.1951,-3.23171,-43.0002,-1.3939,-10.3704,-46.9207,31.2195,14.0244
219.664,23.6149,-7.14265,0,13.8504,8.81367,-4.14099,32.2256,-65.4268,11.4024,-43.8815,-2.02619,-11.9416,-43.4756,47.5915,7.89634
219.674,24.407,-7.56794,0,12.4996,9.73336,-4.40205,47.8963,-38.2622,22.7134,-43.757,-2.29443,-13.848,-37.7134,64.8171,-1.52439
219.684,25.1524,-8.03886,0,10.4878,9.55613,-3.86556,51.2195,-26.2195,28.5976,-43.1535,-1.2502,-14.9114,-31.7683,80.3659,-10.3963
219.694,25.7754,-8.51804,0,8.34425,8.57896,-3.25723,54.3293,-20.6402,24.6951,-42.799,0.273032,-15.3138,-30.122,91.2805,-15.3354
219.704,26.0802,-8.99275,0,5.75044,8.02092,-2.09085,51.4634,-10.7012,10.9756,-43.163,2.38065,-15.7161,-27.1341,100.732,-10.7927
219.714,25.8588,-9.41947,0,3.28118,8.5095,-0.831072,36.9207,0.914634,-12.4085,-44.2073,3.87514,-15.4479,-25.6098,102.409,3.38415
219.724,25.1525,-9.67664,0,1.62861,8.89989,-0.752036,24.7561,7.7439,-40.4573,-47.34,4.61281,-13.0624,-22.9878,98.5976,19.4817
219.734,24.0278,-9.61876,0,0.376018,9.98963,0.0742456,10.122,11.372,-67.8354,-51.948,4.09548,-7.14195,-15.7012,78.2012,34.2683
219.744,22.6504,-9.32455,0,0.232317,12.6792,1.65735,-11.7683,15.1524,-93.6585,-58.5103,2.19863,-2.04535,2.46951,37.8049,51.5549
219.754,21.3722,-8.98689,0,3.25723,15.6275,2.62734,-34.7256,15.9756,-108.232,-63.5015,-1.32684,-0.828677,27.8963,10.122,65.9451
219.764,20.5375,-9.12934,0,9.15376,18.0249,0.900527,-45.7622,-0.213415,-96.4939,-60.9628,-5.24509,-13.6851,32.378,-13.7805,73.6585
219.774,20.447,-8.79058,0,17.0334,18.8153,-3.36021,-34.1768,20.6098,-53.3537,-59.1522,-9.1346,-0.541274,54.1768,10.2439,76.7988
219.784,21.1323,-8.39179,0,15.6107,13.8552,-3.04646,-12.5915,89.8171,12.8659,-50.8463,-12.4206,1.2981,63.3841,36.8598,66.7378
219.794,21.8201,-7.81561,0,5.12774,8.69632,-3.46559,3.96341,121.616,51.0061,-41.2279,-4.63197,4.67987,61.9512,64.2073,66.2195
219.804,21.1904,-6.97229,0,-3.66438,5.31215,-1.85135,29.3293,138.902,50.8841,-35.9301,1.07776,8.82804,46.5549,65.4268,68.7195
219.814,19.7368,-5.85219,0,-11.2255,4.97446,1.78429,47.8659,102.896,29.8171,-35.863,6.36596,14.1162,9.05488,34.8171,67.7439
219.824,17.8962,-4.87411,0,-17.4597,7.38385,4.90021,40.5183,14.5732,-10.6402,-35.7193,6.91203,12.2577,-33.2012,18.9634,66.1585
219.834,15.6744,-4.09848,0,-18.0034,9.15376,4.56012,14.0854,-94.2378,-61.5244,-37.1755,10.4758,9.63277,-35.9756,-37.561,58.75
219.844,13.3793,-3.59253,0,-11.6829,9.9058,-0.191602,-19.7256,-152.988,-100.762,-39.4076,10.0735,5.8199,-61.7073,-55.9756,51.8598
219.854,11.3252,-3.25023,0,-5.26904,9.40524,-5.18043,-24.0549,-153.78,-122.591,-41.7644,9.92975,3.58774,-72.1037,-28.5976,47.1646
219.865,9.83555,-2.90364,0,-0.0502954,10.9931,-5.84624,-5.7622,-127.043,-128.354,-45.309,7.34313,4.2296,-89.8781,-34.0854,44.6037
219.875,8.77005,-2.60387,0,3.96136,13.3259,-3.5566,5.67073,-92.6219,-122.439,-46.7556,2.82133,3.68354,-96.25,-32.6829,40.2744
219.884,8.0314,-2.36233,0,6.06898,13.9103,-1.31966,3.17073,-65.7317,-105.579,-47.1963,-1.12566,2.73511,-93.3232,-36.1585,32.4085
219.894,7.52806,-2.20484,0,5.73607,12.4661,-1.24541,-2.9878,-43.9329,-85.3963,-45.8646,-4.0859,1.2023,-90.3354,-22.8354,21.5854
219.904,7.0249,-2.09019,0,3.52068,10.6004,-1.93039,-2.19512,-23.689,-73.4756,-43.9678,-6.35638,0.455054,-74.2073,-19.6646,9.39024
219.914,6.31987,-2.0228,0,1.04902,9.7621,-1.80584,-0.243902,-12.9878,-70.1219,-40.7872,-7.35271,-0.349673,-50.9756,-20.7927,-0.213415
219.924,5.44245,-2.01157,0,-0.316143,9.35016,-1.60227,1.0061,-14.9085,-72.6829,-37.5204,-7.84129,-1.17356,-24.5732,-10.5488,-6.89024
219.934,4.47228,-1.97866,0,-0.752036,9.44356,-1.36756,0.701219,-25.0305,-78.5976,-35.5086,-5.9636,-0.761616,0.0304878,-9.7561,-14.878
219.944,3.47683,-1.98261,0,-0.589175,9.58966,-1.52323,-2.68293,-37.8354,-85.2744,-34.2248,-6.67252,-1.26936,15.7012,-9.2378,-23.9634
219.954,2.66535,-1.9808,0,1.09931,9.22801,-1.93518,-4.2378,-47.7134,-89.5732,-33.0944,-4.78525,-1.13524,31.9207,-5.57927,-24.8476
219.964,1.92691,-1.92747,0,1.68609,8.8017,-2.04056,0.518293,-47.0427,-92.0427,-33.104,-4.10506,-0.387993,39.5427,-7.56098,-26.6768
219.974,1.13966,-1.84953,0,1.06578,9.10107,-1.72441,0.243902,-50.061,-90.0305,-33.4105,-3.09916,-0.0143701,42.5,-13.2317,-23.5671
219.984,0.363964,-1.69988,0,0.871787,9.46991,-1.74357,0.304878,-47.0122,-87.561,-34.4548,-2.40939,1.03944,39.6646,-40.7012,-20.5488
219.994,-0.389041,-1.55901,0,0.950823,9.90341,-1.73399,-1.7378,-40.7317,-87.2866,-34.8188,-1.67172,0.962798,38.811,-55.2744,-18.1098
220.004,-1.09068,-1.44409,0,1.26457,10.0806,-1.66214,-6.09756,-35.3049,-86.9817,-35.4511,-0.340093,0.627495,35.3354,-66.4634,-11.0061
220.014,-1.72128,-1.37904,0,1.60466,9.72138,-1.64298,-9.84756,-27.1951,-85.7012,-35.2499,0.273032,-0.0718506,30.122,-63.7195,-7.62195
220.024,-2.32692,-1.37607,0,1.46336,9.29747,-1.74118,-10.8537,-19.0854,-83.5671,-35.0775,0.819097,-0.991538,20.6402,-63.628,-4.02439
220.034,-2.91732,-1.40571,0,1.32924,9.15137,-1.69567,-9.96951,-12.6524,-81.8598,-34.9146,0.752036,-1.4418,21.7988,-48.5366,-6.52439
220.044,-3.46263,-1.44567,0,1.40348,9.2328,-1.74357,-8.68902,-10.2439,-79.2378,-34.6847,0.282612,-1.60466,25.3963,-47.2866,-8.90244
220.054,-3.96286,-1.54073,0,1.47054,9.35495,-1.87291,-8.68902,-10.3659,-76.3415,-34.3302,-0.483794,-2.45729,32.378,-50.0915,-13.3841
220.064,-4.36456,-1.67857,0,1.9232,9.15376,-2.07888,-8.17073,-10.8841,-73.2927,-33.8704,-1.64298,-3.1279,39.3598,-51.4939,-16.3415
220.074,-4.67969,-1.90969,0,2.16031,8.72266,-2.12199,-7.07317,-9.2378,-69.4512,-32.9603,-2.49561,-4.47869,44.878,-45.061,-18.9329
220.084,-4.94368,-2.23082,0,2.1627,8.37538,-1.89207,-3.38415,-6.18902,-66.0366,-32.1843,-3.48236,-5.78158,46.7073,-33.3232,-20.2744
220.094,-5.19012,-2.54838,0,2.01661,8.42328,-1.60227,-1.03659,-6.31098,-62.7134,-32.3663,-4.42121,-5.92528,55.8232,-25.122,-19.2073
220.104,-5.40935,-2.86801,0,2.03337,8.63644,-1.53042,0,-5.70122,-60,-31.9639,-4.51701,-6.08814,61.8902,-33.1098,-16.372
220.114,-5.61352,-3.19687,0,1.95673,8.78493,-1.39151,1.58537,-1.82927,-57.5,-31.0251,-4.2296,-6.22226,67.8963,-33.9634,-9.02439
220.124,-5.83078,-3.56745,0,1.70046,8.98851,-1.21667,1.58537,3.04878,-55.4878,-30.4311,-3.4632,-6.85455,74.6341,-28.0793,1.52439
220.134,-6.0668,-3.94453,0,1.38911,9.02443,-1.1065,0.243902,5.54878,-53.8415,-29.7797,-2.14115,-6.98867,78.5061,-23.7195,15.6707
220.144,-6.3365,-4.31666,0,1.04662,8.8951,-1.23823,0.914634,5.79268,-53.5976,-29.8563,-1.31726,-7.13237,84.7866,-18.9329,32.622
220.154,-6.64823,-4.61642,0,0.756826,8.73464,-1.11368,0.487805,2.40854,-54.8476,-30.6227,-0.675395,-6.4905,89.3902,-16.25,45.9451
220.164,-6.94504,-4.88031,0,0.931663,9.06994,-1.15919,0.457317,1.09756,-55.8232,-31.0347,0.186812,-6.23184,93.3232,-14.939,57.2866
220.174,-7.20354,-5.17783,0,1.28134,9.59924,-1.24062,0.823171,2.89634,-56.0671,-32.2226,0.847837,-7.12279,94.3598,-14.4207,65.7622
220.184,-7.47427,-5.5008,0,1.152,9.89143,-1.16877,0.884146,3.75,-55.8841,-33.4297,0.723296,-7.94667,97.0732,-7.71341,71.1281
220.194,-7.98178,-5.77639,0,-0.126936,8.7059,-0.517324,-2.19512,-7.62195,-65.3354,-35.2595,0.148491,-7.79339,97.5305,-0.670732,71.2195
220.204,-8.26966,-5.96108,0,1.18074,10.7345,-0.699346,3.29268,-4.11585,-58.4756,-37.051,-0.00479004,-6.81623,92.9878,3.23171,69.2073
220.214,-8.58362,-6.09876,0,0.826282,9.9537,-0.574805,0.426829,-10.1829,-58.5976,-37.9515,0.397573,-6.28932,81.8293,5.73171,66.6463
220.224,-8.9038,-6.13614,0,0.780776,9.49146,-1.06099,-0.792683,-12.7744,-59.7866,-39.2448,0.886157,-4.82357,65.061,7.22561,64.0549
220.234,-9.18408,-6.0493,0,1.11129,9.00527,-1.60945,-2.28659,-12.7439,-61.128,-40.0974,1.52802,-2.75427,46.4329,2.7439,57.7439
220.244,-9.38669,-5.84652,0,1.86812,9.01006,-2.19863,-2.68293,-10.3963,-63.3232,-41.5536,2.57225,-0.694556,22.2256,-5.85366,49.7561
220.254,-9.49293,-5.70885,0,2.91234,9.09868,-3.05125,-3.41463,-2.10366,-66.2195,-41.8889,3.15664,-1.76752,-5.4878,-9.29878,40.061
220.264,-9.53453,-5.69966,0,3.10634,9.68546,-2.77104,-3.56707,5.45732,-59.9085,-41.5536,4.72777,-3.98052,-25,0.97561,29.4512
220.274,-9.48862,-5.96362,0,3.34345,9.55134,-3.3674,-0.579268,21.4024,-54.1463,-40.5381,6.32764,-8.81846,-34.7561,18.7195,22.7744
220.284,-9.31594,-6.44823,0,3.53505,10.6626,-2.72314,3.65854,33.4756,-39.1768,-40.0112,5.52291,-13.0337,-35.3354,31.9817,23.2317
220.294,-9.16276,-7.06162,0,2.72553,10.4998,-1.80345,4.42073,31.372,-33.0793,-40.2315,3.63564,-16.0227,-24.2378,44.9085,23.5366
220.304,-8.97154,-7.79513,0,2.76625,11.3141,-1.13524,4.20732,22.8049,-27.2256,-42.914,-0.0335303,-20.2571,-7.07317,63.7195,17.1951
220.314,-8.74784,-8.5401,0,2.75427,11.5991,-0.613125,0.152439,9.78659,-22.7439,-43.757,-2.51477,-21.5121,8.23171,86.4024,5
220.324,-8.51572,-9.25093,0,2.62734,11.3787,-0.469424,-4.69512,-5.4878,-20.7012,-44.6863,-5.37921,-21.7803,19.6646,102.165,-9.7561
220.334,-8.26566,-9.77988,0,2.71356,11.1081,-0.330513,-11.0671,-21.8293,-19.878,-46.1233,-8.38736,-18.6668,32.1951,116.006,-23.4756
220.344,-7.92296,-9.99862,0,3.49673,10.9285,-0.253872,-16.8598,-36.6463,-18.1098,-47.2537,-9.05796,-12.4206,40.4573,116.524,-35.9756
220.354,-7.44213,-9.80158,0,4.58646,10.9285,-0.285007,-22.378,-44.9695,-13.5671,-48.1543,-5.57082,-3.8464,36.5244,92.1037,-36.6463
220.364,-6.79845,-9.25049,0,5.63069,11.0075,-0.282612,-27.622,-44.8476,-4.87805,-51.2199,-2.83091,3.9901,11.6463,68.6281,-35.5488
220.374,-5.9909,-8.57306,0,6.54798,11.1512,-0.198787,-32.0122,-41.2805,6.43293,-58.2804,2.26569,8.3203,-33.689,54.2378,-43.4146
220.384,-4.96257,-7.74416,0,7.95865,11.3668,-0.296982,-35.2134,-36.6768,21.2805,-69.7286,12.3248,15.3712,-80.6098,14.7561,-55.1524
220.394,-3.69642,-7.21674,0,9.11784,11.2302,0.0287402,-38.2927,-27.3171,39.3293,-66.0594,19.0117,6.6821,-122.5,40.6707,-72.0122
220.404,-2.26052,-6.74476,0,9.00527,11.1632,1.14721,-47.9878,-17.9268,59.6037,-58.7115,18.6572,5.08223,-143.201,49.6037,-87.4695
220.414,-0.60553,-6.24544,0,8.87355,10.4567,-0.220342,-61.3415,-0.640244,81.9817,-49.8116,14.3078,5.23551,-156.28,27.439,-101.524
220.424,1.13331,-5.62431,0,6.95035,9.91299,0.373623,-62.2561,21.0976,104.695,-42.0901,6.98867,7.01741,-155.884,5.21341,-118.018
220.434,2.85514,-4.92108,0,4.77327,10.0088,0.00239502,-58.4451,30.4878,125.976,-38.1335,1.5376,8.14786,-141.707,-14.8171,-126.22
220.444,4.51731,-4.27367,0,2.80217,10.1788,-1.69088,-43.872,35,144.024,-37.2521,-2.11241,7.41977,-116.799,-32.9268,-125.61
220.454,6.1163,-3.74392,0,1.27655,11.2566,-2.24892,-26.8598,31.9207,159.177,-38.3155,-5.5325,5.99234,-84.1463,-43.4451,-117.073
220.464,7.6333,-3.44334,0,-0.170046,12.9714,-2.79978,-16.3415,29.7256,168.811,-40.289,-10.7536,2.55309,-49.3293,-44.5732,-108.902
220.474,9.01028,-3.09532,0,-1.5879,15.0048,-3.00575,-12.1951,31.4939,168.415,-47.5028,-10.5333,4.25834,-24.6646,-44.939,-99.4817
220.484,10.2074,-2.95732,0,-2.34472,16.1185,-3.07042,-11.0061,23.7195,157.439,-40.7105,-13.963,0.205972,16.8598,-20.1524,-83.3537
220.494,11.3259,-2.7874,0,-1.30289,16.3364,-2.36628,-7.34756,10.2134,144.268,-39.6472,-10.6004,0.886157,27.1341,-10.7622,-56.2195
220.504,12.4344,-2.59985,0,0.366438,16.1496,-1.46336,-6.28049,0.579268,133.567,-38.4496,-6.48092,1.26936,34.3293,-11.6768,-24.8476
220.514,13.5698,-2.44899,0,1.4921,15.3473,-1.08734,-3.35366,-0.243902,129.909,-37.5204,-3.54942,0.799937,30.5793,2.34756,0.0914634
220.524,14.7451,-2.22058,0,1.78668,14.0013,-1.22146,2.04268,11.128,132.774,-38.8616,-0.684976,2.28485,22.5,9.29878,16.6159
220.534,15.9222,-1.99584,0,1.41067,13.3786,-1.07057,6.46341,25.5793,137.927,-39.0532,1.71004,2.38065,11.4634,6.76829,25.3354
220.544,17.0421,-1.81635,0,0.641865,13.0145,-1.00591,9.17683,39.3902,141.006,-39.5035,4.36373,1.7771,6.28049,7.92683,34.4207
220.554,18.0485,-1.65832,0,-0.289797,12.7894,-1.02267,10.1524,48.9024,140.122,-38.9478,6.79707,1.50886,-7.40854,8.93293,39.2378
220.564,18.9725,-1.52821,0,-0.893342,12.3272,-0.809517,9.90854,50.4878,139.573,-38.2389,8.81846,1.11608,-25.7317,8.96341,43.5671
220.574,19.8431,-1.31146,0,-1.29092,11.5967,-0.809517,9.96951,51.3415,140.518,-37.7024,9.47949,2.59141,-46.2195,-2.68293,46.189
220.584,20.6572,-1.19003,0,-1.67651,10.8878,-0.967588,11.0671,50.4878,141.433,-35.5852,9.41243,1.08734,-60.6402,-0.97561,47.5
220.595,21.2846,-1.08008,0,-3.11353,10.3752,-0.56283,12.7134,36.2805,140.274,-33.7362,8.95258,0.914897,-75.3659,-6.67683,44.1159
220.604,21.8938,-1.01524,0,-2.67284,9.93215,-0.790356,13.2927,31.5854,136.341,-33.1231,8.0329,0.282612,-85.3049,-13.811,38.0488
220.614,22.4976,-0.980195,0,-1.89686,9.26154,-0.986748,15.9756,18.3537,129.909,-33.0369,6.57672,-0.119751,-88.2622,-15.6402,31.4329
220.624,23.0713,-0.946738,0,-1.29571,8.76817,-0.958008,21.6768,20.1829,121.616,-33.3243,5.29299,-0.138911,-92.8659,-20.9146,24.939
220.634,23.5845,-0.888108,0,-1.02507,8.53824,-1.13284,26.9512,24.939,113.415,-34.0332,4.0859,0.234712,-98.9634,-28.0183,20.9451
220.644,24.044,-0.848867,0,-0.682581,8.28916,-1.84896,34.8171,32.1646,104.634,-35.0583,2.43813,-0.0526904,-104.97,-38.1707,17.8659
220.654,24.5026,-0.880063,0,0.00718506,8.49753,-1.7316,35.6707,39.2988,95.7622,-36.045,0.320933,-1.17356,-112.165,-46.0976,15.2134
220.664,24.9554,-0.973494,0,0.63947,8.56699,-1.56634,33.689,45.2134,87.5,-36.1217,-1.85375,-2.19863,-114.97,-49.2378,15.2439
220.674,25.3431,-1.07223,0,0.64426,8.41131,-1.36516,33.3841,50.3963,81.5549,-36.4091,-2.61057,-2.35191,-118.262,-46.311,14.7866
220.684,25.5572,-1.17361,0,-0.0311353,8.464,-1.18553,31.4634,51.7073,73.9939,-35.5086,-2.55309,-2.37107,-123.476,-37.9573,15.9756
220.694,25.6183,-1.33203,0,-0.440684,8.32748,-1.37474,29.1159,57.5915,64.5732,-34.8571,-1.78668,-3.24286,-123.902,-28.4756,20.2744
220.704,25.5062,-1.53542,0,-1.03465,8.27,-1.23583,24.939,63.2317,55.3963,-34.1673,-0.550855,-3.93262,-119.909,-19.7256,23.872
220.714,25.2526,-1.83007,0,-1.47294,7.87243,-1.1065,21.9512,65.4268,47.8049,-33.9566,0.263452,-5.39837,-112.012,-11.5244,25.3049
220.724,24.869,-2.13034,0,-1.71483,7.32876,-1.09452,20.4268,65.4268,39.2683,-34.2057,0.809517,-5.6762,-104.695,-1.92073,21.2195
220.734,24.4042,-2.46293,0,-1.65496,6.93837,-0.696951,19.1463,65.8232,30.7012,-34.4452,1.1544,-6.37554,-96.9512,8.65854,12.0122
220.744,24.0093,-2.79031,0,-0.780776,6.77551,0.114961,16.8598,67.9878,22.9268,-34.7805,1.84417,-6.52882,-90,19.878,2.71341
220.754,23.6932,-3.06694,0,0.00239502,6.91442,1.19511,13.75,74.1159,16.7073,-35.1445,2.00703,-5.99234,-86.6463,20.1524,-3.96341
220.764,23.318,-3.31522,0,0.234712,7.13716,1.6358,13.689,76.7988,7.10366,-35.2786,2.36149,-5.74326,-86.6463,18.2317,-8.65854
220.774,21.9164,-3.54051,0,0.404758,7.35271,1.32924,15.1524,66.5549,-2.13415,-35.3553,2.19863,-5.56124,-89.939,13.1707,-9.5122
220.784,21.5045,-3.76366,0,0.799937,7.86045,0.960403,12.5915,50.061,-9.11585,-35.5852,1.59508,-5.71452,-94.7256,10.6402,-8.81098
220.794,21.0915,-3.98951,0,1.03225,7.99697,0.816702,9.45122,38.7805,-13.2622,-36.0834,0.732876,-5.98276,-101.037,10.6402,-7.68293
220.804,20.6587,-4.22874,0,0.989143,7.97542,0.998723,6.7378,34.2378,-15.5488,-36.342,0.0718506,-6.38512,-108.171,13.2622,-10.9451
220.814,20.233,-4.48315,0,1.14482,7.85566,1.30289,1.67683,28.0793,-18.2012,-36.1217,-0.0526904,-6.73958,-113.476,17.0732,-14.6646
220.824,19.8825,-4.78813,0,1.8274,7.51078,1.26457,-2.0122,16.3415,-22.378,-35.4415,0.675395,-7.58263,-116.616,21.9512,-18.9329
220.834,19.6172,-5.091,0,2.59381,7.14913,1.24541,-1.85976,1.95122,-27.1951,-35.6427,1.56634,-7.79339,-117.957,20.7012,-20.8537
220.844,19.409,-5.41601,0,3.50631,7.18506,1.47294,-2.59146,-13.75,-34.2988,-35.681,2.37107,-8.3682,-117.012,20.061,-20.8537
220.854,19.2521,-5.76751,0,4.62957,7.31918,1.66693,-4.66463,-31.2195,-42.3476,-35.5565,3.01293,-8.98132,-115.823,23.5061,-20.122
220.864,19.1226,-6.13453,0,5.82229,7.67843,2.00942,-8.17073,-45.6402,-49.7866,-36.3995,3.15664,-9.67109,-115.549,31.6159,-17.1646
220.874,19.025,-6.5281,0,7.01501,8.1766,1.88009,-15.3659,-59.878,-53.8415,-37.2905,2.62015,-10.6099,-113.323,38.5671,-15.2134
220.884,19.0788,-6.86513,0,8.58854,7.99937,0.680186,-16.7378,-67.7439,-51.6768,-38.2676,1.52802,-10.1309,-105.244,42.5915,-13.5976
220.894,19.3419,-7.18236,0,10.1357,7.68322,-1.08734,-10.3963,-66.0976,-42.0427,-38.9861,0.483794,-10.198,-93.1707,43.8415,-14.2988
220.904,19.8445,-7.50403,0,11.7859,7.79339,-2.19144,2.89634,-59.5732,-24.6037,-39.1969,-0.704136,-10.5716,-79.6037,42.7134,-11.9207
220.914,20.5634,-7.90793,0,13.2469,8.50711,-3.16382,18.1098,-54.1768,-3.07927,-39.331,-2.02619,-12.3535,-65.6098,53.8415,-11.7683
220.924,21.395,-8.42063,0,13.4169,9.73575,-3.67396,30.4878,-49.8171,16.5549,-38.852,-3.56858,-14.5186,-50.2439,73.689,-14.4817
220.934,22.2349,-8.97847,0,11.0985,10.4088,-2.59381,39.7866,-52.7439,33.7805,-38.4401,-4.00926,-15.582,-38.3537,89.2683,-20.9146
220.944,23.0061,-9.54856,0,7.90596,9.44117,-1.41067,46.0061,-56.6463,42.561,-37.7024,-3.6548,-15.9077,-29.6951,100.732,-26.9817
220.954,23.5709,-10.1259,0,4.87147,7.68801,-0.574805,46.189,-51.0976,38.5366,-37.1755,-2.30401,-16.2239,-28.2927,111.189,-30.4268
220.964,23.6998,-10.6594,0,2.38065,6.90484,-0.0311353,37.561,-39.878,22.439,-37.5874,0.953218,-15.9556,-33.4451,120.579,-28.9939
220.974,23.1091,-11.1269,0,0.922083,6.50008,0.66821,21.7683,-28.0488,-4.17683,-38.7658,3.69312,-15.5341,-44.5427,127.043,-18.628
220.984,22.3503,-11.477,0,0.316143,6.95274,1.76513,4.54268,-17.8963,-35.5793,-41.1608,5.69536,-14.442,-55.5183,128.018,-5.60976
220.994,21.2473,-11.585,0,0.0239502,8.04248,0.857417,-10.7622,-12.6524,-67.2866,-45.4144,7.61137,-11.0315,-60.7317,111.189,12.0732
221.004,20.0171,-11.2634,0,1.3939,10.5692,-0.234712,-15.7927,-20.5488,-97.5,-52.3791,8.33946,-2.89797,-50.5488,60.3049,33.4146
221.014,18.6288,-10.7271,0,3.54702,15.5844,2.23934,-27.5305,-17.7744,-126.982,-59.2288,6.5863,2.33275,-24.5122,-4.87805,64.1159
221.024,17.4837,-10.1652,0,7.47965,20.5876,5.50854,-58.2012,-12.3476,-119.573,-64.6991,1.2981,3.72186,4.39024,-34.2378,92.1341
221.034,17.081,-9.79745,0,14.2192,22.3719,2.06211,-55.6098,-39.0854,-71.6159,-62.601,-14.9785,-1.26936,0.914634,-57.378,105.518
221.044,17.8985,-9.57448,0,21.5839,16.9927,-8.0305,16.4939,-12.5,12.5915,-60.1868,-18.5518,-4.38289,19.878,0.396341,92.3171
221.054,19.3321,-9.15024,0,15.1605,12.1763,-7.72154,43.2622,52.7744,78.2622,-49.5625,-18.1686,1.09692,47.2256,26.0976,80.2439
221.064,20.0617,-8.58957,0,1.59987,8.47118,-3.15664,19.8171,113.079,92.0732,-37.8174,-10.4088,3.48236,51.3415,51.0976,83.0488
221.075,19.3752,-7.85966,0,-8.56699,6.13843,0.684976,21.2195,126.738,81.8598,-29.933,-4.64155,5.36963,62.6524,66.189,91.5244
221.085,18.0932,-6.91044,0,-16.0562,6.86652,3.75779,24.2988,70.4878,45.1524,-30.8431,-0.0910107,9.0867,57.2561,61.6159,94.3598
221.094,16.3469,-5.98981,0,-16.9831,7.80776,3.44883,7.92683,-25.8537,-7.9878,-32.9986,2.44771,9.79563,47.8354,39.5732,85.9756
221.104,14.2645,-5.18998,0,-12.4613,7.3072,-0.00239502,-9.2378,-103.567,-57.4695,-36.8881,6.14562,9.26873,40.7317,-20.8841,76.2805
221.114,12.2819,-4.52416,0,-5.93246,6.91442,-4.43797,-18.5671,-143.049,-90.2744,-40.1166,9.42201,8.07122,19.0549,-50.122,70.7927
221.124,10.8739,-4.1757,0,-0.960403,7.8389,-6.8282,-8.07927,-137.47,-104.36,-43.9582,11.1273,3.13748,-0.853659,-38.9634,67.3476
221.134,9.80339,-3.9892,0,1.60227,10.404,-5.31934,7.95732,-107.622,-104.909,-47.1675,10.7057,0.387993,-28.2317,-12.622,67.2561
221.144,8.92091,-3.85742,0,3.53026,13.9654,-2.63452,12.9573,-80.8841,-98.9939,-50.0607,7.02699,-0.550855,-41.189,6.21951,62.1341
221.154,8.32839,-3.74018,0,4.97446,15.2539,-1.41785,8.53659,-53.628,-79.1159,-49.7829,3.93262,-0.694556,-57.2866,19.6951,45.8841
221.164,7.94977,-3.60675,0,4.60802,13.0888,-1.60706,4.05488,-28.4451,-61.2195,-48.9877,-0.292192,-0.215552,-66.0671,23.9634,27.8049
221.174,7.64491,-3.47264,0,3.7985,10.9117,-1.75076,3.53659,-7.68293,-54.0549,-46.9951,-3.52068,-0.119751,-62.8049,15,11.0061
221.184,7.28717,-3.38324,0,2.73032,9.88664,-1.55676,5.09146,6.95122,-52.4085,-44.6959,-5.73368,-0.895737,-51.8293,13.5366,-1.82927
221.194,6.78967,-3.29656,0,1.46096,9.60882,-1.02267,5.67073,11.4939,-53.5366,-42.5787,-7.61137,-0.838257,-36.4634,13.4146,-11.8293
221.204,6.12988,-3.24026,0,0.162861,9.43398,-0.831072,4.57317,5.4878,-55.4878,-40.2028,-8.38736,-1.2981,-22.7134,5.15244,-19.0854
221.214,5.35979,-3.21195,0,-0.534089,9.38129,-1.02746,3.29268,-4.48171,-59.4207,-36.7731,-3.81766,-1.6334,-4.7561,-3.62805,-19.5122
221.224,4.52901,-3.18286,0,-0.797541,9.51302,-1.08734,1.06707,-11.4634,-64.0549,-35.0775,-7.48683,-1.54718,7.53049,-9.72561,-21.5854
221.234,3.75336,-3.08856,0,-0.227527,9.81479,-1.15679,-1.52439,-18.2927,-67.1951,-34.9721,-4.63197,-0.531694,19.3293,-14.0244,-14.0854
221.244,3.02318,-2.97296,0,0.0790356,9.98005,-1.15679,-3.38415,-21.7988,-67.7744,-35.0296,-4.49785,-0.158071,31.2195,-18.0488,-4.48171
221.254,2.33654,-2.81094,0,0.273032,9.85311,-1.12566,-4.5122,-26.5549,-67.1341,-36.1217,-3.56858,0.637075,39.939,-21.8293,2.22561
221.264,1.73976,-2.62853,0,0.768801,9.64714,-1.20469,-4.63415,-31.5549,-65.4268,-37.5108,-2.98419,1.02028,45.1829,-47.9268,6.06707
221.274,1.27249,-2.51504,0,1.47294,9.55613,-1.51605,-5.57927,-35,-62.0122,-37.5683,-1.79626,-0.0526904,51.2195,-64.1768,6.85976
221.284,0.894224,-2.50364,0,1.73639,9.41961,-1.83938,-4.81707,-39.6646,-57.3171,-37.2521,-0.560435,-1.6813,51.9817,-72.1341,8.14024
221.294,0.523249,-2.54137,0,1.36037,9.41722,-1.89446,-1.4939,-41.128,-52.8049,-37.2809,0.177231,-2.43813,51.7683,-57.6524,5.39634
221.304,0.11061,-2.59952,0,0.785566,9.73096,-1.66214,-0.762195,-40.5183,-50.4573,-37.2809,0.474214,-2.74469,49.7561,-40.6098,3.14024
221.314,-0.298875,-2.64598,0,0.723296,9.45314,-1.76034,-1.12805,-39.0854,-50.4878,-37.5395,0.215552,-2.59141,51.0671,-35.5793,-0.670732
221.324,-0.702592,-2.71196,0,0.754431,9.2304,-1.95673,-1.70732,-38.0793,-51.3415,-37.3863,-0.0431104,-2.93629,55.122,-36.0671,-5.42683
221.334,-1.08941,-2.80482,0,0.838257,8.92145,-2.17707,-2.92683,-34.6646,-51.8598,-36.8498,-0.493374,-3.37698,59.1768,-36.2195,-10.061
221.344,-1.47298,-2.90269,0,0.835862,8.58375,-2.38065,-3.56707,-28.9329,-52.7134,-35.9876,-0.598755,-3.4153,60.4878,-29.2683,-12.9878
