time,angle1,angle2,intgangle,accX1,accY1,accZ1,gyroX1,gyroY1,gyroZ1,accX2,accY2,accZ2,gyroX2,gyroY2,gyroZ2
333.448,92.1931,-3.10674,0,9.87227,-0.433499,0.780776,0.335366,0.579268,-1.43293,-39.2256,0.349673,-2.24653,-16.2805,-1.92073,3.65854
333.458,92.1965,-3.10987,0,9.85311,-0.457449,0.835862,0.0304878,1.12805,-1.15854,-39.149,0.263452,-2.17947,-16.4024,-0.0914634,4.20732
333.468,92.198,-3.11612,0,9.81958,-0.450264,0.857417,0.182927,1.25,-1.21951,-39.2735,0.273032,-2.24653,-15.9756,-1.28049,4.78659
333.478,92.198,-3.11886,0,9.86269,-0.426313,0.811912,0.0609756,1.43293,-0.97561,-39.4268,0.550855,-2.19863,-16.3415,-1.28049,4.17683
333.488,92.1933,-3.12449,0,9.80281,-0.407153,0.795146,0,0.945122,-1.09756,-39.4939,0.464634,-2.25611,-17.1646,-1.7378,4.84756
333.498,92.1858,-3.13299,0,9.78366,-0.399968,0.768801,0.27439,0.152439,-1.25,-39.6567,0.445474,-2.32317,-17.2866,-2.7439,4.54268
333.508,92.1777,-3.13058,0,9.7621,-0.385598,0.792751,0.182927,-0.243902,-1.09756,-39.7909,0.522114,-2.15073,-16.7683,-4.39024,4.48171
333.518,92.1751,-3.12215,0,9.78126,-0.419128,0.773591,0.396341,-0.152439,-1.18902,-39.7813,0.349673,-2.04535,-17.3476,-5.15244,4.69512
333.528,92.1701,-3.11546,0,9.80281,-0.409548,0.831072,-0.0304878,-0.518293,-1.21951,-39.6759,0.455054,-2.06451,-16.8598,-5.15244,4.66463
333.538,92.1659,-3.12727,0,9.80281,-0.423918,0.864602,-0.0609756,-0.0914634,-1.37195,-39.6376,0.292192,-2.38065,-17.1341,-4.69512,5.85366
333.548,92.1616,-3.12082,0,9.8555,-0.423918,0.847837,-0.27439,0.213415,-1.34146,-39.628,0.330513,-2.06451,-17.4695,-3.59756,4.26829
333.558,92.165,-3.13641,0,9.82197,-0.421523,0.857417,-0.304878,0.213415,-0.792683,-39.3406,0.119751,-2.42855,-15.9756,-3.65854,4.87805
333.568,92.1657,-3.15124,0,9.89143,-0.431104,0.845442,-0.457317,0.243902,-1.03659,-39.3981,0.158071,-2.42855,-15.6402,-3.29268,5.79268
333.578,92.165,-3.1542,0,9.86988,-0.431104,0.807122,-0.213415,-0.0914634,-1.15854,-39.446,0.205972,-2.23695,-15.3659,-3.9939,5.27439
333.588,92.1665,-3.15521,0,9.83156,-0.433499,0.764011,-0.396341,-0.426829,-1.06707,-39.4747,0.273032,-2.20821,-14.5427,-4.48171,4.72561
333.598,92.1608,-3.14518,0,9.8124,-0.428708,0.852627,-0.487805,-0.670732,-1.55488,-39.3789,0.196392,-2.00703,-14.4817,-3.17073,5.21341
333.608,92.156,-3.1451,0,9.8124,-0.428708,0.852627,-0.457317,-0.396341,-1.4939,-39.4843,0.359253,-2.17947,-14.2988,-3.2622,5.36585
333.618,92.1574,-3.15581,0,9.79084,-0.450264,0.799937,-0.762195,-0.335366,-1.34146,-39.264,0.244292,-2.35191,-13.1098,-2.5,6.43293
333.628,92.1554,-3.15655,0,9.79084,-0.433499,0.852627,-0.762195,0.0304878,-1.37195,-39.3693,0.570015,-2.18905,-14.9085,-1.64634,5.7622
333.638,92.1603,-3.14706,0,9.84353,-0.452659,0.737666,-0.914634,0.0304878,-1.09756,-39.4651,0.493374,-2.01661,-14.5427,-1.64634,6.28049
333.648,92.1646,-3.14157,0,9.86988,-0.445474,0.790356,-0.640244,0.182927,-1.0061,-39.4364,0.541274,-2.08367,-14.5427,-3.2622,5.67073
333.658,92.1688,-3.14301,0,9.86509,-0.455054,0.790356,-0.731707,-0.0609756,-1.12805,-39.4651,0.407153,-2.19863,-15,-2.16463,4.45122
333.668,92.1741,-3.12392,0,9.81958,-0.452659,0.756826,-0.701219,-0.365854,-1.06707,-39.5897,0.244292,-1.84417,-14.6341,-1.21951,4.66463
333.678,92.1715,-3.12686,0,9.79563,-0.435894,0.819097,-0.609756,-0.762195,-1.40244,-39.5705,0.349673,-2.21779,-14.7561,-1.98171,4.48171
333.688,92.1685,-3.12017,0,9.82677,-0.419128,0.790356,-0.731707,-0.731707,-1.18902,-39.446,0.196392,-2.04535,-14.6037,-2.10366,5.88415
333.698,92.1619,-3.11029,0,9.87946,-0.390388,0.735271,-0.426829,-0.792683,-1.0061,-39.5993,0.177231,-1.99745,-12.8963,-3.41463,5.85366
333.708,92.1516,-3.12292,0,9.87227,-0.371228,0.713716,-0.457317,-0.487805,-1.03659,-39.8292,0.234712,-2.39981,-12.1037,-3.78049,6.61585
333.718,92.1435,-3.12472,0,9.8579,-0.392783,0.694556,-0.396341,-0.121951,-1.25,-40.0878,-0.0143701,-2.23695,-10.2134,-5.15244,5.03049
333.728,92.1335,-3.12965,0,9.89383,-0.368833,0.720901,-0.243902,0.0609756,-1.0061,-40.3369,0.349673,-2.31359,-8.41463,-6.76829,4.29878
333.738,92.1238,-3.14484,0,9.89143,-0.364043,0.740061,-0.701219,0.0609756,-0.914634,-40.0591,0.455054,-2.48603,-8.20122,-7.68293,3.81098
333.748,92.1266,-3.15778,0,9.85072,-0.416733,0.790356,-0.670732,0.213415,-0.823171,-39.9058,0.665815,-2.44771,-8.65854,-7.71341,1.89024
333.758,92.1335,-3.1711,0,9.84114,-0.450264,0.811912,-0.609756,0.121951,-1.0061,-39.6663,0.895737,-2.44771,-8.65854,-7.46951,-1.25
333.768,92.1547,-3.1797,0,9.84593,-0.512534,0.862207,-0.518293,0.335366,-0.884146,-39.4556,0.809517,-2.36149,-8.93293,-7.5,-2.31707
333.778,92.1798,-3.18089,0,9.81958,-0.531694,0.828677,-0.579268,0.0609756,-0.884146,-39.4364,1.02028,-2.23695,-9.96951,-7.40854,-1.15854
333.788,92.2046,-3.19094,0,9.79803,-0.507744,0.783171,-0.365854,-0.152439,-0.670732,-39.2256,1.02986,-2.38065,-11.0671,-7.7439,-1.64634
333.798,92.2367,-3.1665,0,9.78844,-0.55325,0.723296,-0.121951,-0.487805,-0.762195,-39.4172,1.11608,-1.79626,-14.4817,-7.16463,-1.40244
333.808,92.2549,-3.14507,0,9.74294,-0.519719,0.771196,0.396341,-0.640244,-1.03659,-39.3502,0.790356,-1.83458,-14.9085,-8.90244,-0.243902
333.818,92.2697,-3.13898,0,9.7597,-0.517324,0.790356,0.426829,-0.823171,-1.12805,-39.216,0.809517,-2.07409,-15.8537,-7.28659,0.0304878
333.828,92.2826,-3.13143,0,9.71899,-0.543669,0.811912,0.335366,-1.31098,-1.4939,-39.0915,0.273032,-2.03577,-17.561,-6.64634,1.58537
333.838,92.282,-3.14491,0,9.7597,-0.502954,0.809517,0.182927,-1.0061,-1.85976,-39.1107,0.416733,-2.39023,-17.6829,-5.12195,0.97561
333.848,92.2828,-3.16133,0,9.81958,-0.519719,0.819097,-0.121951,-1.09756,-1.89024,-39.1777,0.368833,-2.44771,-17.378,-3.10976,1.25
333.858,92.2836,-3.1564,0,9.88185,-0.490979,0.840652,0,-0.823171,-1.52439,-39.149,0.311353,-2.08367,-16.4634,-2.0122,1.03659
333.868,92.275,-3.13997,0,9.8603,-0.447869,0.799937,0.121951,-0.914634,-1.7378,-39.3023,0.330513,-1.89207,-16.4024,-2.95732,0.0609756
333.878,92.2621,-3.13195,0,9.89862,-0.423918,0.711321,-0.0609756,-0.487805,-1.79878,-39.3214,0.435894,-2.02619,-16.5549,-2.5,0.0914634
333.888,92.2449,-3.09879,0,9.86748,-0.399968,0.720901,-0.243902,-0.487805,-1.92073,-39.6376,0.158071,-1.59508,-17.2866,-1.95122,0.396341
333.898,92.2298,-3.08311,0,9.84114,-0.399968,0.740061,0.182927,-0.182927,-1.76829,-39.6567,0.148491,-1.88249,-17.8049,-3.04878,0.152439
333.908,92.211,-3.06563,0,9.79323,-0.368833,0.778381,-0.335366,-0.335366,-1.7378,-39.7525,0.0910107,-1.84417,-17.1037,-2.89634,-1.40244
333.918,92.1958,-3.04862,0,9.86988,-0.392783,0.720901,-0.0609756,-0.335366,-1.7378,-39.925,-0.0622705,-1.84417,-16.0976,-1.7378,-1.89024
333.928,92.1747,-3.02675,0,9.86269,-0.354463,0.692161,0,-0.457317,-1.79878,-39.5514,0.167651,-1.7292,-16.1585,-1.43293,-1.61585
333.938,92.1541,-2.99891,0,9.87946,-0.347278,0.673001,0.335366,-0.457317,-1.67683,-39.7813,0.167651,-1.62382,-17.3171,-2.77439,-0.853659
333.948,92.1405,-2.98193,0,9.89862,-0.364043,0.752036,-0.0304878,-0.365854,-1.25,-39.5514,0.234712,-1.78668,-17.0122,-3.29268,-0.823171
333.958,92.1334,-2.96139,0,9.9561,-0.387993,0.730481,0.152439,-0.0609756,-1.03659,-39.6759,0.292192,-1.71962,-16.8902,-3.75,1.12805
333.968,92.1281,-2.95645,0,9.92736,-0.387993,0.665815,0.182927,-0.27439,-0.914634,-39.7238,0.225132,-1.98787,-17.8659,-5.67073,0.396341
333.978,92.1159,-2.95786,0,9.87467,-0.356858,0.720901,0.457317,-0.213415,-1.06707,-39.6472,0.0718506,-2.09325,-17.8049,-6.09756,0.426829
333.988,92.1194,-2.94628,0,9.83874,-0.428708,0.754431,-0.0304878,-0.335366,-0.97561,-39.5322,-0.0431104,-1.86333,-17.5915,-6.7378,0.487805
333.998,92.1201,-2.94742,0,9.81479,-0.409548,0.780776,0.335366,0.0304878,-0.914634,-39.5609,-0.129331,-2.07409,-15.8841,-5.27439,-0.731707
334.008,92.1285,-2.96389,0,9.79323,-0.483794,0.783171,0.121951,-0.0304878,-1.34146,-39.4076,-0.0814307,-2.33275,-15.9756,-4.90854,-1.03659
334.018,92.1489,-3.00463,0,9.8124,-0.500559,0.797541,-0.243902,0.335366,-0.853659,-39.3119,-0.0239502,-2.75427,-13.8415,-3.01829,-1.43293
334.028,92.156,-3.02544,0,9.83635,-0.459844,0.730481,-0.121951,0.121951,-1.06707,-39.149,0.263452,-2.42855,-14.2073,-3.96341,-0.792683
334.038,92.164,-3.04165,0,9.8555,-0.457449,0.732876,0.0609756,0.0304878,-0.945122,-39.1777,0.282612,-2.36149,-15.2134,-2.95732,-0.518293
334.048,92.1713,-3.03959,0,9.86509,-0.445474,0.785566,-0.0609756,-0.213415,-0.823171,-39.3119,0.196392,-2.06451,-15.2439,-3.32317,-0.213415
334.058,92.1824,-3.02946,0,9.84114,-0.440684,0.708926,-0.0304878,0,-0.548781,-39.3406,0.263452,-1.92081,-16.189,-2.31707,0.182927
334.068,92.1918,-3.02514,0,9.81479,-0.450264,0.785566,-0.152439,0,-0.762195,-39.3598,0.0910107,-2.01661,-16.1585,-2.56098,0.548781
334.078,92.2111,-3.0405,0,9.8124,-0.481399,0.797541,-0.0609756,-0.0609756,-0.609756,-39.2831,-0.0335303,-2.35191,-16.128,-2.68293,1.64634
334.088,92.2185,-3.03131,0,9.81,-0.455054,0.797541,-0.243902,-0.182927,-0.884146,-39.5514,-0.158071,-1.94955,-15.5183,-2.7439,1.4939
334.099,92.227,-3.02177,0,9.81719,-0.459844,0.845442,-0.0914634,0.121951,-0.853659,-39.4556,-0.0239502,-1.93039,-15.6402,-2.10366,3.04878
334.108,92.2287,-3.03154,0,9.82916,-0.433499,0.807122,-0.243902,0.121951,-0.914634,-39.513,0.177231,-2.26569,-15.4878,-2.71341,2.9878
334.118,92.2284,-3.0627,0,9.86748,-0.431104,0.761616,-0.0914634,0.0609756,-0.97561,-39.5322,0.0814307,-2.64889,-16.0976,-3.01829,3.47561
334.128,92.2275,-3.07307,0,9.87467,-0.443079,0.768801,-0.182927,-0.121951,-1.18902,-39.5705,0.138911,-2.31359,-14.9695,-4.35976,4.26829
334.138,92.2259,-3.0779,0,9.87227,-0.426313,0.725691,-0.0304878,-0.487805,-1.0061,-39.7334,-0.263452,-2.23695,-15.6402,-5.51829,4.29878
334.148,92.2251,-3.07889,0,9.8603,-0.433499,0.720901,0,-0.792683,-1.06707,-39.8004,-0.215552,-2.17947,-14.8171,-6.37195,4.84756
334.158,92.228,-3.07526,0,9.85311,-0.459844,0.744851,-0.152439,-0.457317,-1.15854,-39.8962,-0.158071,-2.10283,-14.8171,-6.03659,4.54268
334.168,92.2261,-3.06187,0,9.8076,-0.457449,0.749641,-0.243902,-0.0609756,-1.4939,-39.9346,-0.311353,-1.93039,-12.9878,-6.09756,5.70122
334.178,92.2285,-3.06392,0,9.84353,-0.490979,0.775986,-0.426829,-0.0304878,-1.55488,-39.8675,-0.148491,-2.18905,-13.9329,-5.91463,5.39634
334.188,92.2273,-3.05822,0,9.85311,-0.467029,0.756826,-0.365854,0.365854,-1.52439,-39.4747,-0.0718506,-2.03577,-14.3598,-6.4939,6.43293
334.198,92.2171,-3.04961,0,9.90341,-0.411943,0.720901,-0.335366,0,-1.4939,-39.3789,0.177231,-1.97829,-13.628,-7.13415,6.4939
334.208,92.2051,-3.05663,0,9.89383,-0.402363,0.718506,-0.335366,0.0609756,-1.55488,-39.3693,0.0910107,-2.24653,-14.4207,-7.89634,6.64634
334.218,92.2044,-3.04736,0,9.87467,-0.445474,0.780776,-0.426829,0.304878,-1.25,-39.3119,0.148491,-1.96871,-14.6646,-8.96341,5.79268
334.228,92.1979,-3.05298,0,9.83156,-0.443079,0.735271,-0.548781,0.426829,-1.70732,-39.4364,-0.119751,-2.22737,-13.9939,-8.75,6.21951
334.238,92.1968,-3.03626,0,9.8124,-0.462239,0.728086,-0.396341,0.518293,-1.55488,-39.4651,0.0239502,-1.84417,-14.6951,-9.02439,5.15244
334.248,92.2039,-3.04671,0,9.81958,-0.500559,0.723296,-0.0914634,0.335366,-1.43293,-39.3598,0.0814307,-2.29443,-14.2073,-7.2561,5.06098
334.258,92.2032,-3.03138,0,9.79323,-0.464634,0.716111,-0.0609756,0.518293,-1.55488,-39.3789,0.0910107,-1.85375,-13.2622,-7.19512,5.51829
334.268,92.2009,-3.03726,0,9.81479,-0.450264,0.728086,-0.0609756,0.426829,-1.4939,-39.331,0.177231,-2.20821,-13.9634,-6.82927,4.45122
334.278,92.1919,-3.04102,0,9.83156,-0.407153,0.807122,-0.121951,0.487805,-1.43293,-39.2544,0.378413,-2.16989,-14.0244,-6.40244,5.42683
334.288,92.1902,-3.0352,0,9.81719,-0.445474,0.802332,-0.0914634,0.670732,-1.40244,-39.2735,0.167651,-2.00703,-13.811,-6.34146,6.7378
334.298,92.1957,-3.01641,0,9.81958,-0.447869,0.771196,-0.0304878,0.335366,-0.945122,-39.3598,0.244292,-1.7771,-15.3354,-4.93902,5.97561
334.308,92.1928,-2.98741,0,9.82916,-0.421523,0.752036,0.0609756,0.0304878,-1.15854,-39.6567,0.167651,-1.60466,-15.4268,-6.67683,5.06098
334.318,92.1849,-2.9626,0,9.81,-0.404758,0.790356,0.121951,-0.0914634,-1.34146,-39.6759,0.273032,-1.65256,-16.0061,-4.90854,4.63415
334.328,92.1813,-2.95794,0,9.83635,-0.416733,0.764011,0.0304878,-0.243902,-1.15854,-39.5705,0.464634,-1.98787,-16.8293,-6.25,3.9939
334.338,92.1742,-2.93765,0,9.85311,-0.397573,0.775986,0.152439,-0.182927,-1.15854,-39.6855,0.368833,-1.71962,-17.1646,-7.16463,3.84146
334.348,92.1679,-2.92103,0,9.86988,-0.399968,0.747246,0.0914634,-0.0609756,-1.12805,-39.4556,0.320933,-1.75794,-17.8354,-6.7378,4.60366
334.358,92.1643,-2.92073,0,9.84114,-0.399968,0.747246,-0.0609756,-0.0304878,-0.945122,-39.4747,-0.0814307,-2.03577,-17.8963,-7.83537,4.5122
334.368,92.1611,-2.9111,0,9.86269,-0.404758,0.797541,-0.121951,0.182927,-0.97561,-39.4268,-0.0622705,-1.87291,-17.0427,-8.47561,4.54268
334.378,92.1612,-2.91345,0,9.81719,-0.426313,0.783171,-0.182927,0.365854,-1.09756,-39.5035,-0.148491,-2.07409,-16.8598,-7.10366,4.35976
334.388,92.1686,-2.90241,0,9.79084,-0.455054,0.823887,-0.0609756,0.396341,-1.0061,-39.3789,-0.100591,-1.83458,-16.9817,-6.61585,4.90854
334.398,92.1685,-2.90249,0,9.80521,-0.409548,0.843047,-0.365854,0.0304878,-0.853659,-39.5418,0.0239502,-2.02619,-16.311,-5.82317,5.88415
334.408,92.1677,-2.88923,0,9.81,-0.416733,0.809517,-0.27439,-0.0914634,-1.0061,-39.3789,0.158071,-1.78668,-16.311,-6.12805,5.60976
334.418,92.1674,-2.8705,0,9.83635,-0.440684,0.778381,-0.0609756,-0.213415,-1.28049,-39.5514,0.196392,-1.69088,-15.7012,-6.40244,6.37195
334.428,92.1656,-2.85204,0,9.84353,-0.423918,0.795146,0.0914634,-0.213415,-1.15854,-39.7142,0.215552,-1.69088,-16.6463,-6.76829,5.88415
334.438,92.1657,-2.84653,0,9.8579,-0.419128,0.766406,-0.121951,-0.487805,-0.945122,-39.6951,0.119751,-1.90165,-16.311,-6.03659,5.45732
334.448,92.1628,-2.83082,0,9.84353,-0.428708,0.756826,-0.182927,-0.365854,-1.31098,-39.4651,0.167651,-1.71004,-16.1585,-6.31098,4.72561
334.458,92.1617,-2.8226,0,9.81,-0.426313,0.752036,-0.121951,-0.0609756,-1.18902,-39.3981,-0.0143701,-1.825,-16.0976,-5.88415,4.96951
334.468,92.1545,-2.82043,0,9.84114,-0.411943,0.761616,-0.213415,0.0914634,-1.43293,-39.3214,-0.0622705,-1.92081,-14.4512,-5.82317,6.25
334.478,92.1533,-2.82498,0,9.80042,-0.421523,0.768801,-0.579268,0.243902,-1.15854,-39.1969,-0.129331,-2.02619,-14.3598,-4.78659,5.30488
334.488,92.1515,-2.829,0,9.8076,-0.450264,0.761616,-0.823171,0.0914634,-1.55488,-39.3502,-0.0335303,-2.02619,-15.7622,-4.26829,5.21341
334.498,92.157,-2.82416,0,9.8124,-0.433499,0.749641,-0.579268,0.335366,-0.853659,-39.4747,0.158071,-1.88249,-15.1829,-4.72561,5.88415
334.508,92.1596,-2.82074,0,9.8076,-0.440684,0.752036,-0.213415,-0.0914634,-1.12805,-39.5801,0.196392,-1.91123,-16.6463,-5.42683,6.61585
334.518,92.1631,-2.82441,0,9.86509,-0.450264,0.771196,0,-0.457317,-1.12805,-39.6759,0.100591,-2.03577,-17.0427,-4.81707,6.43293
334.528,92.1695,-2.82167,0,9.84593,-0.459844,0.752036,0.121951,-0.762195,-1.06707,-39.7142,0.186812,-1.93039,-15.9451,-5.57927,5.60976
334.538,92.1713,-2.82736,0,9.82916,-0.457449,0.740061,0.182927,-0.670732,-1.34146,-39.7238,-0.0718506,-2.07409,-15.8841,-4.72561,5.82317
334.548,92.1784,-2.84444,0,9.83635,-0.469424,0.759221,-0.335366,-0.487805,-1.12805,-39.6088,-0.158071,-2.27527,-15.4878,-5.88415,5.15244
334.558,92.1782,-2.84172,0,9.83156,-0.440684,0.752036,-0.152439,0.0609756,-1.25,-39.4364,-0.205972,-1.93039,-14.0244,-5.33537,3.9939
334.568,92.1726,-2.83399,0,9.86509,-0.411943,0.744851,-0.396341,0.335366,-1.25,-39.3119,-0.110171,-1.83458,-14.4207,-5.15244,4.32927
334.578,92.1717,-2.83481,0,9.83395,-0.433499,0.699346,-0.426829,0.487805,-1.21951,-39.3981,0.129331,-1.97829,-14.0854,-4.02439,5.06098
334.588,92.1701,-2.81937,0,9.88185,-0.416733,0.730481,-0.243902,0.365854,-1.0061,-39.3981,0.0143701,-1.70046,-13.628,-5.33537,4.57317
334.598,92.1683,-2.80586,0,9.86509,-0.416733,0.687371,-0.396341,0.152439,-1.03659,-39.5322,0.205972,-1.7292,-14.6951,-5.33537,4.69512
334.608,92.1666,-2.78361,0,9.86269,-0.419128,0.65863,-0.121951,0.0914634,-1.06707,-39.7717,0.186812,-1.57592,-14.5427,-5.09146,4.54268
334.618,92.17,-2.78731,0,9.88904,-0.438289,0.680186,0.426829,0.152439,-0.945122,-39.6663,0.0622705,-2.01661,-14.7561,-6.70732,3.87195
334.628,92.1718,-2.77533,0,9.84114,-0.447869,0.696951,0.335366,0,-1.21951,-39.7525,-0.0335303,-1.74836,-13.5976,-6.76829,3.38415
334.638,92.173,-2.75664,0,9.83395,-0.431104,0.764011,0.243902,0.213415,-1.03659,-39.8388,-0.167651,-1.6334,-14.0549,-8.9939,3.81098
334.648,92.1741,-2.75013,0,9.81479,-0.440684,0.761616,0.0914634,0.518293,-1.18902,-39.5993,0.311353,-1.825,-13.7195,-9.42073,3.65854
334.658,92.1799,-2.73393,0,9.8076,-0.450264,0.761616,0.243902,0.762195,-1.0061,-39.6472,0.282612,-1.65256,-14.7561,-9.20732,4.11585
334.668,92.1784,-2.72501,0,9.81958,-0.426313,0.768801,0.304878,0.609756,-1.15854,-39.5801,0.340093,-1.76752,-15.2744,-9.78659,3.84146
334.678,92.177,-2.72549,0,9.84353,-0.419128,0.795146,0.365854,0.304878,-1.03659,-39.5035,0.253872,-1.92081,-14.3293,-9.39024,4.54268
334.688,92.1833,-2.72008,0,9.8555,-0.462239,0.771196,0.487805,-0.304878,-1.06707,-39.6951,0.215552,-1.83458,-15.5183,-11.5854,5.21341
334.698,92.1864,-2.69872,0,9.86748,-0.459844,0.718506,0.579268,-0.396341,-1.21951,-39.6663,0.387993,-1.55676,-16.9207,-13.4756,4.35976
334.708,92.1825,-2.68449,0,9.88425,-0.431104,0.740061,0.945122,-0.304878,-1.34146,-39.628,0.138911,-1.66214,-16.9207,-12.6524,3.68902
334.718,92.18,-2.68496,0,9.84832,-0.416733,0.732876,0.792683,-0.0914634,-1.06707,-39.7909,0.0622705,-1.92081,-16.9207,-13.5976,4.5122
334.728,92.1813,-2.66904,0,9.84353,-0.426313,0.720901,0.701219,0.152439,-0.945122,-39.7142,0.148491,-1.6334,-16.0061,-14.6037,3.68902
334.738,92.1785,-2.65283,0,9.84832,-0.407153,0.775986,0.945122,0.670732,-0.945122,-39.7621,0.0143701,-1.62382,-16.5549,-15.9146,2.9878
334.748,92.1832,-2.62262,0,9.83635,-0.419128,0.775986,0.945122,0.609756,-0.609756,-39.7813,0.0335303,-1.37474,-16.0061,-18.0183,2.2561
334.758,92.1927,-2.6051,0,9.81,-0.435894,0.802332,0.640244,0.640244,-0.579268,-39.7142,-0.0431104,-1.57592,-16.5549,-18.628,2.62195
334.768,92.1969,-2.60917,0,9.81,-0.423918,0.775986,0.823171,0.27439,-0.701219,-39.8483,0.0526904,-1.94955,-15.3354,-18.811,3.93293
334.778,92.1919,-2.59954,0,9.83874,-0.387993,0.735271,0.762195,0.0609756,-0.762195,-39.6855,0.119751,-1.71004,-15.8841,-20.4573,3.81098
334.788,92.1976,-2.57985,0,9.83156,-0.440684,0.811912,0.853659,0,-0.823171,-39.7909,0.0526904,-1.5376,-15.6098,-22.3476,3.59756
334.798,92.1955,-2.5598,0,9.82916,-0.404758,0.785566,0.762195,-0.243902,-0.823171,-39.6663,0.0910107,-1.51844,-16.6768,-24.0244,5.06098
334.808,92.201,-2.52449,0,9.82916,-0.431104,0.792751,0.884146,-0.243902,-0.701219,-39.8675,0.0335303,-1.2502,-18.2622,-25.8232,4.96951
334.818,92.2068,-2.48735,0,9.81,-0.440684,0.795146,0.731707,-0.396341,-0.823171,-39.8867,-0.129331,-1.2023,-17.4695,-28.2927,5.51829
334.828,92.2104,-2.45134,0,9.80521,-0.433499,0.816702,0.762195,-0.0304878,-0.853659,-39.8483,-0.138911,-1.2023,-18.0793,-30.3659,6.52439
334.838,92.2185,-2.39908,0,9.76928,-0.450264,0.780776,0.487805,0.152439,-0.823171,-39.7238,-0.138911,-0.895737,-17.4085,-32.3476,7.07317
334.848,92.2249,-2.35508,0,9.82437,-0.447869,0.828677,0.609756,0.121951,-0.823171,-39.6472,-0.301772,-1.0107,-17.1037,-34.8171,7.10366
334.858,92.2253,-2.33709,0,9.87227,-0.443079,0.802332,0.426829,0,-1.09756,-39.7621,-0.158071,-1.4418,-17.2866,-35.5183,7.7439
334.868,92.2214,-2.31546,0,9.89143,-0.435894,0.716111,0.365854,-0.396341,-1.31098,-39.6855,-0.138911,-1.37474,-17.0732,-39.0244,8.90244
334.878,92.2219,-2.30915,0,9.88904,-0.428708,0.766406,0.213415,-0.335366,-0.884146,-39.6472,-0.0622705,-1.62382,-17.0732,-38.2012,9.32927
334.888,92.224,-2.2768,0,9.85311,-0.440684,0.737666,0.152439,-0.213415,-0.97561,-39.8388,-0.292192,-1.18314,-17.6829,-42.1951,9.2378
334.898,92.2308,-2.24808,0,9.75252,-0.500559,0.735271,0.0304878,0.243902,-1.46341,-40.0112,-0.0910107,-1.23104,-15.6402,-42.5915,10.2134
334.908,92.2383,-2.23443,0,9.7597,-0.500559,0.831072,0.0914634,0.0304878,-1.40244,-40.3752,-0.129331,-1.49928,-16.1585,-45.122,11.4634
334.918,92.2438,-2.21391,0,9.78844,-0.493374,0.814307,0.335366,-0.243902,-1.40244,-40.3561,-0.196392,-1.37474,-15.122,-47.4085,10.8537
334.928,92.2429,-2.19042,0,9.81479,-0.474214,0.785566,-0.0609756,-0.304878,-1.58537,-40.222,-0.148491,-1.31726,-14.8476,-51.5244,10.5488
334.938,92.2315,-2.15289,0,9.81958,-0.431104,0.766406,-0.121951,-0.609756,-1.89024,-40.3178,-0.0814307,-1.0586,-13.3841,-52.8049,11.5244
334.948,92.2205,-2.1158,0,9.88425,-0.452659,0.735271,-0.121951,-0.701219,-2.10366,-40.1836,-0.0814307,-1.04902,-12.9573,-56.4329,10.9451
334.958,92.2128,-2.06424,0,9.90341,-0.450264,0.749641,0.152439,-0.487805,-1.79878,-40.1357,-0.0239502,-0.771196,-13.2317,-57.9878,9.96951
334.968,92.2031,-2.01203,0,9.93933,-0.467029,0.742456,-0.27439,-0.213415,-2.16463,-39.992,-0.110171,-0.732876,-12.8049,-61.4024,9.45122
334.978,92.1932,-1.95679,0,9.93694,-0.469424,0.747246,-0.0304878,0.152439,-2.22561,-40.0399,-0.244292,-0.646655,-12.5,-62.2866,9.17683
334.988,92.1882,-1.90745,0,9.87706,-0.490979,0.720901,-0.457317,0.518293,-2.13415,-39.7238,0.0239502,-0.713716,-10.2134,-64.3293,7.62195
334.998,92.1893,-1.85251,0,9.86748,-0.500559,0.713716,-0.365854,0.701219,-1.79878,-39.7525,0.205972,-0.589175,-10.8537,-66.4939,8.29268
335.008,92.1866,-1.7899,0,9.8124,-0.510139,0.744851,-0.213415,0.609756,-2.22561,-39.7909,0.0910107,-0.426313,-9.84756,-69.1768,8.2622
335.018,92.1805,-1.7096,0,9.80042,-0.498164,0.682581,-0.0304878,0.640244,-2.37805,-40.0495,-0.0622705,-0.0814307,-11.0976,-71.5854,9.20732
335.028,92.1794,-1.63217,0,9.75731,-0.548459,0.696951,-0.0304878,0.670732,-2.56098,-40.0304,-0.0718506,-0.0814307,-10.8537,-73.2012,10.7622
335.038,92.1713,-1.5631,0,9.78605,-0.536484,0.66342,-0.121951,0.548781,-2.9878,-39.8771,-0.0335303,-0.177231,-12.1341,-74.0549,12.1951
335.048,92.1584,-1.48347,0,9.81719,-0.479004,0.725691,0,0.304878,-2.7439,-39.6567,-0.0718506,0.0526904,-11.9512,-75.1219,12.5915
335.058,92.1417,-1.40571,0,9.83874,-0.474214,0.699346,0.152439,0.0914634,-3.04878,-39.6376,-0.0335303,0.0718506,-10.8232,-76.0061,12.9878
335.068,92.1222,-1.32397,0,9.86988,-0.440684,0.764011,0.213415,0.213415,-2.92683,-39.6663,0.186812,0.196392,-11.0671,-75.7012,15.3659
335.078,92.1029,-1.21708,0,9.91299,-0.423918,0.764011,0.548781,0.609756,-2.71341,-39.8004,0.320933,0.684976,-11.189,-78.6585,13.3841
335.088,92.0825,-1.08981,0,9.92257,-0.404758,0.768801,0.609756,0.670732,-2.62195,-40.0495,0.158071,1.11608,-11.4024,-80.9146,13.872
335.098,92.0656,-0.965723,0,9.88904,-0.431104,0.728086,0.579268,0.762195,-2.68293,-40.222,0.186812,1.14482,-11.2195,-83.5366,12.6524
335.108,92.0519,-0.875312,0,9.86748,-0.457449,0.720901,0.823171,1.64634,-2.7439,-40.2411,0.167651,0.627495,-11.5549,-85.6707,10.3963
335.118,92.0346,-0.806865,0,9.90341,-0.459844,0.737666,0.823171,1.82927,-3.10976,-39.9825,0.0814307,0.301772,-12.0732,-85,9.84756
335.128,92.0146,-0.71737,0,9.92257,-0.426313,0.694556,0.945122,1.79878,-2.9878,-39.9154,0.167651,0.723296,-11.0061,-83.8415,9.93902
335.138,91.988,-0.634519,0,9.92496,-0.392783,0.675395,1.09756,1.70732,-3.2622,-39.7525,0.167651,0.665815,-10.5488,-83.9024,10.7927
335.148,91.9647,-0.543008,0,9.92017,-0.411943,0.766406,1.15854,2.10366,-3.23171,-39.8867,0.148491,0.876577,-10.9756,-84.3293,12.1341
335.158,91.9453,-0.41382,0,9.84353,-0.414338,0.814307,0.97561,2.7439,-2.9878,-40.0687,0.0718506,1.60466,-10.3354,-86.0671,14.6646
335.168,91.9307,-0.277335,0,9.8076,-0.423918,0.802332,0.853659,3.35366,-2.71341,-39.9633,0.311353,1.80584,-9.7561,-90,14.878
335.178,91.9194,-0.125252,0,9.77407,-0.452659,0.831072,1.34146,3.29268,-2.80488,-40.0399,0.493374,2.16989,-11.6159,-93.1707,15.6402
335.188,91.9058,0.027944,0,9.79563,-0.455054,0.754431,1.64634,2.86585,-3.04878,-40.107,0.330513,2.29443,-12.8659,-94.7866,15.122
335.198,91.8877,0.131694,0,9.79323,-0.431104,0.857417,1.7378,2.0122,-3.20122,-39.8292,0.349673,1.51844,-12.439,-93.8719,14.6341
335.208,91.8646,0.221712,0,9.8579,-0.385598,0.804727,2.22561,1.37195,-3.14024,-39.8004,0.531694,1.346,-11.2195,-94.5427,14.1159
335.218,91.8351,0.339193,0,9.88425,-0.361648,0.728086,2.28659,1.18902,-3.5061,-39.8675,0.550855,1.89207,-9.2378,-95.2134,12.7439
335.228,91.8012,0.461167,0,9.88425,-0.342488,0.780776,1.92073,0.945122,-3.78049,-40.0974,0.570015,2.05493,-8.5061,-98.1098,11.0366
335.238,91.7674,0.600697,0,9.87706,-0.352068,0.799937,1.95122,1.52439,-3.96341,-40.0878,0.656235,2.44771,-8.41463,-99.1159,10.7012
335.248,91.7384,0.723462,0,9.84353,-0.383203,0.850232,1.7378,2.77439,-3.93293,-39.9729,0.646655,2.23695,-8.10976,-100.579,10.7317
335.258,91.7106,0.887946,0,9.82437,-0.402363,0.881367,1.70732,3.59756,-4.11585,-39.7909,0.435894,3.04167,-8.35366,-102.195,11.4939
335.268,91.6894,1.07353,0,9.86269,-0.409548,0.922083,1.70732,4.11585,-3.59756,-39.5801,0.464634,3.50152,-7.92683,-104.817,12.8659
335.278,91.6702,1.23115,0,9.89143,-0.397573,0.886157,2.10366,3.87195,-3.29268,-39.2831,0.455054,3.11832,-7.83537,-104.085,13.0793
335.288,91.6576,1.38325,0,9.89622,-0.450264,0.907712,2.2561,3.71951,-3.32317,-39.1873,0.330513,3.11832,-8.96341,-105.549,14.1463
335.298,91.6395,1.52644,0,9.82197,-0.426313,0.809517,2.2561,3.01829,-3.62805,-39.1203,0.225132,3.06083,-8.20122,-106.128,13.6585
335.308,91.6203,1.66365,0,9.78366,-0.455054,0.876577,2.28659,2.56098,-4.11585,-39.0532,0.177231,3.05125,-5.64024,-105.854,14.3293
335.318,91.5991,1.81162,0,9.70222,-0.459844,0.840652,2.2561,2.7439,-4.45122,-39.2448,0.368833,3.34824,-4.63415,-105.823,12.622
335.328,91.5724,1.97788,0,9.68785,-0.431104,0.866997,2.19512,2.62195,-4.69512,-39.7717,0.560435,3.80808,-4.42073,-109.238,11.311
335.338,91.5391,2.17582,0,9.63277,-0.414338,0.946033,1.7378,2.37805,-5.2439,-39.7717,0.905317,4.47869,-4.11585,-111.402,10.9756
335.348,91.4964,2.36159,0,9.72138,-0.349673,0.967588,1.67683,2.07317,-5.42683,-39.7525,0.857417,4.39247,-4.60366,-113.476,10.4268
335.358,91.4469,2.57237,0,9.77886,-0.306563,0.917292,1.76829,2.19512,-5.67073,-39.6472,1.12566,4.94811,-6.34146,-115.244,11.0366
335.368,91.3984,2.7911,0,9.7597,-0.308958,0.974773,1.40244,1.89024,-5.70122,-39.8004,1.02028,5.24509,-8.65854,-118.872,9.84756
335.378,91.348,2.9793,0,9.72857,-0.304167,0.972378,1.37195,1.55488,-5.94512,-39.6472,0.943638,4.83315,-9.81707,-119.878,10.122
335.388,91.2974,3.18387,0,9.78605,-0.323328,1.02986,1.0061,1.25,-6.28049,-39.4651,0.857417,5.21635,-12.622,-124.39,9.72561
335.398,91.2453,3.40181,0,9.83395,-0.318538,0.993933,0.884146,1.06707,-6.46341,-39.0053,0.742456,5.51333,-12.6524,-129.726,10.1829
335.408,91.1934,3.64314,0,9.8555,-0.330513,0.950823,1.25,1.12805,-6.67683,-38.9957,0.809517,6.04982,-15.5793,-136.86,12.0427
335.418,91.142,3.88656,0,9.90101,-0.304167,0.948428,1.15854,1.18902,-6.40244,-38.9765,0.474214,6.23184,-15.1524,-142.713,13.3232
335.428,91.0816,4.11851,0,9.93694,-0.270637,0.946033,1.0061,1.43293,-7.0122,-38.7275,0.273032,6.14562,-14.3293,-146.829,14.6646
335.438,91.0246,4.35004,0,9.85072,-0.263452,0.929268,1.25,1.95122,-6.7378,-38.6412,-0.0718506,6.28932,-13.1098,-145.64,15
335.448,90.9702,4.58936,0,9.74533,-0.239502,0.931663,0.914634,2.04268,-6.34146,-38.3922,0.0143701,6.54798,-12.9878,-144.36,14.8171
335.458,90.9162,4.83297,0,9.67348,-0.234712,0.797541,1.31098,1.82927,-6.37195,-38.5454,0.225132,6.80665,-8.93293,-146.799,16.0976
335.468,90.8597,5.0783,0,9.67348,-0.222737,0.833467,1.58537,1.43293,-6.58537,-38.5933,0.426313,7.00783,-6.7378,-148.811,15.7012
335.478,90.7967,5.33251,0,9.72138,-0.193997,0.888552,1.95122,0.609756,-7.0122,-38.6317,0.713716,7.33355,-5.64024,-151.311,14.6037
335.488,90.7295,5.58959,0,9.8124,-0.134121,0.907712,2.04268,-0.0914634,-6.82927,-38.6029,0.637075,7.55389,-4.17683,-152.073,14.939
335.498,90.6615,5.85521,0,9.79563,-0.110171,0.890947,1.92073,-0.365854,-6.76829,-38.3059,1.0586,7.81255,-5.15244,-155.488,14.2378
335.508,90.5981,6.14402,0,9.81958,-0.105381,0.946033,1.82927,-0.365854,-6.37195,-38.1718,0.512534,8.37778,-3.10976,-155.488,13.9939
335.518,90.5355,6.42309,0,9.86748,-0.117356,1.00591,1.67683,-0.0914634,-6.55488,-38.5359,0.387993,8.49274,-0.97561,-154.116,13.4756
335.528,90.4844,6.7222,0,10.0064,-0.160466,0.974773,1.79878,-0.0304878,-6.0061,-38.6987,0.589175,9.0867,0.670732,-154.055,12.6524
335.538,90.4325,7.04634,0,10.0567,-0.172441,0.862207,2.40854,0.182927,-6.31098,-38.555,0.426313,9.70941,-1.89024,-156.067,13.75
335.548,90.3822,7.36111,0,10.0758,-0.172441,0.804727,2.80488,0.609756,-6.25,-38.4305,0.502954,9.73815,-1.79878,-156.738,14.0244
335.558,90.3279,7.68677,0,10.004,-0.158071,0.761616,2.89634,0.853659,-6.61585,-37.9611,0.608335,10.0256,-2.31707,-159.756,15.2134
335.568,90.2675,7.99708,0,9.97286,-0.0958008,0.787961,2.65244,1.09756,-6.61585,-37.597,0.215552,9.88185,-0.97561,-160.945,14.6951
335.578,90.2041,8.25939,0,9.89383,-0.117356,0.787961,2.37805,1.67683,-7.31707,-37.2713,0.694556,9.17292,1.25,-160.549,14.7866
335.588,90.1375,8.54523,0,9.77407,-0.131726,0.778381,1.92073,1.85976,-7.95732,-36.9072,0.866997,9.68067,1.95122,-157.652,15.4573
335.598,90.0697,8.8847,0,9.72138,-0.162861,0.799937,1.55488,2.37805,-8.59756,-36.9264,1.14482,10.8207,1.70732,-158.628,14.2378
335.608,90.0001,9.23452,0,9.7142,-0.177231,0.835862,1.76829,2.43902,-9.08537,-37.2138,1.22146,11.3284,1.52439,-159.116,12.5915
335.618,89.9265,9.58765,0,9.72138,-0.150886,0.855022,1.67683,2.95732,-9.32927,-37.597,1.4418,11.75,-1.76829,-160.976,11.4634
335.628,89.8503,9.94836,0,10.016,-0.117356,0.852627,1.7378,3.75,-9.29878,-37.4916,1.46096,12.114,-2.40854,-159.634,10.3659
335.638,89.7819,10.3136,0,9.97047,-0.146096,0.900527,2.46951,2.77439,-8.9939,-37.1851,1.48012,12.3631,-5.27439,-157.622,9.84756
335.648,89.7182,10.6585,0,9.94173,-0.179626,0.924478,2.7439,2.5,-9.05488,-36.8881,1.40348,12.1619,-6.76829,-157.012,8.17073
335.658,89.653,11.0034,0,9.83874,-0.148491,0.953218,3.01829,1.98171,-8.9939,-36.3899,1.30768,12.2481,-9.35976,-154.909,7.89634
335.668,89.5843,11.3623,0,9.83156,-0.153281,0.955613,2.59146,1.89024,-9.54268,-36.045,0.953218,12.6313,-8.14024,-152.134,7.80488
335.678,89.5134,11.732,0,9.8603,-0.110171,0.991538,2.37805,2.65244,-9.39024,-35.8439,0.684976,13.005,-8.01829,-152.866,8.65854
335.688,89.4382,12.097,0,9.92736,-0.0718506,0.969983,2.2561,2.95732,-9.5122,-35.6906,0.589175,13.1295,-9.11585,-151.738,9.26829
335.698,89.3529,12.452,0,9.91059,0.0263452,0.900527,2.13415,3.78049,-9.54268,-35.5852,0.761616,13.1774,-9.60366,-150,10.1829
335.708,89.2614,12.8294,0,9.91538,0.138911,0.886157,2.59146,4.60366,-9.02439,-35.3361,1.30768,13.7426,-8.62805,-147.47,12.2866
335.718,89.1758,13.2153,0,9.96328,0.158071,0.807122,2.16463,4.87805,-8.38415,-35.2978,1.24062,14.1546,-7.80488,-146.25,11.5549
335.728,89.0886,13.6047,0,9.88664,0.165256,0.917292,1.55488,4.32927,-8.62805,-35.499,1.6334,14.5857,-5.67073,-144.177,12.4695
335.738,89.006,13.9914,0,9.77407,0.105381,0.984353,0.487805,4.05488,-9.02439,-35.5277,1.825,14.8348,-10.122,-142.5,11.311
335.748,88.9253,14.3834,0,9.68306,0.114961,0.996328,1.12805,4.72561,-8.87195,-35.6235,1.76752,15.2659,-11.7683,-140.152,10.1524
335.758,88.8476,14.7671,0,9.80042,0.153281,0.950823,1.85976,5.12195,-8.29268,-35.5852,1.85375,15.3904,-13.9634,-138.232,8.62805
335.768,88.7712,15.1206,0,9.75012,0.172441,1.0562,1.58537,5.15244,-8.07927,-35.566,1.80584,15.103,-16.8293,-138.902,7.77439
335.778,88.6987,15.4918,0,9.78844,0.186812,0.981958,1.52439,4.7561,-7.68293,-35.796,1.65256,15.7832,-19.1463,-141.524,7.10366
335.788,88.6275,15.8739,0,9.84832,0.205972,0.989143,1.85976,4.32927,-7.46951,-35.6906,1.43222,16.2047,-20.122,-145.762,7.22561
335.798,88.5544,16.2424,0,9.81,0.270637,1.01549,2.5,3.47561,-7.04268,-35.7097,1.35558,16.2334,-20.6707,-148.018,6.06707
335.808,88.4849,16.6165,0,9.7597,0.270637,1.02267,2.71341,3.2622,-6.79878,-35.7576,1.1544,16.6262,-21.189,-152.073,6.37195
335.818,88.4102,17.0016,0,9.81,0.323328,1.0562,2.89634,3.14024,-6.85976,-35.3649,1.09692,16.9328,-19.3598,-152.5,5.67073
335.828,88.3269,17.4065,0,9.91299,0.421523,1.04183,3.65854,2.80488,-6.76829,-35.0104,1.23104,17.4405,-18.75,-150.976,6.28049
335.838,88.2516,17.7751,0,9.92257,0.414338,0.996328,3.78049,2.83537,-6.21951,-34.4643,1.1544,16.7891,-17.6829,-149.817,5.18293
335.848,88.1839,18.1419,0,9.94173,0.332908,1.0107,3.9939,2.68293,-6.55488,-34.0141,1.19272,16.8178,-16.189,-146.86,4.5122
335.858,88.1166,18.5151,0,9.82437,0.292192,1.06339,3.47561,3.29268,-7.10366,-33.8799,0.991538,17.1531,-14.1159,-144.39,4.29878
335.868,88.0515,18.8991,0,9.75252,0.246687,1.02507,2.9878,3.93293,-7.53049,-33.8033,0.866997,17.5938,-12.3476,-144.421,4.72561
335.878,87.9888,19.2551,0,9.72138,0.210762,0.991538,2.95732,3.65854,-7.83537,-33.9662,0.857417,17.4405,-14.0854,-143.841,3.87195
335.888,87.9153,19.589,0,9.74294,0.342488,0.989143,3.17073,3.38415,-7.5,-33.8991,0.838257,17.2489,-13.9634,-144.909,2.65244
335.898,87.8508,19.9477,0,9.83874,0.376018,0.972378,3.14024,3.44512,-6.37195,-33.8608,0.981958,17.9483,-13.3841,-145.64,2.19512
335.908,87.7888,20.3322,0,9.80042,0.409548,1.03704,3.32317,3.14024,-5.82317,-33.6021,1.50886,18.5806,-11.6768,-144.787,2.22561
335.918,87.7284,20.7301,0,9.76689,0.438289,1.09931,3.62805,2.04268,-5.42683,-33.7075,1.88249,19.2033,-12.378,-143.384,1.15854
335.928,87.6781,21.0927,0,9.80042,0.452659,1.13045,4.29878,1.70732,-4.35976,-33.6309,2.07409,18.8009,-12.8049,-137.378,-0.243902
335.938,87.6381,21.4498,0,9.80521,0.414338,1.22386,3.9939,1.55488,-3.87195,-33.1519,2.16989,18.7243,-10.7012,-131.707,0
335.948,87.6062,21.7782,0,9.74294,0.332908,1.33403,3.90244,1.31098,-4.11585,-32.9794,2.00703,18.3602,-14.7256,-129.085,-0.609756
335.958,87.5799,22.1076,0,9.76928,0.289797,1.2502,3.87195,1.7378,-4.14634,-33.0369,2.00703,18.6476,-18.1098,-132.073,-1.46341
335.968,87.5431,22.4912,0,9.76449,0.332908,1.21906,3.84146,1.82927,-4.72561,-33.3243,1.74836,20.1038,-22.7744,-139.695,-1.95122
335.978,87.4962,22.8399,0,9.65672,0.354463,1.22625,3.56707,2.53049,-5.51829,-33.6979,1.2981,19.9122,-25.8537,-145.091,-2.9878
335.988,87.4627,23.1693,0,9.98244,0.383203,1.17595,3.75,2.19512,-4.05488,-33.5638,1.27894,19.7206,-27.7439,-145.976,-2.59146
335.998,87.4283,23.5053,0,9.93454,0.440684,1.21427,4.29878,2.0122,-3.5061,-32.7399,1.49928,19.6439,-28.2622,-139.573,-2.40854
336.008,87.3988,23.8543,0,9.82677,0.409548,1.24062,3.41463,1.7378,-3.41463,-31.916,1.83458,19.6727,-26.5244,-134.817,-2.56098
336.018,87.3761,24.2048,0,9.68785,0.340093,1.21667,2.80488,1.82927,-3.59756,-31.5616,1.69088,19.7781,-27.1037,-127.805,-0.670732
336.028,87.3558,24.5618,0,9.62079,0.299377,1.14961,3.2622,1.21951,-3.87195,-31.4753,1.43222,20.1421,-24.939,-121.829,-0.426829
336.038,87.3347,24.8866,0,9.53936,0.258662,1.15919,3.14024,0.670732,-4.45122,-31.3316,1.19272,19.7206,-23.1707,-116.646,-0.0304878
336.048,87.3043,25.2295,0,9.55852,0.294587,1.18793,3.07927,0.121951,-4.96951,-31.4562,0.943638,20.4104,-23.9634,-114.756,-2.19512
336.058,87.2653,25.5455,0,9.65911,0.368833,1.19272,2.46951,-0.762195,-5.03049,-31.7436,0.579595,20.3337,-23.5061,-114.512,-4.45122
336.068,87.2246,25.8429,0,9.72617,0.395178,1.16398,2.65244,-1.43293,-5,-32.0885,0.828677,20.4295,-24.7561,-115.945,-6.18902
336.078,87.1855,26.1477,0,9.70462,0.387993,1.17835,2.62195,-1.4939,-5,-32.2801,0.790356,20.9373,-25,-115.183,-8.41463
336.088,87.1398,26.4524,0,9.78126,0.409548,1.09931,3.10976,-1.95122,-5.51829,-32.1939,0.914897,21.1289,-26.6159,-114.177,-9.60366
336.098,87.0927,26.7366,0,9.8124,0.399968,1.17595,3.44512,-2.59146,-5.88415,-31.9256,0.972378,20.8031,-27.0122,-109.451,-9.2378
336.108,87.0449,27.0476,0,9.89862,0.435894,1.14242,3.5061,-2.92683,-5.67073,-31.6286,1.0107,21.3875,-27.9573,-105.549,-8.75
336.118,87.0129,27.3576,0,9.93933,0.335303,1.15919,2.95732,-2.5,-5.36585,-31.3891,0.799937,21.4737,-26.4329,-101.159,-10.4573
336.128,86.9701,27.6616,0,9.84593,0.399968,1.14242,2.77439,-2.13415,-5.73171,-30.9676,0.943638,21.33,-25,-95.7317,-9.78659
336.138,86.9265,27.9709,0,9.8579,0.383203,1.03225,3.38415,-0.97561,-6.09756,-30.8143,0.656235,21.6079,-23.0793,-87.8354,-11.2195
336.148,86.8783,28.2999,0,9.87706,0.464634,1.07297,3.10976,-1.0061,-5.70122,-30.2874,0.905317,21.9048,-22.1646,-81.1585,-10.9756
336.158,86.827,28.6059,0,9.82916,0.522114,1.03465,2.77439,-1.55488,-5.39634,-30.3736,0.646655,21.7899,-21.0061,-75.4573,-12.9878
336.168,86.786,28.9098,0,9.81958,0.512534,1.10171,2.5,-1.95122,-4.57317,-30.3353,0.455054,21.9815,-20.7012,-71.0366,-12.8963
336.178,86.7467,29.1981,0,9.79084,0.55325,1.11847,2.68293,-2.04268,-3.96341,-30.479,0.493374,22.0198,-18.7805,-69.6037,-12.9268
336.188,86.7123,29.5019,0,9.73815,0.510139,1.18314,2.59146,-1.95122,-4.05488,-30.661,0.407153,22.7096,-18.4451,-69.0854,-11.8598
336.198,86.6831,29.8158,0,9.83156,0.512534,1.17116,2.77439,-1.76829,-3.62805,-30.2683,0.273032,22.882,-18.5976,-69.2073,-11.4939
336.208,86.6536,30.0984,0,9.79563,0.550855,1.1999,3.14024,-2.22561,-3.23171,-30.2778,0.579595,22.5084,-19.2683,-65.3354,-12.1037
336.218,86.6236,30.4009,0,9.83874,0.574805,1.18553,2.95732,-2.40854,-3.07927,-29.933,0.570015,22.9108,-18.811,-62.1951,-11.9512
336.228,86.6087,30.7013,0,9.86509,0.486189,1.13763,2.89634,-2.13415,-2.77439,-29.6456,0.560435,22.9203,-17.6524,-55.9146,-12.7134
336.238,86.5902,31.0057,0,9.75731,0.471819,1.21906,2.68293,-2.0122,-3.2622,-29.7893,0.330513,23.3802,-18.9634,-52.7744,-13.4756
336.248,86.5691,31.3032,0,9.71899,0.452659,1.16398,2.65244,-1.7378,-3.75,-29.7509,0.215552,23.476,-18.9634,-49.0244,-12.378
336.258,86.5407,31.5913,0,9.77168,0.517324,1.14242,2.53049,-1.79878,-3.75,-29.6168,0.0910107,23.4281,-18.7195,-46.8293,-12.0732
336.268,86.5092,31.8793,0,9.84353,0.61552,1.08734,2.43902,-1.82927,-2.95732,-29.5977,-0.0335303,23.6676,-16.9207,-43.8415,-11.4024
336.278,86.4825,32.1534,0,10.0232,0.687371,1.09692,2.46951,-0.670732,-1.58537,-29.5114,0.253872,23.5622,-16.372,-39.9695,-10.4878
336.288,86.4351,32.4169,0,9.77168,0.787961,1.16637,2.19512,-0.670732,-2.10366,-29.2911,0.340093,23.3898,-15.6402,-40,-9.72561
336.298,86.4031,32.6673,0,9.75012,0.66342,1.1065,1.89024,-0.701219,-2.5,-29.5689,0.455054,23.5622,-17.5305,-38.3841,-8.87195
336.308,86.381,32.9186,0,9.7142,0.55804,1.02267,2.13415,-0.548781,-2.95732,-29.6935,0.311353,23.9071,-17.8354,-35.5183,-8.32317
336.318,86.3596,33.1734,0,9.69504,0.570015,1.02507,1.85976,-0.701219,-2.77439,-29.636,0.215552,24.1657,-17.6524,-31.7988,-7.95732
336.328,86.3368,33.4123,0,9.75491,0.61552,1.10171,1.95122,-0.487805,-2.40854,-29.818,0.0814307,24.1945,-18.2927,-30.7927,-6.76829
336.338,86.3067,33.6247,0,9.74054,0.66342,1.01788,1.95122,-1.03659,-2.53049,-29.7701,-0.0814307,23.7921,-19.0244,-28.7805,-6.4939
336.348,86.277,33.8374,0,9.8124,0.708926,1.03944,1.76829,-0.731707,-1.89024,-29.3198,0.0431104,23.6293,-18.9024,-26.311,-6.58537
336.358,86.2509,34.0342,0,9.80042,0.694556,1.1544,1.06707,-0.457317,-1.79878,-29.4731,0.148491,23.6005,-17.0732,-24.3902,-5.64024
336.368,86.2422,34.2178,0,9.79803,0.584385,1.06099,0.914634,-0.0914634,-1.79878,-29.3486,0.00479004,23.3993,-17.3171,-21.6768,-5.64024
336.378,86.2349,34.4038,0,9.76449,0.565225,1.07297,0.914634,-0.457317,-1.92073,-29.3677,0.0622705,23.6293,-17.622,-19.0854,-4.39024
336.388,86.2287,34.576,0,9.74533,0.550855,1.03225,0.640244,-0.304878,-2.0122,-29.6839,0.234712,23.7538,-18.872,-16.7988,-5.30488
336.398,86.226,34.7376,0,9.77168,0.529299,0.917292,0.27439,0.609756,-2.0122,-29.8659,-0.00479004,23.8304,-18.2927,-14.1768,-5.15244
336.408,86.2264,34.8808,0,9.88425,0.529299,0.955613,0.548781,0.853659,-1.82927,-30.0479,-0.215552,23.7251,-19.2378,-12.439,-4.45122
336.418,86.2234,35.0254,0,9.88425,0.5772,0.979563,0.27439,0.335366,-1.52439,-30.2108,-0.301772,24.0029,-18.811,-12.622,-5.18293
336.428,86.2183,35.1715,0,9.88904,0.58199,0.934058,0.640244,-0.243902,-1.64634,-30.2874,-0.512534,24.2136,-18.9939,-15,-6.89024
336.438,86.2174,35.2815,0,9.98005,0.579595,1.01549,0.182927,-1.09756,-1.40244,-30.1054,-0.579595,23.4185,-20.1524,-14.4512,-5.70122
336.448,86.211,35.3712,0,9.95131,0.60115,1.03704,-0.243902,-0.853659,-1.55488,-30.0096,-0.541274,23.0066,-18.9024,-14.1463,-5.27439
336.458,86.2089,35.4644,0,9.94652,0.603545,1.02986,-1.0061,-0.182927,-1.18902,-30.115,-0.684976,23.2461,-17.0732,-12.2866,-2.7439
336.468,86.2184,35.5455,0,9.88904,0.524509,0.962798,-0.853659,0.731707,-1.31098,-30.297,-1.1544,23.2077,-12.4695,-12.3476,-2.16463
336.478,86.2248,35.5943,0,9.80521,0.512534,1.11847,-1.61585,1.28049,-1.58537,-30.6994,-1.03944,22.9012,-9.63415,-10.7927,-1.09756
336.488,86.2286,35.6507,0,10.0064,0.517324,0.960403,-2.31707,2.53049,-1.7378,-30.9484,-0.981958,23.2844,-7.19512,-12.6829,-1.55488
336.498,86.23,35.6995,0,9.97526,0.526904,0.962798,-2.37805,3.56707,-1.79878,-30.9868,-0.828677,23.179,-7.43902,-17.2256,-0.640244
336.509,86.2226,35.723,0,9.96328,0.56283,1.1065,-2.7439,1.95122,-2.07317,-30.7856,-0.732876,22.5276,-6.89024,-20.122,1.06707
336.518,86.2212,35.7291,0,10.1046,0.534089,0.934058,-2.68293,2.34756,-1.98171,-31.2837,-0.704136,22.5371,-5.21341,-21.7073,1.28049
336.528,86.2237,35.7362,0,10.0926,0.505349,0.996328,-2.16463,4.14634,-1.98171,-31.4849,-0.953218,22.6904,-4.81707,-26.128,2.2561
336.538,86.229,35.758,0,9.9058,0.464634,1.08973,-2.86585,4.60366,-2.13415,-31.7819,-1.06818,23.1886,-2.04268,-34.5122,3.32317
336.548,86.2432,35.7415,0,9.8579,0.316143,1.19511,-2.10366,3.38415,-2.89634,-32.0885,-1.65256,22.585,0.762195,-40.7317,3.68902
336.558,86.2533,35.7578,0,9.80281,0.313748,1.14242,-0.792683,3.44512,-3.20122,-32.5579,-2.14115,23.5909,-0.579268,-46.0671,2.80488
336.568,86.2601,35.814,0,9.80521,0.323328,0.898132,-1.43293,6.12805,-3.35366,-32.807,-2.10283,24.6352,-0.97561,-54.9695,0.884146
336.578,86.2487,35.8127,0,9.72857,0.395178,0.811912,-2.2561,9.08537,-4.14634,-32.2034,-1.93039,22.9491,2.89634,-61.7988,2.37805
336.588,86.2338,35.8521,0,9.9561,0.428708,1.17356,-2.53049,7.19512,-4.20732,-31.3891,-1.40348,23.2173,8.59756,-64.7561,4.42073
336.598,86.2254,35.9583,0,10.016,0.342488,1.38672,-1.4939,4.2378,-4.60366,-30.7281,-0.780776,24.1657,14.3902,-70.7012,6.15854
336.608,86.2147,36.033,0,9.79323,0.253872,1.21188,-1.09756,4.11585,-5.79268,-30.2874,-0.637075,23.2365,13.4451,-70.4268,7.89634
336.618,86.2024,36.1188,0,9.69983,0.256267,1.28134,-1.89024,6.31098,-5.91463,-30.0383,0.00479004,23.3706,11.1585,-63.7805,5.67073
336.628,86.1848,36.231,0,9.79563,0.275427,1.27655,-3.04878,8.75,-6.28049,-30.3353,0.387993,24.252,7.31707,-63.1707,4.96951
336.638,86.1692,36.333,0,9.98244,0.292192,1.16398,-3.5061,8.81098,-5.97561,-30.3066,0.560435,24.0795,2.0122,-68.3537,4.48171
336.648,86.1525,36.3529,0,10.1549,0.373623,1.18793,-3.84146,8.90244,-5.2439,-30.5461,0.359253,22.5946,0.457317,-69.7866,4.42073
336.658,86.0957,36.4178,0,10.0758,0.680186,1.40348,-3.35366,7.62195,-5.7622,-30.2395,0.244292,23.3227,-1.4939,-70.6402,3.75
336.668,86.0305,36.4486,0,9.98484,0.804727,1.21188,-3.38415,8.20122,-5.21341,-30.7952,-0.0718506,23.0449,-1.0061,-78.2927,5.60976
336.678,85.9831,36.4981,0,9.69743,0.713716,1.23104,-4.05488,10.9756,-4.32927,-31.2646,-0.617915,23.8017,0.152439,-84.1768,7.86585
336.688,85.935,36.6159,0,9.50823,0.661025,1.33403,-4.14634,12.1341,-5,-31.6957,-0.761616,25.6698,-1.92073,-95,7.83537
336.698,85.871,36.6884,0,9.53936,0.675395,1.43222,-5.70122,10.0915,-6.55488,-32.1076,-0.981958,25.028,0.121951,-102.988,6.46341
336.708,85.8153,36.6788,0,9.76689,0.510139,1.22146,-5.4878,6.92073,-8.01829,-31.9639,-0.761616,23.1598,3.35366,-104.909,5.15244
336.718,85.7349,36.7596,0,9.76689,0.670605,1.2526,-2.53049,4.02439,-8.71951,-31.7915,-0.560435,24.9992,9.54268,-108.933,7.89634
336.728,85.6457,36.9298,0,9.7621,0.742456,1.20948,-0.213415,3.71951,-8.93293,-31.5041,0.320933,26.8482,13.6585,-125.244,12.6524
336.738,85.5454,37.0576,0,9.90341,0.859812,1.17595,1.03659,5.54878,-8.9939,-30.7664,0.550855,25.3345,16.7988,-138.902,16.8598
336.748,85.4338,37.1895,0,10.0806,1.00112,1.18314,1.64634,6.43293,-8.90244,-29.8851,0.819097,24.798,17.5305,-142.226,18.689
336.758,85.3257,37.4078,0,10.3776,1.00351,1.12326,2.10366,5.82317,-9.08537,-29.0707,0.684976,26.1584,18.5061,-145.701,20.3659
336.768,85.2398,37.5558,0,10.3082,0.838257,1.34361,1.31098,6.4939,-8.81098,-28.6875,-0.0239502,24.4052,18.4756,-152.439,20
336.778,85.1824,37.6159,0,10.0495,0.608335,1.48491,1.09756,9.08537,-8.5061,-28.8791,-0.455054,22.8245,23.3232,-152.073,20.2134
336.788,85.13,37.7394,0,9.68546,0.593965,1.69567,2.0122,11.372,-8.01829,-28.6588,-1.83458,24.0508,25.7012,-147.744,19.3293
336.798,85.0905,37.8822,0,9.39806,0.55804,1.79147,1.31098,14.2683,-7.04268,-29.1857,-1.81542,25.0184,34.9085,-150.03,21.0976
336.808,85.03,37.9806,0,9.17053,0.62031,1.73878,0.609756,12.622,-8.29268,-29.8276,-1.31726,24.6831,38.3537,-153.445,23.2012
336.818,84.9651,38.1581,0,9.35255,0.622705,1.77231,-0.213415,10.2744,-8.9939,-30.297,0.205972,26.9823,42.5305,-156.159,27.7744
336.828,84.8943,38.3515,0,9.74294,0.65863,1.67172,-0.27439,7.83537,-9.60366,-30.4024,1.92081,27.5858,40.8537,-166.402,27.2866
336.838,84.8241,38.5025,0,9.96328,0.550855,1.63819,0.365854,7.37805,-11.128,-30.9484,2.89797,27.1931,39.2988,-173.994,27.5305
336.848,84.7763,38.6461,0,10.4854,0.335303,1.71004,1.25,11.0061,-11.7073,-31.1688,3.18538,27.3655,30.122,-170.793,22.7744
336.858,84.7091,38.8435,0,10.4686,0.383203,2.16989,1.15854,12.4085,-13.2317,-31.255,2.92671,28.8983,15,-176.585,17.5
336.868,84.6398,39.0491,0,10.6626,0.308958,2.23455,-2.80488,19.5122,-14.4817,-31.552,2.45729,29.5306,0.335366,-188.079,11.5549
336.878,84.5441,39.2464,0,10.3585,0.308958,2.32556,-7.2561,21.9512,-17.2256,-31.3125,2.03577,29.2815,-10.8232,-192.104,6.61585
336.888,84.4206,39.4858,0,10.1118,0.277822,1.88249,-11.7378,20.8232,-20.5183,-31.2071,1.48012,30.4694,-17.7134,-197.622,6.76829
336.898,84.3062,39.7669,0,9.6184,0.294587,1.71723,-13.1098,26.8293,-19.4817,-31.073,1.7771,31.6861,-23.2317,-207.043,8.20122
336.908,84.1663,40.0153,0,8.71308,0.193997,1.1544,-8.04878,25.2134,-23.2927,-29.1378,1.19272,29.1282,-17.4695,-211.89,12.5305
336.918,84.0221,40.2617,0,8.86157,0.203577,1.12805,-4.66463,21.3415,-23.9329,-27.6625,1.59508,27.8541,-5.30488,-210.152,15.0915
336.928,83.8405,40.5413,0,9.28549,0.428708,1.93039,-5.67073,14.9695,-25.3354,-26.3404,2.40939,27.5763,4.42073,-203.78,17.6829
336.938,83.6314,40.9081,0,9.72378,0.538879,1.80824,-6.40244,1.46341,-27.439,-25.5261,2.95545,29.1665,6.67683,-200.976,19.1768
336.948,83.329,41.3155,0,9.05796,1.07776,2.26808,-6.82927,-5.67073,-30,-24.9801,3.30034,29.9617,3.93293,-205.213,13.2012
336.958,83.0512,41.7968,0,9.58726,0.977168,2.23216,-9.90854,-5.97561,-30.0915,-23.9646,3.34824,31.1879,-1.76829,-203.994,6.85976
336.968,82.8033,42.3533,0,9.63756,0.754431,1.66693,-7.95732,-7.83537,-30.3354,-23.5814,3.40572,33.4967,-4.57317,-200.884,2.31707
336.978,82.5685,42.8765,0,9.48188,0.809517,1.94236,-5.15244,-4.81707,-28.689,-22.9874,3.03209,32.3663,-6.40244,-191.799,1.34146
336.988,82.3298,43.3548,0,9.64474,0.962798,1.86812,-5.54878,-3.53659,-27.8963,-22.1156,2.39023,30.5365,-7.77439,-175.091,4.7561
336.998,82.0826,43.8576,0,9.2831,1.03465,1.71962,-4.93902,-2.22561,-27.8963,-21.1384,2.03577,30.4982,-8.78049,-157.226,9.96951
337.008,81.847,44.3917,0,9.98244,1.20709,1.99026,-8.53659,2.07317,-26.128,-21.2151,2.22737,32.1555,-8.35366,-153.659,15.8841
337.018,81.6285,44.9382,0,9.35734,0.898132,1.63819,-5.27439,-0.670732,-27.7439,-20.6978,2.72553,32.395,-8.44512,-155.305,22.8354
337.028,81.3943,45.4682,0,10.0064,1.16158,2.56986,-4.35976,-1.40244,-27.4695,-20.1325,3.33866,31.7436,-7.56098,-142.165,26.0976
337.038,81.1308,46.0254,0,9.66151,1.48012,2.01661,-2.92683,-5.60976,-26.6768,-19.6535,3.9422,32.5866,-10.3049,-128.171,29.1463
337.048,80.8557,46.5642,0,10.0471,1.75794,1.84177,-2.80488,-1.25,-25.9146,-19.6919,4.09548,32.8166,-13.5061,-121.037,28.75
337.058,80.5961,47.088,0,10.0854,1.71483,1.98547,-2.83537,-1.40244,-25.4573,-19.7685,3.71228,33.1806,-20.8841,-116.494,28.628
337.068,80.3445,47.6079,0,9.69983,1.6358,1.3005,-1.09756,-0.914634,-25.3354,-19.6056,2.69679,33.5446,-22.6829,-105.305,25.3354
337.078,80.0943,48.0631,0,9.51781,1.64538,1.27176,1.18902,-1.40244,-25.2134,-19.3757,1.64298,31.7723,-17.9573,-96.5549,21.5549
337.088,79.834,48.5002,0,9.64474,1.79387,1.44899,2.04268,-1.92073,-25.2744,-18.9829,1.35558,31.1975,-13.9024,-85.0305,17.4085
337.098,79.5682,48.9641,0,9.32381,1.88249,1.5376,3.41463,-4.72561,-24.5732,-18.7722,1.22146,32.2801,-8.41463,-79.8476,16.9207
337.108,79.2735,49.4312,0,8.84002,2.09085,1.90644,2.68293,-4.48171,-24.2073,-18.8775,1.57592,33.1902,-8.59756,-78.75,15.5488
337.118,78.9865,49.9022,0,9.43638,2.2106,1.42504,-1.34146,-7.95732,-24.2683,-18.6476,2.57225,33.5638,-10.3963,-77.0122,17.1341
337.128,78.7414,50.3504,0,9.63277,2.01182,1.00591,0.396341,-12.439,-23.4146,-18.868,3.74102,33.8033,-10.2134,-78.4451,19.4207
337.138,78.517,50.7594,0,9.77647,1.95434,1.11129,-0.914634,-13.8415,-22.8049,-18.8105,4.50743,32.9603,-15.6707,-79.4207,20.9146
337.148,78.3287,51.1318,0,9.88425,1.71723,0.948428,1.25,-14.0549,-22.5305,-18.8967,4.37331,32.4525,-25.9756,-75.7317,18.3537
337.158,78.1265,51.4676,0,9.49386,1.93997,1.36516,5.27439,-13.5366,-20.8841,-19.1458,3.49194,32.1939,-34.4207,-70.9756,15.2744
337.168,77.9035,51.7778,0,9.30705,2.14354,1.19511,5.30488,-10.6098,-20.5183,-19.4236,2.39981,32.2801,-40.5488,-67.9878,10.6098
337.178,77.6699,52.1095,0,9.45314,2.28724,1.32205,7.7439,-14.9085,-20.7622,-19.9314,1.88249,34.244,-42.6829,-71.8598,8.07927
337.188,77.3861,52.4408,0,9.27591,2.72314,1.30529,8.38415,-19.6037,-20.7317,-20.305,1.74836,35.2691,-43.5061,-81.9817,7.34756
337.198,77.111,52.6945,0,9.13221,2.63452,1.38193,7.31707,-20.8537,-20.9756,-20.2954,1.36516,33.0273,-43.5366,-84.3293,6.0061
337.208,76.8659,52.9275,0,9.68306,2.43573,1.31487,7.37805,-23.689,-22.5,-19.7398,1.09692,31.8298,-39.1768,-77.6524,2.43902
337.218,76.6239,53.149,0,9.36453,2.54351,1.5376,7.46951,-20.8232,-20.4878,-19.2512,0.752036,31.0059,-34.6646,-71.9207,-0.914634
337.228,76.397,53.3952,0,9.65432,2.48364,1.57592,5.73171,-14.8171,-21.0061,-18.9159,0.368833,31.4945,-33.4451,-72.1037,-5.39634
337.238,76.1947,53.6864,0,10.2722,2.46927,1.6813,5.70122,-13.2927,-20.8232,-18.7147,0.292192,32.8932,-34.2683,-77.8659,-7.34756
337.248,75.963,53.9949,0,10.0615,2.66087,1.93518,4.08537,-10.0305,-21.5854,-19.0979,0.225132,34.5314,-33.3537,-85.7012,-9.69512
337.258,75.7133,54.3202,0,9.73336,2.70398,1.80824,2.34756,-8.75,-22.439,-19.2799,0.158071,35.8822,-33.6585,-92.5305,-7.62195
337.268,75.4344,54.6625,0,9.41482,2.79259,1.54718,1.31098,-10.0915,-23.9024,-19.3565,1.09692,37.1659,-36.4939,-95.8537,-5.18293
337.278,75.1368,55.0008,0,9.28789,2.89797,1.47054,0.243902,-9.45122,-24.7256,-19.7685,2.07409,38.3538,-41.8598,-95.9146,-3.9939
337.288,74.8423,55.285,0,9.34776,2.84049,1.28373,0.121951,-9.26829,-25.8841,-20.5253,2.63931,38.1431,-45.7012,-93.1402,-2.43902
337.298,74.551,55.4903,0,9.50823,2.74948,1.79387,1.43293,-9.81707,-27.7439,-21.4546,2.69679,37.2138,-53.5366,-87.8049,-6.37195
337.308,74.2532,55.6784,0,9.75252,2.84289,1.63819,-1.09756,-7.65244,-28.75,-22.0581,2.32317,37.9036,-58.8415,-88.689,-11.0061
337.318,73.9557,55.8661,0,10.0854,2.85486,1.22864,-0.27439,-9.32927,-30.2439,-21.9432,1.93997,37.9323,-63.3537,-94.3902,-14.6646
337.328,73.6352,56.019,0,9.9561,3.03688,1.20948,0.457317,-10.122,-30.8232,-21.56,0.694556,36.2079,-63.5366,-100.457,-17.4085
337.338,73.2732,56.206,0,9.85311,3.42488,1.29092,-1.46341,-9.78659,-31.2195,-21.0139,-0.205972,36.7156,-55.0915,-106.311,-16.9207
337.348,72.8984,56.4232,0,9.54415,3.42488,1.06099,0.518293,-11.4939,-32.1037,-20.669,-0.732876,37.4821,-46.189,-113.933,-17.8659
337.358,72.4604,56.6302,0,9.18969,3.79611,1.46815,-0.304878,-11.8293,-33.7805,-20.7073,-1.4897,37.4342,-38.872,-121.433,-17.8354
337.368,72.0152,56.8514,0,9.73096,3.90388,1.41785,0.213415,-15.9146,-36.6159,-20.487,-1.346,37.8844,-33.628,-125.366,-16.7988
337.378,71.5438,57.1285,0,9.55373,3.93262,0.996328,0.121951,-16.0061,-39.1463,-19.9505,-0.589175,39.4747,-31.6768,-133.445,-16.4329
337.388,71.1049,57.3933,0,9.616,3.54463,1.31008,1.55488,-14.8171,-41.1585,-19.5673,0.349673,38.5933,-28.7195,-141.738,-14.1159
337.398,70.6816,57.6241,0,9.92496,3.3674,0.881367,3.44512,-15.0915,-43.5061,-19.0404,0.244292,36.6199,-27.0122,-139.939,-11.4634
337.408,70.2572,57.8655,0,10.1932,3.51828,0.833467,3.75,-12.8049,-43.872,-18.6093,-0.177231,36.5624,-24.5732,-140.366,-11.5854
337.418,69.8085,58.1147,0,9.8124,3.63324,0.998723,3.14024,-12.8963,-44.6037,-18.6955,-0.646655,37.4246,-22.2561,-141.951,-11.4024
337.428,69.3561,58.3624,0,9.46033,3.54702,1.17356,5.57927,-13.1402,-45.4268,-18.8201,-1.32684,37.9802,-18.872,-147.409,-12.1341
337.438,68.8597,58.6096,0,9.15137,3.74342,1.10171,5.2439,-14.2683,-47.378,-18.8201,-1.22146,38.3443,-14.0549,-151.067,-11.1585
337.448,68.3455,58.8796,0,9.2304,3.8009,1.14721,3.47561,-17.1951,-49.939,-18.3027,-0.512534,38.6508,-8.87195,-155.061,-9.29878
337.458,67.8367,59.1755,0,9.46991,3.76258,1.04902,2.34756,-17.3171,-51.8902,-17.5268,-0.387993,38.6125,-5.85366,-154.512,-4.42073
337.468,67.3355,59.4821,0,9.60403,3.67635,1.22386,3.38415,-17.4695,-53.628,-16.6741,-0.129331,37.7599,-1.76829,-150.488,-2.22561
337.478,66.833,59.8043,0,9.67348,3.73144,0.855022,4.39024,-16.189,-54.4817,-15.5628,-0.244292,36.4953,2.9878,-143.872,-1.58537
337.488,66.3267,60.1224,0,9.29747,3.6548,0.838257,5,-15.4878,-55.1524,-14.921,0.359253,35.4319,11.7683,-136.159,-1.61585
337.498,65.8074,60.4727,0,9.10347,3.78892,0.617915,6.64634,-13.9939,-55.1829,-13.9725,0.866997,35.1733,13.1098,-128.201,-0.0609756
337.508,65.2721,60.8403,0,8.6101,3.8943,0.876577,6.21951,-13.3537,-54.3293,-13.6947,1.64298,35.9205,10.9756,-126.25,2.56098
337.518,64.7419,61.2074,0,9.10107,4.36373,1.08015,5.88415,-19.2988,-52.2866,-13.5606,2.72553,36.2654,6.67683,-123.537,5.30488
337.528,64.2377,61.5736,0,9.14179,4.47629,0.60594,3.78049,-21.7378,-49.7561,-13.6277,2.80217,37.1755,-0.701219,-118.689,4.84756
337.538,63.7633,61.8992,0,8.94061,4.38289,0.383203,3.62805,-20.9146,-47.6829,-13.9438,2.56267,36.8019,-8.10976,-110.762,4.84756
337.548,63.319,62.1802,0,8.943,4.26074,0.627495,5.30488,-22.6524,-46.8902,-13.9821,1.7292,35.5086,-13.872,-98.2927,3.56707
337.558,62.8649,62.4813,0,8.89031,4.33499,0.210762,5.85366,-21.6768,-47.7439,-13.6372,0.905317,36.2079,-14.7561,-85.5793,0.670732
337.568,62.3859,62.7833,0,8.58136,4.24637,0.122146,5.27439,-19.7256,-50.5183,-13.2828,0.589175,35.9397,-14.0549,-78.9634,0.762195
337.578,61.9011,63.0968,0,8.5095,4.07632,-0.100591,6.98171,-17.3171,-53.5976,-12.593,0.416733,35.2403,-14.878,-73.689,-0.182927
337.588,61.3829,63.4519,0,8.63405,4.46671,-0.0359253,7.2561,-18.2927,-54.3902,-11.7212,0.617915,35.5277,-14.4817,-64.7866,-1.03659
337.598,60.8806,63.8158,0,8.97174,4.71819,0.402363,6.79878,-17.622,-53.0488,-11.1273,0.694556,35.0391,-17.3171,-52.8049,-2.16463
337.608,60.4321,64.1863,0,8.87115,4.44755,-0.102986,7.83537,-16.2805,-50.8537,-10.6674,0.732876,34.8092,-21.7378,-42.1646,-3.29268
337.618,60.0243,64.5683,0,8.62686,4.28469,0.64426,9.08537,-15.7927,-48.0488,-10.1597,0.828677,34.6559,-21.6768,-34.5732,-3.78049
337.628,59.6115,64.946,0,8.56219,4.46671,0.560435,6.70732,-16.1585,-47.0732,-10.1405,0.972378,35.2882,-18.7195,-28.1402,-3.90244
337.638,59.2356,65.3189,0,8.63644,4.1817,0.193997,10.4268,-14.3598,-47.6524,-9.96807,1.22146,35.3361,-18.872,-23.2927,-1.64634
337.648,58.7891,65.669,0,8.1287,4.49306,0.828677,4.96951,-20.7317,-49.2988,-9.94891,1.25978,34.9242,-22.5915,-12.4085,-0.243902
337.658,58.3773,66.0167,0,8.42328,4.3781,-0.0526904,8.01829,-21.311,-49.6646,-9.99681,1.17356,35.9588,-24.6951,2.92683,1.58537
337.668,57.868,66.3554,0,7.84369,5.06307,0.435894,5.45732,-19.8171,-49.4817,-10.2746,0.589175,37.3958,-24.2683,13.811,1.61585
337.678,57.3481,66.6468,0,7.75747,5.23551,0.174836,8.84146,-26.25,-49.2073,-10.6099,0.205972,36.5336,-24.2073,18.1707,2.28659
337.688,56.8085,66.9162,0,7.80776,5.4822,-0.138911,8.47561,-30.7012,-50.122,-10.562,0.282612,35.8726,-20.6402,29.2683,2.95732
337.698,56.2933,67.1871,0,8.26761,5.61153,-0.404758,7.71341,-31.8598,-50.5793,-10.4088,0.732876,36.2271,-20.7927,43.1098,4.5122
337.709,55.7981,67.3671,0,8.1263,5.49896,-0.474214,6.98171,-28.4146,-49.7561,-11.2901,1.49928,34.7709,-22.9878,56.1585,4.39024
337.718,55.3088,67.492,0,7.97062,5.45585,-0.170046,9.05488,-25.8232,-49.5427,-11.9895,1.13524,34.5314,-25.7927,66.9207,3.68902
337.728,54.8156,67.613,0,8.1263,5.47501,-0.201182,9.02439,-27.5305,-51.7988,-12.4781,1.07776,36.0929,-27.378,77.1037,5
337.738,54.3382,67.7046,0,8.464,5.53489,-0.57241,11.4939,-30.0305,-52.8049,-13.005,0.512534,36.3708,-27.622,80.7317,5.82317
337.748,53.823,67.7783,0,8.15504,5.66183,0.102986,11.4939,-25.1829,-54.3902,-13.0145,-0.0526904,35.7385,-28.3232,85.7622,8.2622
337.758,53.2977,67.8499,0,8.08798,5.67859,0.402363,6.79878,-25.061,-55.8537,-13.1008,-0.531694,36.0546,-27.622,89.8476,10.3659
337.768,52.7562,67.9217,0,7.92033,5.69536,-0.0119751,7.07317,-25.1829,-57.2561,-12.8038,-0.857417,35.4511,-26.128,96.4634,13.4146
337.778,52.244,67.9904,0,8.19815,5.63788,-0.165256,6.95122,-22.7134,-57.8354,-12.411,-0.972378,34.4643,-22.439,108.72,14.2378
337.788,51.6886,68.0689,0,7.7886,5.83906,0.107776,2.89634,-17.5305,-58.5061,-12.0565,-0.771196,34.1961,-21.4329,122.561,16.1585
337.798,51.1624,68.1465,0,7.84848,5.64267,-0.287402,4.35976,-19.6951,-58.9939,-11.7883,-0.186812,33.6404,-16.7988,133.628,15.2134
337.808,50.6438,68.1682,0,7.80776,5.67141,-0.440684,3.62805,-16.8598,-58.7195,-12.0086,0.320933,31.9927,-16.9512,147.774,14.5427
337.818,50.1339,68.1699,0,7.78142,5.66422,-0.792751,5.79268,-10.7317,-58.7805,-12.3439,0.483794,32.146,-15.1524,157.988,12.2866
337.828,49.6157,68.1424,0,7.90835,5.92049,0.105381,3.75,-10.5183,-59.0854,-12.9666,0.426313,32.5771,-15.2134,165.701,8.5061
337.838,49.1254,68.0708,0,7.94667,5.80074,-0.464634,7.80488,-6.98171,-58.7195,-13.7714,0.378413,32.7495,-16.9512,173.598,4.87805
337.848,48.5933,67.9396,0,7.75986,6.30848,-0.273032,5.94512,-8.87195,-57.8963,-14.0492,0.00479004,31.1113,-13.0183,189.573,4.17683
337.858,48.056,67.7784,0,7.25691,6.26777,-0.490979,10.2744,-9.29878,-56.0366,-14.1833,0.0718506,30.2874,-10.2134,209.756,2.28659
337.868,47.4864,67.6285,0,7.02938,6.6366,-0.0981958,7.86585,-12.2256,-55.2439,-14.5473,-0.598755,31.3029,-6.28049,218.476,2.40854
337.878,46.9237,67.4466,0,6.8306,6.61983,-0.395178,6.76829,-11.2195,-54.1768,-15.3521,0.0526904,31.6669,-4.45122,222.409,0.182927
337.888,46.3874,67.2567,0,6.95753,6.67731,-0.677791,5.4878,-13.1402,-53.2012,-15.764,0.225132,31.9639,-9.96951,221.89,-0.97561
337.898,45.881,67.0281,0,7.12279,6.66534,-0.64905,4.29878,-12.561,-52.7134,-16.4921,0.196392,31.8011,-9.35976,222.896,-2.10366
337.908,45.4297,66.7927,0,7.53952,6.57912,-0.440684,4.66463,-13.4756,-52.1951,-16.5017,0.0622705,31.255,-7.46951,218.963,-3.23171
337.918,45.021,66.5229,0,7.85327,6.5863,-0.711321,8.2622,-12.622,-51.0671,-16.54,0.225132,29.9713,-7.0122,228.079,-2.7439
337.928,44.6042,66.2215,0,7.73831,6.82341,-0.64905,7.22561,-4.78659,-49.8171,-16.5783,0.148491,28.8217,-5.2439,238.354,-0.823171
337.938,44.1998,65.9352,0,7.62814,6.81144,-0.543669,4.45122,0.945122,-48.689,-16.722,0.340093,29.1857,-5.09146,242.195,2.5
337.948,43.7912,65.6874,0,7.1635,6.55517,-0.737666,7.19512,1.76829,-48.5061,-16.9711,0.186812,30.412,-5.94512,234.085,6.18902
337.958,43.3618,65.3774,0,6.94556,6.6821,-0.387993,7.5,1.55488,-48.5366,-17.3831,-0.0910107,28.9749,-5.30488,238.323,8.62805
337.968,42.9275,65.1196,0,6.91682,6.80425,-0.376018,2.37805,3.59756,-48.628,-17.4693,0.474214,30.3545,-9.05488,245.091,9.35976
337.978,42.528,64.8231,0,6.93837,6.61265,-0.946033,0.548781,6.21951,-47.8049,-17.9387,0.378413,29.7318,-9.5122,255.061,9.32927
337.988,42.1251,64.4647,0,6.78749,6.58151,-1.24062,1.40244,5.73171,-47.9573,-18.3985,0.732876,28.4385,-11.6768,267.713,6.43293
337.998,41.7296,64.0679,0,6.67252,6.67252,-1.30529,5.42683,8.65854,-46.2195,-18.9638,0.637075,27.9211,-10.8537,277.439,4.05488
338.008,41.2642,63.6579,0,6.23424,7.05573,-0.922083,5.85366,9.66463,-46.9512,-19.8643,0.819097,28.5055,-10.7012,285.732,3.04878
338.018,40.7915,63.2104,0,6.35878,7.26649,-1.12566,6.18902,7.19512,-48.0793,-20.8031,0.570015,28.4289,-8.84146,292.53,0.579268
338.028,40.2973,62.731,0,6.28453,7.49402,-0.895737,6.37195,5.54878,-48.7805,-21.627,0.215552,28.266,-11.4939,297.896,-0.792683
338.038,39.8069,62.2506,0,6.37315,7.56826,-0.804727,3.9939,1.98171,-49.6341,-22.0773,0.158071,28.3618,-12.1037,303.445,-1.70732
338.048,39.3414,61.7154,0,6.38273,7.51797,-0.725691,1.55488,1.0061,-48.5671,-22.4797,0.119751,27.0302,-13.1098,306.433,-0.914634
338.058,38.879,61.1841,0,6.05221,7.43414,-0.790356,-0.731707,-0.0609756,-46.7988,-22.3168,0.598755,26.4362,-13.2012,309.543,0.365854
338.068,38.4259,60.6484,0,5.85343,7.47007,-0.756826,-0.945122,-2.31707,-44.6037,-22.4892,0.905317,26.0434,-13.1402,309.177,1.95122
338.078,37.9753,60.0667,0,5.6259,7.54192,-0.65863,-2.43902,-4.81707,-42.5,-23.0353,1.09692,25.1142,-13.5061,305.793,4.29878
338.088,37.5726,59.5622,0,5.78876,7.39103,-0.821492,-1.15854,-7.37805,-41.2805,-23.4281,1.50886,26.7811,-16.8902,302.134,3.53659
338.098,37.2052,58.9897,0,5.97318,7.38145,-0.773591,1.0061,-8.68902,-40.3659,-24.4244,1.21188,25.8231,-18.0488,300.427,2.28659
338.108,36.8408,58.3703,0,6.15281,7.62095,-0.845442,2.04268,-7.86585,-40.6707,-24.9801,1.04902,24.8459,-18.3232,302.683,-0.579268
338.118,36.4834,57.748,0,6.15281,7.74549,-0.883762,1.98171,-8.41463,-39.7866,-25.6123,0.847837,24.8651,-17.0427,302.439,-4.11585
338.128,36.1083,57.1133,0,5.97557,7.80537,-0.64905,2.92683,-8.87195,-40.2134,-26.1105,0.627495,24.5298,-20.0305,301.555,-6.40244
338.138,35.7083,56.4731,0,5.69296,7.95146,-0.538879,2.71341,-9.11585,-39.7866,-26.4554,0.464634,24.1849,-20,300.244,-8.71951
338.148,35.3019,55.8113,0,5.51573,7.94667,-0.675395,0.609756,-8.14024,-39.5427,-26.829,0.253872,23.5143,-19.9695,297.287,-8.71951
338.158,34.8796,55.1373,0,5.28581,7.88201,-0.593965,-2.7439,-7.34756,-40.122,-27.3176,0.397573,23.1407,-17.622,298.171,-6.55488
338.168,34.4353,54.5189,0,5.01278,7.64969,-0.435894,-5.60976,-10.8232,-41.9817,-27.5954,0.311353,23.955,-18.1098,291.25,-5.64024
338.178,33.9912,53.907,0,5.11337,7.52276,-0.950823,-7.89634,-12.6524,-44.8476,-28.0936,0.0335303,23.9741,-16.8293,284.39,-4.2378
338.188,33.5399,53.2655,0,5.21635,7.57545,-1.01309,-6.34146,-11.2195,-47.1951,-28.1032,0.253872,22.8245,-18.0488,278.079,-4.05488
338.198,33.1253,52.6359,0,5.74565,7.84369,-0.934058,-5.7622,-9.84756,-47.7744,-28.5343,0.387993,22.8916,-19.2683,276.768,-3.2622
338.208,32.7252,51.9957,0,5.95162,8.15025,-0.910107,-3.59756,-7.31707,-46.9817,-28.7642,0.531694,22.3551,-19.0244,279.939,-4.69512
338.218,32.3529,51.2867,0,6.22226,8.58375,-0.922083,-1.06707,-1.7378,-44.5427,-29.2815,0.637075,20.8989,-21.5244,287.744,-5.27439
338.228,32.0116,50.6235,0,6.23903,8.6556,-0.780776,-1.12805,2.62195,-41.8293,-29.6743,0.914897,21.5216,-25.9451,285.335,-5.4878
338.238,31.6892,49.9051,0,5.95162,8.29635,-0.799937,-0.97561,5.39634,-40.3354,-30.1341,1.18314,20.2475,-27.8963,286.006,-4.32927
338.248,31.3665,49.2522,0,5.60435,8.01134,-0.881367,0.0914634,10.0915,-39.6341,-30.4982,1.56634,21.1959,-33.2622,279.085,-2.16463
338.258,31.0281,48.6505,0,5.16366,7.95625,-0.589175,2.04268,9.90854,-37.8354,-30.8718,1.4897,21.9719,-42.7134,279.299,2.31707
338.268,30.6396,47.9831,0,4.68466,8.21492,-0.337698,0.853659,7.59146,-36.9207,-31.2837,1.84417,20.4678,-48.872,282.591,7.13415
338.278,30.2227,47.2448,0,4.45234,8.33467,-0.419128,-1.40244,3.87195,-37.378,-31.0921,1.48012,18.4943,-58.9329,284.116,10.0305
338.288,29.8221,46.5602,0,4.69903,8.26282,-0.723296,-1.31098,2.31707,-39.6646,-31.1496,0.905317,19.0021,-70.2134,288.293,12.1341
338.298,29.4138,45.8234,0,4.905,8.47118,-0.524509,-0.640244,1.34146,-42.1646,-30.4024,-0.522114,17.2298,-46.4024,321.006,13.9939
338.308,29.0242,45.0293,0,5.08463,8.42807,-0.761616,-0.518293,2.40854,-43.2012,-30.5748,-0.0335303,16.2047,-42.2561,435.03,11.7073
338.318,28.6372,44.2836,0,5.0487,8.47118,-0.687371,-0.579268,4.45122,-43.1098,-32.2034,0.0718506,17.5459,-48.3841,481.951,11.0366
338.328,28.2618,43.5193,0,4.92416,8.49513,-0.65384,1.06707,3.71951,-41.2805,-33.6788,-0.502954,17.3064,-48.7195,447.012,11.3415
338.338,27.8905,42.7355,0,4.77806,8.63165,-0.589175,-0.457317,6.03659,-39.3293,-33.4967,-0.359253,16.1472,-46.0671,406.28,12.2866
338.348,27.5126,41.9999,0,4.48587,8.6053,-0.627495,-0.914634,6.55488,-37.8354,-35.087,0.704136,17.1819,-26.9817,390,14.6341
338.358,27.1062,41.2159,0,4.232,8.80888,-0.706531,-2.37805,6.06707,-37.6829,-33.4776,-0.138911,14.9497,-44.939,376.159,14.2683
338.368,26.7206,40.4586,0,4.44516,8.83044,-0.732876,-2.43902,7.89634,-38.5671,-34.5314,0.0239502,15.2467,-44.0549,349.787,14.6951
338.378,26.3342,39.7386,0,4.36852,8.73464,-0.457449,-2.80488,8.35366,-39.1159,-34.9817,-0.110171,15.3617,-46.6463,288.841,14.0854
338.388,25.9386,38.9969,0,4.29427,8.8975,-0.387993,-3.65854,6.67683,-39.2073,-34.7613,-0.177231,14.3078,-45,275.518,12.7744
338.398,25.5482,38.3165,0,4.20805,8.87115,-0.622705,-3.75,3.68902,-38.689,-36.754,-0.234712,15.5628,-49.7561,229.543,11.0976
338.408,25.1559,37.5749,0,4.12422,8.7514,-0.737666,-2.92683,2.07317,-39.3902,-35.4894,-0.138911,13.3307,-55.0915,201.311,9.02439
338.418,24.77,36.8608,0,4.16973,8.80409,-0.66342,-1.37195,1.95122,-39.7561,-35.5565,-0.253872,13.2924,-58.4451,193.354,7.71341
338.428,24.3898,36.1611,0,4.0859,8.85918,-0.517324,-2.56098,2.7439,-38.7805,-34.7038,-0.0814307,12.8038,-63.3537,214.024,7.16463
338.438,24.0014,35.459,0,3.85598,8.88792,-0.543669,-2.7439,3.68902,-37.7134,-34.7901,-0.148491,12.4302,-55.2134,248.293,7.89634
338.448,23.5675,34.7816,0,3.41769,9.00527,-0.376018,-2.37805,2.28659,-37.7134,-35.9013,-0.196392,12.8134,-47.378,260.427,10.2744
338.458,23.1182,34.0885,0,3.3674,9.1849,-0.445474,-2.0122,-1.28049,-38.8415,-35.5948,-0.368833,11.9511,-32.3171,258.659,11.6768
338.468,22.6822,33.3034,0,3.43925,9.16813,-0.665815,-1.7378,-4.54268,-39.2683,-35.0775,-0.579595,9.70941,-33.8415,244.299,12.7439
338.478,22.2586,32.5728,0,3.58774,9.18969,-0.673001,-0.823171,-3.96341,-40.4573,-36.1313,-0.253872,10.5141,-18.4756,277.47,14.2988
338.488,21.8447,31.9014,0,3.71707,9.29747,-0.546064,-2.46951,-5.27439,-41.2805,-36.6677,-0.0143701,11.2135,-18.628,279.634,15.6098
338.498,21.4638,31.2307,0,3.82964,9.11544,-0.531694,-3.20122,-4.08537,-40.7927,-36.6199,0.167651,10.8015,-18.689,297.317,16.8293
338.508,21.1112,30.5883,0,3.86796,9.06036,-0.60115,-4.35976,-0.121951,-39.3598,-36.5336,1.1065,10.792,-39.1768,292.409,17.4085
338.518,20.7723,29.8819,0,3.71228,9.01006,-0.548459,-4.2378,2.46951,-37.1951,-35.7097,0.684976,9.04838,-50.3354,297.012,18.2317
338.528,20.4344,29.1424,0,3.63564,9.07473,-0.450264,-3.44512,3.35366,-36.6463,-35.7097,0.560435,8.10954,-50.6402,320.579,19.1463
338.538,20.1054,28.4541,0,3.58534,8.96695,-0.457449,-3.41463,1.55488,-36.3415,-36.1408,0.330513,8.61728,-46.4024,333.445,19.7256
338.548,19.8016,27.7527,0,3.74102,8.95258,-0.677791,-2.95732,-0.426829,-36.25,-36.9552,0.387993,8.09996,-37.5,327.47,19.6646
338.558,19.5027,27.1231,0,3.65959,8.95498,-0.716111,-2.68293,1.61585,-35.4573,-37.3958,1.0107,8.85678,-35.1829,296.829,19.5732
338.568,19.1955,26.4567,0,3.43925,8.97653,-0.718506,-2.92683,4.69512,-34.3293,-37.7216,0.809517,7.78381,-35.7012,275.762,16.311
338.578,18.8715,25.8014,0,3.19017,9.05078,-0.708926,-2.77439,6.92073,-33.5061,-38.2101,0.771196,7.60179,-32.9268,271.433,13.1402
338.588,18.5491,25.1512,0,3.18059,9.15856,-0.694556,-2.10366,8.53659,-33.4756,-38.7275,1.00112,7.28565,-32.6524,257.073,9.63415
338.598,18.2422,24.5056,0,3.31231,9.24478,-0.59636,-2.7439,6.85976,-33.689,-38.5167,1.06818,6.83539,-40.7622,245.183,6.15854
338.608,17.9591,23.8576,0,3.40572,9.08431,-0.555645,-0.853659,6.03659,-33.5976,-38.4017,0.732876,6.2989,-47.9573,237.195,3.07927
338.618,17.6822,23.2696,0,3.33866,9.2807,-0.541274,-2.13415,5.39634,-31.9817,-38.4496,1.14482,6.87371,-56.4939,227.439,1.09756
338.628,17.4036,22.6754,0,3.08,9.21364,-0.6251,-2.77439,6.03659,-30.061,-38.2676,1.2502,6.27974,-63.811,213.537,-0.396341
338.638,17.1186,22.0831,0,2.78062,9.07712,-0.716111,-2.16463,5.7622,-28.3232,-38.6412,1.30768,5.93486,-69.4207,204.421,1.25
338.648,16.8341,21.5046,0,2.73272,9.15376,-0.593965,-0.182927,8.17073,-28.0183,-38.6891,1.23104,5.73368,-68.2622,193.11,2.07317
338.658,16.5606,20.9277,0,2.77343,9.22322,-0.570015,-0.701219,7.92683,-27.7134,-38.7849,0.809517,5.36963,-61.9207,191.128,3.62805
338.668,16.3125,20.3283,0,2.90276,9.33579,-0.380808,-0.213415,7.34756,-26.7683,-38.2293,1.0107,4.52659,-55.3963,194.146,5.15244
338.678,16.0872,19.7525,0,2.99377,9.44596,-0.349673,-0.579268,8.87195,-25.5793,-38.0377,0.771196,4.53617,-53.1402,204.482,6.76829
338.688,15.8606,19.2085,0,2.89318,9.5681,-0.330513,1.03659,10.7012,-24.6341,-38.5742,0.531694,4.75651,-54.3598,205,7.83537
338.698,15.6047,18.6246,0,2.61536,9.69743,-0.411943,1.85976,13.1402,-24.5427,-38.6891,0.0431104,3.7027,-60.5488,202.866,8.78049
338.708,15.3151,18.0318,0,2.35191,9.69983,-0.354463,2.46951,14.939,-25.5183,-39.0532,-0.483794,3.18538,-63.0488,203.537,7.46951
338.718,15.0075,17.4638,0,2.24892,9.67827,-0.282612,1.85976,14.0549,-26.8293,-39.5418,-0.598755,3.23328,-66.0671,199.421,6.64634
338.728,14.718,16.8539,0,2.38065,9.46033,-0.368833,1.34146,12.5305,-27.7439,-39.0149,-0.186812,2.06451,-64.0549,195.213,8.38415
338.738,14.454,16.2952,0,2.41657,9.32381,-0.407153,0.182927,12.8963,-26.5549,-38.6891,0.522114,2.52435,-62.5,199.665,13.3841
338.748,14.1914,15.7183,0,2.13875,9.32621,-0.234712,-0.792683,11.7683,-23.6585,-38.8903,1.23104,1.83458,-61.4329,196.921,19.2073
338.758,13.9164,15.1389,0,1.85375,9.36213,-0.0646655,0.365854,12.1951,-21.9512,-38.9765,1.49928,1.40348,-59.3902,196.921,22.378
338.768,13.6217,14.6269,0,1.67172,9.67827,-0.00958008,0.426829,11.372,-21.6768,-39.3789,1.54718,2.17947,-58.689,193.323,23.4146
338.778,13.3442,14.1165,0,1.86333,9.79084,-0.134121,0.27439,8.84146,-22.5,-40.222,1.04902,1.87291,-58.5976,187.561,22.439
338.788,13.1108,13.6218,0,2.16749,9.6663,-0.0766406,0.335366,5.70122,-22.378,-40.2986,0.838257,1.76752,-58.9634,179.268,18.2622
338.798,12.9161,13.1568,0,2.43573,9.73815,-0.234712,-0.701219,5.85366,-21.7683,-40.4327,0.502954,1.90165,-63.5366,164.421,13.9634
338.808,12.7299,12.6546,0,2.38065,9.70701,-0.390388,-0.914634,8.78049,-20.7622,-40.2411,-0.263452,0.866997,-65.1524,153.659,10.3659
338.818,12.5507,12.106,0,2.22018,9.34776,-0.287402,0.0609756,10.6707,-19.5732,-40.0495,-0.790356,-0.330513,-64.4817,146.494,9.26829
338.828,12.3854,11.6133,0,2.17228,9.0891,-0.364043,0.640244,12.561,-18.689,-39.8196,-0.828677,0.234712,-60.1829,136.25,7.95732
338.838,12.2472,11.1067,0,2.2106,9.02204,-0.59157,1.89024,15.3354,-16.9207,-39.3885,-0.608335,-0.368833,-55.5488,129.909,8.5061
338.848,12.1351,10.5749,0,2.29922,9.20885,-0.58678,1.82927,17.6829,-15.061,-38.67,-0.282612,-1.14482,-47.9573,126.585,12.0732
338.858,12.0342,10.0173,0,2.29922,9.35016,-0.534089,2.37805,18.2622,-13.7195,-38.5071,0.435894,-1.93997,-41.372,125.701,15.7927
338.868,11.9142,9.49464,0,2.06451,9.71899,-0.366438,0.853659,13.9024,-12.1646,-39.034,0.646655,-1.73878,-35.8841,127.317,18.75
338.878,11.7567,9.02535,0,1.65496,9.91299,-0.340093,0.243902,8.53659,-11.0976,-39.9729,0.340093,-1.2023,-31.0976,127.927,16.6159
338.888,11.5539,8.55559,0,1.27894,10.1573,-0.308958,0.792683,6.58537,-11.3415,-40.701,0.129331,-1.57592,-31.8293,125.274,11.4329
338.898,11.3104,8.13486,0,1.05141,10.2411,-0.383203,0.701219,5.64024,-13.2317,-41.1608,-0.445474,-1.04902,-32.439,123.049,6.46341
338.908,11.0464,7.69957,0,1.04423,10.1429,-0.426313,0.457317,2.89634,-15.8537,-41.2279,-0.598755,-1.6334,-34.2988,118.872,1.52439
338.918,10.8151,7.27251,0,1.36516,9.79323,-0.464634,-0.365854,0.365854,-17.2561,-41.0075,-0.522114,-1.81542,-35.8232,111.128,-0.97561
338.928,10.6239,6.81008,0,1.62382,9.38608,-0.517324,-0.365854,0.914634,-17.4695,-40.2986,-0.0526904,-2.73511,-35.9451,105.518,1.4939
338.938,10.4732,6.35345,0,1.77231,9.03641,-0.251477,0.792683,0.823171,-16.3415,-39.925,0.761616,-2.93629,-36.8598,103.963,6.85976
338.948,10.3594,5.91838,0,1.96392,9.06515,-0.296982,0.884146,0.487805,-15.1829,-39.6567,1.03944,-2.85965,-36.8598,102.774,11.7683
338.958,10.265,5.46818,0,2.10762,9.32381,-0.57241,1.79878,1.06707,-14.4817,-39.9633,1.09692,-3.4632,-36.189,100.518,16.0976
338.968,10.1951,5.05912,0,2.38065,9.72378,-0.723296,2.59146,2.83537,-14.2683,-39.7813,1.09692,-3.04167,-34.878,98.8415,18.6585
338.978,10.1455,4.67981,0,2.54112,9.93454,-0.771196,3.41463,6.85976,-13.5366,-40.2411,0.445474,-2.85007,-34.5427,94.6037,15.7927
338.988,10.0895,4.28721,0,2.47166,9.99442,-0.706531,4.08537,11.8902,-13.3537,-40.1836,-0.617915,-3.35782,-31.0976,92.4695,9.78659
338.998,9.99142,3.87308,0,2.08367,9.97047,-0.682581,4.48171,17.1646,-13.5061,-39.7142,-1.0586,-3.98052,-29.878,90.3354,4.26829
339.008,9.86542,3.49833,0,1.83698,9.85072,-0.65863,3.71951,20.2744,-14.0244,-39.6855,-1.19272,-3.58774,-25.4573,85.7622,0.670732
339.018,9.7161,3.11985,0,1.52084,9.50344,-0.546064,3.44512,20.4268,-13.6585,-39.3502,-0.934058,-3.90388,-25,79.5122,-0.609756
339.028,9.54082,2.74434,0,1.23583,9.35495,-0.677791,3.04878,22.3171,-13.4146,-38.8616,-0.847837,-4.07632,-23.4146,75.7317,1.09756
339.038,9.37238,2.37215,0,1.32205,9.40045,-0.402363,3.47561,18.2317,-14.0549,-38.6508,-0.0622705,-4.26792,-21.311,71.3415,6.40244
339.048,9.24494,2.02595,0,1.60227,9.29268,-0.433499,2.86585,12.9878,-13.8415,-38.488,0.857417,-4.06674,-22.0122,68.4146,13.5061
339.058,9.13878,1.67516,0,1.6837,9.44596,-0.536484,2.43902,10.3659,-12.5915,-38.8807,1.37474,-4.44037,-23.75,64.0854,20.5183
339.068,9.04581,1.33244,0,1.65017,9.64953,-0.423918,2.86585,7.71341,-10.6402,-40.0112,1.40348,-4.67987,-26.8598,62.2561,21.5244
339.078,8.94018,1.00187,0,1.48012,9.93933,-0.404758,1.95122,5.42683,-9.60366,-40.5381,1.06818,-4.77567,-28.1098,59.878,19.939
339.088,8.81846,0.678457,0,1.2981,9.93933,-0.419128,1.82927,3.71951,-9.35976,-40.6818,0.570015,-4.90979,-28.3841,57.2866,16.8902
339.098,8.70437,0.365623,0,1.40827,9.94652,-0.447869,1.21951,2.92683,-10.0915,-40.5094,0.445474,-4.93853,-28.4756,54.6951,10.6402
339.108,8.59579,0.0700952,0,1.49928,9.9561,-0.479004,1.70732,2.80488,-10.7927,-40.1549,0.340093,-4.81399,-26.6159,52.7134,7.40854
339.118,8.49563,-0.221474,0,1.57832,9.88664,-0.464634,1.12805,4.20732,-11.189,-40.1741,-0.0143701,-4.95769,-28.7805,52.0732,4.35976
339.128,8.39296,-0.50108,0,1.52802,9.78605,-0.579595,0.97561,4.48171,-11.25,-40.1262,-0.435894,-4.95769,-28.872,48.2622,2.62195
339.138,8.29139,-0.772525,0,1.52084,9.62798,-0.641865,1.15854,6.03659,-11.5549,-39.8579,-0.416733,-4.99601,-31.25,42.6829,1.67683
339.148,8.20341,-1.06966,0,1.59508,9.5681,-0.589175,1.67683,5.88415,-11.372,-39.4747,-0.0718506,-5.59956,-32.5915,40.8537,2.62195
339.158,8.13018,-1.36368,0,1.61424,9.46272,-0.5772,1.31098,6.28049,-10.4878,-39.1011,0.483794,-5.69536,-31.9817,41.8902,6.31098
339.168,8.0691,-1.61564,0,1.6813,9.54415,-0.778381,1.31098,6.89024,-10.0305,-39.2544,0.675395,-5.18761,-33.0793,40,10.061
339.178,8.03262,-1.85917,0,1.87051,9.68067,-0.684976,2.59146,6.31098,-9.57317,-39.264,0.684976,-5.22593,-34.4817,37.1646,12.378
339.188,8.00823,-2.14229,0,1.90165,9.88425,-0.598755,1.92073,7.10366,-8.32317,-39.3406,0.368833,-6.11688,-35,34.5122,12.561
339.198,7.98263,-2.40108,0,1.7771,9.82677,-0.673001,1.55488,8.20122,-7.19512,-39.5705,0.0718506,-5.92528,-32.6524,32.561,11.9207
339.208,7.94913,-2.62943,0,1.65735,9.8555,-0.593965,1.06707,8.47561,-6.61585,-39.5609,-0.00479004,-5.57082,-30.122,30.7317,9.26829
339.218,7.90428,-2.85003,0,1.52563,9.65911,-0.622705,1.67683,8.59756,-6.67683,-39.2256,-0.445474,-5.56124,-28.872,26.4329,8.35366
339.228,7.84188,-3.08463,0,1.37714,9.67588,-0.469424,2.53049,8.68902,-6.76829,-39.0628,-0.426313,-5.94444,-26.0366,24.5732,6.89024
339.238,7.77765,-3.30894,0,1.3484,9.62319,-0.467029,2.46951,7.43902,-6.82927,-38.7562,-0.704136,-5.87738,-25.3354,25.4268,5.73171
339.248,7.71426,-3.52596,0,1.33163,9.65911,-0.548459,2.13415,7.13415,-6.61585,-38.9765,-0.474214,-5.93486,-24.9695,26.5549,4.2378
339.258,7.6539,-3.70747,0,1.33642,9.65911,-0.62031,2.5,7.92683,-6.4939,-39.0436,-0.445474,-5.47501,-24.7561,25.6707,3.9939
339.268,7.60908,-3.89496,0,1.40827,9.73336,-0.59636,1.98171,8.29268,-5.7622,-38.9574,-0.215552,-5.69536,-23.0183,25.1829,3.93293
339.278,7.57718,-4.07831,0,1.48012,9.73096,-0.665815,2.28659,8.65854,-5.39634,-39.1298,-0.00479004,-5.78158,-20.9756,24.2683,3.59756
339.288,7.55934,-4.26452,0,1.57113,9.70941,-0.646655,2.5,8.59756,-5.15244,-39.0915,-0.00479004,-5.95402,-19.6951,24.3293,3.2622
339.298,7.5554,-4.45107,0,1.6358,9.70941,-0.565225,2.5,8.07927,-4.57317,-39.264,0.0239502,-6.11688,-16.189,24.3598,1.43293
339.308,7.55768,-4.64232,0,1.56874,9.73815,-0.534089,2.37805,9.20732,-3.2622,-39.2448,0.234712,-6.32764,-12.7134,24.5427,0.853659
339.318,7.55258,-4.82165,0,1.41306,9.68067,-0.62989,1.82927,8.65854,-2.34756,-39.2352,0.110171,-6.24142,-10.7927,26.6768,0.914634
339.328,7.52771,-4.99089,0,1.24062,9.73096,-0.632285,1.18902,7.59146,-1.76829,-39.7046,0.292192,-6.26058,-11.128,27.2561,0.731707
339.338,7.48097,-5.17976,0,1.08973,9.60163,-0.603545,1.79878,5.67073,-1.28049,-39.6184,0.167651,-6.72042,-12.7134,26.8293,0.609756
339.348,7.42385,-5.38104,0,1.03704,9.61361,-0.529299,1.95122,2.86585,-1.09756,-39.6855,-0.0335303,-7.08447,-11.6463,28.5061,1.4939
339.358,7.38906,-5.57443,0,1.14242,9.68546,-0.500559,1.52439,0.97561,-1.43293,-39.7525,0.0431104,-7.10363,-11.0366,26.8598,0.640244
339.368,7.41028,-5.73702,0,1.41306,9.76928,-0.488584,1.0061,0.731707,-0.884146,-39.6088,-0.0718506,-6.66294,-10.6402,26.5549,-0.213415
339.378,7.50503,-5.90364,0,1.55676,9.72617,-0.340093,0.762195,1.82927,0.0609756,-39.216,-0.0143701,-6.78749,-9.08537,25.3049,-1.28049
339.388,7.57196,-6.06376,0,1.54958,9.73575,-0.421523,0.853659,2.04268,0.670732,-39.0819,0.100591,-6.77791,-8.17073,21.8902,-0.853659
339.398,7.6119,-6.21251,0,1.45617,9.76928,-0.459844,-0.426829,1.89024,1.37195,-38.8712,0.368833,-6.66294,-6.92073,18.8415,-1.46341
339.408,7.63539,-6.36808,0,1.36037,9.7597,-0.57241,-0.579268,1.7378,1.46341,-38.7179,0.292192,-6.86413,-4.02439,17.7439,-2.46951
339.418,7.64839,-6.50742,0,1.33403,9.77886,-0.493374,-0.426829,0.304878,0.853659,-38.9382,0.694556,-6.73,-4.14634,16.311,-4.14634
339.428,7.67628,-6.66442,0,1.40109,9.75012,-0.447869,-0.152439,-1.18902,0.396341,-38.9765,0.924478,-7.15153,-5.15244,15.1524,-5.18293
339.438,7.6982,-6.83301,0,1.37474,9.62558,-0.570015,-0.243902,-0.0914634,-0.243902,-39.0628,1.37474,-7.48683,-8.29268,14.5427,-4.87805
339.448,7.70972,-6.97748,0,1.38193,9.58487,-0.59636,0.518293,-0.243902,-0.853659,-39.0244,1.76752,-7.17069,-10.8537,14.0244,-3.5061
339.458,7.73545,-7.10272,0,1.50886,9.70701,-0.579595,-0.27439,0.609756,-1.12805,-39.3119,1.64298,-6.98867,-17.2866,12.0427,-2.53049
339.468,7.79781,-7.22933,0,1.67651,9.6663,-0.701741,-0.731707,1.67683,-1.0061,-39.1011,1.79626,-7.06531,-22.8354,11.6159,-1.64634
339.478,7.88315,-7.355,0,1.81782,9.64714,-0.740061,0.0304878,5.42683,-1.06707,-39.2735,1.65256,-7.17069,-27.622,11.2195,-0.97561
339.488,7.96135,-7.47456,0,1.79387,9.70462,-0.725691,0.792683,8.14024,-0.97561,-39.446,1.4897,-7.18027,-29.7866,11.6463,-0.579268
339.498,8.04015,-7.61153,0,1.80824,9.71659,-0.720901,0.762195,9.20732,-0.945122,-39.3789,1.16398,-7.56347,-31.7378,12.3476,-0.945122
339.508,8.12143,-7.74044,0,1.87291,9.58008,-0.61552,1.40244,9.84756,-1.31098,-39.4076,1.12566,-7.52515,-33.2317,11.311,-0.487805
339.518,8.176,-7.86513,0,1.63819,9.65432,-0.61073,1.37195,11.6768,-0.670732,-39.5897,1.14482,-7.57305,-34.1768,12.1341,-0.914634
339.528,8.20036,-7.99269,0,1.48731,9.72378,-0.682581,0.945122,12.8354,-0.213415,-39.4172,0.819097,-7.68801,-36.6768,10.061,-0.396341
339.538,8.2042,-8.11996,0,1.42264,9.66869,-0.63947,1.09756,12.5915,-0.426829,-39.5418,0.349673,-7.80297,-37.8659,8.78049,-0.640244
339.548,8.18278,-8.23676,0,1.33163,9.68067,-0.579595,1.58537,11.6463,-0.487805,-39.4843,0.273032,-7.69759,-39.5732,7.62195,-1.85976
339.558,8.13436,-8.37382,0,1.2023,9.71659,-0.421523,1.64634,10.122,-1.09756,-39.331,0.407153,-8.11912,-42.2256,6.89024,-0.365854
339.568,8.06669,-8.4937,0,1.07536,9.84593,-0.344883,0.731707,7.46951,-1.55488,-39.4939,0.292192,-7.94667,-42.5,4.93902,0.304878
339.578,7.99791,-8.6227,0,1.05141,9.80521,-0.371228,0.457317,4.60366,-2.31707,-39.4268,0.0239502,-8.18618,-40.7622,4.39024,0.914634
339.588,7.95504,-8.74665,0,1.20709,9.69264,-0.419128,-0.27439,2.04268,-2.07317,-39.5322,0.167651,-8.21492,-42.2561,2.71341,1.76829
339.598,7.93743,-8.86563,0,1.36995,9.67588,-0.522114,0,1.64634,-2.07317,-39.5897,-0.167651,-8.23408,-38.9939,0.396341,3.20122
339.608,7.95116,-8.98907,0,1.50168,9.7142,-0.524509,-0.243902,0.914634,-1.28049,-39.5609,0.0335303,-8.39694,-38.0488,-0.0914634,3.32317
339.618,7.98734,-9.10233,0,1.56874,9.7118,-0.608335,-0.579268,2.28659,-0.853659,-39.2256,0.0718506,-8.23408,-36.0061,-1.21951,3.32317
339.628,8.04661,-9.24108,0,1.61903,9.72617,-0.701741,-0.0609756,3.90244,-0.457317,-39.1203,-0.0335303,-8.7514,-32.4695,-0.731707,4.5122
339.638,8.13569,-9.34146,0,1.6837,9.75252,-0.6251,0.121951,5.09146,0.182927,-39.1107,-0.215552,-8.15744,-28.4756,-1.12805,4.81707
339.648,8.1621,-9.47631,0,1.48012,9.74533,-0.593965,0.0304878,5.70122,0.396341,-38.967,-0.311353,-8.81846,-25.9146,-0.97561,4.84756
339.658,8.15606,-9.5908,0,1.37714,9.72138,-0.534089,0.609756,4.29878,-0.0304878,-39.264,-0.627495,-8.61728,-21.9207,-2.22561,4.5122
339.668,8.12346,-9.71028,0,1.29331,9.71899,-0.500559,0.487805,2.80488,-0.152439,-39.3119,-0.598755,-8.7993,-19.2988,-1.76829,2.46951
339.678,8.06703,-9.80375,0,1.18314,9.72378,-0.500559,-0.152439,1.79878,-0.548781,-39.3885,-0.387993,-8.43526,-17.5,-3.41463,2.83537
339.688,8.00836,-9.88058,0,1.1544,9.79563,-0.483794,-0.487805,0.335366,-0.701219,-39.3406,-0.129331,-8.19576,-15.061,-4.87805,1.89024
339.698,7.9724,-9.96413,0,1.24541,9.8076,-0.476609,-0.548781,-1.18902,-0.762195,-39.3023,0.215552,-8.3682,-14.1463,-5.94512,3.96341
339.708,7.97752,-10.0367,0,1.42983,9.75012,-0.55804,-0.670732,-1.4939,-0.853659,-39.3789,0.177231,-8.25324,-13.9329,-8.14024,5.4878
339.718,8.033,-10.1236,0,1.57353,9.68785,-0.510139,-1.34146,-2.16463,-0.365854,-39.3406,0.186812,-8.5598,-12.6829,-8.9939,5.60976
339.728,8.12691,-10.2048,0,1.66933,9.61361,-0.392783,-1.21951,-2.28659,0.335366,-39.1107,0.0814307,-8.464,-10.9756,-7.37805,7.2561
339.738,8.19663,-10.2949,0,1.65975,9.61361,-0.306563,-1.55488,-2.34756,0.945122,-38.8137,0.244292,-8.61728,-9.08537,-7.80488,7.65244
339.748,8.22451,-10.3645,0,1.47054,9.66151,-0.443079,-1.52439,-2.19512,1.4939,-38.6317,0.282612,-8.2724,-7.31707,-6.55488,8.07927
339.758,8.23,-10.4406,0,1.37953,9.73096,-0.524509,-1.82927,-3.5061,1.09756,-38.3922,0.253872,-8.38736,-7.37805,-7.56098,8.01829
339.768,8.24472,-10.5063,0,1.43941,9.73096,-0.55325,-1.61585,-4.5122,0.823171,-38.5071,0.320933,-8.28198,-6.31098,-7.83537,7.5
339.778,8.28504,-10.5706,0,1.5376,9.72617,-0.534089,-1.61585,-4.17683,0.152439,-38.7179,0.368833,-8.34904,-4.87805,-7.65244,7.83537
339.788,8.2916,-10.6372,0,1.4418,9.74773,-0.555645,-1.31098,-2.83537,-0.0609756,-38.8903,0.445474,-8.47358,-5.12195,-7.92683,7.43902
339.798,8.28831,-10.7034,0,1.42504,9.74054,-0.467029,-1.09756,-1.85976,-0.487805,-38.8999,0.435894,-8.5119,-6.43293,-7.16463,7.13415
339.808,8.28392,-10.7676,0,1.45138,9.66151,-0.486189,-0.914634,-2.59146,-1.28049,-39.3119,0.349673,-8.61728,-6.18902,-7.95732,7.16463
339.818,8.31185,-10.8247,0,1.60945,9.65911,-0.486189,-1.21951,-2.83537,-1.12805,-39.2448,0.550855,-8.52148,-5.91463,-7.92683,8.20122
339.828,8.36273,-10.8803,0,1.74597,9.61361,-0.471819,-0.792683,-2.37805,-1.25,-39.0628,0.637075,-8.49274,-5.4878,-7.71341,9.66463
339.838,8.43517,-10.9265,0,1.82021,9.65193,-0.452659,-0.670732,-2.0122,-0.945122,-39.0819,0.694556,-8.3682,-6.76829,-7.92683,10.0305
339.848,8.5083,-10.9708,0,1.69567,9.6663,-0.423918,-1.15854,-0.853659,-0.27439,-38.8137,0.550855,-8.31072,-7.0122,-7.95732,11.2805
339.858,8.5157,-11.0401,0,1.50886,9.69983,-0.55804,-1.52439,0.121951,-0.640244,-38.7849,0.301772,-8.78014,-8.47561,-7.04268,10.9146
339.868,8.49007,-11.1017,0,1.38911,9.71659,-0.617915,-1.31098,0.518293,-1.52439,-38.7179,0.225132,-8.67476,-8.41463,-6.55488,11.0061
339.878,8.46354,-11.1649,0,1.41546,9.65672,-0.608335,-1.4939,-0.335366,-2.34756,-38.8807,0.186812,-8.78972,-7.95732,-8.62805,9.96951
339.888,8.44798,-11.2327,0,1.52802,9.68785,-0.60115,-1.09756,-1.0061,-2.7439,-39.0244,0.263452,-8.95258,-7.62195,-8.78049,10.2439
339.898,8.43932,-11.2632,0,1.64059,9.71899,-0.500559,-1.52439,-1.28049,-3.35366,-39.1777,0.407153,-8.3682,-6.70732,-10.9146,10.9451
339.908,8.45171,-11.2907,0,1.76273,9.69743,-0.519719,-1.18902,-1.95122,-2.92683,-39.4747,0.359253,-8.40652,-5.30488,-12.8963,10.8232
339.918,8.48177,-11.3068,0,1.83698,9.69983,-0.459844,-0.914634,-2.13415,-2.37805,-39.628,0.378413,-8.25324,-6.43293,-13.628,11.5854
339.928,8.55482,-11.32,0,1.93997,9.65672,-0.524509,-0.396341,-1.43293,-1.34146,-39.5418,0.378413,-8.19576,-6.64634,-13.872,13.0488
339.938,8.64001,-11.3494,0,1.80824,9.63756,-0.584385,-0.243902,-0.457317,-0.518293,-39.6472,0.0718506,-8.52148,-5.85366,-13.7805,13.811
339.948,8.65519,-11.3979,0,1.51126,9.63277,-0.584385,-0.335366,0.396341,-0.0914634,-39.6663,0.186812,-8.8951,-4.93902,-13.1098,12.3476
339.958,8.61373,-11.4588,0,1.32445,9.64474,-0.641865,-0.0609756,-0.457317,-0.640244,-39.5705,0.253872,-9.12502,-3.9939,-10.2134,12.3476
339.968,8.56997,-11.4933,0,1.3005,9.7142,-0.493374,-0.304878,-2.07317,-1.03659,-39.5514,0.158071,-8.67476,-3.59756,-8.01829,11.4634
339.978,8.53497,-11.5191,0,1.36516,9.85072,-0.517324,-0.426829,-3.2622,-1.79878,-39.3406,0.426313,-8.49274,-2.43902,-7.59146,10.6098
339.988,8.50603,-11.5128,0,1.4442,9.82437,-0.457449,-0.823171,-4.72561,-2.56098,-39.1298,0.560435,-7.88919,-2.46951,-8.23171,9.78659
339.998,8.48577,-11.5149,0,1.54718,9.7621,-0.440684,-1.0061,-5.18293,-3.17073,-39.5801,0.349673,-8.13828,-3.87195,-10.5183,8.38415
340.008,8.47929,-11.5035,0,1.62143,9.63756,-0.593965,-1.12805,-4.57317,-3.04878,-39.8292,0.263452,-7.94667,-4.96951,-11.25,6.89024
340.018,8.49361,-11.5074,0,1.71244,9.5226,-0.529299,-1.0061,-3.07927,-2.62195,-39.8483,0.282612,-8.2245,-6.31098,-12.1646,6.28049
340.028,8.51117,-11.4941,0,1.65256,9.43877,-0.416733,-0.579268,-2.92683,-2.07317,-39.264,0.608335,-7.80297,-5.7622,-13.8415,6.37195
340.038,8.49856,-11.4831,0,1.46096,9.64953,-0.512534,-0.701219,-2.80488,-1.58537,-39.0436,0.560435,-7.79339,-6.15854,-14.4512,8.23171
340.048,8.47199,-11.4495,0,1.38432,9.72857,-0.656235,-1.55488,-2.80488,-1.58537,-38.7083,0.704136,-7.32397,-6.67683,-16.0366,7.65244
340.058,8.42933,-11.4182,0,1.3005,9.77647,-0.61552,-1.76829,-2.37805,-2.13415,-38.6029,0.589175,-7.32397,-9.05488,-17.0732,7.68293
340.068,8.3777,-11.3875,0,1.28134,9.80042,-0.534089,-1.79878,-2.5,-3.10976,-38.6125,0.637075,-7.32397,-9.17683,-19.4512,7.10366
340.078,8.31515,-11.3581,0,1.24062,9.77647,-0.505349,-1.61585,-2.59146,-3.96341,-38.4784,0.435894,-7.29523,-10.2744,-18.2927,4.66463
340.088,8.26272,-11.3277,0,1.36995,9.73096,-0.452659,-1.61585,-3.17073,-4.72561,-38.6796,0.981958,-7.29523,-11.6463,-18.3841,4.45122
340.098,8.22445,-11.3068,0,1.50647,9.69025,-0.56762,-1.46341,-3.01829,-5.09146,-38.6221,0.742456,-7.42935,-12.6829,-18.0183,3.90244
340.108,8.20882,-11.287,0,1.67651,9.6663,-0.476609,-1.92073,-2.19512,-4.93902,-38.8616,0.761616,-7.47725,-14.6951,-16.9817,4.02439
340.119,8.20219,-11.264,0,1.70046,9.64474,-0.512534,-2.04268,0.152439,-4.42073,-39.0819,0.627495,-7.44851,-14.1159,-16.9817,4.57317
340.128,8.18195,-11.2459,0,1.59508,9.66151,-0.584385,-1.37195,2.34756,-4.5122,-38.9765,0.397573,-7.49641,-15.122,-16.1585,4.26829
340.138,8.15147,-11.2316,0,1.51844,9.63277,-0.589175,-1.52439,2.59146,-4.72561,-38.9861,0.368833,-7.55389,-16.0671,-16.2195,3.35366
340.148,8.11999,-11.2245,0,1.5376,9.64235,-0.58199,-1.15854,1.95122,-5.09146,-39.1394,0.541274,-7.69759,-16.8598,-15.2134,3.04878
340.158,8.09347,-11.2146,0,1.5855,9.66151,-0.476609,-0.670732,2.0122,-5.18293,-39.2831,0.550855,-7.66885,-17.2561,-14.4207,3.75
340.168,8.07311,-11.2113,0,1.62143,9.65193,-0.495769,-1.37195,1.70732,-5.06098,-39.3981,0.665815,-7.80297,-18.5976,-14.5122,3.2622
340.178,8.05925,-11.2029,0,1.66214,9.63277,-0.517324,-1.09756,1.76829,-4.96951,-39.331,0.570015,-7.69759,-19.0549,-15.1524,3.38415
340.188,8.04491,-11.204,0,1.59029,9.69264,-0.488584,-1.64634,2.16463,-4.11585,-38.9574,0.646655,-7.79339,-19.6951,-16.3415,3.44512
340.198,8.02078,-11.1965,0,1.50886,9.68067,-0.58199,-1.76829,2.62195,-4.17683,-38.9957,0.320933,-7.64969,-20.7927,-17.0732,3.93293
340.208,7.98745,-11.1765,0,1.48731,9.76689,-0.565225,-2.10366,2.62195,-4.72561,-38.8041,0.330513,-7.39103,-22.3476,-18.8415,2.86585
340.218,7.95444,-11.1716,0,1.50647,9.75731,-0.502954,-2.0122,1.92073,-5,-38.6508,0.177231,-7.62095,-24.2378,-20.1524,3.93293
340.228,7.91835,-11.1412,0,1.4921,9.70462,-0.531694,-1.82927,1.76829,-5.30488,-38.5167,-0.0910107,-7.14195,-25.0915,-20.4878,5.36585
340.238,7.88546,-11.1352,0,1.54,9.70701,-0.450264,-1.82927,2.46951,-5.60976,-38.3538,-0.0622705,-7.51557,-25.8232,-19.4512,5.97561
340.248,7.84878,-11.1315,0,1.49928,9.67588,-0.505349,-1.7378,2.86585,-5.64024,-38.2197,0.0431104,-7.52515,-26.1585,-19.6951,7.34756
340.258,7.79838,-11.1297,0,1.40588,9.7621,-0.548459,-2.10366,3.81098,-5.85366,-38.373,-0.167651,-7.58263,-26.5244,-18.4451,8.93293
340.268,7.74814,-11.151,0,1.40109,9.7621,-0.543669,-2.7439,3.65854,-5.88415,-38.4784,-0.378413,-8.00416,-26.0366,-16.8598,10.6098
340.278,7.7074,-11.1672,0,1.48252,9.72857,-0.598755,-2.56098,2.9878,-6.03659,-38.6125,-0.330513,-7.95625,-25.0305,-16.6159,12.2561
340.288,7.67925,-11.206,0,1.58071,9.67348,-0.543669,-2.46951,2.83537,-6.09756,-38.8137,-0.435894,-8.40652,-25.2744,-15.2439,11.5549
340.298,7.65794,-11.2458,0,1.61424,9.67588,-0.565225,-2.37805,3.32317,-5.85366,-38.7945,-0.455054,-8.44484,-22.4085,-14.0854,12.6829
340.308,7.64083,-11.2853,0,1.6334,9.69025,-0.455054,-2.10366,3.07927,-5.67073,-38.7466,-0.455054,-8.45442,-20.0305,-13.3232,13.8415
340.318,7.62624,-11.3294,0,1.62143,9.69743,-0.419128,-2.40854,2.16463,-5.30488,-38.7083,-0.560435,-8.55022,-17.3171,-11.5244,13.9024
340.328,7.62559,-11.3541,0,1.67651,9.59205,-0.431104,-2.59146,1.06707,-4.81707,-38.8903,-0.512534,-8.2724,-16.372,-11.0366,14.8171
340.338,7.63844,-11.3784,0,1.76752,9.60163,-0.390388,-2.62195,0.27439,-4.54268,-38.852,-0.474214,-8.2724,-15.9451,-10.4573,14.0549
340.348,7.66436,-11.3897,0,1.83219,9.64235,-0.529299,-2.77439,0.0609756,-3.96341,-38.8137,-0.646655,-8.05206,-16.0061,-11.5549,14.0549
340.358,7.6929,-11.4325,0,1.83458,9.6184,-0.522114,-2.77439,0.182927,-3.78049,-38.8616,-0.368833,-8.63644,-13.6585,-11.8598,12.9573
340.368,7.7479,-11.462,0,1.94715,9.54894,-0.55325,-2.5,0.152439,-3.01829,-38.6125,-0.359253,-8.3682,-11.7988,-10.2744,14.2683
340.378,7.81226,-11.4818,0,1.98068,9.48667,-0.531694,-2.40854,0.518293,-2.80488,-38.7466,-0.349673,-8.24366,-10.3049,-9.60366,12.9573
340.388,7.89798,-11.5018,0,2.03098,9.48907,-0.550855,-2.59146,0.579268,-2.16463,-38.7275,-0.205972,-8.25324,-9.96951,-8.81098,13.9634
340.398,8.00411,-11.5328,0,2.12199,9.51062,-0.555645,-2.2561,0.426829,-1.85976,-39.0244,-0.138911,-8.53106,-9.84756,-9.45122,13.9634
340.408,8.1779,-11.5532,0,2.22258,9.46512,-0.514929,-2.62195,0,-1.03659,-39.2927,-0.110171,-8.4161,-9.2378,-8.32317,13.5061
340.418,8.51653,-11.5247,0,2.43334,9.40045,-0.56283,-2.89634,0.0304878,0.27439,-39.2544,0.138911,-7.54431,-9.87805,-9.35976,11.6159
340.428,8.71144,-11.5093,0,2.62973,9.29507,-0.613125,-3.78049,0,2.65244,-39.0532,0.0718506,-7.72633,-8.71951,-11.189,9.87805
340.438,8.94462,-11.4848,0,2.92671,9.21364,-0.548459,-5.18293,-1.06707,5.42683,-38.7562,0.273032,-7.50599,-9.29878,-14.3598,8.90244
340.448,9.27291,-11.4426,0,3.44883,9.03641,-0.483794,-6.15854,-2.07317,9.11585,-38.4305,0.196392,-7.12279,-6.40244,-16.0061,7.46951
340.458,9.69706,-11.3905,0,3.9446,8.87355,-0.399968,-6.98171,-3.87195,13.2927,-38.7275,-0.110171,-6.97909,-6.15854,-17.9878,7.95732
340.468,10.2269,-11.3419,0,4.4715,8.69153,-0.282612,-7.95732,-6.37195,18.2927,-38.6891,-0.273032,-7.00783,-2.37805,-20.8232,7.10366
340.478,10.8753,-11.3198,0,4.98404,8.42568,-0.172441,-7.5,-8.47561,24.5732,-38.8903,-0.253872,-7.48683,3.71951,-23.1707,6.40244
340.488,11.636,-11.2899,0,5.48699,8.3203,-0.0335303,-6.31098,-10.1829,31.6463,-39.0436,0.0431104,-7.37187,12.6829,-25.6098,6.15854
340.498,12.4987,-11.2523,0,5.91809,8.30593,0.0455054,-5.36585,-9.26829,39.3902,-38.9286,0.100591,-7.20901,21.4939,-30.4878,6.31098
340.508,13.4427,-11.223,0,6.12167,8.38736,0.0646655,-5.27439,-5.03049,48.1098,-38.5646,0.0814307,-7.27607,31.25,-34.7561,5.85366
340.518,14.3986,-11.1778,0,5.63548,8.74661,0.208367,-5.82317,-0.182927,58.0488,-38.076,0.234712,-6.90245,42.9573,-38.9939,3.5061
340.528,15.332,-11.1377,0,5.07026,9.2328,0.0455054,-6.12805,5.06098,65.9146,-38.076,0.445474,-6.96951,50,-41.8598,0.0609756
340.538,16.1876,-11.1272,0,4.38049,10.1333,-0.107776,-6.12805,8.41463,70.8841,-37.9706,0.752036,-7.43893,58.3232,-42.8354,-3.04878
340.548,16.9807,-11.1373,0,3.9422,10.8207,-0.524509,-8.07927,10.4573,73.1098,-38.0952,1.4418,-7.83171,66.3719,-47.439,-6.09756
340.558,17.7261,-11.1328,0,3.71468,11.3859,-1.02986,-9.08537,14.4512,73.8415,-38.0185,2.39981,-7.58263,73.9939,-52.0732,-7.2561
340.568,18.4342,-11.1642,0,3.64522,11.9847,-1.12805,-8.32317,18.5366,73.9024,-38.5071,3.25244,-8.32988,77.9573,-56.4329,-6.70732
340.578,19.1189,-11.1902,0,3.63085,12.3487,-0.771196,-6.89024,22.4085,74.0549,-40.0878,3.34824,-8.6077,77.4695,-60.0915,-5.70122
340.588,19.7775,-11.2228,0,3.40332,12.1451,-0.141306,-4.57317,26.0061,74.2683,-41.6781,2.66805,-9.0867,75.3049,-57.8354,-3.93293
340.598,20.3796,-11.3274,0,2.84528,11.7883,0.498164,-2.22561,23.628,74.1159,-42.3104,2.12199,-10.6387,67.6219,-50.6098,-4.26829
340.608,20.919,-11.4159,0,2.2585,11.5057,0.467029,-0.426829,18.689,73.9634,-42.6361,1.51844,-10.4471,58.6585,-41.25,-5.18293
340.618,21.4173,-11.4989,0,2.00703,11.3165,0.170046,0.27439,16.6463,73.0183,-43.9773,1.88249,-10.7057,53.9634,-34.3902,-1.64634
340.628,21.8724,-11.59,0,1.81782,10.7465,0.134121,1.46341,13.8415,70.5488,-44.0252,1.38432,-10.9357,49.5732,-30.5183,4.87805
340.638,22.3026,-11.7032,0,1.825,10.0208,0.431104,5.60976,7.56098,67.4695,-44.1785,0.981958,-11.5105,48.0183,-31.1585,10.1524
340.648,22.7343,-11.7864,0,2.10522,10.0256,0.440684,7.04268,-0.548781,65.3659,-43.7283,1.0107,-10.8782,46.4329,-33.628,12.1951
340.658,23.2035,-11.8352,0,2.70158,10.198,0.129331,4.66463,-4.42073,63.9939,-42.5116,1.23104,-9.99681,45.3659,-43.3841,17.5
340.668,23.7217,-11.8628,0,3.35303,10.0902,-0.138911,3.04878,-1.52439,62.7134,-40.8063,1.47054,-9.27831,47.4085,-55.7012,21.7378
340.678,24.267,-11.8558,0,3.79371,9.98005,-0.0742456,1.55488,4.5122,61.5854,-39.5322,2.04535,-8.40652,47.2866,-64.5427,24.0244
340.688,24.8162,-11.816,0,4.02124,9.91059,0.0526904,0.0609756,11.4634,60.4878,-38.6125,1.93997,-7.64969,46.7683,-71.9817,26.7378
340.698,25.3659,-11.7307,0,4.19607,9.63756,0.177231,0.670732,18.9024,58.7195,-38.0569,1.6813,-6.73,43.628,-73.9024,27.1037
340.708,25.905,-11.6558,0,4.29906,9.45075,0.208367,2.68293,26.0976,56.8598,-37.779,1.6813,-6.79707,43.2927,-72.6524,28.4146
340.718,26.4255,-11.578,0,4.25355,9.27352,0.332908,3.9939,33.9329,55.7012,-37.5779,1.70046,-6.65336,37.7439,-70.5793,29.2683
340.728,26.9364,-11.4929,0,4.28948,9.03162,0.708926,4.54268,40.8232,54.2073,-36.9647,1.80584,-6.35638,33.0793,-66.189,31.0061
340.738,27.4383,-11.4124,0,4.30146,8.7059,0.701741,4.72561,45.9146,52.5305,-37.0318,2.57225,-6.38512,26.6463,-65.2439,35
340.748,27.8955,-11.2919,0,4.09788,8.51669,0.718506,4.45122,50.3354,50.2134,-36.9168,2.82133,-5.64746,21.4024,-66.6768,38.2622
340.758,28.2828,-11.1881,0,3.67396,8.31072,0.737666,3.56707,52.1341,47.7744,-36.9935,3.02251,-5.8678,14.6646,-68.8719,39.6951
340.768,28.592,-11.1115,0,3.23088,8.22689,0.979563,0.335366,50.0305,45.5183,-36.7252,3.24286,-6.21268,8.81098,-70.2134,39.6951
340.778,28.8521,-11.0877,0,2.94827,7.89159,0.900527,-2.0122,42.6524,43.0793,-36.2462,2.93629,-6.94077,4.63415,-66.7378,36.5244
340.788,29.0847,-11.0999,0,2.79978,7.52036,0.754431,-0.701219,33.7805,40.9451,-36.2654,2.91713,-7.51557,2.77439,-62.9268,30.061
340.798,29.2549,-11.0967,0,2.61057,7.58982,1.02986,-2.13415,27.1341,37.9878,-36.16,2.86923,-7.22817,-0.304878,-58.0488,22.4085
340.808,29.3722,-11.0971,0,2.50519,7.59461,0.989143,-2.0122,18.6585,34.4207,-36.821,2.29443,-7.41019,-4.42073,-54.8171,16.0976
340.818,29.4567,-11.1118,0,2.5004,7.57545,0.754431,-2.10366,11.8902,31.2805,-37.2809,1.92081,-7.73591,-8.56707,-51.25,7.31707
340.828,29.4941,-11.155,0,2.38304,7.57545,0.787961,-3.96341,4.93902,28.2927,-37.5395,1.2981,-8.28198,-13.5366,-48.1707,0.518293
340.838,29.5459,-11.2154,0,2.5962,7.34073,0.900527,-5.73171,-3.20122,25.7317,-37.4725,1.16398,-8.58854,-16.7988,-46.311,-6.12805
340.848,29.7323,-11.2827,0,3.62606,6.93598,0.747246,-6.0061,-10.2744,22.9878,-37.6353,0.991538,-8.78972,-15.8841,-46.5549,-10.7012
340.858,29.9361,-11.3581,0,4.12183,7.06531,0.814307,-6.40244,-26.128,19.7256,-37.0222,1.1544,-8.82804,-11.8598,-45.6402,-12.1341
340.868,30.1649,-11.4524,0,4.52419,7.0677,0.64905,-6.28049,-34.0854,17.8659,-37.0414,1.04902,-9.21125,-8.81098,-45.2439,-13.3841
340.878,30.3814,-11.5431,0,4.46192,7.08447,0.306563,-3.04878,-37.622,17.9268,-36.8689,1.02986,-9.16334,-6.0061,-43.5366,-14.939
340.888,30.5654,-11.6492,0,4.38289,7.36229,0.423918,1.18902,-41.0061,17.9878,-36.8594,0.886157,-9.46991,-4.32927,-37.5915,-15.6707
340.898,30.7556,-11.7771,0,4.54814,7.38624,0.479004,5.12195,-47.2561,17.2561,-36.7827,0.924478,-9.88185,-4.39024,-31.9207,-16.2805
340.908,30.9318,-11.8749,0,4.87386,7.71675,0.0502954,3.04878,-51.4024,14.878,-37.5012,1.38432,-9.61361,-5.60976,-26.6463,-16.5854
340.918,31.1312,-11.9533,0,5.29539,7.6952,-0.210762,1.98171,-53.7805,12.9878,-38.4017,2.09325,-9.56571,-7.95732,-26.9207,-16.0976
340.928,31.3468,-12.0033,0,5.59956,7.5994,-0.387993,-0.518293,-52.8963,11.2805,-38.5454,2.51477,-9.15376,-8.56707,-28.75,-15.6707
340.938,31.5853,-12.0649,0,6.03545,7.56108,-0.447869,-2.71341,-47.9268,9.54268,-38.6796,2.67763,-9.43159,-10.9146,-29.3598,-14.6646
340.948,31.8591,-12.1349,0,6.70845,7.68562,-0.167651,-6.7378,-42.7744,8.47561,-38.2868,2.88839,-9.52739,-13.3841,-28.5976,-14.5732
340.958,32.1704,-12.2146,0,7.33834,7.63532,0.0886157,-9.57317,-35.3659,7.2561,-37.9611,2.66805,-9.66151,-12.2866,-26.4634,-15.4878
340.968,32.4776,-12.305,0,7.48683,7.70238,0.514929,-11.7988,-27.4085,6.79878,-37.7982,2.39981,-9.85311,-12.561,-23.1402,-17.7744
340.978,32.7716,-12.3763,0,7.3599,7.49162,0.622705,-12.1951,-19.2988,5.36585,-37.8269,2.28485,-9.56571,-12.3476,-17.1951,-18.5976
340.988,33.0829,-12.4471,0,7.1659,6.94077,0.107776,-9.87805,-13.2012,4.39024,-38.0281,2.19863,-9.64235,-13.4756,-13.2012,-18.9329
340.998,33.3903,-12.5228,0,6.99106,6.78988,-0.344883,-4.93902,-6.15854,3.29268,-38.5071,2.36149,-9.90101,-14.3902,-11.8293,-16.7988
341.008,33.7428,-12.602,0,6.89766,6.84976,-0.62031,-1.89024,-0.823171,1.61585,-38.7179,2.52435,-10.0735,-18.0183,-12.2866,-15
341.018,34.2459,-12.669,0,6.83299,6.95753,-0.931663,1.34146,3.20122,0.426829,-38.9861,2.51477,-9.98723,-18.0488,-15.122,-9.57317
341.028,34.6702,-12.7688,0,6.73958,7.09644,-0.63468,4.26829,5.51829,-0.426829,-38.9286,2.69679,-10.6291,-18.75,-17.0732,-6.25
341.038,34.8609,-12.8756,0,6.43781,7.41259,-0.0958008,5.33537,6.46341,-1.18902,-38.9095,2.70637,-10.8303,-18.2927,-17.8354,-1.28049
341.048,34.9096,-12.9659,0,5.92049,7.53952,0.0502954,4.2378,7.13415,-2.77439,-39.1681,2.54351,-10.6674,-18.9329,-15.8537,0.762195
341.058,34.8552,-13.0621,0,5.1469,7.44851,0.143701,4.57317,6.55488,-5,-39.7717,2.39981,-11.0027,-23.2927,-14.1159,2.43902
341.068,34.6987,-13.1191,0,4.39726,7.19703,0.349673,6.7378,4.84756,-8.96341,-40.1932,2.70637,-10.4375,-28.4146,-11.189,2.22561
341.078,34.5047,-13.1615,0,4.26792,6.80904,0.112566,8.90244,4.72561,-14.4512,-40.5189,3.62606,-10.2842,-37.3476,-10.1829,3.20122
341.088,34.2902,-13.1885,0,4.35415,6.51685,-0.00718506,12.5305,3.35366,-20.3354,-41.0171,4.81399,-10.1501,-45.8841,-11.6159,4.05488
341.098,34.0862,-13.2088,0,4.84512,6.52643,-0.0886157,16.372,1.61585,-25.5183,-41.4195,5.70494,-10.1501,-56.4939,-13.3841,5.79268
341.108,33.891,-13.2683,0,5.4319,6.72282,-0.105381,19.3293,1.15854,-29.8171,-41.1895,6.46176,-10.8686,-67.8963,-14.6646,8.38415
341.118,33.6675,-13.3098,0,5.89175,7.22577,-0.143701,19.8476,2.62195,-33.628,-41.4003,6.23184,-10.6291,-77.6524,-16.25,9.26829
341.128,33.396,-13.3319,0,6.07377,7.5994,-0.210762,20.3049,0.487805,-37.8354,-41.8793,5.49417,-10.4088,-81.5549,-18.4756,9.7561
341.138,33.0225,-13.33,0,5.93246,8.33946,-0.467029,22.9878,-1.55488,-42.2561,-42.7032,5.09181,-10.1693,-83.9939,-22.5,9.08537
341.148,32.4813,-13.336,0,5.32892,9.41003,-0.397573,24.2683,-3.04878,-48.0793,-43.2876,4.2775,-10.4758,-83.8719,-24.7866,9.48171
341.158,31.7905,-13.3569,0,4.50264,10.2028,-0.205972,22.7744,-5.15244,-52.8049,-43.4888,2.56267,-10.8207,-81.6768,-21.8598,8.75
341.168,31.0744,-13.4335,0,4.30625,10.7321,-0.124541,17.6524,-13.4756,-52.8049,-43.0577,0.761616,-11.8266,-75.6098,-13.75,5.70122
341.178,30.4898,-13.5174,0,5.02475,10.1621,-0.0910107,13.5671,-27.5305,-49.939,-42.3487,-0.684976,-11.7883,-66.7683,-0.27439,1.52439
341.188,30.0897,-13.5067,0,6.66534,9.77168,-0.232317,13.872,-43.4146,-48.5976,-42.8565,-0.914897,-10.0639,-52.7744,6.28049,1.4939
341.198,29.8487,-13.4183,0,8.81846,9.98484,-0.543669,12.1341,-52.1037,-47.7744,-43.8432,-1.94955,-8.71308,-39.6646,6.89024,3.56707
341.208,29.6571,-13.2888,0,10.3537,10.5644,-0.0838257,10.8841,-45.122,-49.2988,-44.8587,-4.038,-8.01374,-22.2256,3.81098,4.39024
341.218,29.4202,-13.1548,0,11.1728,12.1068,1.03704,8.41463,-28.5976,-50.7927,-46.4873,-5.8199,-8.11912,-2.80488,-0.335366,3.2622
341.228,29.2163,-13.0766,0,11.6614,13.1463,1.12326,-1.58537,-6.95122,-45.6098,-46.2861,-8.09038,-9.1346,16.372,3.38415,-0.518293
341.238,29.081,-12.9833,0,9.64235,12.308,1.67651,-12.2561,21.8293,-31.8902,-44.3414,-7.19943,-8.33946,37.8049,14.2073,2.59146
341.248,28.9061,-12.7832,0,5.98036,10.5141,1.47054,-18.7805,35.4573,-18.9634,-42.7607,-6.6821,-5.8678,50.9756,23.2927,2.31707
341.258,28.4127,-12.5022,0,1.72202,9.01964,0.6251,-20.9146,32.2866,-13.4146,-40.3561,-2.80217,-3.88472,55.1524,38.0183,11.7073
341.268,27.4904,-12.1294,0,-1.41546,7.95865,0.193997,-17.8963,18.0488,-15.5488,-39.9058,0.847837,-1.97829,43.0793,50.9146,15.2134
341.278,26.0609,-11.5928,0,-4.47869,7.3096,0.447869,-9.84756,-5.70122,-25.4878,-40.6243,3.95178,1.19272,30.9451,52.622,20.5488
341.288,24.4672,-10.9888,0,-5.10379,7.38385,-0.143701,-1.82927,-44.2073,-38.7195,-42.8661,7.79339,2.88839,10.3354,39.2683,22.5305
341.298,22.9344,-10.3698,0,-4.07153,7.97062,-2.08846,3.44512,-82.3171,-51.25,-44.1402,11.1368,3.69312,-8.44512,28.5366,22.0427
341.308,21.5573,-9.58946,0,-2.56267,8.83523,-4.232,6.79878,-104.482,-60.7012,-44.121,12.6122,7.32397,-38.7805,17.8049,21.0976
341.322,20.4739,-8.82955,0,0.261057,10.1429,-4.36133,11.7073,-96.5854,-69.5732,-42.684,10.4471,7.19943,-73.9939,-5.30488,8.75
341.329,19.5744,-8.06386,0,1.91362,10.677,-3.73623,13.3841,-80.5488,-70.7317,-41.8123,9.26873,7.69759,-89.3902,-15.0915,2.53049
341.338,18.8726,-7.37893,0,3.87035,11.362,-2.23695,11.0366,-51.4024,-70.061,-41.065,4.88105,6.56714,-107.957,-29.6341,-8.14024
341.348,18.3421,-6.75155,0,5.07744,11.2662,-1.13763,6.43293,-24.1463,-65.1219,-41.3907,0.675395,6.00192,-113.323,-43.0793,-18.1098
341.358,17.9,-6.20098,0,4.83554,10.5309,-0.64905,2.59146,-3.01829,-58.0183,-40.0591,-3.7985,4.84273,-114.39,-52.2866,-21.9817
341.368,17.3698,-5.77337,0,3.13748,9.81479,-0.328118,2.71341,11.0061,-53.75,-39.0053,-7.32397,2.95545,-113.963,-53.3537,-24.9085
341.378,16.6407,-5.35723,0,1.16637,9.90101,0.110171,1.4939,14.5122,-52.6524,-36.8977,-5.43669,2.88839,-100.457,-52.3476,-16.6463
341.388,15.7681,-5.14221,0,-0.0981958,9.99442,0.227527,-0.945122,7.10366,-53.9329,-37.4246,-8.85678,-0.119751,-94.0244,-51.7073,-12.3476
341.398,14.8523,-4.99936,0,-0.486189,9.92017,-0.191602,-1.28049,-2.37805,-55.5488,-35.9492,-7.36229,-1.08734,-70.3354,-39.939,4.05488
341.408,13.9199,-4.91107,0,-0.689766,9.83874,-0.627495,-1.61585,-11.372,-56.6463,-35.7002,-5.68578,-1.83458,-50.0915,-34.7561,18.9329
341.418,12.9028,-4.85916,0,-1.40588,9.75012,-1.1065,-1.34146,-24.2378,-58.628,-36.1887,-4.86189,-2.36149,-27.439,-26.8902,30.2744
341.428,11.8344,-4.77059,0,-1.75076,9.59445,-1.40348,-1.61585,-41.4329,-61.5854,-37.3767,-3.88472,-1.7771,-12.0427,-20.122,33.3232
341.438,10.9154,-4.67982,0,-0.296982,9.59924,-1.66214,-1.64634,-52.8659,-66.0061,-39.3023,-2.80217,-1.73878,2.43902,-11.0671,27.9573
341.448,10.1667,-4.64314,0,1.27655,9.74054,-1.84656,-2.34756,-66.0976,-69.3598,-40.6435,-2.97461,-2.68721,15.7622,-5.88415,12.2866
341.458,9.57742,-4.58189,0,2.30401,9.79323,-1.81063,-1.52439,-57.0122,-66.4024,-41.3907,-2.35191,-2.25611,27.6829,-4.7561,-3.62805
341.468,9.00936,-4.5189,0,2.12438,9.84832,-1.63101,-1.98171,-55.2744,-63.2622,-40.5477,-2.04535,-2.13157,33.0488,-3.65854,-18.9939
341.478,8.45062,-4.42964,0,1.81063,9.82437,-1.52323,-3.14024,-50.9146,-59.939,-39.5705,-1.19272,-1.57592,37.1037,-3.20122,-28.689
341.488,7.90777,-4.3155,0,1.75794,9.63995,-1.67651,-4.17683,-47.9878,-59.2378,-38.5742,-0.847837,-1.06818,35.9451,-7.86585,-32.9878
341.498,7.39267,-4.22666,0,1.87291,9.27352,-1.83698,-4.81707,-47.622,-59.7256,-37.8844,-0.771196,-1.40348,34.2988,-10,-33.4756
341.508,6.91314,-4.13496,0,2.05493,9.00048,-2.07169,-4.02439,-40.8232,-60.0915,-37.6258,-0.608335,-1.28852,32.6524,-10.1524,-34.2683
341.518,6.48044,-4.07429,0,2.32317,8.88792,-2.01182,-2.62195,-34.3598,-59.939,-37.6832,-0.378413,-1.75794,28.9939,-13.7805,-31.9512
341.528,6.10541,-4.05627,0,2.68721,9.15856,-2.02858,-2.16463,-28.5976,-58.4146,-37.5395,-0.828677,-2.42855,27.6524,-16.5854,-32.561
341.538,5.79587,-4.02924,0,2.91474,9.25915,-1.90644,-1.89024,-20.5793,-54.7866,-37.3,-1.02028,-2.26569,23.5366,-20.7012,-32.9268
341.548,5.51786,-4.00658,0,2.85007,9.23999,-1.83219,-2.22561,-11.5549,-51.5244,-36.4666,-1.59508,-2.28485,21.311,-25.9146,-34.0854
341.558,5.23678,-4.02286,0,2.48843,8.90947,-1.96152,-0.640244,-5.2439,-49.2683,-35.4607,-2.34233,-2.83091,21.6159,-29.6037,-37.7744
341.568,4.9028,-4.08087,0,1.91362,8.73943,-1.88009,0.182927,0.518293,-48.5976,-34.8092,-3.06083,-3.43446,23.1402,-29.7561,-40.3659
341.578,4.52177,-4.10907,0,1.5376,8.78014,-1.66693,1.40244,4.48171,-49.1463,-34.1386,-3.26202,-2.95545,24.2378,-31.25,-40.3049
341.588,4.12088,-4.18529,0,1.46096,9.17053,-1.45617,0.640244,5.73171,-50.1524,-33.765,-3.45362,-3.66438,27.4085,-32.3476,-39.5732
341.598,3.71944,-4.30604,0,1.36037,9.43398,-1.24062,1.18902,7.62195,-49.2988,-33.0848,-3.4632,-4.29667,30.5183,-33.3232,-37.4085
341.608,3.29779,-4.51489,0,1.07297,9.69504,-0.972378,1.03659,5.91463,-48.3232,-33.0082,-3.29076,-5.65704,35.8537,-29.3293,-31.0366
341.618,2.84635,-4.72387,0,0.740061,9.44835,-0.902922,0.792683,0.0914634,-48.4756,-33.1135,-3.00335,-5.78158,42.9878,-22.561,-24.1463
341.628,2.37034,-4.95855,0,0.534089,9.12023,-0.862207,1.43293,-6.67683,-49.6037,-33.1614,-2.52435,-6.27974,46.8598,-14.7561,-14.0854
341.638,1.89479,-5.22346,0,0.536484,8.93342,-1.18314,2.04268,-9.96951,-50.7012,-33.0273,-1.75794,-6.83539,46.4024,-9.02439,-6.40244
341.648,1.44988,-5.46709,0,0.828677,8.56938,-1.43462,3.32317,-11.8293,-52.8049,-32.8357,-0.244292,-6.61504,47.7439,-2.92683,3.01829
341.658,1.05507,-5.65745,0,1.27894,8.35383,-1.74597,4.7561,-12.1951,-55.0915,-32.6345,1.0586,-5.9157,47.378,-0.0914634,10.8841
341.668,0.63614,-5.79146,0,1.31966,7.41498,-1.36277,1.98171,-10.3963,-61.189,-33.1135,2.19863,-5.27383,46.128,-1.52439,19.1463
341.678,0.404663,-5.86065,0,2.82612,9.42919,-1.38672,9.20732,-3.62805,-56.372,-34.0045,2.98419,-4.51701,41.9512,-5.67073,22.3476
341.688,0.213248,-5.90243,0,3.20214,10.1836,-0.749641,7.56098,-0.121951,-54.3293,-35.4223,2.96503,-4.33499,34.3598,-12.4085,26.4329
341.698,0.0181949,-6.02445,0,2.91234,11.2997,-0.112566,5.64024,5.57927,-48.9634,-37.0222,1.73878,-5.90612,29.2683,-16.189,28.9939
341.708,-0.294699,-6.20858,0,1.67891,10.5022,0.131726,0.365854,11.8902,-50.4268,-38.2485,-0.0718506,-7.26649,23.9024,-16.7073,31.2805
341.718,-0.681741,-6.47115,0,1.07776,10.1716,-0.529299,1.12805,18.1402,-52.439,-38.7179,-1.5376,-8.86636,18.811,-11.9817,33.0183
341.728,-1.13989,-6.77566,0,0.347278,9.71899,-0.380808,2.04268,18.3232,-52.3171,-38.6412,-2.23695,-9.75731,17.1341,-2.13415,36.5244
341.738,-1.67087,-7.05474,0,-0.141306,9.11305,-0.907712,2.7439,14.6951,-54.6951,-37.9323,-2.07409,-9.30705,12.2256,7.56098,40.2134
341.748,-2.24105,-7.26672,0,-0.203577,8.46639,-1.50168,3.81098,11.6159,-58.7805,-36.8594,-1.62382,-8.05206,6.46341,17.1341,43.5671
341.758,-2.77026,-7.44086,0,0.498164,8.23408,-2.60578,4.72561,13.1098,-65.6402,-36.5624,-0.704136,-7.47725,-4.11585,21.4634,40
341.768,-3.21235,-7.61418,0,1.11129,9.1825,-2.50759,8.78049,17.1646,-64.8476,-37.0126,0.455054,-7.65927,-12.2561,25.4573,34.3598
341.778,-3.63998,-7.78974,0,1.12566,9.79803,-2.29682,11.4024,17.8963,-63.5671,-38.4496,1.61424,-8.10954,-19.0854,27.8049,25.4573
341.788,-4.11796,-7.93333,0,0.890947,9.44835,-2.25371,10.3049,22.5305,-67.1951,-39.8675,1.94955,-7.95625,-28.9329,26.189,15.9146
341.798,-4.65108,-8.0323,0,0.622705,9.27831,-2.15312,10.6402,26.7988,-70.6402,-41.0746,2.05493,-7.48683,-41.8293,20.7012,6.85976
341.808,-5.14703,-8.11474,0,0.996328,9.89862,-2.39262,12.1951,31.7378,-71.8293,-42.023,1.60466,-7.44851,-54.8476,12.7134,-3.32317
341.818,-5.55001,-8.22439,0,1.59269,10.4016,-2.32796,11.0366,32.1341,-69.3902,-42.2529,0.225132,-8.09996,-64.9085,6.40244,-11.189
341.828,-5.97247,-8.36642,0,1.01788,10.2794,-1.43941,7.92683,25.2744,-65.9756,-42.5691,-0.819097,-8.86636,-69.2378,9.17683,-16.4634
341.838,-6.26384,-8.58696,0,1.54958,11.1632,-1.51844,9.32927,20.5183,-58.0488,-42.4254,-2.31359,-10.4758,-65.5793,13.2317,-18.9024
341.848,-6.46958,-8.84656,0,1.67412,10.9644,-1.17356,7.46951,13.5671,-51.4939,-42.0805,-3.25244,-11.3189,-58.9329,17.6524,-21.7988
341.858,-6.56795,-9.16871,0,1.91362,11.3308,-0.843047,7.07317,10.0305,-42.8049,-41.5057,-4.49785,-12.5834,-50.0915,23.3841,-22.8659
341.868,-6.61548,-9.51279,0,2.02858,11.1656,-0.878972,5.39634,5.2439,-39.2683,-41.4865,-5.50376,-13.2349,-38.9939,33.1707,-27.622
341.878,-6.63884,-9.78928,0,1.99984,11.0123,-0.754431,4.14634,-1.40244,-36.8902,-41.956,-6.32764,-12.2577,-28.9024,42.1341,-33.0183
341.888,-6.61804,-9.87328,0,2.30161,11.0554,-0.823887,1.34146,-11.0366,-35.4268,-44.2743,-5.42711,-9.16334,-23.628,43.9329,-39.9085
341.898,-6.49171,-9.71175,0,3.21412,11.0482,-1.14482,-1.12805,-18.1098,-33.7195,-47.886,-3.37698,-4.69903,-29.939,38.3232,-48.6585
341.908,-6.23453,-9.38066,0,4.24158,11.2374,-1.19032,-4.42073,-19.0549,-29.2073,-52.6282,-0.0622705,-1.09692,-54.3902,31.6768,-59.7866
341.918,-5.8306,-9.05173,0,5.11816,11.2494,-1.30768,-7.89634,-14.2683,-21.4329,-55.4543,3.6069,-0.886157,-90.4268,32.1037,-73.5366
341.928,-5.28244,-8.7854,0,5.74805,11.3763,-1.36277,-11.189,-5.2439,-10.6707,-57.6864,7.93709,-2.16989,-128.628,34.7561,-84.1768
341.938,-4.5909,-8.48556,0,6.03545,11.4506,-1.15679,-14.6951,2.80488,2.68293,-56.0482,2.72553,-1.13524,-178.445,10.7927,-88.3841
341.948,-3.75465,-8.31528,0,6.36596,11.726,-0.476609,-19.8171,5.2439,17.8049,-52.6856,9.51781,-3.73144,-186.707,27.1646,-86.8293
341.958,-2.74085,-8.02968,0,6.91921,11.9296,0.208367,-26.189,2.53049,34.3293,-47.1579,4.79483,-0.924478,-213.811,-4.05488,-76.0061
341.968,-1.51998,-7.62471,0,7.42456,11.441,1.21906,-32.2866,-5.4878,51.6768,-42.9523,-0.273032,1.54718,-219.634,-27.0427,-62.6829
341.978,-0.120327,-7.23413,0,7.4533,10.8542,2.34233,-38.689,-12.2256,69.3598,-42.8182,-4.15296,1.51844,-207.256,-41.8902,-48.2012
341.988,1.40963,-6.83809,0,7.22577,10.8542,2.26569,-53.9634,-15.7012,87.1951,-43.7857,-8.21492,1.94955,-171.707,-43.9634,-33.4451
341.998,2.99963,-6.67068,0,5.94683,10.3513,1.13045,-57.0122,-3.96341,104.146,-43.0098,-11.9224,-2.11241,-137.104,-40.6707,-27.7744
342.008,4.51039,-6.36098,0,3.90628,10.5908,0.677791,-56.2805,1.25,118.963,-41.5057,-13.6372,0.732876,-83.7805,-27.9573,-26.6159
342.018,5.92773,-5.98941,0,2.14594,10.4519,-0.126936,-48.1098,1.28049,130.152,-38.4975,-12.7942,1.97829,-38.6585,-16.2195,-25.6707
342.028,7.24082,-5.56631,0,0.66821,10.8159,-0.62989,-37.2256,-2.34756,138.872,-36.2941,-11.2805,2.94587,2.71341,-11.0366,-22.439
342.038,8.50389,-5.09836,0,-0.205972,11.6302,-1.15679,-28.5366,-0.701219,145.732,-35.1158,-9.11544,3.82724,29.1159,-6.18902,-17.5915
342.048,9.74074,-4.61929,0,-0.881367,12.878,-1.23104,-23.2622,4.72561,151.555,-34.7134,-6.92161,4.26792,48.689,2.0122,-13.1707
342.058,10.9766,-4.13698,0,-1.07057,13.8672,-1.14961,-20.7622,4.26829,155,-36.045,-5.14929,4.79483,56.2195,3.41463,-9.69512
342.068,12.2314,-3.70217,0,-0.244292,14.5282,-1.0107,-19.2683,-1.52439,152.409,-37.9323,-3.20454,4.55533,56.4634,0.945122,-7.7439
342.078,13.4808,-3.29458,0,0.874182,14.6767,-0.941243,-14.3902,-6.89024,145.488,-40.2124,-1.4418,4.63197,46.4939,-3.96341,-8.47561
342.088,14.7225,-2.9911,0,1.69328,14.818,-0.63947,-6.58537,-15.2439,140.915,-42.1188,0.215552,3.19496,35.122,-6.31098,-8.9939
342.098,15.957,-2.69928,0,1.66454,14.7006,-1.47773,-2.07317,-12.2256,142.835,-42.4924,1.89207,3.21412,18.6585,-10.5793,-6.89024
342.108,17.2665,-2.44512,0,2.13875,14.1115,-2.98659,-2.10366,9.32927,148.598,-41.6877,3.1758,2.64889,7.19512,-16.7988,0.182927
342.118,18.7823,-2.25918,0,4.6176,13.6875,-3.73144,1.4939,46.8902,151.86,-39.7621,3.44404,1.49928,-3.9939,-18.3841,8.96341
342.128,20.1024,-2.1085,0,2.35191,13.8815,-3.02012,2.83537,68.2012,153.415,-37.6258,2.94587,0.953218,-9.20732,-19.1159,18.5061
342.138,21.2139,-2.01754,0,-0.296982,13.86,-2.63452,3.47561,76.0976,156.951,-36.1696,2.42855,0.0431104,-10.4573,-24.2683,31.0976
342.148,22.2346,-1.97148,0,-1.36995,13.3642,-2.1627,3.75,69.8476,159.39,-35.9205,1.41306,-0.617915,-5.7622,-26.4939,41.311
342.158,23.2803,-1.96734,0,-0.66342,12.5954,-2.05493,6.70732,75.5488,158.232,-35.4511,0.560435,-1.24062,-2.89634,-27.7744,50.2744
342.168,24.0545,-1.99558,0,-3.11832,12.0996,-1.13284,6.21951,72.7744,156.006,-35.1733,-0.158071,-1.7292,4.20732,-27.0732,55.4268
342.178,24.673,-2.01673,0,-3.82245,11.2255,-0.979563,5.51829,75.0915,150.579,-34.905,-0.943638,-1.62382,8.5061,-27.0427,59.3293
342.188,25.2834,-2.01703,0,-2.72793,10.3513,-1.46336,5.51829,71.0976,142.774,-34.8571,-1.50886,-1.31726,16.2805,-28.2622,60
342.198,25.8852,-1.98192,0,-1.7771,9.80521,-1.48012,7.16463,68.2927,133.963,-34.8284,-1.66214,-0.780776,18.9634,-31.0671,61.7683
342.208,26.4995,-1.95902,0,-1.02507,9.16574,-1.52802,6.18902,61.372,128.537,-34.8092,-1.98787,-0.953218,20.3049,-33.3537,61.5244
342.218,27.0774,-1.93264,0,-0.883762,8.52866,-1.65735,7.37805,48.628,125.122,-34.9242,-2.12199,-0.886157,16.0976,-32.4695,60.8232
342.228,27.4585,-1.92102,0,-1.61424,8.26282,-1.65735,10.9756,31.6159,116.707,-35.0966,-1.49928,-1.09692,11.4024,-30.4878,58.5976
342.238,27.556,-1.95053,0,-2.53872,8.27719,-1.26697,15.8841,19.8476,100.793,-34.9433,-0.0431104,-1.71004,4.90854,-27.378,58.1402
342.248,27.454,-2.00155,0,-2.80696,8.54782,-0.452659,15.8841,16.6768,82.9268,-34.8571,1.74836,-2.05493,-3.14024,-27.2256,57.2256
342.258,27.1978,-2.06151,0,-2.70158,8.32269,0.258662,11.4939,15.122,66.5854,-34.5697,3.9422,-2.19863,-13.4451,-24.939,60.6707
342.268,26.8312,-2.15268,0,-2.50519,7.70717,0.390388,7.80488,11.9817,54.8476,-34.6943,5.21635,-2.71595,-25.1524,-22.7134,62.0122
342.278,26.3736,-2.35349,0,-2.39262,6.96232,0.0766406,7.22561,10.1829,46.7683,-34.5889,3.44404,-4.44037,-43.9024,-18.5061,60.3659
342.288,25.9248,-2.57222,0,-1.86333,6.50008,0.0239502,8.17073,12.5,40.6707,-34.7134,5.43669,-4.84273,-41.1585,-13.1098,55.2134
342.298,25.5107,-2.73738,0,-1.36277,6.27974,0.229922,7.9878,17.439,35.6402,-36.2366,5.00559,-4.34457,-59.3293,-18.9939,46.3415
342.308,25.1129,-2.91125,0,-0.958008,6.16957,0.65863,9.05488,22.9878,29.4817,-35.8822,3.68354,-4.53617,-68.1098,-15.5183,32.0122
342.318,24.7269,-3.10922,0,-0.59636,6.35638,0.898132,5.7622,25.2439,22.8049,-35.5756,2.82133,-4.98643,-75.3049,-13.8415,20.0305
342.328,24.3556,-3.31364,0,-0.165256,6.17915,0.960403,5.94512,23.7805,15.7012,-35.681,1.84417,-5.22593,-83.1707,-12.3171,10.8232
342.338,24.018,-3.52223,0,0.311353,6.69408,1.36516,2.16463,18.8415,9.90854,-35.7193,0.656235,-5.42711,-89.0854,-11.7988,0.579268
342.348,23.6575,-3.72092,0,1.0107,7.10842,1.65496,-7.28659,12.8963,4.45122,-35.4798,-0.541274,-5.36005,-93.5671,-10.3354,-6.64634
342.358,20.4334,-3.98276,0,1.60227,7.10123,1.61903,-12.4085,10.9451,-0.426829,-34.9912,-0.934058,-6.3947,-95.1829,-4.78659,-12.622
342.368,20.2988,-4.28523,0,2.14115,7.16829,1.38432,-20.3659,7.07317,-4.63415,-34.1961,-1.47054,-7.02699,-96.0671,1.76829,-16.8293
342.378,20.2554,-4.59708,0,2.92192,6.94556,0.656235,-26.0061,0.0304878,-9.57317,-33.9278,-1.98787,-7.28565,-95.9451,8.23171,-20.9146
342.388,20.3074,-4.87526,0,3.83203,6.60546,-0.170046,-25.122,-7.46951,-14.8171,-33.8799,-1.14482,-6.94077,-93.4146,8.93293,-22.378
342.398,20.4221,-5.10564,0,4.90979,6.47853,-0.742456,-15.6402,-15.3354,-22.6829,-34.541,-0.560435,-6.50008,-88.2927,7.13415,-19.6037
342.408,20.5232,-5.36942,0,6.10969,6.9264,-0.974773,-5.54878,-23.7805,-32.5305,-34.8571,-0.0431104,-7.23775,-82.561,7.40854,-12.1646
342.418,20.6031,-5.60461,0,7.01501,7.21859,-0.809517,1.95122,-38.872,-40.122,-35.6427,0.483794,-7.10363,-77.6524,7.5,-4.93902
342.428,20.7418,-5.82222,0,8.18139,7.56108,-0.622705,3.10976,-57.3171,-40.2439,-37.0031,0.589175,-7.22817,-71.0671,9.42073,3.93293
342.438,20.9798,-6.02582,0,9.87227,8.27479,-0.450264,-1.82927,-63.8415,-35.4878,-38.6891,0.445474,-7.45809,-64.0549,10.6707,12.4695
342.448,21.4272,-6.21276,0,12.4613,8.49513,-1.17116,-4.96951,-53.5061,-25.2439,-40.0208,0.445474,-7.55389,-56.0061,11.6463,20.3354
342.458,22.1102,-6.45398,0,14.8755,8.55262,-1.8753,-1.67683,-32.0732,-9.2378,-40.7872,-0.110171,-8.83762,-45.2134,15.8537,24.3598
342.468,22.9718,-6.74733,0,15.6012,8.78254,-2.95066,9.96951,-8.44512,9.32927,-41.247,-0.579595,-10.083,-37.1951,25.2744,25.7317
342.478,23.8504,-7.10614,0,13.575,9.34537,-2.95545,22.5,7.80488,23.3537,-42.1284,-1.00112,-11.7787,-32.8354,37.9268,20.9146
342.488,24.6381,-7.48421,0,10.0854,9.06754,-2.20102,30.5793,11.6463,31.0061,-42.8756,-1.4418,-12.6122,-34.2073,52.8659,10.9756
342.498,25.2727,-7.88169,0,6.91921,8.12151,-1.80584,37.0427,8.59756,32.5305,-43.0289,-0.608335,-13.3019,-38.9024,69.3293,0.0609756
342.508,25.5459,-8.27933,0,3.8464,7.5994,-1.17116,39.4512,3.2622,24.6646,-43.0002,1.61424,-13.5702,-42.8049,82.4695,-4.66463
342.518,25.3105,-8.66727,0,1.45378,7.39103,-0.481399,34.7561,-0.426829,6.37195,-43.278,3.4153,-13.7522,-50.5488,90.3963,-0.914634
342.528,24.6021,-9.05325,0,-0.0934058,7.85087,0.0574805,24.3293,-4.7561,-19.2378,-44.6096,4.40205,-14.4707,-59.4512,89.2988,7.53049
342.538,23.4571,-9.41153,0,-1.45617,8.95258,0.637075,13.2927,-6.82927,-47.7744,-45.8071,3.91346,-14.5857,-61.311,88.5976,22.1646
342.548,22.0144,-9.75101,0,-2.12678,9.77647,1.07776,4.17683,-15,-74.2988,-47.4166,2.16989,-14.988,-54.9085,89.4512,35.8232
342.558,20.6091,-9.88584,0,-0.752036,10.0016,1.48491,-2.62195,-30.6402,-89.6951,-49.2656,0.646655,-11.1273,-36.3415,86.5854,45.9146
342.568,19.6142,-9.7602,0,3.29794,10.962,1.46575,-2.59146,-50.1524,-93.6281,-52.7623,-1.76752,-5.92528,-10.5793,61.7073,53.8415
342.578,18.9782,-9.53485,0,9.22562,14.3102,1.59987,-9.32927,-76.6159,-91.8293,-56.144,-5.8678,-3.80808,16.8902,38.2317,57.5
342.588,18.6179,-9.10535,0,15.3712,17.5986,-0.186812,-15.8232,-69.939,-81.9817,-67.2282,-7.27607,1.48012,38.1707,-10.061,58.811
342.598,18.719,-8.85293,0,20.8582,18.923,-1.13284,-10.4573,0.518293,-49.2073,-56.0866,-14.4515,-2.52435,49.1463,31.1585,57.7439
342.608,19.3431,-8.54185,0,14.2432,13.3546,-0.977168,-12.0122,66.0976,6.28049,-47.7232,-13.5223,-0.560435,71.7073,65.5488,58.4451
342.618,19.7221,-8.00336,0,3.04167,7.99937,-2.11959,-1.89024,84.7866,35.6707,-38.6508,-6.43302,3.67396,69.2073,75.4878,66.3719
342.628,18.8077,-7.18469,0,-5.82708,5.85103,-2.00703,13.5061,82.1341,38.5366,-33.9757,-0.857417,7.85087,47.5,68.9024,77.7744
342.638,17.2712,-6.12364,0,-12.8277,5.22593,0.126936,27.9878,53.1098,20.0305,-32.7399,3.86556,11.8649,27.378,62.8049,88.3537
342.648,15.3829,-5.05625,0,-15.9245,6.32285,2.86923,29.6037,-7.07317,-17.9573,-34.1865,7.59221,13.1103,1.7378,30.5183,98.1098
342.658,13.3254,-4.38916,0,-11.144,7.48683,1.67172,16.0061,-75.5183,-64.0549,-34.8763,7.14195,7.29523,-39.9695,5.06098,100.152
342.668,11.6997,-3.95754,0,-3.42967,8.91187,-2.96264,-11.4939,-106.829,-95.7317,-36.7156,12.5451,4.17212,-48.2012,-5.57927,96.7988
342.678,10.545,-3.61057,0,1.32924,9.38848,-6.37554,-11.8293,-87.0427,-110.396,-42.7415,12.8708,3.56858,-69.8781,-6.37195,91.8293
