time,angle1,angle2,intgangle,accX1,accY1,accZ1,gyroX1,gyroY1,gyroZ1,accX2,accY2,accZ2,gyroX2,gyroY2,gyroZ2
257.212,91.1276,2.44806,0,9.87467,-0.258662,0.510139,-0.182927,-0.121951,-1.03659,-39.0723,-0.215552,1.74836,-16.128,-4.39024,5.18293
257.222,91.1211,2.46892,0,9.88425,-0.213157,0.498164,-0.0304878,-0.304878,-1.03659,-39.4172,-0.320933,2.03577,-15.7927,-3.68902,5.73171
257.232,91.1282,2.46035,0,9.84353,-0.280217,0.512534,-0.152439,0.121951,-1.03659,-39.1777,-0.493374,1.52802,-15.7012,-3.87195,5.12195
257.242,91.136,2.48126,0,9.83874,-0.301772,0.522114,-0.304878,0.0304878,-1.21951,-39.3214,-0.301772,2.04535,-15.3659,-2.13415,6.61585
257.252,91.1388,2.48602,0,9.82916,-0.285007,0.57241,0,-0.0609756,-1.34146,-39.3598,-0.407153,1.7771,-15.3049,-3.32317,5.79268
257.262,91.1474,2.50652,0,9.81719,-0.308958,0.498164,-0.457317,0.121951,-1.25,-39.3693,-0.253872,2.05493,-15.3963,-3.17073,6.03659
257.272,91.1489,2.52157,0,9.84114,-0.258662,0.502954,-0.0609756,0.27439,-1.06707,-39.2065,-0.110171,1.96871,-15.0305,-2.40854,6.0061
257.282,91.1506,2.52576,0,9.86748,-0.273032,0.476609,0.0609756,0.0914634,-1.21951,-39.1011,-0.205972,1.78668,-14.8171,-2.28659,5.51829
257.292,91.1548,2.5346,0,9.87467,-0.282612,0.510139,-0.152439,0,-1.15854,-39.1681,-0.225132,1.87291,-14.3902,-2.2561,5.42683
257.302,91.1559,2.54344,0,9.8555,-0.253872,0.490979,0.0914634,-0.27439,-1.0061,-39.149,-0.138911,1.87291,-13.628,-3.84146,5.88415
257.312,91.1634,2.53655,0,9.86269,-0.308958,0.457449,-0.0609756,-0.396341,-1.25,-39.3119,-0.349673,1.61424,-15.4268,-3.65854,6.46341
257.322,91.1741,2.52215,0,9.81719,-0.304167,0.543669,-0.213415,-0.152439,-1.03659,-39.1969,-0.205972,1.48012,-14.7561,-2.07317,5.2439
257.332,91.1779,2.51941,0,9.82197,-0.292192,0.57241,-0.304878,0.0914634,-1.28049,-39.216,-0.359253,1.67172,-15.2134,-2.43902,6.34146
257.342,91.1811,2.53398,0,9.82677,-0.299377,0.498164,0.0304878,-0.243902,-1.40244,-39.2448,-0.158071,1.96871,-15.7622,-3.14024,5.51829
257.352,91.1851,2.51566,0,9.82677,-0.313748,0.493374,0.121951,0.0914634,-1.4939,-39.3023,-0.253872,1.41306,-15.7622,-2.43902,4.63415
257.362,91.1945,2.52152,0,9.8555,-0.332908,0.486189,-0.0304878,0.396341,-1.34146,-39.4556,-0.129331,1.825,-15.8537,-3.10976,5.45732
257.372,91.198,2.52173,0,9.84832,-0.285007,0.431104,0.182927,0.0304878,-1.15854,-39.216,-0.0239502,1.71962,-14.7256,-3.23171,5.73171
257.382,91.1949,2.51885,0,9.85311,-0.258662,0.510139,-0.27439,0.182927,-1.28049,-39.5035,-0.138911,1.6813,-15.3963,-2.40854,4.90854
257.392,91.1973,2.51836,0,9.87227,-0.273032,0.490979,0.0609756,0,-1.06707,-39.3406,-0.0431104,1.71004,-14.5427,-3.53659,3.81098
257.402,91.204,2.50788,0,9.89143,-0.294587,0.505349,-0.182927,0,-1.03659,-39.4268,-0.158071,1.5376,-14.4512,-4.11585,4.14634
257.412,91.204,2.51215,0,9.82197,-0.280217,0.584385,0,0,-1.34146,-39.4172,-0.244292,1.78668,-13.9634,-4.14634,4.7561
257.422,91.2094,2.5023,0,9.83635,-0.304167,0.57241,-0.0304878,0.152439,-1.25,-39.2065,-0.138911,1.5376,-14.2988,-3.53659,4.2378
257.432,91.2134,2.51192,0,9.83635,-0.296982,0.531694,-0.0304878,0.152439,-1.25,-39.2735,-0.435894,1.87291,-14.4207,-2.9878,4.45122
257.442,91.2141,2.51612,0,9.84832,-0.280217,0.519719,-0.121951,0.0609756,-1.25,-39.3119,-0.186812,1.78668,-14.6951,-3.20122,4.32927
257.452,91.2175,2.50682,0,9.81,-0.277822,0.529299,-0.213415,0.182927,-1.06707,-39.3119,-0.435894,1.55676,-15.9451,-2.7439,3.96341
257.462,91.2207,2.49199,0,9.80521,-0.292192,0.531694,0.152439,0.0609756,-1.25,-39.3023,-0.234712,1.45138,-14.3598,-3.5061,3.87195
257.472,91.2197,2.50215,0,9.87227,-0.277822,0.589175,0.182927,0.0609756,-1.31098,-39.1298,-0.177231,1.86333,-14.7561,-4.48171,4.63415
257.482,91.2234,2.49888,0,9.83635,-0.294587,0.524509,-0.0914634,-0.0609756,-1.21951,-39.3023,-0.368833,1.64298,-15.122,-5.2439,4.72561
257.492,91.2232,2.50196,0,9.81719,-0.289797,0.56762,-0.304878,-0.182927,-1.43293,-39.3598,-0.464634,1.75794,-15.9451,-3.90244,4.05488
257.502,91.2221,2.52073,0,9.86748,-0.287402,0.55804,0.182927,0.0304878,-1.43293,-39.2927,-0.397573,2.02619,-13.9939,-4.84756,5.30488
257.512,91.2219,2.51354,0,9.87227,-0.275427,0.502954,0.0914634,0.121951,-1.21951,-39.264,-0.311353,1.59508,-15.061,-2.56098,5.51829
257.522,91.2212,2.50695,0,9.82916,-0.287402,0.534089,0.0304878,-0.335366,-1.43293,-39.3693,-0.205972,1.60466,-16.0366,-2.65244,4.90854
257.532,91.2186,2.51629,0,9.84114,-0.256267,0.512534,-0.152439,-0.487805,-1.15854,-39.331,-0.215552,1.87291,-14.7561,-3.35366,5.54878
257.542,91.2111,2.51172,0,9.81719,-0.244292,0.538879,-0.213415,-0.335366,-1.40244,-39.3598,-0.253872,1.6334,-15.7012,-4.96951,5.73171
257.552,91.2061,2.50983,0,9.80521,-0.261057,0.500559,-0.396341,-0.335366,-1.46341,-39.4843,-0.282612,1.6813,-15.9756,-5.15244,4.63415
257.562,91.2089,2.50373,0,9.87227,-0.263452,0.481399,-0.213415,-0.426829,-0.884146,-39.6376,-0.340093,1.61424,-15.1524,-4.78659,4.05488
257.572,91.2094,2.49967,0,9.89383,-0.277822,0.510139,-0.182927,-0.152439,-1.21951,-39.6088,-0.263452,1.64298,-15.9451,-5.2439,4.45122
257.582,91.2164,2.48751,0,9.88185,-0.311353,0.495769,-0.0304878,0.182927,-1.18902,-39.6951,-0.455054,1.49928,-15.6707,-6.0061,4.5122
257.592,91.2158,2.47395,0,9.88904,-0.275427,0.505349,-0.152439,0.152439,-1.25,-39.5897,-0.340093,1.46096,-16.2805,-6.40244,4.39024
257.602,91.2173,2.46819,0,9.88185,-0.294587,0.452659,0.0304878,0,-1.34146,-39.4556,-0.244292,1.5855,-16.4634,-5.51829,5.4878
257.612,91.2271,2.46245,0,9.87227,-0.301772,0.471819,-0.0304878,-0.0609756,-0.914634,-39.2831,-0.397573,1.57592,-16.5854,-5.2439,5.42683
257.622,91.2249,2.45249,0,9.84353,-0.282612,0.502954,0.182927,-0.213415,-1.46341,-39.2735,-0.368833,1.49928,-16.128,-4.96951,5.85366
257.632,91.2209,2.43225,0,9.82437,-0.282612,0.55325,0.0914634,-0.0609756,-1.61585,-39.1586,-0.282612,1.31726,-16.5549,-2.9878,6.18902
257.642,91.227,2.42855,0,9.83874,-0.292192,0.531694,-0.152439,0.121951,-1.03659,-39.149,-0.330513,1.5855,-16.8293,-3.96341,5.79268
257.652,91.2327,2.42342,0,9.81,-0.316143,0.522114,-0.365854,0.243902,-1.34146,-39.3119,-0.282612,1.56634,-15.1829,-3.5061,4.93902
257.662,91.2352,2.43925,0,9.83635,-0.328118,0.579595,-0.335366,-0.0609756,-1.64634,-39.2735,-0.00479004,1.92081,-16.6463,-4.66463,4.69512
257.672,91.2411,2.43077,0,9.84114,-0.320933,0.505349,-0.426829,-0.0609756,-1.34146,-39.1107,-0.0718506,1.49928,-15.9146,-6.0061,4.54268
257.682,91.2407,2.42389,0,9.81479,-0.306563,0.467029,-0.304878,-0.0609756,-1.61585,-39.2256,-0.205972,1.52802,-16.4024,-5.33537,4.57317
257.692,91.2354,2.42579,0,9.83156,-0.273032,0.502954,-0.152439,0,-1.55488,-39.1011,-0.0718506,1.67172,-15.5183,-4.7561,5.03049
257.702,91.2344,2.4418,0,9.81719,-0.292192,0.531694,-0.243902,-0.0609756,-1.4939,-39.0244,-0.225132,1.91123,-15.3963,-5.30488,6.7378
257.712,91.2328,2.46634,0,9.83874,-0.289797,0.526904,-0.121951,0.0609756,-1.4939,-39.034,-0.263452,2.07409,-15.0305,-4.05488,7.13415
257.722,91.2298,2.46727,0,9.83874,-0.306563,0.510139,-0.121951,0.182927,-1.79878,-39.1203,-0.0910107,1.69088,-14.7561,-2.9878,5.57927
257.732,91.2272,2.49362,0,9.82437,-0.294587,0.58199,0.0914634,0.121951,-1.64634,-39.2256,-0.196392,2.13157,-14.4817,-4.5122,6.64634
257.742,91.2246,2.50168,0,9.84593,-0.270637,0.526904,0.0609756,-0.0609756,-1.34146,-39.4364,-0.244292,1.84417,-14.2073,-3.9939,5.03049
257.752,91.2191,2.51864,0,9.85072,-0.253872,0.514929,-0.152439,-0.426829,-1.34146,-39.4843,-0.215552,2.00703,-14.2378,-4.02439,5.18293
257.762,91.2134,2.52256,0,9.8555,-0.241897,0.541274,0.152439,-0.243902,-1.18902,-39.3693,-0.119751,1.78668,-15.0915,-3.87195,4.26829
257.772,91.1975,2.53636,0,9.88425,-0.198787,0.498164,0.213415,-0.457317,-1.46341,-39.743,-0.330513,1.97829,-15.5183,-4.35976,5.27439
257.782,91.1886,2.5439,0,9.86269,-0.229922,0.534089,0.152439,-0.152439,-1.34146,-39.4076,-0.0526904,1.86333,-15.6402,-3.93293,5.15244
257.792,91.1803,2.55348,0,9.87706,-0.215552,0.450264,0.0609756,-0.0304878,-1.06707,-39.4076,-0.359253,1.90165,-15.5488,-4.69512,5.4878
257.802,91.1815,2.5635,0,9.8603,-0.265847,0.502954,0.152439,-0.213415,-1.09756,-39.1681,-0.301772,1.90165,-16.189,-5.45732,5.79268
257.812,91.1801,2.55991,0,9.8579,-0.273032,0.546064,0.0304878,0.0304878,-1.37195,-39.3406,-0.263452,1.6813,-17.4085,-5.15244,5.7622
257.822,91.1798,2.55266,0,9.88425,-0.270637,0.548459,-0.0304878,0.335366,-1.25,-39.2352,-0.474214,1.61424,-16.4634,-4.20732,5.97561
257.832,91.1813,2.5508,0,9.88185,-0.275427,0.507744,0,0.152439,-1.18902,-39.2352,-0.311353,1.70046,-16.372,-4.87805,6.31098
257.842,91.1823,2.55567,0,9.8603,-0.256267,0.529299,-0.182927,0.365854,-0.97561,-39.3406,-0.359253,1.825,-14.939,-3.56707,4.87805
257.852,91.1856,2.55517,0,9.82677,-0.277822,0.490979,0.182927,0.213415,-1.12805,-39.2448,-0.483794,1.7292,-15.7622,-4.08537,5.06098
257.862,91.193,2.5506,0,9.81479,-0.299377,0.534089,0.152439,0.365854,-1.12805,-39.2065,-0.301772,1.66214,-15.9756,-2.43902,4.69512
257.872,91.2004,2.54333,0,9.81719,-0.287402,0.574805,-0.152439,0.182927,-0.97561,-39.2735,-0.311353,1.61424,-16.7988,-2.71341,5.57927
257.882,91.2081,2.56135,0,9.83156,-0.301772,0.524509,-0.243902,0.0914634,-1.09756,-39.3981,-0.186812,2.05493,-15.2134,-2.56098,5.51829
257.892,91.21,2.55121,0,9.87227,-0.270637,0.524509,0,0.0304878,-1.03659,-39.149,-0.320933,1.56634,-16.2805,-2.86585,5.51829
257.902,91.219,2.55973,0,9.84593,-0.311353,0.510139,0.0914634,0.426829,-1.09756,-39.3598,-0.205972,1.89207,-16.2805,-2.83537,5.64024
257.912,91.2235,2.53744,0,9.84114,-0.304167,0.505349,0.0609756,0.152439,-1.28049,-39.2256,-0.186812,1.35558,-15.2744,-3.56707,5.2439
257.922,91.2301,2.54131,0,9.83874,-0.311353,0.570015,-0.365854,-0.152439,-1.21951,-39.2065,-0.205972,1.79626,-16.0061,-2.40854,5.97561
257.932,91.2416,2.55376,0,9.81479,-0.337698,0.517324,-0.121951,0.182927,-1.21951,-39.331,-0.253872,1.94955,-15.0305,-3.65854,6.37195
257.942,91.2393,2.53954,0,9.8555,-0.287402,0.505349,-0.0609756,0.0304878,-1.4939,-39.1969,-0.196392,1.4897,-15.4878,-3.62805,6.37195
257.952,91.2408,2.53458,0,9.82197,-0.289797,0.505349,0.0609756,0.243902,-1.28049,-39.2448,-0.196392,1.64298,-16.4329,-3.47561,6.67683
257.962,91.2446,2.53294,0,9.78605,-0.308958,0.500559,0.0914634,0.426829,-1.37195,-39.3502,-0.110171,1.70046,-16.311,-3.78049,7.56098
257.972,91.2445,2.52026,0,9.83156,-0.280217,0.493374,0.0914634,0.121951,-1.25,-39.3406,-0.330513,1.50886,-15.9451,-3.2622,6.40244
257.982,91.2454,2.50001,0,9.82437,-0.280217,0.512534,-0.0609756,-0.0914634,-1.18902,-39.5609,-0.100591,1.37474,-15.6707,-3.78049,6.25
257.992,91.2416,2.51619,0,9.8555,-0.256267,0.56762,0.152439,-0.0609756,-1.18902,-39.4747,-0.129331,1.98787,-16.9207,-5.21341,6.55488
258.002,91.233,2.5166,0,9.8555,-0.239502,0.546064,0.0914634,-0.213415,-1.34146,-39.5993,-0.301772,1.7292,-16.7683,-5.30488,5.94512
258.012,91.2294,2.53033,0,9.89143,-0.246687,0.526904,0.213415,-0.0609756,-1.03659,-39.5801,-0.177231,1.95913,-16.7683,-5.94512,5.94512
258.022,91.2302,2.54365,0,9.88185,-0.275427,0.526904,0,0.121951,-1.12805,-39.5322,-0.186812,1.95913,-18.4146,-5.97561,6.58537
258.032,91.2318,2.56425,0,9.89862,-0.258662,0.514929,-0.0304878,0.335366,-0.823171,-39.4076,-0.177231,2.08367,-17.622,-7.53049,5.88415
258.042,91.2294,2.56549,0,9.88904,-0.261057,0.498164,0.182927,0.335366,-1.15854,-39.5897,-0.234712,1.76752,-15.5793,-7.92683,6.15854
258.052,91.2279,2.55729,0,9.89383,-0.263452,0.488584,0.182927,0.121951,-1.12805,-39.3598,-0.244292,1.59508,-18.9939,-7.62195,6.18902
258.062,91.2219,2.54133,0,9.87467,-0.234712,0.459844,0.426829,0.27439,-1.06707,-39.513,-0.110171,1.45138,-15.3049,-10.2439,5.39634
258.072,91.2239,2.51021,0,9.82437,-0.277822,0.550855,0.426829,0.27439,-1.12805,-39.5514,-0.483794,1.16398,-10.9146,-14.0854,6.34146
258.082,91.2241,2.5156,0,9.86509,-0.263452,0.467029,0.518293,0.213415,-1.03659,-39.4651,0.167651,1.7771,-14.8171,-13.7195,6.40244
258.092,91.2258,2.5337,0,9.89143,-0.244292,0.428708,0.823171,0.426829,-0.609756,-39.992,-0.100591,2.02619,-16.4939,-14.6341,5.82317
258.102,91.2307,2.54538,0,9.95131,-0.263452,0.431104,1.21951,0.27439,-0.640244,-40.3848,0.0622705,1.93997,-17.8049,-15.8537,5.60976
258.112,91.23,2.54688,0,9.95849,-0.232317,0.397573,1.70732,0.304878,-0.518293,-40.2411,-0.167651,1.76752,-17.5915,-13.7805,6.18902
258.122,91.2294,2.56275,0,9.96089,-0.220342,0.423918,1.70732,0.27439,-0.243902,-40.3273,-0.617915,2.02619,-15.4268,-14.4207,5.33537
258.132,91.2352,2.23982,0,9.92975,-0.244292,0.399968,2.19512,0.304878,-0.27439,-36.5911,-0.608335,-3.37698,-29.5122,64.5122,6.12805
258.142,91.2329,2.56903,0,9.92736,-0.213157,0.471819,2.37805,0.457317,-0.213415,-45.7113,-0.665815,8.78972,-17.8354,66.8902,5.7622
258.152,91.2479,2.39316,0,9.87706,-0.263452,0.459844,2.5,0.792683,-0.0914634,-37.8557,-1.4897,-1.08734,-21.1585,45.8537,5.33537
258.162,91.2676,2.39316,0,9.86509,-0.275427,0.490979,2.53049,1.0061,0.152439,-40.2028,-0.311353,1.86333,-18.8415,52.6524,5.30488
258.172,91.2917,2.37967,0,9.84593,-0.294587,0.526904,2.2561,1.28049,0.396341,-39.8004,-0.0239502,1.55676,-19.9695,37.8354,5.54878
258.182,91.3213,2.36082,0,9.81479,-0.318538,0.522114,2.37805,1.15854,0.487805,-40.1262,-0.387993,1.49928,-21.189,47.7439,4.84756
258.192,91.3469,2.04422,0,9.83395,-0.306563,0.550855,2.46951,1.09756,0.213415,-34.0811,-0.684976,-3.43446,-11.4939,-24.3293,4.14634
258.202,91.3752,2.08956,0,9.81719,-0.320933,0.61073,2.31707,0.762195,0.335366,-40.9884,0.550855,2.13157,-18.0488,-42.8963,4.72561
258.212,91.4242,2.06009,0,9.8124,-0.378413,0.65384,2.40854,0.27439,0,-39.2256,0.368833,0.790356,-9.63415,-38.5976,5.57927
258.222,91.4669,2.05614,0,9.76689,-0.366438,0.646655,2.43902,0.335366,-0.0304878,-39.6855,-0.0718506,1.2023,-7.5,-45.4573,5.27439
258.232,91.497,2.05898,0,9.80042,-0.354463,0.64426,1.7378,0.640244,-0.182927,-39.7909,-0.656235,1.31726,-17.2866,-46.8598,5.67073
258.242,91.5158,2.06781,0,9.8124,-0.332908,0.66342,1.76829,0.0304878,-0.304878,-39.9058,0.378413,1.4897,-19.5122,-29.0854,4.63415
258.252,91.5352,2.04611,0,9.80521,-0.361648,0.682581,1.52439,0,-0.579268,-38.9957,-0.119751,0.991538,-17.2561,-12.7744,4.66463
258.262,91.552,2.02656,0,9.79323,-0.364043,0.692161,1.25,-0.213415,-0.701219,-40.0974,0.387993,1.0586,-15.5183,-8.14024,5.39634
258.272,91.5624,2.03215,0,9.74533,-0.361648,0.720901,0.640244,0.0304878,-1.0061,-40.1932,-0.656235,1.51844,-8.5061,-0.823171,6.0061
258.282,91.5763,2.08436,0,9.77647,-0.395178,0.711321,0.27439,-0.152439,-1.12805,-40.7872,-0.426313,2.28485,-10.6402,-29.1463,6.64634
258.292,91.5774,2.03445,0,9.81,-0.368833,0.677791,0.213415,-0.426829,-1.55488,-38.2772,-1.50886,0.483794,0.670732,-20.1829,7.5
258.302,91.5723,2.10463,0,9.79803,-0.330513,0.711321,-0.304878,-0.243902,-1.55488,-40.5189,0.292192,2.58183,-8.84146,-32.4695,8.10976
258.312,91.5677,2.11631,0,9.80281,-0.347278,0.6251,-0.640244,-0.426829,-1.7378,-40.0304,-1.56634,1.62382,-10.7012,-15.4878,9.05488
258.322,91.567,2.08207,0,9.79084,-0.376018,0.661025,-0.609756,-0.121951,-1.79878,-38.6987,-0.493374,0.742456,-15.3659,-30.8232,10.122
258.332,91.5579,2.08511,0,9.79803,-0.352068,0.63947,-0.426829,-0.609756,-2.16463,-39.2065,-0.167651,1.43222,-14.8476,-13.5061,10.9451
258.342,91.5474,2.08209,0,9.78844,-0.332908,0.64426,-0.945122,-0.823171,-2.07317,-40.6147,-0.905317,1.28852,-3.96341,-38.7195,12.8049
258.353,91.5356,2.03486,0,9.83874,-0.359253,0.60594,-1.09756,-1.25,-2.5,-39.4364,-1.07776,0.455054,-7.68293,-46.1585,11.7988
258.362,91.5205,2.06583,0,9.82677,-0.337698,0.55804,-1.12805,-1.12805,-2.56098,-41.4865,-0.244292,1.73878,-12.6829,-84.2073,9.48171
258.372,91.5011,2.03725,0,9.85072,-0.316143,0.622705,-1.43293,-1.37195,-2.71341,-40.0304,-0.119751,0.617915,-17.7439,-92.8963,7.83537
258.382,91.4758,1.90076,0,9.83874,-0.318538,0.59157,-1.64634,-1.0061,-3.35366,-38.6317,0.387993,-1.03944,-14.3293,-26.6463,4.39024
258.392,91.4503,1.93342,0,9.82437,-0.308958,0.541274,-1.82927,-1.0061,-3.32317,-42.4829,-0.723296,1.87291,-5.94512,-40.6098,3.07927
258.402,91.4217,2.02776,0,9.87227,-0.299377,0.570015,-2.22561,-0.457317,-3.53659,-41.4961,0.359253,2.77343,-5.39634,-99.4512,1.98171
258.412,91.3946,2.07784,0,9.90101,-0.289797,0.495769,-2.43902,-0.396341,-3.32317,-40.586,0.0622705,1.97829,-8.71951,-101.372,-0.304878
258.422,91.3639,2.06167,0,9.9058,-0.263452,0.476609,-2.28659,0.0304878,-3.41463,-39.4747,0.512534,1.13524,-9.14634,-4.5122,-2.37805
258.432,91.3428,2.12284,0,9.91538,-0.318538,0.490979,-2.31707,0.121951,-3.20122,-41.1704,0.570015,2.52435,-8.93293,-19.7256,-2.10366
258.442,91.3243,2.19398,0,9.89143,-0.359253,0.524509,-2.07317,0.792683,-3.47561,-41.0458,0.502954,2.55309,-11.311,-72.7134,-2.53049
258.452,91.3049,2.22317,0,9.86269,-0.328118,0.431104,-1.79878,1.18902,-3.2622,-40.2315,0.215552,1.67172,-7.2561,-111.463,-1.76829
258.462,91.2979,2.24348,0,9.87946,-0.411943,0.440684,-1.61585,0.701219,-3.10976,-39.3214,0.100591,1.51844,-12.9573,-106.006,-2.95732
258.472,91.285,2.28504,0,9.80521,-0.414338,0.445474,-1.0061,0.609756,-3.71951,-38.7754,-0.397573,1.97829,-11.7073,-75.2439,-2.7439
258.482,91.2714,2.36751,0,9.78844,-0.414338,0.481399,-0.884146,0.701219,-3.81098,-39.4364,-0.512534,2.77343,-5.4878,-69.6646,-0.884146
258.492,91.2525,2.45369,0,9.80281,-0.399968,0.440684,-1.12805,0.701219,-4.17683,-39.81,-0.205972,2.87881,-4.29878,-82.3781,-0.518293
258.502,91.2343,2.53095,0,9.81,-0.411943,0.471819,-0.579268,0.609756,-4.26829,-39.6663,-0.225132,2.71595,-2.86585,-98.5061,0.518293
258.512,91.2108,2.61563,0,9.78844,-0.378413,0.502954,-0.152439,0.914634,-4.45122,-39.5418,-0.129331,2.89797,-2.0122,-96.5244,0.670732
258.522,91.1845,2.73811,0,9.81479,-0.371228,0.524509,-0.0914634,0.853659,-4.66463,-39.4939,0.0814307,3.6069,-2.13415,-99.0549,0.396341
258.532,91.1624,2.862,0,9.8124,-0.385598,0.56762,0.152439,1.06707,-4.48171,-39.5322,0.0143701,3.68354,-1.82927,-109.787,-0.792683
258.542,91.1411,3.01809,0,9.77647,-0.431104,0.56283,0,0.670732,-5,-39.3885,0.0910107,4.29667,-2.83537,-116.799,-2.7439
258.552,91.1125,3.17959,0,9.79563,-0.416733,0.524509,0.457317,0.518293,-5.57927,-39.0244,-0.0718506,4.48827,-0.0609756,-108.201,-3.68902
258.562,91.0805,3.32767,0,9.81479,-0.443079,0.519719,0.579268,0.213415,-6.28049,-39.0532,0.158071,4.39247,-1.79878,-101.372,-6.12805
258.572,91.037,3.43592,0,9.92017,-0.371228,0.490979,0.670732,0.182927,-6.61585,-38.8712,0.129331,3.76976,-5.79268,-105.488,-5.4878
258.582,90.979,3.57407,0,9.97286,-0.287402,0.536484,0.945122,-0.243902,-7.16463,-38.8616,0.0910107,4.35415,-5.64024,-107.378,-5.57927
258.592,90.9139,3.75701,0,10.0136,-0.222737,0.490979,1.15854,0.0914634,-7.2561,-38.8233,-0.263452,5.20677,-9.96951,-112.195,-3.59756
258.602,90.8375,3.93291,0,10.0423,-0.0934058,0.538879,1.0061,0.670732,-7.0122,-39.1298,-0.282612,5.24509,-11.0366,-113.994,-3.81098
258.612,90.7659,4.14235,0,9.98244,-0.0431104,0.55325,0.853659,1.37195,-6.09756,-39.149,-0.541274,5.95402,-11.7988,-116.037,-3.44512
258.622,90.6934,4.36595,0,9.88425,-0.00479004,0.593965,0.609756,2.2561,-5.88415,-39.4843,-0.550855,6.40428,-13.75,-116.311,-2.28659
258.632,90.6344,4.58055,0,9.7621,-0.0766406,0.608335,0.304878,2.56098,-5.51829,-39.5322,-0.637075,6.38512,-17.8963,-123.293,-2.10366
258.642,90.5777,4.78011,0,9.73336,-0.105381,0.60115,-0.0304878,2.68293,-5.7622,-39.4651,-0.493374,6.24142,-16.4634,-127.896,-2.34756
258.652,90.5209,4.95859,0,9.75252,-0.0934058,0.524509,0.27439,2.34756,-5.73171,-39.2352,-0.359253,5.95402,-16.189,-132.988,-1.89024
258.662,90.4684,5.15578,0,9.86748,-0.110171,0.538879,0.396341,2.0122,-5.60976,-39.3023,-0.531694,6.38512,-14.6341,-143.506,-1.92073
258.672,90.4157,5.36941,0,9.89622,-0.102986,0.514929,0.0304878,1.4939,-5.64024,-39.0436,-0.474214,6.77791,-16.4329,-141.86,-2.16463
258.682,90.3624,5.60745,0,9.92017,-0.0766406,0.531694,0.823171,1.28049,-5.4878,-38.8712,-0.474214,7.32397,-13.8415,-143.476,-3.20122
258.692,90.3108,5.84284,0,9.9058,-0.0550855,0.526904,0.97561,1.40244,-5.18293,-38.7179,-0.349673,7.40061,-12.378,-147.591,-2.89634
258.702,90.2643,6.10727,0,9.83635,-0.0718506,0.471819,1.03659,1.55488,-4.96951,-38.4209,-0.522114,8.00416,-13.5366,-152.012,-3.32317
258.712,90.2214,6.3634,0,9.81958,-0.0742456,0.550855,1.18902,2.0122,-4.72561,-38.1431,-0.541274,7.98499,-10.9451,-151.829,-1.95122
258.722,90.1811,6.63325,0,9.81479,-0.0934058,0.529299,1.25,2.13415,-4.78659,-37.9323,-0.387993,8.34904,-9.54268,-154.512,-1.06707
258.732,90.1456,6.90762,0,9.81,-0.124541,0.447869,1.21951,1.92073,-4.7561,-37.7886,-0.340093,8.59812,-14.878,-150.213,-0.335366
258.742,90.1061,7.16314,0,9.86988,-0.131726,0.428708,1.55488,2.07317,-5.30488,-37.8269,-0.579595,8.47358,-14.5122,-148.232,-0.853659
258.752,90.0602,7.41609,0,9.87467,-0.102986,0.464634,1.92073,1.98171,-5.70122,-37.9515,-0.656235,8.62686,-10.3049,-150.396,-1.34146
258.762,90.0119,7.6675,0,9.96568,-0.0814307,0.483794,1.79878,1.85976,-5.7622,-38.0281,-0.761616,8.78014,-12.7439,-154.329,-3.29268
258.772,89.9652,7.96511,0,10.016,-0.0814307,0.486189,2.0122,1.76829,-5.70122,-38.1335,-0.646655,9.79563,-14.6951,-156.89,-4.54268
258.782,89.9144,8.2533,0,10.0495,-0.0359253,0.531694,2.31707,2.7439,-5.67073,-37.8844,-0.684976,9.76689,-12.1951,-158.841,-4.72561
258.792,89.8724,8.5392,0,10.0256,-0.0718506,0.555645,2.5,3.07927,-5.30488,-37.9515,-0.876577,9.94891,-11.6768,-158.293,-5.39634
258.802,89.8308,8.79733,0,9.94652,-0.100591,0.56762,2.62195,3.93293,-5.70122,-37.53,-0.550855,9.55613,-12.561,-156.006,-3.62805
258.812,89.79,9.08582,0,9.92496,-0.136516,0.531694,2.40854,4.26829,-6.12805,-37.5108,-0.637075,10.2746,-11.6159,-154.39,-2.89634
258.822,89.7442,9.38613,0,9.83395,-0.122146,0.598755,2.65244,5.15244,-6.55488,-37.1659,-0.282612,10.5908,-10.7012,-154.36,-0.884146
258.832,89.6915,9.6938,0,9.78366,-0.0646655,0.598755,2.65244,5.45732,-6.67683,-37.233,-0.531694,10.9548,-13.0183,-153.628,0.487805
258.842,89.6364,9.97848,0,9.86509,-0.0455054,0.61552,2.59146,5.27439,-6.79878,-37.3767,-0.771196,10.8111,-14.2683,-151.585,0.426829
258.852,89.5823,10.2439,0,9.87946,-0.0502954,0.62989,2.89634,4.84756,-6.85976,-37.3958,-0.866997,10.677,-15.5183,-151.037,-1.64634
258.862,89.5242,10.4835,0,9.83635,-0.0143701,0.684976,3.17073,4.11585,-6.95122,-37.4054,-0.675395,10.4088,-15.8841,-150.305,-1.67683
258.872,89.465,10.7494,0,9.75731,-0.0431104,0.783171,2.92683,3.38415,-7.53049,-37.3575,-1.0107,11.0315,-14.0549,-150.915,-2.80488
258.882,89.4086,11.0557,0,9.67348,-0.0814307,0.728086,2.77439,2.92683,-7.83537,-37.6737,-1.0107,12.0374,-11.9512,-154.268,-2.83537
258.892,89.3415,11.3783,0,9.75012,-0.0502954,0.720901,3.10976,3.2622,-8.65854,-37.6641,-0.962798,12.5547,-11.128,-155.091,-3.56707
258.902,89.272,11.6793,0,9.83874,-0.0263452,0.689766,2.9878,3.44512,-8.75,-37.1851,-0.809517,12.2386,-10.5793,-153.872,-3.32317
258.912,89.2005,11.9786,0,9.97047,0.0359253,0.661025,3.23171,3.47561,-8.35366,-36.9743,-0.895737,12.3631,-8.5061,-151.22,-3.41463
258.922,89.1259,12.2983,0,9.9537,0.0886157,0.716111,3.47561,3.07927,-8.20122,-36.3133,-0.934058,12.7271,-6.98171,-149.207,-3.65854
258.932,89.0506,12.6255,0,9.94652,0.138911,0.732876,3.14024,2.80488,-7.83537,-35.9397,-0.847837,12.9571,-5.88415,-148.506,-3.23171
258.942,88.982,12.9487,0,9.81719,0.134121,0.728086,2.7439,2.2561,-7.34756,-35.7385,-1.03944,13.0337,-5.85366,-151.524,-3.10976
258.952,88.9181,13.2657,0,9.72857,0.0862207,0.819097,2.37805,2.2561,-7.56098,-35.8343,-1.30768,13.187,-6.15854,-151.616,-3.53659
258.962,88.8537,13.6059,0,9.69743,0.0934058,0.795146,2.34756,1.43293,-7.65244,-35.8247,-1.17356,13.8193,-5.57927,-153.994,-3.14024
258.972,88.7861,13.9512,0,9.77407,0.155676,0.771196,2.37805,2.04268,-7.37805,-35.4798,-0.895737,14.0204,-7.56098,-154.024,-3.29268
258.982,88.7146,14.2754,0,9.82677,0.232317,0.730481,2.46951,2.83537,-7.0122,-35.3457,-1.16398,13.8288,-6.7378,-155.762,-3.17073
258.992,88.6466,14.6319,0,9.82437,0.241897,0.840652,2.07317,2.65244,-6.67683,-35.4894,-1.0586,14.7006,-6.67683,-157.073,-2.59146
259.002,88.574,15.0242,0,9.75491,0.215552,0.914897,0.884146,1.79878,-7.59146,-35.3553,-1.16398,15.5628,-5.94512,-157.53,-2.95732
259.012,88.513,15.4098,0,9.62558,0.131726,0.965193,0.640244,0.731707,-7.53049,-35.5277,-0.866997,15.8023,-6.64634,-158.323,-3.87195
259.022,88.4475,15.7483,0,9.58487,0.167651,0.893342,0.548781,0.640244,-7.68293,-35.6139,-0.694556,15.2467,-7.92683,-157.652,-4.87805
259.032,88.3768,16.0717,0,9.69264,0.201182,0.907712,0.579268,0.853659,-7.95732,-35.1445,-0.550855,15.0359,-6.58537,-152.317,-5.7622
259.042,88.2916,16.3632,0,9.83156,0.344883,0.883762,0.304878,0.792683,-7.89634,-34.9338,-0.340093,14.6048,-6.95122,-150.061,-7.07317
259.052,88.2087,16.6713,0,9.90101,0.330513,0.881367,-0.396341,0.701219,-8.04878,-35.2307,-0.292192,15.2275,-12.622,-155.671,-8.04878
259.062,88.1179,17.0487,0,9.73815,0.301772,0.917292,-0.640244,0.152439,-9.29878,-35.9013,-0.598755,17.0286,-13.4146,-166.86,-8.96341
259.072,88.0262,17.42,0,9.81479,0.196392,0.898132,-1.34146,-0.426829,-10.8537,-36.3612,-0.761616,17.3831,-16.8598,-176.494,-10.7317
259.082,87.9393,17.7522,0,9.7142,0.0886157,0.878972,-0.457317,-0.335366,-11.8293,-36.3037,-0.886157,16.8753,-17.2256,-177.073,-10.9146
259.092,87.8324,18.1049,0,9.89622,0.203577,0.783171,-0.396341,0.0914634,-12.7134,-35.5277,-0.886157,17.1723,-17.6524,-174.329,-10.0915
259.102,87.7215,18.4838,0,9.80521,0.217947,0.890947,-0.914634,-0.853659,-13.1402,-34.6559,-0.752036,17.5172,-17.9573,-173.628,-7.59146
259.112,87.6139,18.8542,0,9.93933,0.296982,0.855022,-0.365854,-2.22561,-12.1341,-33.8512,-0.550855,17.2394,-16.4939,-171.25,-4.20732
259.122,87.5108,19.2587,0,9.83156,0.296982,0.797541,-0.457317,-1.58537,-11.8598,-33.2764,-0.732876,17.8716,-17.5,-167.927,-2.0122
259.132,87.4066,19.6428,0,9.78126,0.337698,0.718506,-0.0914634,-0.487805,-11.6768,-32.7591,-1.06818,17.5268,-15.6098,-163.72,-0.0304878
259.142,87.3071,20.0131,0,9.73815,0.387993,0.680186,0.213415,0.0914634,-10.7927,-32.1843,-0.541274,17.2681,-14.6646,-157.439,2.37805
259.152,87.2073,20.3995,0,9.74533,0.476609,0.675395,0,-0.97561,-9.96951,-32.1268,-0.895737,17.8237,-12.3476,-151.22,2.22561
259.162,87.1115,20.7705,0,9.80042,0.579595,0.656235,0.945122,-1.09756,-8.56707,-32.0885,-0.828677,17.8142,-11.25,-147.5,2.77439
259.172,87.0272,21.1613,0,9.84353,0.59157,0.723296,0.518293,-0.853659,-7.46951,-32.3567,-1.0107,18.6189,-10.7927,-146.311,0.945122
259.182,86.9442,21.5666,0,9.78126,0.62031,0.807122,0.304878,-0.792683,-7.13415,-32.4429,-1.46096,19.2416,-10.122,-146.28,-1.58537
259.192,86.8779,21.9674,0,9.82197,0.529299,0.749641,0.579268,-0.731707,-6.70732,-32.692,-1.346,19.6248,-7.80488,-143.537,-2.62195
259.202,86.8227,22.3924,0,9.84593,0.538879,0.708926,1.03659,0.426829,-5.60976,-32.2801,-1.32684,20.1804,-8.96341,-138.872,-4.93902
259.212,86.7758,22.7973,0,9.99681,0.61073,0.65863,0.945122,0.548781,-4.11585,-31.9639,-1.28852,19.9505,-7.34756,-130.945,-6.18902
259.222,86.7406,23.1838,0,10.0543,0.59157,0.651445,0.97561,1.18902,-3.29268,-31.6861,-1.22146,19.7493,-6.18902,-125.701,-5.57927
259.232,86.7221,23.5851,0,10.0351,0.483794,0.66821,0.579268,1.06707,-2.9878,-32.0118,-0.934058,20.5636,-4.45122,-121.433,-5.7622
259.242,86.6911,24.0005,0,9.82437,0.500559,0.718506,0.548781,1.55488,-3.93293,-31.7627,-1.33642,21.0139,-3.71951,-118.506,-5.42683
259.252,86.6587,24.3712,0,9.75012,0.462239,0.764011,0.579268,2.0122,-4.54268,-31.7627,-1.16398,20.4678,-2.40854,-113.902,-5.70122
259.262,86.6182,24.7534,0,9.82677,0.519719,0.759221,0.640244,2.46951,-4.78659,-31.2837,-1.57592,20.6882,-1.95122,-110.64,-1.85976
259.272,86.5456,25.134,0,9.61361,0.66821,0.809517,0.457317,1.64634,-6.18902,-31.4753,-1.42264,21.0905,-1.18902,-108.811,-1.4939
259.282,86.4974,25.5111,0,10.0088,0.61073,0.687371,0.731707,1.89024,-4.84756,-31.5999,-1.62382,21.4067,0.853659,-109.421,0.579268
259.292,86.444,25.8983,0,9.93215,0.66342,0.759221,1.0061,1.61585,-4.78659,-31.5616,-1.4418,21.8953,3.2622,-109.055,2.0122
259.302,86.4061,26.2755,0,9.82197,0.495769,0.792751,0.670732,1.31098,-5.2439,-31.437,-1.41306,21.924,4.05488,-107.287,2.16463
259.312,86.365,26.6383,0,9.73575,0.481399,0.797541,0.518293,1.37195,-5.7622,-31.073,-1.14482,21.7037,2.31707,-101.829,2.5
259.322,86.3187,27.0025,0,9.69983,0.546064,0.716111,0.97561,1.82927,-5.57927,-30.594,-1.0107,21.7037,1.46341,-97.7744,1.06707
259.332,86.2802,27.3812,0,9.76449,0.531694,0.790356,0.670732,2.22561,-5.09146,-30.5173,-0.799937,22.2497,0.0304878,-94.8171,0.97561
259.342,86.2492,27.7455,0,9.85072,0.500559,0.761616,0.396341,3.10976,-4.84756,-30.3545,-0.972378,22.1539,-0.548781,-92.2866,-0.182927
259.352,86.2056,28.1282,0,9.75252,0.560435,0.665815,1.03659,1.85976,-5.39634,-30.2587,-0.292192,22.7766,-3.01829,-89.1463,0.487805
259.362,86.1631,28.4682,0,9.91059,0.627495,0.735271,0.823171,1.4939,-4.69512,-30.3162,-0.340093,22.2497,-3.84146,-88.2927,-0.914634
259.372,86.1324,28.7913,0,9.86748,0.637075,0.790356,1.18902,1.67683,-3.44512,-30.4694,-0.522114,22.3072,-3.68902,-84.5122,-1.06707
259.382,86.0997,29.1525,0,9.73336,0.689766,0.821492,1.15854,1.43293,-2.92683,-30.1054,-0.301772,23.1024,-7.07317,-83.0793,-1.25
259.392,86.069,29.4621,0,9.74054,0.632285,0.831072,0.884146,0.609756,-3.53659,-30.0767,-0.857417,22.3168,-6.58537,-80,-1.98171
259.402,86.0528,29.7824,0,9.69025,0.502954,0.819097,0.97561,1.06707,-3.71951,-29.8659,-0.771196,22.6617,-8.17073,-72.7439,-1.03659
259.412,86.0435,30.0869,0,9.62798,0.407153,0.819097,0.579268,1.0061,-4.17683,-29.9904,-1.08734,22.7096,-9.7561,-68.3232,0.609756
259.422,86.0312,30.399,0,9.64235,0.416733,0.785566,0.640244,0.121951,-4.35976,-29.8946,-1.06818,23.064,-8.41463,-63.9634,0.0304878
259.432,86.016,30.6923,0,9.74533,0.469424,0.696951,1.40244,0.213415,-4.11585,-29.9425,-1.07776,22.9874,-8.9939,-59.1159,0.396341
259.442,86.0029,30.994,0,9.91299,0.534089,0.799937,1.34146,-0.487805,-3.29268,-29.8084,-0.886157,23.3131,-10.2439,-57.0427,0.579268
259.452,85.977,31.2797,0,9.87467,0.689766,0.852627,1.4939,-1.79878,-2.65244,-29.8467,-0.665815,23.2652,-11.5549,-54.6646,1.03659
259.462,85.946,31.5541,0,9.91538,0.692161,0.785566,1.70732,-1.98171,-3.23171,-29.7893,-0.742456,23.2461,-11.4634,-49.0244,1.18902
259.472,85.9263,31.8143,0,9.92257,0.63468,0.809517,1.4939,-1.4939,-2.89634,-29.7318,-0.732876,23.1503,-12.0122,-44.2073,2.28659
259.482,85.9101,32.0675,0,9.87467,0.61552,0.807122,1.21951,-0.640244,-2.80488,-29.6168,-0.828677,23.1503,-12.3171,-39.3293,2.62195
259.492,85.8909,32.3296,0,9.8555,0.622705,0.728086,1.34146,0.213415,-3.01829,-29.7414,-0.991538,23.658,-13.3841,-37.5305,3.78049
259.502,85.8722,32.5637,0,9.87467,0.646655,0.713716,1.85976,0.640244,-2.7439,-30.0479,-1.25978,23.5239,-11.9817,-37.2866,4.57317
259.512,85.8478,32.7864,0,9.91059,0.744851,0.608335,1.95122,0.853659,-2.07317,-30.1725,-1.4418,23.5814,-11.7988,-36.0976,3.17073
259.522,85.8227,32.9814,0,9.92496,0.773591,0.656235,1.76829,0.701219,-1.76829,-30.3066,-1.5376,23.2844,-9.5122,-35.4573,3.10976
259.532,85.8091,33.1663,0,9.91059,0.716111,0.608335,1.25,0.579268,-1.52439,-30.4982,-1.48012,23.3706,-10.3963,-37.8659,2.95732
259.542,85.8077,33.3507,0,9.84114,0.64905,0.64905,1.37195,0.762195,-1.40244,-30.2874,-1.45138,23.3514,-11.4329,-38.9024,2.10366
259.553,85.8018,33.5411,0,9.78126,0.646655,0.584385,1.7378,1.40244,-1.7378,-30.3641,-1.36516,23.6963,-9.48171,-38.1707,0.0304878
259.562,85.7971,33.7154,0,9.83635,0.62989,0.6251,1.67683,1.79878,-1.89024,-30.3066,-1.17356,23.476,-10.7012,-36.7073,-0.731707
259.572,85.7974,33.8879,0,10.0232,0.637075,0.57241,1.37195,3.07927,-1.52439,-30.1725,-1.19272,23.4856,-10.5793,-35.2134,-1.67683
259.582,85.7946,34.0388,0,10.0974,0.665815,0.701741,0.457317,4.48171,-1.46341,-30.2778,-1.09692,23.2652,-10.7012,-32.1341,-1.25
259.592,85.7945,34.2118,0,10.0327,0.64905,0.65863,-0.335366,5.64024,-1.43293,-30.0096,-1.0586,23.658,-9.57317,-31.7378,-2.46951
259.602,85.796,34.352,0,9.93215,0.589175,0.684976,0.152439,6.7378,-1.92073,-30.0862,-1.17356,23.179,-8.62805,-28.689,-1.55488
259.612,85.7994,34.5246,0,9.80521,0.598755,0.713716,1.09756,7.10366,-1.64634,-30.0192,-1.0107,23.9358,-7.16463,-28.9329,-1.25
259.622,85.7761,34.7058,0,9.89383,0.744851,0.768801,-0.0304878,6.43293,-2.13415,-29.818,-1.14482,24.1083,-6.52439,-29.4207,0
259.632,85.743,34.8936,0,10.0758,0.790356,0.59636,-2.22561,5.82317,-2.80488,-29.6839,-0.962798,24.2999,-6.79878,-28.6585,0.884146
259.642,85.7083,35.0538,0,10.1501,0.775986,0.522114,-3.9939,7.04268,-3.29268,-29.5977,-1.16398,23.8113,-6.52439,-24.8476,0.579268
259.652,85.6728,35.2173,0,10.107,0.713716,0.754431,-4.84756,8.23171,-4.14634,-29.7414,-1.14482,24.1466,-5.85366,-22.4695,-0.518293
259.662,85.6447,35.3676,0,9.87946,0.608335,1.0107,-5.27439,7.65244,-4.54268,-29.8563,-1.22146,24.1083,-8.10976,-18.5366,-2.34756
259.672,85.6343,35.4855,0,9.616,0.435894,0.974773,-3.17073,9.26829,-4.72561,-30.3162,-1.66214,23.9071,-9.72561,-17.0732,-2.46951
259.682,85.631,35.5921,0,9.53697,0.337698,0.917292,0.548781,11.2805,-5.18293,-30.5844,-1.4897,23.9741,-9.35976,-17.7439,-2.37805
259.692,85.6066,35.6884,0,9.52499,0.502954,0.955613,3.2622,12.622,-5.27439,-30.8526,-1.60466,24.0316,-7.46951,-21.4329,0.0304878
259.702,85.5527,35.7699,0,9.64235,0.759221,1.18314,1.58537,11.5549,-5.27439,-31.3221,-1.51844,24.137,-6.98171,-26.311,2.86585
259.712,85.499,35.838,0,9.73815,0.756826,1.14961,-2.19512,8.81098,-5.4878,-30.9963,-1.2502,23.658,-7.40854,-27.6524,4.93902
259.722,85.4653,35.9051,0,9.64953,0.512534,1.06818,-2.19512,6.0061,-6.43293,-30.776,-0.828677,23.5239,-5.12195,-27.9878,6.31098
259.732,85.4308,35.9733,0,9.55852,0.467029,1.08973,-0.0914634,2.56098,-7.07317,-30.6227,-0.522114,23.4951,-5.79268,-26.5854,6.21951
259.742,85.3917,36.0474,0,9.51781,0.490979,1.03704,1.61585,0.548781,-7.28659,-30.7089,-0.598755,23.7442,-6.79878,-26.7683,5.7622
259.752,85.3404,36.1005,0,9.51541,0.63468,0.984353,1.76829,1.4939,-6.85976,-30.7473,-0.598755,23.3802,-7.34756,-28.0488,3.65854
259.762,85.3007,36.152,0,9.66151,0.64905,1.07297,1.43293,3.68902,-5.73171,-30.7281,-0.570015,23.3706,-7.56098,-29.5732,1.0061
259.772,85.2543,36.2342,0,9.78126,0.723296,1.18314,1.28049,3.29268,-5.70122,-30.8143,-0.991538,24.1274,-9.05488,-33.7195,-1.15854
259.782,85.2109,36.2623,0,10.0064,0.711321,1.35079,1.31098,3.93293,-5.82317,-30.9005,-1.2502,23.0832,-10.0305,-37.2561,-4.5122
259.792,85.1659,36.3059,0,9.99921,0.742456,1.42025,0.609756,2.92683,-5.70122,-30.8239,-0.924478,23.3706,-9.29878,-39.0549,-4.26829
259.802,85.1314,36.3784,0,9.91299,0.65863,1.01788,0.0914634,4.42073,-5.64024,-30.7089,-0.934058,23.9167,-8.29268,-45.1829,-4.29878
259.812,85.0944,36.4336,0,9.8124,0.64905,0.991538,-0.213415,6.09756,-6.0061,-30.9005,-1.00112,23.7346,-6.21951,-49.4207,-2.92683
259.822,85.0478,36.5015,0,9.78366,0.706531,1.00591,-0.121951,5.15244,-6.34146,-30.6323,-0.905317,23.84,-4.72561,-51.6463,-1.58537
259.832,85.0022,36.5517,0,9.69743,0.696951,1.04662,-0.121951,3.65854,-6.37195,-30.4215,-0.914897,23.3514,-2.10366,-52.378,-0.426829
259.842,84.968,36.611,0,9.75012,0.62989,0.962798,0.0609756,3.75,-6.15854,-30.2874,-0.637075,23.4856,-2.19512,-52.2866,-2.10366
259.852,84.9366,36.6767,0,9.71659,0.593965,0.934058,1.12805,2.5,-6.34146,-30.3641,-0.713716,23.7155,-1.52439,-56.4329,-2.0122
259.862,84.914,36.7229,0,9.75252,0.55325,1.13284,2.34756,0.182927,-6.03659,-30.9772,-0.847837,23.8113,-1.67683,-59.6037,-3.20122
259.872,84.8915,36.7861,0,9.73336,0.59636,1.17835,3.2622,-0.579268,-5.54878,-31.255,-0.723296,24.4148,-4.29878,-65.3354,-2.92683
259.882,84.8596,36.8502,0,9.69264,0.627495,1.12566,2.37805,0.548781,-6.12805,-31.4083,-0.742456,24.5873,-6.34146,-70.8232,-4.20732
259.892,84.8308,36.9227,0,9.91538,0.613125,1.09931,1.52439,0.243902,-6.21951,-31.0921,-0.646655,24.5681,-6.46341,-73.9329,-3.84146
259.902,84.8028,36.9936,0,10.0735,0.589175,0.852627,1.03659,-0.792683,-6.58537,-30.7089,-0.809517,24.2903,-7.92683,-74.5732,-2.83537
259.912,84.771,37.0754,0,10.0902,0.593965,0.883762,1.46341,-2.43902,-6.98171,-30.412,-0.838257,24.3478,-9.05488,-76.4634,-3.56707
259.922,84.7406,37.1609,0,10.107,0.60115,1.04662,1.43293,-3.35366,-6.82927,-30.0575,-0.828677,24.2136,-10.6402,-76.7073,-4.35976
259.932,84.69,37.2838,0,9.89862,0.730481,1.13045,-0.426829,-2.59146,-7.28659,-29.9904,-0.723296,25.0567,-8.75,-78.1707,-4.20732
259.942,84.6379,37.4175,0,9.9537,0.704136,0.838257,-1.61585,2.2561,-7.89634,-29.6935,-0.483794,25.1525,-5.15244,-79.5427,-3.01829
259.952,84.5757,37.5553,0,9.97286,0.795146,0.852627,-0.762195,5.06098,-7.9878,-29.521,-0.177231,25.2196,-6.43293,-78.9634,-3.68902
259.962,84.5551,37.6982,0,10.2914,0.687371,1.04902,-1.92073,5.91463,-5.39634,-29.2049,-0.282612,25.1908,-5.33537,-77.3476,-3.38415
259.972,84.4947,37.869,0,9.78605,0.804727,0.917292,0.823171,3.29268,-7.68293,-28.9366,-0.349673,25.7177,-9.29878,-77.439,-4.05488
259.982,84.4546,38.0434,0,9.77886,0.694556,1.05141,1.85976,1.34146,-7.04268,-28.5343,-0.617915,25.5932,-10.7317,-77.1646,-6.03659
259.992,84.4125,38.2364,0,9.46991,0.65863,1.14003,2.68293,-0.731707,-7.5,-28.4576,-0.646655,26.1105,-13.1402,-76.9207,-7.5
260.002,84.3423,38.4446,0,9.56092,0.862207,1.12566,3.10976,-1.58537,-8.04878,-28.1223,-0.790356,26.3308,-16.5244,-76.3719,-8.59756
260.012,84.3164,38.6397,0,10.0232,0.682581,0.936453,2.92683,-0.823171,-6.25,-27.8732,-1.07776,25.986,-17.9878,-76.2195,-7.34756
260.022,84.2474,38.8182,0,9.96807,1.01788,0.929268,1.61585,-2.04268,-6.7378,-27.5092,-1.18314,25.4495,-18.872,-75.8232,-6.70732
260.032,84.1646,39.0167,0,9.65193,1.13045,1.34361,3.59756,-3.75,-6.55488,-27.011,-1.37474,25.6028,-18.1402,-73.8719,-5.94512
260.042,84.0982,39.196,0,9.64235,1.00591,1.35798,4.08537,-2.56098,-6.52439,-27.0781,-1.31726,25.4112,-18.2012,-73.1707,-5.06098
260.052,84.0124,39.4143,0,9.50104,1.12566,1.42743,4.17683,0.335366,-7.0122,-26.4841,-1.41306,25.8806,-17.439,-74.4512,-4.78659
260.062,83.9349,39.6556,0,9.54655,1.09213,1.36756,1.89024,4.29878,-6.79878,-25.9955,-1.64298,26.1201,-11.4939,-74.8476,-1.46341
260.072,83.8942,39.9203,0,9.8603,0.953218,1.27655,-0.152439,7.80488,-5.27439,-25.9285,-1.57592,26.8194,-12.2561,-75.2439,0.0304878
260.082,83.7916,40.1505,0,9.69504,1.35079,1.19751,0.731707,3.35366,-6.7378,-25.8806,-1.47054,26.2255,-8.87195,-71.7378,2.0122
260.092,83.7334,40.3755,0,9.93454,1.20948,1.2526,1.95122,1.85976,-4.42073,-25.7465,-1.42264,26.1967,-9.63415,-67.7744,1.85976
260.102,83.6496,40.5931,0,9.70462,1.41785,1.45138,1.85976,0.0304878,-4.26829,-25.6794,-1.2981,26.1871,-8.53659,-62.378,1.67683
260.112,83.5926,40.8363,0,9.66151,1.26697,1.52563,1.4939,0.914634,-3.38415,-25.6411,-1.52802,26.9727,-10,-57.7439,-0.823171
260.122,83.5596,41.048,0,9.47709,1.09692,1.48491,0.823171,3.14024,-2.92683,-25.9668,-1.42264,26.8194,-8.90244,-52.1037,-2.13415
260.132,83.5013,41.249,0,9.43877,1.29571,1.4921,1.03659,5.06098,-2.71341,-26.2255,-1.51844,27.0494,-9.14634,-47.8354,-1.64634
260.142,83.4643,41.4538,0,9.63995,1.18074,1.27176,0.884146,4.96951,-2.65244,-26.4362,-1.40348,27.5571,-7.7439,-46.7073,-3.20122
260.152,83.4351,41.6351,0,9.62079,1.19511,1.44899,0.792683,3.38415,-1.21951,-26.235,-1.04902,26.9727,-8.14024,-48.0488,-0.853659
260.162,83.354,41.8018,0,9.60403,1.47533,1.25739,1.21951,4.08537,-1.21951,-26.4171,-0.742456,26.9823,-8.32317,-48.4146,1.09756
260.172,83.3181,41.9736,0,9.97526,1.30768,1.16637,1.55488,4.2378,-0.487805,-26.5224,-0.799937,27.3463,-9.39024,-53.2927,1.03659
260.182,83.2824,42.1123,0,10.0711,1.32445,1.52802,0.243902,3.32317,0.0304878,-26.7524,-1.25978,26.9248,-8.59756,-58.7195,1.95122
260.192,83.252,42.2454,0,9.86988,1.26936,1.45378,0.426829,4.60366,0.0304878,-26.6087,-1.36516,26.7715,-7.04268,-60.5183,2.95732
260.202,83.2496,42.3939,0,9.54415,1.13284,1.26936,0.518293,6.09756,-0.121951,-26.7524,-1.37474,27.3847,-7.95732,-66.0061,2.28659
260.212,83.2616,42.4992,0,9.40524,1.05381,1.30529,0.213415,7.5,-0.579268,-27.2505,-1.45138,26.9727,-7.43902,-69.6646,3.10976
260.222,83.2942,42.6062,0,9.28789,0.967588,1.13045,-0.945122,7.07317,-0.701219,-27.6242,-1.6334,27.4709,-6.46341,-73.1098,2.07317
260.232,83.3641,42.6727,0,9.45075,0.821492,1.03465,-0.487805,4.7561,-0.762195,-28.2181,-1.57592,27.1452,-6.31098,-79.6341,4.02439
260.242,83.4068,42.7033,0,9.68306,0.847837,1.01309,1.0061,2.89634,-1.15854,-28.5151,-1.26936,26.5991,0.213415,-88.2317,3.78049
260.252,83.4291,42.7351,0,9.65911,0.819097,1.07776,2.0122,1.06707,-2.16463,-28.4672,-1.33642,26.5799,4.7561,-95.2439,6.58537
260.262,83.4502,42.7478,0,9.61361,0.752036,1.11847,2.53049,0.670732,-2.7439,-28.3331,-1.41306,26.0147,6.89024,-100.366,7.0122
260.272,83.4656,42.7586,0,9.78126,0.768801,1.0586,3.07927,1.89024,-3.01829,-28.0361,-1.11608,25.7081,8.78049,-101.524,8.01829
260.282,83.4823,42.8212,0,10.0974,0.771196,1.11129,2.43902,3.90244,-3.01829,-28.2852,-0.713716,27.1547,5.67073,-102.287,8.01829
260.292,83.5051,42.8768,0,10.0567,0.603545,1.14482,1.31098,4.54268,-4.11585,-29.0228,-0.991538,27.7391,2.65244,-105.518,7.10366
260.302,83.5171,42.8995,0,10.0256,0.584385,1.13045,1.70732,5.03049,-5.27439,-29.4731,-0.780776,27.4038,-1.37195,-107.683,4.63415
260.312,83.5288,42.8675,0,9.87946,0.464634,1.152,1.15854,4.05488,-6.55488,-29.9042,-0.981958,26.5033,4.11585,-109.299,5.51829
260.322,83.5222,42.8227,0,9.6639,0.455054,0.785566,0.945122,1.67683,-8.38415,-29.521,-1.43222,25.8423,12.0122,-108.811,4.02439
260.332,83.4949,42.8609,0,9.72617,0.555645,0.847837,-1.25,0.97561,-9.32927,-28.8791,-1.3939,27.1452,18.4756,-113.018,4.29878
260.342,83.4776,42.9698,0,9.72617,0.450264,0.948428,-3.44512,0.335366,-9.63415,-28.5917,-0.886157,28.6205,16.189,-117.744,3.71951
260.352,83.3959,43.1019,0,9.74294,0.764011,1.04902,-1.95122,-3.96341,-12.5,-28.8983,-0.359253,29.6264,12.3171,-119.939,3.9939
260.362,83.3647,43.266,0,9.88425,0.354463,1.73639,0,-3.71951,-12.4695,-29.0899,-0.522114,30.7856,9.84756,-126.037,2.86585
260.372,83.2884,43.4435,0,9.76928,0.493374,1.69088,-0.792683,-7.65244,-15.4268,-28.8121,-0.876577,31.0155,8.68902,-128.75,1.85976
260.382,83.2274,43.6497,0,10.3824,0.340093,1.22386,-2.04268,-7.95732,-16.0976,-28.3331,-0.186812,31.4753,10.0915,-130.244,0.518293
260.392,83.1278,43.8531,0,9.86988,0.55325,1.19511,-7.53049,-4.26829,-17.439,-26.235,-0.225132,29.3007,11.128,-126.372,-1.09756
260.402,82.9989,44.079,0,10.2004,0.728086,1.12087,-11.189,-0.792683,-18.8415,-25.2291,0.263452,29.0037,4.93902,-116.585,-0.548781
260.412,82.866,44.3425,0,10.0591,0.689766,1.36516,-11.5854,-2.92683,-19.8476,-25.0759,0.560435,30.0862,5.03049,-109.878,-1.82927
260.422,82.7327,44.5954,0,10.0543,0.795146,1.88249,-10.2744,-6.40244,-18.9329,-25.5836,0.158071,30.7281,3.23171,-102.409,-0.640244
260.432,82.5344,44.868,0,9.81,1.16158,1.38911,-10.2744,-13.1707,-21.2805,-26.2159,-0.301772,32.3471,1.34146,-101.555,-1.18902
260.442,82.313,45.1369,0,9.76928,1.23583,1.09692,-9.84756,-9.78659,-23.1098,-26.7236,-0.656235,33.1614,-0.27439,-105.701,-0.945122
260.452,82.0635,45.3833,0,9.82677,1.38193,1.65017,-11.7988,-7.86585,-24.8171,-26.6374,-0.771196,32.6633,-1.76829,-112.622,0.426829
260.462,81.8173,45.6479,0,10.0806,1.27415,1.04423,-10.8841,-9.54268,-26.6159,-25.7081,-0.483794,32.328,-1.55488,-112.561,0.213415
260.472,81.5748,45.9465,0,10.1118,1.23583,0.58199,-9.08537,-7.43902,-27.2256,-24.9322,-0.455054,32.6441,1.09756,-113.049,1.92073
260.482,81.2809,46.2564,0,9.30944,1.41785,0.459844,-7.04268,-11.6768,-29.5122,-24.6352,-0.129331,32.9603,-0.304878,-110.823,0.579268
260.492,80.9932,46.574,0,9.48667,1.4897,0.924478,-4.93902,-10,-28.9329,-23.3898,-0.694556,31.9065,1.61585,-104.939,0.548781
260.502,80.7083,46.9091,0,9.84114,1.56155,0.981958,-2.9878,-11.4024,-29.0549,-23.1503,0.158071,32.5004,-3.32317,-100.915,-1.52439
260.512,80.4198,47.236,0,9.85072,1.7795,1.10889,-5.54878,-10.9451,-27.5,-22.9778,0.0143701,32.4142,-3.90244,-100.03,1.43293
260.522,80.1835,47.557,0,9.67348,1.31008,0.6251,-2.83537,-13.9634,-27.9268,-22.8916,0.550855,32.51,-9.66463,-99.9695,4.11585
260.532,79.9473,47.8619,0,9.65911,1.46336,1.08973,-1.7378,-11.128,-26.5549,-23.0449,0.464634,32.6058,-12.3171,-102.287,6.06707
260.542,79.7385,48.1554,0,9.84353,1.24541,0.670605,1.06707,-11.25,-27.1037,-22.7479,0.320933,32.213,-11.2805,-101.829,9.93902
260.552,79.4991,48.4267,0,9.76928,1.49449,0.950823,4.54268,-12.439,-27.622,-22.5467,-0.158071,31.619,-7.59146,-100.335,12.2561
260.562,79.2424,48.6868,0,10.0974,1.7795,1.20709,4.93902,-14.0244,-27.2256,-22.3455,-0.627495,31.3412,-7.31707,-97.6219,15.7012
260.572,78.9688,48.9745,0,10.1046,1.91602,1.21188,5.88415,-14.6037,-27.9573,-21.7707,-0.560435,31.6574,-2.83537,-94.7256,16.7988
260.582,78.6983,49.2756,0,9.82437,1.91362,1.47533,5.2439,-9.90854,-27.622,-21.809,-0.225132,32.4525,-1.0061,-96.8902,19.3598
260.592,78.4074,49.5778,0,9.66869,2.12917,1.1544,5.64024,-7.16463,-27.4085,-21.8569,0.00479004,32.8932,-2.04268,-102.896,20.2134
260.602,78.1223,49.8683,0,9.71659,2.13396,1.0107,5.21341,-5.82317,-27.4695,-21.6749,0.215552,32.6154,-3.96341,-105.427,22.7744
260.612,77.8371,50.1381,0,9.39806,2.05253,1.24541,4.7561,-5.2439,-28.2012,-21.3779,0.502954,31.9065,-8.44512,-101.86,21.4634
260.622,77.5539,50.4397,0,9.54176,1.98547,0.732876,4.48171,-6.76829,-29.7256,-20.7169,0.598755,32.2226,-10.1524,-99.1768,21.2195
260.632,77.2659,50.7294,0,9.80042,2.019,0.764011,5.54878,-3.56707,-31.0366,-20.8415,0.895737,32.4429,-11.9817,-95.7317,19.5427
260.642,76.9607,51.0089,0,9.58966,2.13396,0.701741,6.82927,-4.42073,-31.5244,-20.8702,0.905317,32.5292,-12.1951,-95.0305,17.0732
260.652,76.6359,51.2953,0,9.36932,2.42136,0.943638,7.5,-4.81707,-30.1829,-20.8606,0.895737,33.0848,-14.9085,-95.8537,13.2927
260.662,76.308,51.5485,0,9.31184,2.64171,0.962798,8.93293,-6.64634,-28.4146,-21.1193,0.742456,32.8166,-15.7622,-91.4329,12.0427
260.672,75.9744,51.8048,0,9.57289,2.92911,0.864602,7.59146,-6.85976,-27.2561,-21.263,0.742456,33.4967,-16.311,-86.3719,10.7927
260.682,75.6681,52.0902,0,9.60163,2.76146,0.627495,8.68902,-8.44512,-27.1341,-21.3779,0.838257,34.9625,-20.6402,-92.0427,11.0976
260.692,75.3692,52.3807,0,9.2831,2.50759,0.593965,8.71951,-8.17073,-28.9024,-21.2726,1.1065,35.3074,-24.4207,-100.061,11.9207
260.702,75.0706,52.6755,0,9.51302,2.32317,0.416733,8.04878,-11.4634,-32.3171,-21.1001,1.38432,35.5469,-30.5183,-104.543,13.0793
260.712,74.7613,52.9676,0,9.71899,2.43573,0.59157,8.2622,-10.5488,-33.3232,-20.8223,1.52802,35.3936,-33.4756,-105.274,12.9878
260.722,74.4358,53.2192,0,9.97526,2.68482,0.538879,9.84756,-11.1585,-33.5671,-20.7648,1.50886,34.3015,-37.439,-102.774,12.8354
260.732,74.0861,53.4701,0,9.85072,3.01772,0.66342,9.48171,-7.68293,-32.6829,-21.1001,0.838257,35.1924,-39.1159,-101.25,12.439
260.742,73.7361,53.7055,0,9.79563,3.10395,0.58678,9.66463,-8.62805,-32.3171,-21.6749,0.205972,35.9301,-39.4207,-104.299,10.7012
260.752,73.3682,53.9186,0,9.80281,3.20454,0.213157,11.9817,-10.6707,-33.7805,-22.3168,-0.407153,36.4666,-36.0671,-111.311,10.9451
260.762,72.9932,54.1495,0,9.72138,3.16622,0.495769,12.561,-12.9573,-35.3963,-21.9432,-0.637075,36.7444,-36.4939,-120.396,10.9146
260.772,72.6072,54.4326,0,9.53218,2.87163,0.270637,11.0976,-14.0854,-39.878,-21.0139,-0.397573,37.3958,-35.7622,-127.622,12.0732
260.782,72.2122,54.7431,0,9.59684,2.84768,0.483794,10.7317,-12.4085,-42.0732,-20.2188,-0.311353,37.4246,-35.3354,-131.799,14.1463
260.792,71.8003,55.042,0,9.89622,3.04886,0.390388,12.1037,-12.3476,-43.3841,-20.0272,-0.0910107,37.0989,-35.3049,-131.799,14.4817
260.802,71.3533,55.3178,0,9.98484,3.48954,0.275427,12.9878,-10.2744,-43.4451,-19.9122,0.0910107,36.4474,-34.6951,-132.439,15.061
260.812,70.8851,55.5948,0,10.0735,3.93741,0.347278,13.5671,-8.2622,-42.2561,-20.1325,0.225132,37.3,-33.2622,-135.732,17.0122
260.822,70.4222,55.8503,0,10.0806,4.01884,0.232317,12.6829,-7.13415,-41.8902,-20.6594,0.205972,37.8078,-36.0366,-141.616,19.3902
260.832,69.9595,56.111,0,9.59445,3.77934,0.593965,12.5,-5.33537,-43.2927,-20.4104,-0.0143701,37.9227,-36.8598,-145.732,18.0183
260.842,69.4959,56.3597,0,9.20885,3.47278,0.340093,13.9939,-5.09146,-46.0366,-19.9888,-0.819097,37.1084,-36.8598,-141.616,15.4573
260.852,69.0268,56.5981,0,9.23759,3.3674,0.500559,15.4878,-6.61585,-48.8415,-19.414,-0.742456,36.0738,-32.2866,-135.213,14.7866
260.862,68.5322,56.8332,0,9.62319,3.72665,0.522114,15.4878,-6.64634,-50.061,-19.9888,-0.522114,37.4246,-25.122,-129.39,14.5427
260.872,68.0181,57.2215,0,9.72138,4.01405,0.60115,14.4512,-4.66463,-50.4878,-17.7663,-1.33642,39.8004,-32.3171,-140.701,13.3841
260.882,67.491,57.611,0,9.75252,4.26313,0.58199,13.1707,-5.09146,-50.4573,-17.0669,-0.694556,38.9095,-33.872,-149.36,16.2805
260.892,66.9737,57.9573,0,9.72138,4.26313,0.63468,14.3598,-4.29878,-50.3963,-17.134,-0.742456,37.8653,-33.1098,-142.287,20.4573
260.902,66.4511,58.2764,0,9.75491,4.35894,0.534089,14.6037,-4.29878,-51.189,-17.4405,-0.962798,38.009,-29.5122,-133.902,22.6524
260.913,65.9217,58.565,0,9.52978,4.21763,0.332908,12.9268,-2.95732,-53.3537,-17.7088,-1.21188,37.8365,-27.4085,-130.518,20.6707
260.922,65.3703,58.8489,0,9.29986,4.15775,0.198787,12.9268,-2.43902,-56.25,-17.2489,-1.27894,37.2042,-24.8476,-122.53,17.7134
260.932,64.7813,59.1539,0,9.00048,4.3302,0.397573,13.7195,-2.31707,-57.9268,-16.7508,-0.732876,37.53,-23.811,-121.951,16.7988
260.942,64.151,59.4749,0,8.66039,4.60323,0.294587,16.2195,-3.93293,-58.6585,-16.1185,-0.455054,37.3575,-24.1463,-121.159,14.3293
260.952,63.4923,59.8179,0,8.47837,4.93614,0.433499,14.6037,-2.34756,-58.3232,-15.6395,0.110171,37.8269,-26.6768,-120.762,12.2561
260.962,62.8604,60.1814,0,8.6101,4.85231,0.399968,14.5427,-4.42073,-58.5671,-15.3617,0.129331,38.8328,-31.8598,-117.165,12.6829
260.972,62.2469,60.5114,0,8.74422,4.79004,0.570015,13.628,-5.42683,-59.3902,-15.2659,-0.138911,37.779,-37.2866,-104.97,11.6463
260.982,61.6474,60.8143,0,8.94061,4.69663,0.299377,12.5,-7.56098,-61.25,-14.6144,-0.301772,35.7002,-41.0061,-85.4573,10.122
260.992,61.0389,61.0801,0,8.76577,4.74693,0.172441,12.2256,-6.43293,-61.9207,-14.624,-0.732876,34.7326,-39.878,-72.6524,10.4573
261.002,60.411,61.3494,0,8.43286,4.80441,0.273032,11.9817,-6.61585,-62.622,-14.442,-0.972378,34.9529,-39.7561,-66.6159,9.32927
261.012,59.7853,61.6269,0,8.23647,4.79722,0.0263452,14.878,-9.69512,-62.561,-14.2791,-1.13524,35.4128,-39.1463,-64.2683,9.20732
261.022,59.1483,61.9244,0,8.13828,5.07265,0.227527,13.5671,-11.128,-61.4939,-13.5319,-1.49928,34.9433,-42.2866,-62.0732,9.20732
261.032,58.544,62.208,0,8.44723,5.16127,0.162861,15.7012,-14.2988,-60.4878,-13.0912,-1.50886,33.7841,-41.0671,-53.9329,9.20732
261.042,57.9304,62.4781,0,8.43047,5.45106,-0.0766406,14.2683,-14.2073,-59.6951,-12.6505,-1.78668,32.6154,-34.0244,-46.2195,9.05488
261.052,57.3224,62.7174,0,8.35143,5.55645,0.138911,16.25,-12.8049,-58.8415,-12.526,-1.95913,31.5328,-24.2378,-37.7134,9.48171
261.062,56.6761,62.9551,0,7.94188,5.7696,-0.141306,15.0305,-11.1585,-59.1768,-12.775,-1.89207,32.5387,-16.4329,-31.25,10.3354
261.072,56.0204,63.2073,0,7.75986,5.66662,-0.416733,16.8902,-12.7134,-61.1585,-13.3498,-2.16031,35.0966,-14.1463,-30.2439,9.90854
261.082,55.3316,63.4558,0,7.69999,5.86061,-0.0838257,13.7195,-14.5732,-63.5671,-13.3882,-2.32317,35.5181,-12.9878,-27.4085,6.09756
261.092,54.6641,63.7138,0,7.70717,5.68817,-0.117356,13.872,-16.4634,-64.5122,-13.005,-2.05493,35.4798,-13.9024,-20.5793,2.77439
261.102,54.0233,63.9734,0,7.91314,5.89654,-0.198787,13.2622,-19.5427,-62.622,-12.2002,-1.88249,33.9278,-17.561,-9.2378,-3.59756
261.112,53.4323,64.2232,0,7.99218,5.99234,-0.330513,12.5,-18.1707,-58.5061,-11.5392,-1.59508,32.2418,-17.8049,5,-8.41463
261.122,52.9077,64.5252,0,8.13828,5.76721,-0.488584,11.128,-19.6037,-56.0671,-10.9357,-1.32684,33.468,-18.2012,11.6159,-10.4878
261.132,52.4171,64.8273,0,8.00416,5.56124,-0.598755,12.5915,-16.3415,-54.7561,-11.0602,-1.76752,34.4452,-17.9878,8.93293,-11.6768
261.142,51.9126,65.1271,0,7.83411,5.73128,-0.383203,10.1524,-18.872,-54.3293,-10.9931,-2.04535,34.6847,-16.9207,3.29268,-12.4695
261.152,51.4171,65.4263,0,7.58503,5.65704,-0.481399,11.5244,-18.4451,-53.3537,-10.8207,-2.37107,34.7996,-15.8232,9.02439,-12.3476
261.162,50.908,65.7036,0,7.64011,6.03305,-0.344883,11.9512,-21.0671,-52.5305,-10.7153,-2.12199,34.1099,-12.561,26.4329,-9.60366
261.172,50.426,65.971,0,7.78621,6.14083,-0.222737,11.8293,-19.3293,-50.8841,-10.6195,-1.85375,34.0141,-8.04878,41.1585,-5.18293
261.182,49.9447,66.2145,0,7.55389,6.07856,-0.385598,10.4268,-13.9329,-50.6402,-10.677,-1.32684,33.6021,-1.12805,51.2805,2.40854
261.192,49.4664,66.4456,0,7.68801,6.19113,-0.201182,8.2622,-15.3354,-51.2805,-10.8782,-1.1544,34.1865,2.2561,60.122,9.14634
261.202,48.9938,66.6013,0,7.48204,5.92288,-0.117356,9.35976,-15.122,-52.6524,-11.7787,-1.32684,33.7075,0.396341,72.9268,14.3598
261.212,48.4969,66.7042,0,7.24733,5.98276,-0.150886,9.08537,-14.3902,-53.689,-12.2002,-1.16398,32.8932,-0.548781,91.2805,15.5793
261.222,47.9951,66.8222,0,7.32157,6.1049,-0.0383203,6.58537,-12.9573,-54.6341,-12.2865,-1.48012,34.1578,-9.14634,107.226,13.9634
261.232,47.5188,66.8913,0,7.36469,5.97797,-0.342488,7.2561,-14.1463,-54.6037,-12.8517,-1.86333,33.7937,-12.6524,123.689,13.0793
261.242,47.0281,66.9296,0,7.29762,6.19352,-0.574805,7.07317,-13.2317,-54.4817,-13.1582,-1.46096,33.4584,-18.9939,135.884,11.7378
261.252,46.5345,66.9429,0,7.22098,6.33004,-0.541274,7.56098,-11.7988,-53.9024,-13.8001,-1.57592,34.1003,-18.2012,141.768,10.0915
261.262,45.9999,66.9516,0,6.97909,6.71324,-0.330513,6.61585,-10.7317,-53.689,-13.7426,-1.33642,33.8416,-14.878,148.872,10.4878
261.272,45.4543,66.8968,0,7.04854,6.93598,-0.244292,3.71951,-13.4451,-54.5732,-13.9725,-1.6334,31.9256,-11.6768,160.671,11.3415
261.282,44.9359,66.8345,0,7.15392,6.96472,-0.522114,3.71951,-8.81098,-53.5366,-14.1162,-1.30768,32.0885,-11.4939,187.988,11.189
261.292,44.4006,66.7364,0,6.89287,7.1156,-0.617915,1.03659,-6.61585,-52.8963,-14.6719,-1.35558,32.0118,-10.3354,206.25,12.4085
261.302,43.9137,66.59,0,7.06052,6.89526,-0.543669,3.17073,-8.62805,-52.2866,-15.1317,-1.5376,31.1592,-9.42073,213.659,13.872
261.312,43.422,66.4355,0,6.89047,7.0198,-0.481399,2.65244,-8.59756,-51.311,-15.7544,-1.52802,31.8873,-12.6524,205.762,13.0793
261.322,42.9489,66.2781,0,6.77072,6.90963,-0.584385,1.40244,-10.6707,-50.3049,-16.061,-1.22146,32.1364,-12.2561,198.933,15.0915
261.332,42.5055,66.0913,0,6.89047,6.88089,-0.718506,0.0914634,-12.2256,-49.5122,-16.3484,-1.37474,31.4274,-15.8841,192.988,14.4817
261.342,42.0904,65.9132,0,6.85455,6.71084,-0.632285,-0.792683,-12.2256,-48.689,-16.2334,-0.646655,31.2358,-23.9329,191.28,15.3354
261.352,41.6935,65.73,0,6.77312,6.65815,-0.296982,0.365854,-13.4146,-47.439,-16.6645,-0.675395,31.6765,-23.689,194.604,13.9329
261.362,41.2762,65.5181,0,6.46416,6.77791,-0.409548,-2.56098,-13.7805,-46.5549,-16.9807,-0.138911,31.0538,-21.4329,192.195,13.1098
261.372,40.8599,65.2746,0,6.35399,6.6821,-0.64905,-2.07317,-12.4695,-47.1341,-16.9328,0.253872,29.7414,-22.8354,197.226,13.3537
261.382,40.4396,65.0477,0,6.3947,6.73,-0.579595,-0.97561,-15.5793,-48.3537,-16.9807,-0.253872,30.0767,-22.2561,203.75,13.3537
261.392,39.9815,64.7888,0,6.17436,6.95753,-0.962798,0.0304878,-17.1646,-49.0854,-17.431,-0.253872,29.6264,-21.5244,205.793,14.4207
261.402,39.5223,64.5229,0,6.22466,7.12758,-0.725691,-0.487805,-16.7988,-49.2073,-17.9291,-0.857417,29.9042,-23.0183,198.201,12.7134
261.412,39.0453,64.2706,0,6.16718,7.34313,-0.713716,-1.98171,-16.25,-49.6951,-18.4848,-1.33642,30.891,-26.7073,192.652,11.4329
261.422,38.5865,63.9969,0,6.26537,7.38624,-0.60594,-0.548781,-18.689,-49.3902,-18.6572,-1.7292,30.2299,-30.0305,193.384,11.4634
261.432,38.1454,63.6951,0,6.38991,7.57066,-0.946033,-1.40244,-18.628,-48.2317,-18.6572,-1.49928,29.2049,-30.1829,212.683,10.3659
261.442,37.7221,63.4096,0,6.27256,7.55868,-1.12326,-2.43902,-15.2744,-46.3415,-18.8584,-1.24062,29.7318,-30.8841,228.201,10.3659
261.452,37.3003,63.05,0,5.96839,7.54671,-0.941243,-3.47561,-12.6524,-44.2988,-19.232,-1.17356,27.9978,-26.4024,239.238,13.0183
261.462,36.8717,62.6851,0,5.84864,7.62574,-1.24302,-5.45732,-15.9146,-44.1159,-19.6248,-0.732876,28.0744,-19.6037,244.634,15.6098
261.472,36.433,62.3351,0,5.63788,7.67125,-1.06578,-3.20122,-17.2866,-43.628,-20.2571,-0.838257,29.0037,-15.3049,246.616,20.1829
261.482,35.9608,61.9521,0,5.65704,8.13109,-0.960403,-7.16463,-16.5854,-44.9085,-20.6978,-1.18314,28.4864,-14.2378,269.634,22.378
261.492,35.5314,61.544,0,5.95641,8.05924,-1.23823,-9.26829,-14.5122,-44.8476,-21.1193,-1.09692,28.1223,-12.378,292.652,26.311
261.502,35.1287,61.0822,0,6.0594,7.90835,-1.22386,-8.56707,-11.2195,-45.0305,-22.0773,-1.31726,27.6625,-12.4695,308.11,28.2927
261.512,34.7677,60.6329,0,6.27974,7.78142,-1.07297,-7.2561,-11.0061,-44.5427,-22.518,-1.27894,28.0169,-11.3415,297.805,30.0305
261.522,34.4304,60.1654,0,6.28453,7.74549,-1.2981,-7.68293,-9.05488,-43.1707,-22.6329,-1.08734,27.2122,-12.2256,286.951,30.6098
261.532,34.1137,59.6983,0,6.057,7.57545,-1.22864,-7.59146,-10.3049,-40.9146,-23.0928,-0.924478,27.2601,-14.939,275.335,29.878
261.542,33.7754,59.2393,0,5.49178,7.36947,-1.50168,-5.64024,-5.67073,-39.7866,-23.658,-0.455054,27.6433,-19.2378,269.39,26.5854
261.552,33.3984,58.6986,0,5.12295,7.30241,-1.37953,-5.54878,-5.06098,-41.0671,-24.7214,0.311353,26.3979,-27.8659,261.646,24.4817
261.562,33.0193,58.1444,0,5.15169,6.97909,-1.48731,-3.84146,-4.05488,-44.878,-25.0088,0.665815,25.9285,-28.1707,268.445,20.8232
261.572,32.6145,57.6083,0,5.2882,7.10363,-1.50168,-2.37805,-2.83537,-48.75,-25.4399,0.723296,26.2638,-26.7683,264.116,20.8537
261.582,32.1977,57.082,0,5.53968,7.56108,-1.52563,-1.98171,-1.64634,-49.9085,-26.1297,1.06818,26.6278,-33.9024,246.951,20.2439
261.592,31.7832,56.5083,0,5.68578,7.91075,-1.70046,-1.15854,0.731707,-49.4512,-26.6182,0.742456,25.5165,-43.4756,241.829,19.4817
261.602,31.3714,55.9455,0,5.67141,8.39215,-1.53281,0.518293,2.80488,-46.6463,-26.6566,0.435894,25.3058,-47.3476,245.366,18.3537
261.612,30.9797,55.3528,0,5.65225,8.73464,-1.4442,0.27439,5.18293,-43.1098,-27.1643,0.0143701,24.6256,-47.9573,245.488,19.3293
261.622,30.6104,54.7755,0,5.40795,8.48316,-1.38911,-0.243902,8.71951,-40.8232,-27.423,-0.215552,24.6735,-55.122,243.293,20
261.632,30.2391,54.2274,0,5.10379,8.09996,-1.3963,-0.701219,11.6159,-41.1585,-27.6242,-0.531694,24.9801,-60.8841,240,20.0305
261.642,29.8382,53.6447,0,4.77806,8.04966,-1.21667,-0.121951,11.2805,-41.8293,-27.5092,-0.838257,23.6676,-62.3171,241.402,20.1829
261.652,29.3866,53.0817,0,4.46432,8.29874,-1.13045,-0.0914634,7.92683,-42.8963,-27.4709,-0.799937,23.5814,-62.7134,245.61,22.2256
261.662,28.9353,52.5119,0,4.50024,8.47837,-1.12087,-2.04268,7.92683,-43.1402,-27.2505,-1.33642,22.815,-59.1768,251.372,22.6829
261.672,28.5108,51.9605,0,4.7134,8.48795,-1.08734,-2.40854,7.31707,-43.5366,-27.6242,-1.5376,23.064,-54.3293,256.585,23.9329
261.682,28.0899,51.434,0,4.75411,8.49034,-0.926873,-0.396341,8.17073,-44.4512,-27.6912,-1.85375,23.1886,-47.9573,258.415,25.4878
261.692,27.6694,50.829,0,4.72298,8.53345,-0.886157,-0.640244,7.7439,-44.6951,-27.7487,-1.78668,21.263,-44.4207,263.537,26.0061
261.702,27.2558,50.2075,0,4.74693,8.59093,-0.775986,0.0609756,8.65854,-44.7561,-28.266,-2.23695,20.9468,-41.4634,284.512,25.4878
261.712,26.8591,49.6144,0,4.81399,8.66039,-0.840652,0,9.48171,-44.1768,-28.7067,-2.14115,21.3205,-41.0061,276.677,25.8537
261.722,26.4962,49.0191,0,4.85231,8.5574,-0.819097,1.34146,10.7012,-42.5305,-29.1282,-2.21779,21.0905,-40.7927,267.866,25.8841
261.732,26.1283,48.3999,0,4.59125,8.60291,-0.512534,2.59146,12.1951,-40.7927,-29.1665,-1.7771,20.1996,-41.8902,266.921,23.628
261.742,25.7393,47.8369,0,4.25595,8.67716,-0.311353,1.40244,10.8537,-39.6951,-28.9941,-1.57592,20.7073,-42.2256,273.049,21.4939
261.752,25.3329,47.2841,0,3.94699,8.66758,-0.435894,-1.98171,7.92683,-38.9024,-29.5689,-1.346,20.8798,-44.7561,272.774,20.6098
261.762,24.9227,46.681,0,3.83922,8.69392,-0.627495,-3.96341,2.7439,-38.7805,-29.5306,-1.03944,19.4523,-42.4695,266.951,21.0671
261.772,24.5562,46.0733,0,4.0859,8.61968,-0.958008,-4.69512,-1.15854,-38.2927,-30.2395,-0.474214,19.3661,-39.6037,262.744,21.0061
261.782,24.192,45.5007,0,4.02124,8.47118,-1.07057,-3.56707,-1.31098,-38.872,-30.8239,-0.550855,19.9601,-35.7622,265.061,20.061
261.792,23.7876,44.8848,0,3.71947,8.67955,-0.893342,-2.46951,-1.55488,-39.2378,-31.552,-0.627495,19.1649,-38.2317,268.201,19.4207
261.802,23.3858,44.2561,0,3.71468,8.87355,-0.914897,-1.31098,-0.0914634,-38.811,-31.8873,-0.857417,18.6572,-39.7561,267.256,17.439
261.812,22.969,43.6038,0,3.50391,9.00288,-0.699346,-0.914634,0.304878,-38.2012,-32.4908,-0.723296,18.0824,-41.4634,265.244,16.8902
261.822,22.5473,42.9661,0,3.44404,9.15616,-0.65863,-1.43293,-1.92073,-38.2317,-32.8357,-0.713716,18.0537,-40.6098,263.537,17.0427
261.832,22.1647,42.3271,0,3.74581,9.09868,-0.785566,-2.7439,-4.54268,-38.689,-33.0944,-0.617915,17.6705,-44.2073,256.402,15.8537
261.842,21.8224,41.697,0,4.03321,9.04359,-0.852627,-3.20122,-4.29878,-38.75,-33.1327,-1.1544,17.3831,-41.9817,256.311,17.9878
261.852,21.5038,41.0579,0,4.06914,8.98851,-0.974773,-2.34756,-0.853659,-37.6829,-33.0177,-0.943638,16.722,-40.7317,263.11,17.4085
261.862,21.1913,40.4335,0,3.96376,9.07233,-1.13763,-3.71951,0.731707,-36.1585,-32.9028,-1.06818,16.4825,-41.8598,266.22,18.9024
261.872,20.8718,39.7957,0,3.61887,9.03641,-1.24541,-3.29268,0.548781,-33.9024,-33.2572,-1.12566,15.9748,-44.878,268.567,18.7805
261.882,20.5093,39.2012,0,3.16143,9.1346,-0.886157,-2.7439,4.45122,-33.3537,-33.3722,-1.2023,16.358,-45.061,268.445,18.4756
261.892,20.0897,38.5684,0,2.79499,9.24957,-0.584385,-3.47561,4.32927,-35.2744,-33.8895,-1.54718,15.4862,-42.8659,270.244,17.9878
261.902,19.6782,37.9502,0,2.92671,9.21364,-0.419128,-3.07927,-2.19512,-36.9512,-34.4356,-1.2502,15.5533,-38.3232,272.866,17.3171
261.912,19.2654,37.3148,0,3.01772,9.39087,-0.65384,-4.08537,-4.84756,-38.3232,-34.5027,-1.1544,14.8252,-39.9695,272.287,20.3354
261.922,18.8795,36.6615,0,3.1255,9.38369,-0.977168,-5.79268,-3.38415,-37.6524,-34.4835,-1.36516,14.03,-40.1829,266.921,21.8902
261.932,18.5651,36.0309,0,3.46799,9.1346,-1.20709,-6.06707,3.47561,-35.9756,-35.1733,-1.1544,14.212,-43.7195,255.305,22.0122
261.942,18.2641,35.4024,0,3.34584,9.15376,-0.941243,-4.69512,7.71341,-33.811,-35.4415,-1.61424,13.8863,-43.4451,250.03,23.0793
261.953,17.9436,34.8131,0,3.09197,9.21125,-0.692161,-2.95732,5.54878,-33.2927,-35.7768,-1.49928,14.2599,-45.9451,244.573,22.0122
261.962,17.6011,34.1841,0,2.79978,9.34297,-0.701741,-3.10976,-0.0914634,-32.378,-35.2882,-1.38432,12.9666,-44.939,251.616,19.4207
261.972,17.2736,33.5475,0,2.79259,9.28789,-0.821492,-4.11585,-4.54268,-31.6463,-35.0487,-1.33642,12.3056,-44.0854,250.305,20.3963
261.982,16.9612,32.9669,0,2.82373,9.24717,-0.835862,-5.06098,-4.45122,-31.2805,-35.3074,-1.4418,12.8996,-45.1829,239.207,20.7622
261.992,16.6455,32.3513,0,2.65368,9.33818,-0.740061,-6.09756,-3.59756,-29.9695,-35.4415,-1.2981,11.932,-40.3659,239.451,20.3659
262.002,16.3093,31.7248,0,2.4022,9.4268,-0.910107,-6.46341,-1.40244,-29.5122,-35.9013,-1.70046,11.453,-36.128,235.061,21.2805
262.012,15.9732,31.0975,0,2.44531,9.35255,-0.838257,-3.87195,-2.28659,-30.9146,-35.9492,-1.54718,11.0219,-32.1951,234.238,20.9146
262.022,15.6386,30.4806,0,2.47885,9.54655,-0.730481,-4.60366,-5.7622,-31.25,-36.0834,-1.56634,10.8015,-27.7744,231.646,23.872
262.032,15.3359,29.8907,0,2.70398,9.59445,-0.711321,-4.5122,-5.97561,-31.0976,-36.4378,-1.2502,10.9452,-25.4878,229.268,24.6951
262.042,15.0772,29.293,0,2.91953,9.47949,-0.529299,-4.54268,-5.79268,-30.0305,-36.7061,-1.14482,10.4758,-26.7073,228.841,24.6646
262.052,14.827,28.7135,0,2.83091,9.43877,-0.754431,-4.81707,-4.05488,-28.8415,-36.9072,-1.26936,10.4279,-28.9939,225.976,26.2195
262.062,14.5647,28.1204,0,2.60099,9.331,-0.958008,-3.9939,-0.731707,-28.2927,-37.0893,-0.981958,9.83395,-28.3537,224.909,27.2866
262.072,14.3194,27.5454,0,2.65129,9.29986,-0.934058,-2.62195,1.03659,-27.7744,-37.2426,-0.819097,9.79563,-24.1463,229.207,27.0122
262.082,14.0838,26.9721,0,2.71835,9.34297,-0.977168,-1.28049,0.487805,-27.9268,-37.1659,-0.493374,9.39327,-21.0061,225.701,27.3476
262.092,13.8719,26.4223,0,2.78541,9.35734,-0.864602,-2.07317,0.27439,-26.7073,-37.0126,-0.148491,9.35495,-17.2561,221.524,29.5732
262.102,13.6675,25.8864,0,2.65368,9.27112,-0.893342,-3.35366,1.55488,-25.1524,-37.4629,0.177231,9.31663,-18.5976,217.409,30.1524
262.112,13.4814,25.3331,0,2.54591,9.07473,-0.835862,-2.89634,3.65854,-23.0793,-37.5683,0.570015,8.6556,-21.7073,214.116,30.3049
262.122,13.2937,24.7792,0,2.34951,9.01964,-0.713716,-0.945122,5.33537,-21.4329,-37.894,0.675395,8.32988,-27.439,212.713,28.3537
262.132,13.1045,24.1989,0,2.31598,9.14179,-0.780776,-0.152439,8.14024,-21.189,-37.8557,0.493374,7.47725,-28.3232,211.738,25.5183
262.142,12.9004,23.6517,0,2.23934,9.32142,-0.694556,0.670732,9.08537,-21.6463,-38.2006,0.694556,7.70717,-31.4329,207.073,22.0427
262.152,12.7013,23.1226,0,2.32077,9.41482,-0.62031,2.2561,7.0122,-22.2561,-38.4305,0.464634,7.66885,-34.878,201.22,18.5671
262.162,12.5139,22.612,0,2.46208,9.53697,-0.61552,2.86585,5.54878,-22.7439,-38.4017,0.359253,7.61137,-36.7988,198.018,18.0488
262.172,12.3698,22.0796,0,2.75906,9.59924,-0.759221,1.40244,5.91463,-21.8902,-38.4592,0.464634,6.87371,-39.878,195.457,18.9634
262.182,12.2645,21.4993,0,2.80217,9.49386,-0.768801,-0.396341,10.4878,-19.0549,-38.67,0.225132,5.69536,-42.5305,192.317,19.5732
262.192,12.1861,20.9838,0,2.71356,9.24957,-0.814307,-0.426829,19.1159,-16.3415,-39.1107,0.512534,6.47134,-45.7317,184.634,20.0305
262.202,12.0857,20.4648,0,2.36628,9.29028,-0.720901,0.914634,26.0671,-14.5427,-39.6376,0.493374,6.1073,-52.1341,178.232,18.3537
262.212,11.9395,19.9218,0,1.92799,9.37411,-0.519719,0.640244,25.7012,-13.9634,-39.2256,0.445474,5.24509,-54.2073,174.451,17.8354
262.222,11.7804,19.424,0,1.83219,9.18011,-0.500559,1.09756,20.8232,-14.9085,-39.034,1.1544,5.60914,-56.7378,166.86,18.1707
262.232,11.6511,18.9476,0,2.13157,9.22562,-0.546064,1.85976,14.9695,-15.7012,-38.8233,1.62382,5.5804,-57.5915,158.841,20.6402
262.242,11.548,18.4738,0,2.25611,9.49386,-0.584385,1.34146,14.0854,-14.0244,-38.6221,1.74836,5.25467,-61.5244,154.238,21.8598
262.252,11.4336,18.0012,0,2.00703,9.90101,-0.507744,0.701219,18.2927,-11.4939,-38.7083,1.62382,4.95769,-65.4268,153.628,21.7683
262.262,11.2792,17.5017,0,1.45138,9.93215,-0.565225,0.823171,23.1402,-9.39024,-38.967,0.934058,4.20086,-69.2378,154.604,19.3902
262.272,11.0516,16.9905,0,0.886157,10.0495,-0.452659,1.58537,21.2195,-10.4878,-39.5322,0.435894,3.7027,-70.6707,153.323,16.0061
262.282,10.7805,16.4536,0,0.689766,9.94891,-0.378413,0.914634,14.9695,-13.2012,-39.4939,0.320933,2.87881,-69.5732,148.476,16.189
262.292,10.5081,15.9357,0,0.869392,9.81,-0.311353,0.396341,10.0305,-16.128,-40.0974,0.100591,2.86923,-70.5793,145.03,16.6463
262.302,10.2694,15.4157,0,1.13763,9.68785,-0.256267,-0.853659,7.95732,-16.5854,-40.3561,-0.0718506,2.47645,-70.6402,143.11,17.7134
262.312,10.0773,14.9116,0,1.46336,9.74533,-0.299377,-1.18902,11.25,-16.0671,-40.3657,-0.407153,2.39023,-69.5732,142.043,18.0793
262.322,9.924,14.4129,0,1.71244,9.65193,-0.347278,-0.945122,15.4878,-15.6098,-39.925,-0.646655,2.10283,-67.3476,140.732,18.5366
262.332,9.78357,13.8963,0,1.82021,9.84353,-0.490979,-0.335366,17.0732,-15.4573,-39.6855,-0.330513,1.42264,-64.0854,138.384,20.4573
262.342,9.65134,13.3792,0,1.8274,9.83874,-0.514929,-0.335366,15.7927,-15,-39.5609,-0.464634,1.04902,-57.622,137.439,21.5549
262.352,9.54395,12.8464,0,1.94715,9.72857,-0.488584,0.457317,13.2622,-14.3598,-40.0208,-0.589175,0.416733,-51.7988,135.854,21.9512
262.362,9.42437,12.3501,0,1.82021,9.91059,-0.474214,-1.70732,14.3902,-13.9634,-40.4136,-0.752036,0.694556,-47.7134,135.549,22.1646
262.372,9.28161,11.8828,0,1.51605,9.74294,-0.60594,-2.19512,15.8841,-13.3841,-40.4902,-0.809517,0.838257,-48.9939,128.506,20.122
262.382,9.09398,11.4107,0,1.13284,9.62558,-0.716111,-0.945122,15.122,-13.9024,-40.0399,-0.761616,0.407153,-46.9512,125.549,17.5
262.392,8.8743,10.9697,0,0.907712,9.5226,-0.673001,0.426829,13.1098,-14.9695,-39.9537,-0.292192,0.617915,-44.3293,123.537,17.0122
262.402,8.67176,10.5534,0,1.13284,9.5226,-0.66821,0.396341,9.26829,-16.4024,-39.6472,0.550855,0.713716,-46.1585,116.433,18.9634
262.412,8.52038,10.1463,0,1.60227,9.46991,-0.761616,0.579268,5.85366,-17.3476,-39.1777,1.02986,0.570015,-47.0427,113.201,21.7683
262.422,8.41366,9.76329,0,1.90404,9.53218,-0.790356,1.40244,3.93293,-16.5549,-39.3789,1.22146,0.694556,-49.5122,108.201,22.2256
262.432,8.34444,9.36971,0,2.11959,9.70701,-0.778381,1.4939,6.37195,-15.0305,-39.7621,0.972378,0.234712,-50.9756,103.78,23.3537
262.442,8.29495,8.98242,0,2.14354,9.70222,-0.732876,2.68293,8.65854,-13.4451,-39.8004,0.962798,0.0526904,-52.1037,98.2622,20.4878
262.452,8.25233,8.57798,0,2.12678,9.65432,-0.819097,2.77439,11.1585,-12.7744,-39.6376,0.330513,-0.531694,-53.4451,93.3537,17.0122
262.462,8.183,8.1754,0,1.86812,9.59684,-0.922083,3.78049,15.8537,-12.7134,-39.3789,0.148491,-0.780776,-53.75,91.4024,12.8963
262.472,8.09015,7.75861,0,1.70765,9.67588,-0.740061,4.02439,17.8049,-13.2012,-39.1203,0.119751,-1.28852,-52.622,93.5366,11.0366
262.482,7.99849,7.35097,0,1.72441,9.49865,-0.59157,2.89634,17.622,-13.8415,-38.9478,-0.177231,-1.41306,-55.0915,92.4695,12.9573
262.492,7.90989,6.94769,0,1.69328,9.38129,-0.593965,2.65244,18.4146,-13.5976,-38.8712,-0.167651,-1.61424,-55.3049,91.8598,15.3354
262.502,7.82788,6.58754,0,1.67891,9.48428,-0.541274,2.62195,20.122,-12.7134,-38.4784,0.330513,-1.14482,-58.2622,89.5122,18.0183
262.512,7.75485,6.24288,0,1.6813,9.50344,-0.543669,3.23171,20.1524,-11.9512,-38.7754,0.0622705,-1.14482,-59.6951,85.8232,21.7073
262.522,7.68178,5.87304,0,1.66214,9.69025,-0.58199,3.84146,19.4207,-11.4939,-39.1298,-0.0239502,-1.83458,-60.2744,83.2622,22.5915
262.532,7.61721,5.51306,0,1.61903,9.65672,-0.684976,3.93293,18.811,-10.3354,-39.6184,-0.0526904,-1.94955,-59.2073,80.8537,22.7134
262.542,7.55112,5.16659,0,1.52323,9.72857,-0.701741,3.68902,20.2134,-9.35976,-39.7525,0.263452,-1.96871,-57.2256,81.0366,22.378
262.552,7.4532,4.82105,0,1.18793,9.86269,-0.59157,2.9878,20.3659,-8.59756,-40.222,0.253872,-2.21779,-54.939,81.4329,22.1951
262.562,7.32063,4.47843,0,0.878972,9.88185,-0.680186,2.53049,18.628,-8.68902,-40.5094,-0.186812,-2.42855,-54.2988,80.8841,21.0976
262.572,7.17102,4.146,0,0.790356,9.87467,-0.687371,2.89634,15.2134,-9.66463,-40.404,-0.340093,-2.47645,-52.0122,82.5915,20.0915
262.582,7.0176,3.83737,0,0.790356,9.86748,-0.613125,2.83537,10.8537,-10.3659,-40.3082,-0.263452,-2.28485,-50.3659,81.5244,17.9573
262.592,6.87834,3.51044,0,0.934058,9.84832,-0.512534,2.68293,7.2561,-10.9451,-40.2699,-0.464634,-2.83091,-48.9024,80.2134,18.0488
262.602,6.77975,3.14761,0,1.16877,9.77407,-0.56762,2.62195,6.03659,-9.93902,-40.6722,-0.637075,-3.7506,-48.689,77.4695,19.2378
262.612,6.67686,2.78683,0,0.993933,9.72857,-0.483794,1.37195,6.06707,-8.56707,-40.8542,-0.828677,-3.9901,-47.2256,77.7134,18.1402
262.622,6.56004,2.44294,0,0.790356,9.59924,-0.510139,0.670732,4.26829,-7.89634,-40.6531,-0.387993,-3.92304,-44.8476,77.8354,17.4695
262.632,6.44139,2.12257,0,0.701741,9.69025,-0.60115,0.609756,1.46341,-7.16463,-40.4902,-0.570015,-3.74102,-42.2256,74.4512,17.7744
262.642,6.3279,1.81835,0,0.802332,9.9561,-0.675395,1.0061,-0.97561,-7.83537,-39.8675,-0.110171,-3.63564,-39.0244,70.5488,18.4451
262.652,6.24101,1.53124,0,1.04183,9.95849,-0.720901,0.609756,-3.07927,-8.14024,-39.8962,-0.205972,-3.559,-37.1341,67.5305,18.3232
262.662,6.18059,1.26679,0,1.25499,9.88185,-0.744851,0.853659,-2.46951,-8.20122,-40.0208,-0.273032,-3.37698,-34.5427,65.3963,18.811
262.672,6.14096,0.982117,0,1.38911,9.89383,-0.699346,1.18902,-0.670732,-7.7439,-40.1932,-0.502954,-3.95178,-30,61.9512,17.5305
262.682,6.10454,0.690434,0,1.32445,9.69025,-0.687371,0.670732,0.579268,-7.07317,-39.8675,-0.934058,-4.24876,-25.2439,60.7012,16.0976
262.692,6.07051,0.409086,0,1.26457,9.63756,-0.730481,0.762195,2.95732,-6.28049,-39.6951,-0.886157,-4.25834,-19.2683,58.8415,14.1768
262.702,6.01801,0.104485,0,1.04902,9.64474,-0.752036,1.55488,5.06098,-5.64024,-39.4268,-0.981958,-4.83315,-16.4329,59.4207,12.8963
262.712,5.9534,-0.205452,0,0.958008,9.59445,-0.720901,1.58537,4.11585,-5.94512,-39.3406,-0.713716,-5.12055,-10.3354,61.8902,13.0488
262.722,5.88708,-0.503153,0,0.941243,9.55373,-0.701741,1.7378,2.56098,-6.09756,-39.0819,-0.119751,-5.09181,-5.51829,60.6402,15.8841
262.732,5.82172,-0.759965,0,0.950823,9.68306,-0.60115,2.40854,1.0061,-6.09756,-39.0244,0.426313,-4.57449,-2.28659,61.128,18.2012
262.742,5.76079,-0.996067,0,0.943638,9.83395,-0.488584,1.31098,0.731707,-5.51829,-39.0532,0.320933,-4.40205,-2.04268,58.7805,19.9085
262.752,5.70086,-1.23461,0,0.907712,9.9082,-0.579595,1.06707,0.914634,-5.03049,-39.4651,0.263452,-4.66071,-1.79878,57.5,18.811
262.762,5.6326,-1.46162,0,0.876577,9.85072,-0.66342,0.518293,0.548781,-5.70122,-39.6855,0.349673,-4.65113,-0.884146,57.1037,17.439
262.772,5.57689,-1.67729,0,0.972378,9.87227,-0.670605,0.823171,0.0914634,-5.67073,-39.81,0.608335,-4.63197,-0.0914634,54.7866,15.5488
262.782,5.53394,-1.86658,0,1.09692,9.87467,-0.689766,1.40244,-0.0609756,-5.94512,-39.7525,0.598755,-4.31582,1.40244,52.7744,13.9329
262.792,5.49897,-2.04572,0,1.14482,9.80042,-0.689766,1.15854,0.396341,-5.88415,-39.7621,0.541274,-4.28709,4.66463,47.8049,13.2927
262.802,5.47178,-2.21132,0,1.17356,9.79323,-0.696951,1.85976,1.03659,-5.51829,-39.628,0.330513,-4.17212,5.82317,43.9329,13.2012
262.812,5.45213,-2.37831,0,1.17835,9.79563,-0.778381,1.46341,3.35366,-4.87805,-39.7525,0.215552,-4.34457,8.01829,38.628,13.9024
262.822,5.42321,-2.52955,0,1.06818,9.78366,-0.819097,0.945122,3.59756,-4.57317,-39.7238,0.455054,-4.19128,7.2561,35.2439,15.1524
262.832,5.37376,-2.7146,0,0.890947,9.71659,-0.795146,0.152439,3.5061,-4.66463,-39.6088,0.838257,-4.88105,5.85366,35.8232,15.6707
262.842,5.29284,-2.92278,0,0.665815,9.66151,-0.65863,0.121951,0.823171,-5.30488,-39.8867,1.0586,-5.45585,6.21951,36.9207,18.4756
262.852,5.2145,-3.14847,0,0.694556,9.67827,-0.598755,0.152439,-2.2561,-5.54878,-40.0591,1.23104,-5.94444,3.35366,36.6768,18.689
262.862,5.14789,-3.33202,0,0.783171,9.71899,-0.598755,-0.0609756,-3.93293,-5.54878,-40.0208,1.28852,-5.35047,2.31707,34.0854,18.811
262.872,5.08769,-3.48841,0,0.785566,9.7118,-0.529299,0.457317,-4.35976,-5.06098,-39.6855,1.2502,-4.95769,1.98171,32.4085,19.4207
262.882,5.04473,-3.63045,0,0.900527,9.74294,-0.66821,-0.213415,-3.81098,-4.78659,-39.513,1.26936,-4.80441,1.61585,28.8415,16.2195
262.892,5.02915,-3.76673,0,1.12326,9.6639,-0.737666,0.243902,-3.81098,-4.87805,-39.6567,1.09692,-4.83315,-0.0609756,24.878,13.5976
262.902,5.04116,-3.88242,0,1.31008,9.67348,-0.866997,0.152439,-2.71341,-4.39024,-39.4268,1.12566,-4.54575,0.365854,22.5,10.8537
262.912,5.06715,-4.00813,0,1.38672,9.76449,-0.811912,0.335366,-1.43293,-3.81098,-39.3502,1.4897,-4.80441,2.34756,19.3598,8.10976
262.922,5.09558,-4.14258,0,1.27415,9.90341,-0.682581,0.152439,-0.945122,-2.40854,-38.9861,1.71962,-5.00559,3.23171,17.5915,8.87195
262.932,5.1076,-4.26927,0,1.09931,9.86269,-0.725691,-0.853659,-1.7378,-1.98171,-38.9765,1.33642,-4.96727,2.16463,15.9756,11.4939
262.942,5.11279,-4.41224,0,1.05141,9.67348,-0.742456,-0.701219,-1.64634,-2.22561,-39.0723,1.14482,-5.35047,2.16463,16.5854,11.8598
262.952,5.1183,-4.55831,0,1.08734,9.54894,-0.742456,-0.640244,-1.46341,-2.71341,-39.4268,0.761616,-5.55166,0.213415,17.3476,11.3415
262.962,5.15007,-4.74174,0,1.20709,9.52978,-0.740061,0.335366,-2.0122,-2.19512,-39.5035,0.713716,-6.32764,-1.79878,18.2012,8.9939
262.972,5.20159,-4.90553,0,1.18553,9.5681,-0.682581,0.213415,-1.43293,-1.25,-39.446,1.08734,-6.09772,-2.04268,18.2622,8.65854
262.982,5.26377,-5.05659,0,1.13524,9.62798,-0.735271,0.365854,0.609756,-0.579268,-39.4556,1.35558,-5.99234,-3.17073,17.0427,7.31707
262.992,5.30745,-5.18475,0,1.13524,9.65432,-0.687371,0.396341,0.457317,-0.945122,-39.5609,1.5855,-5.70494,-3.04878,17.5915,6.67683
263.002,5.34839,-5.30452,0,1.22386,9.74533,-0.706531,0.426829,0.304878,-1.40244,-39.5418,1.93997,-5.64746,-5,16.372,5.64024
263.012,5.38934,-5.4495,0,1.24302,9.83635,-0.811912,0.0914634,1.31098,-1.34146,-39.4268,1.92081,-6.16478,-5.60976,15.9146,5
263.022,5.42181,-5.58202,0,1.2023,9.83395,-0.728086,0.335366,3.10976,-1.37195,-39.925,1.56634,-6.12646,-9.05488,14.5732,3.96341
263.032,5.4646,-5.70163,0,1.19032,9.83395,-0.66821,0.304878,4.72561,-0.884146,-40.0112,1.42264,-6.00192,-10.7622,14.4207,2.62195
263.042,5.4673,-5.82785,0,0.977168,9.77886,-0.684976,0.121951,5.54878,-0.701219,-39.8292,1.12566,-6.18394,-12.2256,12.8354,2.40854
263.052,5.44318,-5.95952,0,0.857417,9.68785,-0.759221,0.304878,5.60976,-0.97561,-39.4843,1.16398,-6.32764,-12.7439,9.72561,1.0061
263.062,5.40492,-6.07978,0,0.785566,9.70941,-0.706531,-0.243902,4.66463,-1.31098,-39.446,1.17356,-6.21268,-15.3659,9.29878,1.43293
263.072,5.37076,-6.18648,0,0.819097,9.69504,-0.737666,-0.121951,3.62805,-1.98171,-39.5897,1.4418,-6.08814,-16.9817,6.40244,0.945122
263.082,5.35,-6.27313,0,0.924478,9.73815,-0.847837,0.182927,2.46951,-2.2561,-39.5801,1.3939,-5.81032,-18.9329,4.69512,0.335366
263.092,5.35461,-6.36141,0,1.09692,9.70701,-0.694556,-0.304878,2.10366,-2.2561,-39.628,1.32684,-5.9157,-20.4268,2.43902,0
263.102,5.39331,-6.46321,0,1.3005,9.68306,-0.747246,-0.213415,2.92683,-2.0122,-39.628,1.31726,-6.22226,-20.8537,1.7378,-2.28659
263.112,5.46314,-6.58089,0,1.40827,9.53457,-0.754431,0.152439,4.35976,-1.67683,-39.5226,1.18314,-6.56714,-21.8598,0.121951,-2.68293
263.122,5.54378,-6.69367,0,1.35558,9.60642,-0.811912,0.0609756,7.07317,-1.03659,-39.6567,1.16398,-6.5863,-21.6768,-0.182927,-2.10366
263.132,5.60135,-6.82146,0,1.24541,9.69264,-0.878972,0.426829,8.65854,-0.853659,-39.7046,0.857417,-6.95035,-20.9756,-1.67683,-3.44512
263.142,5.64845,-6.95436,0,1.24541,9.70941,-0.790356,0.396341,8.81098,-1.06707,-39.3023,1.09692,-7.06531,-20.3659,-2.7439,-2.46951
263.152,5.66696,-7.07491,0,1.13524,9.75731,-0.742456,0.792683,8.68902,-1.25,-39.2256,0.924478,-6.93119,-19.6646,-4.5122,-1.79878
263.162,5.6656,-7.17611,0,1.08015,9.82677,-0.701741,-0.0914634,8.41463,-1.76829,-39.2448,0.627495,-6.6821,-18.5061,-6.52439,0.121951
263.172,5.64702,-7.27232,0,0.965193,9.83874,-0.725691,0.152439,8.20122,-1.7378,-39.0053,0.416733,-6.62462,-18.2317,-6.76829,1.70732
263.182,5.61445,-7.36197,0,0.886157,9.84353,-0.720901,-0.0304878,8.38415,-2.07317,-39.0628,0.0814307,-6.5863,-17.8659,-6.92073,1.43293
263.192,5.59083,-7.46978,0,0.936453,9.78605,-0.675395,-0.121951,6.79878,-2.04268,-39.331,-0.00479004,-7.01741,-16.7988,-6.43293,-0.213415
263.202,5.57289,-7.57402,0,0.986748,9.71659,-0.661025,0.0914634,5.67073,-2.34756,-39.3981,0.196392,-7.03657,-15.4268,-4.90854,0.0609756
263.212,5.56152,-7.68173,0,0.991538,9.73336,-0.692161,-0.121951,4.93902,-1.82927,-39.1873,0.570015,-7.13237,-13.6585,-4.32927,1.46341
263.222,5.55582,-7.7834,0,0.972378,9.81,-0.62031,-0.121951,3.53659,-0.945122,-39.0915,0.522114,-7.08447,-10.3354,-4.63415,3.53659
263.232,5.5564,-7.8707,0,0.962798,9.81719,-0.574805,-0.335366,1.52439,-0.182927,-39.2256,0.617915,-6.93119,-10.2744,-6.61585,5.64024
263.242,5.55446,-7.96099,0,0.950823,9.86988,-0.60115,-0.853659,0.27439,0.0914634,-39.2831,0.464634,-7.05573,-9.14634,-6.40244,6.34146
263.252,5.53015,-8.06824,0,0.866997,9.89862,-0.57241,-1.52439,-1.03659,0.213415,-39.0723,0.368833,-7.38145,-8.9939,-5.82317,5.70122
263.262,5.48714,-8.16071,0,0.821492,9.86748,-0.62989,-1.58537,-2.31707,0,-38.8616,0.282612,-7.15153,-7.46951,-4.81707,4.66463
263.272,5.45785,-8.23607,0,0.840652,9.78605,-0.65863,-1.43293,-4.02439,-0.884146,-38.8137,0.359253,-6.90245,-6.25,-4.02439,4.57317
263.282,5.45285,-8.31366,0,0.977168,9.75252,-0.617915,-1.09756,-4.72561,-1.34146,-39.0532,0.407153,-7.04615,-7.04268,-6.4939,3.93293
263.292,5.46736,-8.38447,0,1.15919,9.7621,-0.732876,-1.06707,-5.82317,-1.95122,-39.2831,0.502954,-7.01741,-6.95122,-5.39634,4.08537
263.302,5.50827,-8.46974,0,1.31247,9.77168,-0.773591,-1.25,-6.03659,-1.7378,-39.4939,0.531694,-7.36229,-5.39634,-4.39024,4.39024
263.312,5.58644,-8.545,0,1.45857,9.69264,-0.66821,-1.03659,-4.72561,-1.37195,-39.6184,0.694556,-7.26649,-4.5122,-4.63415,5.30488
263.322,5.72694,-8.57536,0,1.50647,9.60403,-0.699346,-0.670732,-3.44512,-0.579268,-39.5418,0.962798,-6.50008,-6.12805,-4.72561,6.18902
263.332,5.8764,-8.62177,0,1.4442,9.6184,-0.706531,-0.609756,-1.95122,0.27439,-39.216,0.886157,-6.75875,-7.0122,-6.34146,7.9878
263.342,5.96999,-8.66322,0,1.33882,9.65672,-0.780776,-0.945122,0.27439,0.548781,-39.149,1.19272,-6.69168,-8.10976,-6.34146,9.29878
263.352,6.0175,-8.71834,0,1.16877,9.68067,-0.701741,-0.579268,-0.27439,0.396341,-39.0149,1.25978,-6.94077,-11.6463,-6.52439,7.80488
263.362,6.03992,-8.76102,0,1.09213,9.67348,-0.62031,-0.243902,-1.25,-0.152439,-39.0244,1.46096,-6.75875,-14.0854,-5.97561,7.59146
263.372,6.06282,-8.79773,0,1.1041,9.69743,-0.735271,-0.487805,-2.2561,-0.182927,-38.9382,1.41306,-6.67252,-16.9207,-7.22561,7.65244
263.382,6.07656,-8.83174,0,1.11847,9.73815,-0.749641,-0.792683,-2.71341,-0.640244,-39.0915,1.2023,-6.6821,-17.2561,-8.81098,6.67683
263.392,6.10014,-8.85911,0,1.16398,9.76449,-0.63468,-0.670732,-2.22561,-0.609756,-39.2065,1.16398,-6.61504,-18.3841,-10.9146,6.25
263.402,6.12825,-8.89061,0,1.21427,9.7118,-0.716111,-1.31098,-1.85976,-0.914634,-39.0436,0.943638,-6.6821,-18.1098,-11.5549,5.06098
263.412,6.16538,-8.92435,0,1.21667,9.69743,-0.689766,-1.52439,-0.27439,-0.609756,-39.1298,0.704136,-6.75875,-19.2378,-11.5549,4.5122
263.422,6.16952,-8.96934,0,1.09692,9.77886,-0.65384,-1.89024,2.28659,-0.579268,-38.9286,0.895737,-6.94077,-20.3963,-9.87805,4.02439
263.432,6.14929,-9.02604,0,1.01788,9.77647,-0.778381,-0.884146,2.80488,-1.40244,-38.8328,0.780776,-7.16111,-21.5549,-9.54268,3.9939
263.442,6.11485,-9.0793,0,0.974773,9.79563,-0.696951,-0.731707,2.34756,-2.40854,-38.8328,0.934058,-7.13237,-22.1646,-7.37805,4.17683
263.452,6.08726,-9.12352,0,1.07297,9.71659,-0.718506,-0.457317,1.85976,-3.23171,-38.8807,1.1065,-7.01741,-21.2805,-7.0122,5.79268
263.462,6.06916,-9.15415,0,1.17595,9.71899,-0.752036,-1.06707,1.43293,-3.59756,-39.1586,1.1065,-6.85455,-19.8171,-6.43293,6.0061
263.472,6.07841,-9.18945,0,1.32924,9.6663,-0.62031,-1.18902,1.89024,-3.01829,-39.4939,0.752036,-7.01741,-20.2439,-6.03659,6.79878
263.482,6.11222,-9.21429,0,1.44659,9.59684,-0.622705,-0.823171,2.95732,-2.53049,-39.4651,0.560435,-6.85455,-19.6646,-7.37805,5.03049
263.492,6.13636,-9.24035,0,1.30529,9.69025,-0.60594,-1.28049,5.2439,-1.79878,-39.4939,0.608335,-6.90245,-18.0488,-8.32317,4.93902
263.502,6.1402,-9.25756,0,1.16398,9.69264,-0.696951,-1.25,5.06098,-1.64634,-39.2927,0.694556,-6.73,-17.8354,-8.96341,5.54878
263.512,6.13898,-9.27778,0,1.13284,9.70701,-0.680186,-1.03659,4.60366,-1.61585,-39.0053,0.637075,-6.74917,-18.3537,-9.78659,5.73171
263.522,6.12466,-9.28673,0,1.07057,9.70462,-0.728086,-0.609756,4.08537,-1.89024,-39.1586,0.866997,-6.59588,-17.8049,-11.6159,5.12195
263.532,6.10565,-9.29479,0,1.04183,9.70941,-0.59157,-0.731707,2.62195,-1.95122,-38.9095,0.914897,-6.54798,-16.372,-12.5915,5.06098
263.542,6.08498,-9.32171,0,1.0107,9.68306,-0.570015,-1.18902,1.15854,-1.70732,-38.8999,0.790356,-6.89287,-15.4573,-14.9085,7.2561
263.552,6.07033,-9.33204,0,1.06099,9.72138,-0.574805,-1.15854,-0.548781,-1.89024,-39.2352,0.694556,-6.67252,-15.0305,-13.9634,7.07317
263.562,6.07256,-9.35163,0,1.152,9.71899,-0.512534,-1.61585,-1.15854,-1.70732,-39.0149,0.771196,-6.80665,-15.0305,-14.0244,7.7439
263.572,6.08999,-9.37431,0,1.20709,9.76449,-0.56762,-1.89024,-0.97561,-1.28049,-39.0628,0.617915,-6.88329,-15.122,-13.9939,8.29268
263.582,6.11963,-9.40338,0,1.23823,9.74294,-0.673001,-1.64634,-1.18902,-1.0061,-38.8424,0.637075,-6.96951,-12.8963,-12.9268,9.54268
263.592,6.17425,-9.43416,0,1.31487,9.73815,-0.66342,-1.18902,-0.609756,-0.701219,-39.0628,0.579595,-7.05573,-10.4268,-11.7378,10.8537
263.602,6.21848,-9.46717,0,1.24781,9.7118,-0.58199,-1.37195,0.548781,-0.548781,-38.9574,0.665815,-7.09405,-10.2439,-10.6098,12.5
263.612,6.23266,-9.49214,0,1.14242,9.69504,-0.60594,-1.4939,0.518293,-0.670732,-39.2735,0.637075,-7.02699,-7.95732,-9.39024,11.6768
263.622,6.24466,-9.51134,0,1.16398,9.68785,-0.627495,-1.37195,-0.609756,-1.0061,-39.216,0.522114,-6.93119,-8.75,-9.35976,10.3659
263.632,6.2526,-9.52796,0,1.18793,9.77407,-0.689766,-1.12805,-1.12805,-1.31098,-39.1873,0.617915,-6.89287,-10,-9.08537,8.9939
263.642,6.24761,-9.54522,0,1.16637,9.75491,-0.646655,-1.09756,-1.0061,-1.98171,-39.264,1.12566,-6.93119,-10.2134,-9.54268,8.41463
263.652,6.24703,-9.5859,0,1.19032,9.73815,-0.66342,-1.03659,-1.09756,-1.95122,-39.1681,1.17356,-7.34313,-10.4878,-9.26829,10.0915
263.662,6.26347,-9.60035,0,1.28613,9.69025,-0.656235,-0.731707,-0.792683,-1.85976,-39.3023,0.981958,-6.93119,-12.2256,-10.2744,10.4878
263.672,6.27753,-9.60117,0,1.25499,9.72617,-0.574805,-1.58537,0.762195,-1.64634,-39.3023,1.11608,-6.70126,-12.439,-11.128,10.1524
263.682,6.27879,-9.61237,0,1.15919,9.7142,-0.61552,-1.85976,1.58537,-1.46341,-39.331,0.847837,-6.89287,-10.7927,-11.372,10.3354
263.692,6.26179,-9.62669,0,1.07297,9.616,-0.752036,-1.82927,1.61585,-1.98171,-39.2352,0.713716,-6.94077,-12.8049,-11.7378,10.1829
263.702,6.23819,-9.64161,0,1.09692,9.60642,-0.728086,-1.31098,1.52439,-2.9878,-39.264,0.732876,-6.96951,-12.378,-12.5,9.84756
263.712,6.20961,-9.64571,0,1.09931,9.65911,-0.759221,-1.40244,1.40244,-3.47561,-39.3502,0.924478,-6.80665,-14.1768,-13.872,8.75
263.722,6.18687,-9.64,0,1.1999,9.62798,-0.747246,-1.25,1.67683,-4.20732,-39.4364,1.13524,-6.65336,-14.3598,-15.061,9.45122
263.732,6.1796,-9.63646,0,1.32205,9.72617,-0.742456,-1.15854,2.22561,-4.02439,-39.8196,0.723296,-6.75875,-15.6098,-16.7073,8.9939
263.742,6.1758,-9.64905,0,1.32924,9.79803,-0.716111,-1.21951,3.44512,-3.68902,-39.7046,0.445474,-7.02699,-15.5183,-16.5854,7.62195
263.752,6.16742,-9.68541,0,1.27894,9.75731,-0.699346,-1.21951,4.69512,-3.62805,-39.5418,0.397573,-7.43893,-13.9634,-17.5915,5.36585
263.762,6.1533,-9.74121,0,1.1999,9.7142,-0.66821,-1.55488,4.78659,-3.35366,-39.3023,0.253872,-7.76465,-12.0732,-16.4024,5.09146
263.772,6.12497,-9.75367,0,1.13284,9.70462,-0.720901,-1.40244,5.21341,-3.96341,-39.1777,0.244292,-7.00783,-10.3049,-17.2561,6.12805
263.782,6.08878,-9.78441,0,1.06578,9.70701,-0.687371,-1.4939,4.42073,-3.9939,-39.1203,0.234712,-7.33355,-8.07927,-17.7134,7.2561
263.792,6.04568,-9.8034,0,1.02986,9.70941,-0.60594,-1.82927,3.32317,-4.32927,-39.1107,0.359253,-7.14195,-7.80488,-17.1341,7.22561
263.802,6.0002,-9.82167,0,1.00112,9.74294,-0.519719,-2.2561,2.56098,-4.26829,-39.3981,0.541274,-7.19943,-8.47561,-18.3841,7.92683
263.812,5.94819,-9.83669,0,0.962798,9.66151,-0.536484,-2.40854,0.884146,-4.66463,-39.5322,0.570015,-7.18027,-7.7439,-18.872,7.89634
263.822,5.89612,-9.84283,0,1.00112,9.59205,-0.402363,-1.85976,-0.304878,-5.33537,-39.5897,0.598755,-7.04615,-9.02439,-20.2134,7.46951
263.832,5.84989,-9.85133,0,1.03465,9.60163,-0.476609,-2.62195,-1.64634,-5.2439,-39.7813,0.435894,-7.13237,-9.66463,-21.6463,7.5
263.842,5.82238,-9.85547,0,1.13045,9.60882,-0.682581,-2.68293,-3.10976,-4.60366,-39.7909,0.531694,-7.06531,-8.71951,-22.7439,5.33537
263.852,5.81317,-9.88035,0,1.26218,9.72617,-0.941243,-2.46951,-1.40244,-4.2378,-39.8004,0.560435,-7.44851,-8.59756,-23.5366,5.30488
263.862,5.78911,-9.91255,0,1.18793,9.84832,-0.910107,-2.53049,0.609756,-4.66463,-39.6184,0.435894,-7.56347,-5.88415,-23.1402,4.60366
263.872,5.7473,-9.91952,0,1.08255,9.81719,-0.792751,-2.2561,0.182927,-5.30488,-39.6376,0.253872,-7.14195,-5.03049,-25.3659,4.48171
263.882,5.6845,-9.94571,0,0.960403,9.9082,-0.62031,-2.34756,-1.64634,-5.97561,-39.6184,0.426313,-7.49641,-3.2622,-27.0122,4.81707
263.892,5.59562,-9.96614,0,0.826282,9.84593,-0.63947,-3.32317,-3.44512,-7.2561,-39.7046,0.531694,-7.42935,-2.56098,-27.622,5.85366
263.902,5.51165,-9.9509,0,0.876577,9.81719,-0.637075,-3.81098,-4.32927,-7.56098,-39.992,0.397573,-6.85455,-3.2622,-29.2073,6.37195
263.912,5.42742,-9.94079,0,0.888552,9.79323,-0.637075,-4.5122,-5.39634,-7.92683,-39.9633,0.378413,-6.94077,-6.28049,-31.7378,7.5
263.922,5.34841,-9.95596,0,0.938848,9.8124,-0.62031,-4.66463,-5.88415,-8.14024,-39.8771,0.416733,-7.38145,-7.04268,-32.9878,7.9878
263.932,5.26344,-9.96139,0,0.905317,9.79084,-0.57241,-5.27439,-6.61585,-8.53659,-39.8867,0.0814307,-7.22817,-7.28659,-36.0671,8.78049
263.942,5.18769,-9.95817,0,0.989143,9.80042,-0.6251,-5.39634,-7.10366,-8.75,-39.8196,-0.138911,-7.06531,-8.84146,-36.6159,8.44512
263.952,5.13886,-9.95526,0,1.21667,9.75731,-0.744851,-5.33537,-7.7439,-8.90244,-39.4364,0.0622705,-7.00783,-9.5122,-38.7195,7.89634
263.962,5.10679,-9.96625,0,1.38432,9.68306,-0.764011,-5.54878,-7.16463,-9.39024,-39.5801,0.0143701,-7.28565,-8.35366,-39.8171,6.4939
263.972,5.08301,-9.98887,0,1.41067,9.60642,-0.720901,-5.45732,-6.06707,-9.05488,-39.5514,0.167651,-7.49641,-8.01829,-39.3598,7.43902
263.982,5.0644,-10.0072,0,1.43701,9.58247,-0.617915,-5.51829,-7.16463,-8.93293,-39.4172,0.148491,-7.41019,-6.21951,-39.2988,8.14024
263.992,5.06251,-10.0004,0,1.54958,9.63516,-0.66821,-5.7622,-7.37805,-8.5061,-38.9382,0.177231,-6.89287,-7.5,-41.128,7.0122
264.002,5.07074,-9.9762,0,1.6334,9.60163,-0.673001,-5.15244,-6.03659,-8.53659,-38.737,0.129331,-6.54798,-8.20122,-41.4634,6.4939
264.012,5.07345,-9.96641,0,1.56874,9.58247,-0.682581,-5.27439,-4.5122,-8.35366,-38.5263,-0.0239502,-6.74917,-10.1829,-41.9207,5.09146
264.022,5.07895,-9.97312,0,1.59508,9.48667,-0.689766,-4.39024,-4.29878,-8.56707,-38.6125,0.0718506,-7.03657,-10.5793,-38.8415,5.2439
264.032,5.08361,-9.98433,0,1.61424,9.44117,-0.764011,-3.93293,-5.94512,-8.96341,-38.6125,0.196392,-7.11321,-12.6524,-36.7073,3.84146
264.042,5.10092,-9.97329,0,1.76752,9.43638,-0.752036,-2.83537,-6.92073,-9.5122,-38.4017,0.110171,-6.69168,-14.5122,-36.25,1.40244
264.052,5.16465,-9.94085,0,2.09804,9.51302,-0.641865,-2.62195,-6.15854,-8.47561,-38.3826,-0.0814307,-6.30848,-16.0366,-36.25,-0.548781
264.062,5.27418,-9.90563,0,2.38304,9.52499,-0.675395,-3.53659,-6.85976,-6.98171,-38.4113,0.263452,-6.24142,-15.2134,-35.9146,-1.15854
264.072,5.46079,-9.88309,0,2.89558,9.54894,-0.802332,-3.90244,-6.61585,-4.90854,-38.373,0.924478,-6.43302,-12.8963,-36.4329,-3.90244
264.082,5.77811,-9.8432,0,3.365,9.30705,-0.958008,-5.03049,-7.0122,-2.28659,-38.7754,1.41306,-6.18394,-12.4085,-37.5,-0.884146
264.092,6.24103,-9.77565,0,4.08351,8.83283,-1.03944,-4.93902,-6.12805,2.62195,-39.0819,1.78668,-5.7241,-10.061,-39.4207,0.579268
264.102,6.83262,-9.69909,0,4.90261,8.21492,-0.965193,-3.65854,-5.03049,10.1829,-39.0149,1.825,-5.5325,-7.40854,-46.189,3.14024
264.112,7.60659,-9.61086,0,5.64506,7.81255,-0.773591,-1.43293,-2.13415,19.7561,-38.2772,1.35558,-5.19719,-0.396341,-52.8049,7.95732
264.122,8.50122,-9.53788,0,6.05221,7.88201,-0.313748,1.67683,3.2622,30.2439,-37.8461,0.924478,-5.35047,11.6463,-56.3415,7.7439
264.132,9.44753,-9.42669,0,5.90372,8.38736,-0.0646655,2.68293,7.34756,42.1951,-37.3958,0.138911,-4.60323,25.3659,-58.0793,4.54268
264.142,10.401,-9.29808,0,5.51573,9.09149,-0.0239502,2.46951,11.189,52.8049,-37.2042,-0.253872,-4.2296,40.122,-62.0122,-1.98171
264.152,11.3711,-9.17533,0,5.31215,9.79323,-0.153281,2.0122,16.6768,62.1037,-36.754,-0.445474,-4.20086,57.5305,-65.0915,-9.66463
264.162,12.3259,-9.08736,0,4.94811,10.4016,-0.316143,0.823171,23.75,68.7195,-36.9264,-0.570015,-4.70861,72.6219,-63.1707,-17.6524
264.172,13.2304,-8.9963,0,4.44755,10.9381,-0.59636,-0.213415,33.5366,72.2866,-37.5779,-0.177231,-4.67029,83.0183,-59.9695,-23.75
264.182,14.0464,-8.88744,0,3.74821,11.4865,-0.392783,-1.18902,39.9695,73.3841,-38.4401,0.570015,-4.40205,89.4207,-57.7134,-27.1646
264.192,14.7464,-8.80688,0,2.87402,11.9799,0.114961,-2.46951,38.0793,72.561,-39.6663,1.36516,-4.96727,87.8659,-57.5,-27.1037
264.202,15.341,-8.75562,0,2.17707,12.1643,0.546064,-2.34756,29.9085,70.061,-39.7909,2.48603,-5.43669,82.0732,-54.0854,-22.9268
264.212,15.9,-8.72247,0,2.02379,12.1739,0.292192,-2.80488,24.939,69.0854,-40.8159,3.24286,-5.84864,73.1402,-47.7134,-16.4024
264.222,16.4458,-8.69736,0,1.97829,11.6877,0.0550855,-2.7439,26.1585,68.5366,-42.1284,4.2775,-6.14562,59.9085,-42.6829,-5.60976
264.232,16.978,-8.68536,0,1.84656,11.1153,0.395178,0.365854,24.6951,68.6281,-43.4025,4.97685,-6.55756,45.1829,-39.878,5.18293
264.242,17.5262,-8.70579,0,1.96631,10.9716,0.687371,2.07317,17.2866,69.8476,-44.0348,4.86189,-7.28565,36.7988,-39.0854,15.7622
264.252,18.1223,-8.74316,0,2.3064,10.9764,0.486189,2.0122,10.5488,72.3781,-43.7666,4.42121,-7.58263,32.622,-36.2805,22.1341
264.262,18.7928,-8.75225,0,2.90037,10.8566,0.210762,1.28049,8.41463,74.8781,-42.7032,4.15296,-6.89287,29.6951,-39.6646,24.7866
264.272,19.534,-8.71811,0,3.49433,10.6626,0.148491,0.213415,10.2744,76.9512,-41.9368,4.06674,-5.99234,25.3354,-48.872,24.3598
264.282,20.3212,-8.67364,0,3.85838,10.4088,0.352068,-0.640244,13.2927,78.689,-40.7872,3.30992,-5.6283,27.6829,-52.8659,22.1037
264.292,21.1287,-8.61914,0,4.04998,10.2698,0.469424,-1.18902,14.4207,79.939,-40.1932,2.47645,-5.35047,33.4756,-57.622,18.628
264.302,21.9393,-8.56167,0,4.04279,10.1597,0.433499,-2.07317,13.9939,81.5549,-39.446,2.15073,-5.16845,36.0976,-59.939,16.2805
264.312,22.7331,-8.50001,0,3.94939,10.1573,0.277822,-1.61585,12.6829,82.4085,-38.8712,1.69088,-4.98643,37.5915,-61.7378,15.3354
264.322,23.5051,-8.44444,0,3.86556,10.198,0.150886,-1.55488,13.9634,82.8049,-38.3059,1.48012,-4.97685,38.5366,-61.7988,14.2378
264.332,24.2585,-8.38566,0,3.85359,10.1309,0.182021,-1.67683,15.9451,82.3476,-37.8365,1.40348,-4.81399,40.2439,-58.75,17.9573
264.342,24.9955,-8.31924,0,3.83443,9.91299,0.191602,-1.43293,17.8659,81.5549,-37.1563,1.92081,-4.55533,38.4146,-56.7988,21.8598
264.352,25.7114,-8.2521,0,3.79132,9.64714,0.452659,-0.365854,17.7744,80.2744,-37.0701,2.63931,-4.47869,33.0488,-53.5366,25.7317
264.362,26.424,-8.17549,0,3.82724,9.41961,0.603545,0.457317,17.1646,80.061,-37.1563,3.1279,-4.28709,27.5305,-53.4146,30.7927
264.372,27.1273,-8.10578,0,3.79371,9.16813,0.684976,0.365854,16.0976,79.8171,-37.3288,3.68354,-4.36373,20.5183,-50.9756,34.3293
264.382,27.8146,-8.04153,0,3.71707,8.85439,0.66342,-1.34146,14.939,79.0244,-37.1468,4.21044,-4.38289,11.372,-49.6646,33.9329
264.392,28.4804,-8.01858,0,3.59732,8.39933,0.65863,-3.14024,11.9817,77.3781,-37.0031,4.64155,-4.99601,2.19512,-45.9451,32.5
264.402,29.1292,-8.02617,0,3.56139,7.86285,0.507744,-4.29878,6.70732,74.6037,-36.8019,5.05349,-5.44627,-6.67683,-42.0122,29.878
264.412,29.7585,-8.0572,0,3.51589,7.44612,0.325723,-3.93293,1.95122,72.0732,-36.8402,5.38879,-5.83906,-14.8476,-39.6646,23.689
264.422,30.3119,-8.21144,0,3.36021,7.68801,0.421523,-7.77439,-0.335366,69.0244,-36.4857,7.05573,-7.81255,-10.9146,-27.0732,19.2378
264.432,30.8509,-8.26042,0,3.42009,7.26649,0.426313,-9.35976,-2.77439,65.4268,-37.5395,4.94811,-6.35638,-35.9756,-32.7439,12.4695
264.442,31.3706,-8.32282,0,3.58055,7.20661,0.529299,-9.39024,-6.58537,62.0732,-38.0281,4.43079,-6.67252,-39.4817,-23.4146,4.69512
264.452,31.8888,-8.40628,0,3.86556,7.0701,0.0455054,-5.64024,-12.0427,58.3841,-38.2197,4.038,-7.11321,-46.372,-22.7439,-1.98171
264.462,32.4022,-8.46552,0,4.16015,7.07728,-0.165256,-1.76829,-12.2561,55.3354,-38.4592,3.38656,-6.78749,-51.8598,-21.5244,-8.32317
264.472,32.8547,-8.52783,0,4.16733,7.39822,0,0.213415,-10.9756,52.3171,-38.3922,3.09916,-6.87371,-58.0793,-22.561,-13.7195
264.482,33.2641,-8.62325,0,4.10267,7.36469,0.270637,-1.95122,-10.9756,49.3902,-37.9611,2.75427,-7.40061,-63.5976,-19.0244,-16.8902
264.492,33.625,-8.7226,0,3.83682,6.98388,0.205972,-2.34756,-12.0732,45.9756,-37.7407,2.68721,-7.47725,-67.5305,-15,-19.7866
264.502,33.9149,-8.83621,0,3.59492,6.84018,-0.0742456,-2.2561,-11.5854,41.6159,-37.4916,2.62015,-7.73591,-72.9878,-13.5366,-21.128
264.512,34.1537,-8.92637,0,3.52068,6.60786,-0.0646655,-1.46341,-13.2012,36.3415,-37.2713,3.16622,-7.36229,-75,-12.3171,-20.9146
264.522,34.3271,-8.9978,0,3.38895,6.42823,-0.285007,-0.396341,-17.1951,30.6707,-37.1276,3.33866,-7.07489,-79.3598,-11.8598,-21.7073
264.532,34.4321,-9.09887,0,3.22849,6.26058,-0.756826,1.46341,-20.8841,25.0915,-37.2426,3.87514,-7.64969,-82.5915,-11.5244,-20.9756
264.542,34.4797,-9.20547,0,3.21412,6.14083,-0.704136,5.85366,-24.2683,18.75,-37.3671,4.05716,-7.83171,-86.9817,-9.39024,-20.9756
264.552,34.4983,-9.31695,0,3.4632,6.17197,-0.744851,10.2439,-26.9207,12.4695,-37.4342,4.05716,-7.99458,-91.4329,-6.95122,-21.8293
264.562,34.4888,-9.4489,0,3.89909,6.38752,-0.342488,11.9817,-29.7866,5.7622,-37.4342,3.78892,-8.4161,-97.2866,-4.42073,-21.9512
264.572,34.1717,-9.57034,0,4.42121,6.87131,-0.64905,11.3415,-32.1037,-0.213415,-37.53,3.38656,-8.33946,-101.585,-2.53049,-24.0244
264.582,34.1386,-9.70818,0,4.98404,7.24014,-0.65863,10.5183,-28.9939,-4.20732,-37.7407,2.96503,-8.7514,-104.787,-0.792683,-25.2134
264.592,34.1261,-9.84105,0,5.66662,7.39343,-0.308958,8.10976,-24.7256,-8.07927,-37.9036,2.15073,-8.7993,-106.341,-1.25,-25.2744
264.602,34.1722,-9.94402,0,6.42344,7.2114,-0.182021,6.25,-21.7683,-10.7317,-37.894,1.69088,-8.3682,-105.64,-2.34756,-25.5793
264.612,34.2636,-10.0338,0,7.22098,7.22817,-0.241897,6.31098,-17.0732,-12.7134,-37.9132,1.62382,-8.21492,-103.78,-2.92683,-24.2988
264.622,34.389,-10.1357,0,7.58742,7.24014,-0.203577,7.16463,-10.5488,-11.8598,-37.8269,1.36516,-8.48316,-100.732,-6.55488,-23.0488
264.632,34.5417,-10.2209,0,7.92751,7.25451,-0.184417,6.79878,1.37195,-11.25,-38.1527,1.28852,-8.33946,-96.3719,-8.81098,-20.7622
264.642,34.6997,-10.3236,0,7.92512,7.05094,-0.244292,8.78049,11.5549,-12.0427,-38.2006,1.33642,-8.71308,-90.1219,-7.07317,-15.7317
264.652,34.8518,-10.4257,0,8.0329,7.10123,-0.217947,9.69512,21.1585,-12.6829,-38.4401,1.7771,-8.82804,-85.7927,-6.18902,-10.1829
264.662,34.9633,-10.551,0,7.67364,7.21619,-0.330513,11.25,27.2866,-12.9268,-38.7658,1.75794,-9.38369,-84.4817,-3.84146,-3.75
264.672,35.0186,-10.722,0,7.08926,7.21859,-0.244292,12.3171,30.0915,-13.7805,-39.5418,2.18905,-10.5046,-81.1281,-1.25,0.518293
264.682,34.9875,-10.9316,0,6.43781,7.26888,-0.146096,13.689,33.5061,-16.4634,-40.3178,2.05493,-11.5584,-75.8537,3.32317,5.67073
264.692,34.8667,-11.1585,0,5.772,7.08207,-0.126936,15.8537,37.3171,-20.8841,-40.8734,2.42855,-12.2002,-72.6829,8.68902,8.38415
264.702,34.6829,-11.3908,0,5.35526,6.81383,-0.0670605,19.8476,38.811,-25.4878,-41.4578,2.26569,-12.6313,-71.2805,16.0976,8.2622
264.712,34.4333,-11.6156,0,5.15408,6.84497,0.0742456,21.4939,36.4634,-30.1524,-41.7739,2.89797,-12.7271,-69.6341,24.6646,7.9878
264.722,34.1108,-11.7762,0,4.92656,6.88329,0.131726,22.3171,33.5671,-35.2744,-41.9943,3.68354,-11.6829,-69.0549,25.122,8.62805
264.732,33.689,-11.9005,0,4.79004,7.12758,0.548459,24.9085,32.5915,-42.622,-42.6745,4.28709,-11.2805,-66.7683,22.1646,9.17683
264.742,32.9996,-12.0049,0,4.28709,8.77535,1.00591,20.4573,23.628,-54.7256,-42.6936,5.08223,-11.0027,-62.1951,17.0427,15.6402
264.752,32.0887,-12.0665,0,3.99968,10.6722,-0.256267,14.6646,7.46951,-67.5305,-43.4504,5.25467,-10.4279,-56.9512,13.2622,23.9024
264.762,31.0967,-12.0677,0,3.46559,11.2542,-1.07776,12.2561,-12.561,-70.6707,-44.5809,4.25834,-9.49865,-52.8963,13.75,30.9451
264.772,30.2147,-12.0504,0,3.43925,10.7297,-0.498164,12.3476,-38.0183,-62.8049,-45.1844,3.07042,-9.24957,-50.4878,12.6829,33.5366
264.782,29.5824,-11.9232,0,4.55772,10.0758,0.495769,9.17683,-63.9024,-52.5305,-46.8993,1.57592,-7.24733,-45.8537,10.7317,33.6585
264.792,29.2204,-11.679,0,6.76354,9.69264,0.505349,3.20122,-82.7744,-47.8049,-49.3039,-0.445474,-4.95769,-36.7988,2.92683,26.7988
264.802,28.9991,-11.3948,0,9.20166,10.1932,0.155676,5.36585,-86.7988,-48.811,-51.354,-2.55309,-4.0859,-15.7927,-9.2378,17.0427
264.812,28.7372,-11.1969,0,11.0818,12.4637,0.845442,9.20732,-68.2317,-52.5305,-51.3444,-4.60323,-5.83906,10.4878,-18.6585,10.4878
264.822,28.5347,-11.1109,0,13.1702,14.8707,0.764011,6.4939,-51.7988,-46.7683,-45.7113,-9.90101,-7.29523,42.6829,-8.44512,8.96341
264.832,28.5963,-11.1888,0,14.2336,14.7102,-1.09931,4.29878,-37.0732,-25.3963,-45.7497,-10.6962,-10.5812,80.061,11.311,6.98171
264.842,28.7533,-11.1168,0,9.78844,12.9786,0.0479004,-9.32927,-12.1646,-1.18902,-47.0717,-10.0447,-7.67843,101.006,21.5549,3.96341
264.852,28.7455,-10.8861,0,3.56858,9.56571,0.371228,-18.689,8.29268,16.128,-39.9154,-8.11912,-3.6069,109.909,25.7622,2.89634
264.862,28.1141,-10.4763,0,-1.4921,7.41977,0.387993,-18.8415,17.3171,17.439,-37.6449,-2.09325,-0.244292,104.756,33.5671,12.9268
264.872,25.9038,-9.92422,0,-4.3781,6.33004,0.155676,-10.5183,11.1585,3.04878,-37.6449,1.23104,2.35191,95.1829,22.0122,23.2927
264.882,24.3814,-9.20984,0,-5.79355,6.58151,0.725691,-2.56098,-12.2256,-18.0793,-39.5897,5.88696,5.65704,76.9512,3.29268,33.6585
264.892,22.7196,-8.37053,0,-5.92049,7.31439,0.828677,-4.45122,-54.4817,-40.2439,-40.4806,10.4567,8.53106,46.0061,-17.0122,39.0854
264.902,21.1339,-7.39269,0,-3.93023,7.58024,-0.922083,-8.84146,-101.768,-59.5122,-44.83,7.98499,12.9954,-0.914634,-31.6159,41.7378
264.912,19.8827,-6.58086,0,-0.991538,8.87355,-3.22849,-9.54268,-124.024,-71.5244,-42.0518,12.0374,9.71899,-25.6098,-19.0854,40.1524
264.922,18.8835,-5.86208,0,1.3939,10.7944,-4.62718,-5.15244,-112.104,-76.4024,-42.4445,11.4242,8.5598,-49.2683,-33.9939,30.9756
264.932,18.1115,-5.25925,0,3.29794,12.193,-4.12422,1.43293,-83.5366,-71.1281,-42.2434,7.46767,6.84497,-65.3963,-31.6768,17.1646
264.942,17.5317,-4.70934,0,4.02124,12.1284,-2.89558,2.80488,-60.1829,-59.6341,-41.7931,3.37698,6.21268,-67.439,-34.7866,4.84756
264.952,17.0233,-4.20072,0,3.52547,11.52,-1.99745,-2.46951,-42.2866,-50.8232,-41.5536,-0.780776,5.79116,-63.2012,-40.5183,-2.13415
264.962,16.4978,-3.80219,0,2.74709,10.7129,-1.62382,-7.2561,-26.9817,-48.2317,-41.1608,-4.35415,4.0859,-60.4573,-39.2683,-5.91463
264.972,15.9314,-3.48622,0,2.22737,10.1501,-1.43941,-6.61585,-14.7866,-49.3902,-40.7776,-6.95993,2.87881,-50,-27.9573,-6.52439
264.982,15.3293,-3.2332,0,1.91123,9.79323,-1.27894,-4.2378,-5.57927,-51.4634,-38.9478,-8.34904,1.90165,-33.3232,-21.8293,-1.40244
264.992,14.7129,-3.09751,0,1.95194,9.53936,-1.27176,-3.56707,-3.20122,-55.2134,-37.415,-7.88919,0.0814307,-19.2378,-13.872,3.75
265.002,14.0602,-2.88707,0,1.71483,9.31184,-1.67412,-2.34756,-2.2561,-57.8659,-36.6199,-6.22226,1.35558,0.457317,-19.4817,14.5732
265.012,13.3451,-2.60646,0,1.27655,9.27352,-1.72681,0.487805,-1.98171,-60.2744,-36.7156,-4.38289,2.62973,14.6341,-20.6707,25.5183
265.022,12.5492,-2.38371,0,0.701741,9.616,-1.57113,2.65244,-4.45122,-62.5,-37.4342,-3.09916,1.90165,22.9268,-22.3171,32.3476
265.032,11.6859,-2.18491,0,0.186812,9.99921,-1.54479,3.84146,-8.5061,-64.6646,-39.1203,-2.31359,1.71962,34.5122,-24.1463,33.1402
265.042,10.7799,-2.03016,0,-0.256267,10.0399,-1.37474,3.23171,-14.5427,-65.6098,-40.3082,-2.09325,1.12566,39.5732,-24.939,27.1646
265.052,9.8545,-1.89125,0,-0.574805,10.1118,-1.21188,1.15854,-23.1707,-65.7927,-40.7872,-1.33642,0.972378,44.3598,-22.5915,16.7073
265.062,8.95027,-1.79202,0,-0.555645,10.0543,-1.23823,-1.67683,-32.8963,-65.7012,-40.7201,-0.340093,0.368833,47.622,-19.3293,6.98171
265.072,8.08792,-1.70534,0,-0.390388,10.0351,-1.23104,-3.41463,-43.4146,-65.1829,-39.9441,0.742456,0.215552,47.561,-17.7134,-1.55488
265.082,7.27345,-1.63399,0,-0.126936,9.81719,-1.08973,-5.03049,-52.2561,-65.0915,-39.1394,1.09692,0.00479004,46.8293,-18.0793,-7.28659
265.092,6.55106,-1.54822,0,0.61552,9.65911,-1.14003,-7.13415,-58.2622,-66.311,-38.5263,1.4418,0.292192,45.5488,-19.6646,-10.9146
265.102,5.8516,-1.48365,0,0.850232,9.49625,-1.41067,-7.28659,-62.6829,-68.4451,-38.009,0.991538,-0.0143701,43.4756,-21.0061,-14.3293
265.112,5.14998,-1.43803,0,0.701741,9.71899,-1.43701,-9.17683,-68.0183,-68.0793,-37.4342,0.378413,-0.292192,44.1159,-23.3537,-16.25
265.122,4.51369,-1.39979,0,1.06818,9.52978,-1.8753,-10.8232,-73.811,-67.4695,-36.6582,-0.589175,-0.387993,43.9939,-27.0732,-16.8598
265.132,3.90747,-1.34905,0,1.20709,9.35495,-2.26329,-10.3963,-75.5793,-67.6524,-36.3133,-1.04902,-0.167651,46.128,-29.5122,-18.689
265.142,3.32681,-1.32072,0,1.34121,9.33818,-2.33035,-10.8232,-73.2317,-67.9573,-35.8055,-1.6813,-0.493374,45.3049,-31.4634,-16.9512
265.152,2.81067,-1.30791,0,1.76034,9.31663,-2.33993,-12.5915,-65.6402,-67.7134,-35.2212,-1.87291,-0.704136,46.0061,-29.9085,-19.5427
265.162,2.35894,-1.2947,0,2.05972,8.92145,-2.54112,-12.5915,-55.9756,-66.8902,-34.9433,-2.18905,-0.694556,47.8049,-33.2317,-20.4878
265.172,1.95584,-1.3103,0,2.40939,8.90229,-2.56028,-10.6402,-46.8902,-67.2256,-34.7517,-2.16989,-1.13524,51.311,-36.8598,-22.0122
265.182,1.62834,-1.38028,0,2.91713,9.14897,-2.65368,-10,-35.7927,-65.5183,-34.6176,-1.93997,-1.96871,55.122,-35.8232,-22.6524
265.192,1.37573,-1.50762,0,3.36979,9.37411,-2.42615,-9.72561,-22.2256,-62.8049,-34.5601,-1.90165,-2.87881,58.4146,-33.5061,-20.8232
265.202,1.16536,-1.61018,0,3.35542,9.43877,-1.94955,-9.14634,-11.8902,-58.5976,-34.905,-1.71962,-2.59141,62.378,-29.9695,-16.8598
265.212,0.96934,-1.74992,0,3.08958,9.4747,-1.70525,-8.62805,-4.81707,-54.4817,-35.0104,-1.81542,-3.23328,66.2805,-27.8049,-11.0671
265.222,0.784167,-1.91341,0,2.82852,9.30226,-1.69807,-7.62195,0.823171,-51.4329,-34.6751,-1.87291,-3.63564,68.6281,-21.5854,-5.27439
265.232,0.593127,-2.11233,0,2.55309,9.1825,-1.72202,-5.60976,6.28049,-49.6037,-34.3111,-1.52802,-4.22002,69.8781,-15.2134,1.79878
265.242,0.374388,-2.32259,0,2.14833,9.05317,-1.56874,-1.79878,10.8232,-48.3537,-33.5351,-1.1065,-4.39247,72.6829,-8.14024,8.93293
265.252,0.146901,-2.54217,0,1.93518,9.1346,-1.38911,-0.457317,11.8293,-46.8598,-33.6309,-0.368833,-4.66071,77.6219,-4.54268,17.4085
265.262,-0.0620146,-2.78182,0,1.94476,8.95019,-1.57113,0.457317,10.6707,-46.0366,-33.7458,0.158071,-5.11097,80.1524,-3.71951,24.4207
265.272,-0.24641,-3.01511,0,1.95913,8.59333,-1.71244,1.89024,8.41463,-45.1524,-33.947,0.502954,-5.17803,80.0305,0.0914634,26.9207
265.282,-0.423345,-3.26973,0,1.81782,7.89159,-2.13396,3.59756,4.93902,-45.0305,-34.2248,0.694556,-5.68578,76.7683,2.53049,26.8293
265.292,-0.605605,-3.48029,0,1.60227,6.52403,-2.98898,7.19512,2.5,-47.622,-33.7075,1.11608,-5.07265,71.4329,5.79268,21.8598
265.302,-0.664516,-3.50065,0,2.33993,6.60786,-2.85007,12.0427,2.04268,-47.0427,-33.1806,2.61057,-2.31359,65.1219,1.18902,15.7012
265.312,-0.594912,-3.43314,0,3.50391,7.49881,-2.57944,14.4512,5.70122,-45.3659,-33.2285,3.99968,-1.0586,54.8476,-5.85366,10.3963
265.322,-0.517638,-3.3896,0,4.06195,9.56092,-1.6837,13.75,20.4268,-40.3049,-33.4872,4.87147,-1.40348,44.1463,-13.3841,11.189
265.332,-0.539266,-3.42439,0,3.05604,11.0937,-1.04423,8.62805,34.3598,-34.6951,-34.8954,3.47278,-2.65847,35.9756,-17.8963,13.7805
265.342,-0.770499,-3.54038,0,0.998723,10.883,-0.799937,2.65244,42.8963,-35.3963,-36.5815,1.45138,-4.11464,29.9695,-12.9573,15.7927
265.352,-1.13437,-3.72162,0,0.182021,11.7164,-0.225132,2.53049,46.6463,-40.5183,-38.0952,-0.579595,-5.44627,21.0061,-3.84146,18.4451
265.362,-1.60276,-3.99306,0,-0.383203,11.247,0.126936,-2.34756,39.5732,-46.128,-38.8233,-1.5855,-7.20901,10.5793,11.5244,24.4817
265.372,-2.20701,-4.3344,0,-1.01549,10.3345,0.0862207,-4.26829,19.4512,-53.4756,-38.8137,-1.93997,-8.57896,-0.792683,30.122,31.4939
265.382,-2.93369,-4.68886,0,-1.51844,9.11784,0.0431104,-6.89024,1.98171,-59.3598,-38.4496,-1.09692,-8.92384,-7.86585,44.2073,40.5793
265.392,-3.66631,-4.99969,0,-1.19272,8.28437,-1.04423,-5.06098,-6.18902,-64.0244,-38.1335,0.617915,-8.30114,-12.7439,51.9512,48.8415
265.402,-4.17331,-5.22241,0,-0.0790356,9.38129,-1.47533,-2.40854,-11.4024,-58.2317,-39.2544,2.28485,-7.18985,-19.3293,49.4207,51.0976
265.412,-4.57317,-5.41781,0,0.534089,8.6556,-2.16749,-1.61585,-12.5915,-56.5244,-40.3848,3.50152,-7.07489,-27.8659,44.5122,46.128
265.422,-4.7465,-5.59804,0,2.00703,9.69743,-2.74709,1.64634,-3.35366,-50.8841,-41.726,3.53984,-7.16111,-31.6768,46.5854,36.2805
265.432,-4.86722,-5.80813,0,2.31119,10.1429,-2.54351,2.34756,4.11585,-48.2012,-43.1726,3.45362,-8.1287,-33.1707,48.5366,23.5061
265.442,-4.95207,-6.04339,0,2.38783,10.6986,-2.1627,1.58537,12.7744,-44.2683,-44.1785,1.86333,-9.00048,-27.7744,47.2561,11.0976
265.452,-5.00124,-6.3289,0,2.4022,11.1632,-1.62382,-0.152439,18.7805,-39.9085,-43.9965,-0.138911,-10.1788,-22.0427,45.8232,3.14024
265.462,-5.06496,-6.69324,0,1.73878,10.6626,-0.989143,-1.4939,21.9817,-35.6098,-42.8565,-1.69088,-11.7212,-13.0183,47.0732,-3.90244
265.472,-5.19988,-7.10936,0,0.922083,10.5812,-1.08494,-0.884146,19.0854,-34.2683,-41.8027,-2.90755,-12.7367,-0.914634,51.7378,-5.57927
265.482,-5.40281,-7.57228,0,0.215552,10.9165,-0.907712,-2.04268,12.4085,-33.628,-41.0937,-3.08,-13.7522,10.8232,59.8476,-5.12195
265.492,-5.59567,-8.00333,0,0.261057,11.1392,-0.914897,-3.65854,1.95122,-33.4451,-41.0842,-2.92671,-13.4456,22.1646,67.8354,-3.20122
265.502,-5.76377,-8.36843,0,0.529299,10.9764,-0.814307,-5.27439,-6.52439,-34.2073,-41.1895,-2.16989,-12.4876,32.5,72.1037,2.65244
265.512,-5.86876,-8.55961,0,1.06099,10.8231,-0.924478,-7.68293,-15.061,-33.9024,-42.8948,-1.346,-9.78605,36.9512,69.6341,7.0122
265.522,-5.87151,-8.60302,0,1.81782,10.7417,-1.04183,-9.69512,-21.7073,-31.8598,-44.9928,-0.205972,-7.40061,37.8963,63.7195,7.92683
265.532,-5.72747,-8.43378,0,2.9339,10.792,-1.28852,-12.1646,-26.9512,-28.3232,-48.7482,1.6813,-3.44404,25.2744,58.1707,1.52439
265.542,-5.38978,-8.10935,0,4.28229,10.7752,-1.40588,-15.3963,-26.311,-21.4634,-53.0401,3.98052,0.0239502,-0.548781,53.9634,-14.0854
265.552,-4.85702,-7.74026,0,5.62351,10.8542,-1.46096,-19.0854,-22.2561,-12.5305,-57.5715,7.36229,1.47054,-34.8171,50.9451,-32.5305
265.562,-4.06929,-7.57658,0,6.73,10.9788,-1.42264,-22.1037,-13.8415,-0.0304878,-56.3452,13.6947,-3.26202,-47.6524,59.2683,-55.3659
265.572,-3.16376,-7.42793,0,7.38385,10.883,-1.37474,-24.1463,-5.97561,14.3902,-55.895,13.8959,-3.53984,-112.134,40.2439,-72.7134
265.582,-2.07826,-7.18919,0,7.92991,10.5429,-1.30289,-24.5122,-1.09756,28.9024,-53.088,11.6829,-1.11608,-141.799,39.3293,-85.0915
265.592,-0.799621,-6.91388,0,8.53585,10.2818,-0.63947,-25.7622,1.98171,45.2134,-46.3724,7.09405,-0.0622705,-165.061,32.3476,-93.4451
265.602,0.663972,-6.55934,0,8.88073,10.0639,0.285007,-31.9512,7.22561,63.1707,-41.4099,1.49928,1.5376,-174.878,17.6524,-98.0488
265.612,2.24259,-6.11482,0,8.1263,9.9058,0.958008,-41.8293,21.7378,82.1037,-39.5226,-3.24286,3.23328,-163.811,2.22561,-96.4634
265.622,3.85022,-5.68673,0,6.61504,9.92496,0.859812,-48.5976,37.378,99.8781,-39.0723,-7.02699,3.1758,-134.848,-9.84756,-88.8415
265.632,5.44272,-5.25342,0,5.11816,10.3201,0.0502954,-49.7561,41.3415,116.524,-37.1276,-9.32621,3.35782,-100.183,-17.7134,-82.439
265.642,6.99379,-4.92489,0,3.64522,10.3249,-1.9232,-39.6951,45.061,129.695,-37.3096,-12.3344,1.92081,-65.6707,-19.3293,-77.5
265.652,8.43645,-4.46367,0,2.15312,10.8902,-1.9256,-27.622,42.9268,138.659,-35.2595,-11.6637,4.1338,-21.189,-7.13415,-68.5061
265.662,9.75304,-3.98454,0,0.732876,11.6829,-1.88009,-21.4329,33.4451,144.238,-34.8284,-9.69025,4.64155,9.26829,-8.9939,-55.122
265.672,10.9941,-3.54405,0,-0.179626,12.8708,-1.96392,-17.0427,31.6768,148.171,-34.5314,-6.59588,4.29667,26.4939,-9.32927,-38.3232
265.682,12.1647,-3.1406,0,-0.974773,14.0252,-1.84177,-15.2744,37.8659,150,-35.3553,-3.59732,4.07632,33.0488,-13.5671,-19.0244
265.692,13.2834,-2.76727,0,-0.996328,14.7102,-1.69807,-12.1341,41.6159,146.89,-37.5395,-0.771196,4.11464,29.9085,-6.46341,-5.64024
265.702,14.4137,-2.46424,0,0.0359253,14.7892,-1.32445,-10.6098,38.872,142.165,-40.4519,0.962798,3.44404,21.1585,-3.71951,2.31707
265.712,15.5706,-2.23491,0,1.37474,14.5306,-0.471819,-6.55488,26.6159,136.433,-42.9331,2.80217,2.49561,14.8476,-0.0609756,4.7561
265.722,16.8021,-2.05221,0,2.80936,14.2599,-0.285007,-0.0914634,15.6707,134.695,-43.5941,3.77934,1.81542,1.95122,1.18902,1.40244
265.732,18.1021,-1.85998,0,3.46799,13.7762,-1.15919,3.32317,27.4085,138.11,-42.6074,5.00559,2.09325,-10,2.13415,-1.4939
265.742,19.3496,-1.65465,0,2.57944,13.484,-2.39981,3.56707,52.9268,142.134,-40.3561,4.83315,2.35191,-25.8232,2.04268,-3.14024
265.752,20.4328,-1.44458,0,0.598755,13.4504,-2.88121,4.29878,75.5793,144.817,-38.0856,4.77567,2.42855,-39.0244,-0.27439,0.182927
265.762,21.3634,-1.27319,0,-1.17356,13.5031,-2.24413,5.06098,78.7195,146.799,-36.5145,3.97094,1.80584,-48.1707,-10.5488,7.04268
265.772,22.1921,-1.17408,0,-2.32556,13.6253,-1.39151,1.98171,71.7073,147.927,-35.6235,3.80808,0.704136,-51.8293,-19.6646,16.4634
265.782,23.1182,-1.10967,0,-0.838257,12.5978,-1.26697,-1.98171,74.8476,147.561,-35.0679,3.4153,0.205972,-51.0976,-23.4146,27.7744
265.792,23.8094,-1.03647,0,-3.01772,11.5751,-0.476609,-2.9878,73.5976,147.53,-34.7613,3.02251,0.368833,-51.3415,-26.4634,36.4939
265.802,24.5521,-0.996234,0,-2.01661,10.4734,-0.58678,-1.15854,68.3537,146.616,-34.7901,2.74469,-0.100591,-51.7988,-29.3293,43.3841
265.812,25.1896,-0.967301,0,-2.22258,9.63277,-0.864602,-4.2378,58.9634,141.677,-34.8475,2.00703,-0.253872,-54.2988,-30.6707,47.8354
265.822,25.8774,-0.939047,0,-1.09213,8.75619,-1.67651,2.68293,48.811,136.098,-35.5469,1.41306,-0.263452,-53.872,-34.5122,49.7256
265.832,26.5966,-0.908433,0,-0.366438,8.74901,-1.99745,9.72561,35.2744,131.098,-36.1408,0.761616,-0.234712,-56.1585,-41.6463,48.7195
265.842,27.2371,-0.918227,0,-0.416733,9.11784,-1.96631,11.372,18.9634,124.97,-36.821,0.148491,-0.886157,-60.6402,-45.0305,43.811
265.852,27.7978,-0.947974,0,-0.299377,9.03401,-1.84656,11.7988,-0.731707,116.677,-36.9647,0.0526904,-1.22146,-63.5061,-45.0915,37.4695
265.862,28.2757,-0.983852,0,-0.138911,8.8951,-1.4897,15.7012,-15.7317,107.317,-36.4091,1.04902,-1.31726,-66.0671,-44.0549,31.0671
265.872,28.6514,-1.04846,0,-0.0526904,8.91426,-1.19032,18.8415,-23.1402,96.7378,-36.1121,1.70046,-1.7771,-68.4756,-40.7927,32.1951
265.882,29.0204,-1.19295,0,0.756826,8.91666,-1.71723,16.9817,-11.311,86.2195,-35.2978,2.05493,-3.01293,-68.4756,-36.6768,30.8841
265.892,29.242,-1.36587,0,0.182021,8.36341,-0.955613,18.4756,-3.96341,79.2988,-35.5948,2.27527,-3.56858,-70.8841,-33.4451,32.8354
265.902,29.3591,-1.55374,0,-0.301772,8.65321,-0.445474,7.86585,2.28659,75.7012,-35.6139,1.81542,-3.90388,-71.5854,-29.4207,31.9817
265.912,29.4353,-1.77565,0,-0.316143,7.58982,-0.783171,14.5732,12.0122,72.561,-36.3803,1.5855,-4.64155,-70.2134,-22.8659,26.9207
265.922,29.4777,-1.99789,0,-0.280217,7.58503,-0.534089,14.4512,13.9939,68.7195,-36.5336,1.13524,-4.80441,-73.2317,-21.0061,18.0793
265.932,29.5477,-2.22188,0,0.313748,7.22577,-0.428708,15.5183,19.878,62.2256,-36.2941,1.36516,-4.92895,-71.7378,-16.0976,10.0305
265.942,29.6111,-2.42803,0,0.723296,7.12758,0.0479004,16.0976,27.1951,54.939,-36.5815,1.36516,-4.82357,-71.4329,-16.9512,5.36585
265.952,29.5814,-2.60981,0,0.768801,6.76593,0.452659,15.6098,32.0122,44.1768,-36.7635,1.23104,-4.57449,-76.4024,-15,3.5061
265.962,29.4094,-2.79349,0,0.637075,6.85694,0.730481,11.4024,33.5366,31.9817,-36.9839,0.943638,-4.74693,-83.6585,-13.3232,-0.762195
265.972,29.0998,-3.00207,0,0.505349,6.6845,0.756826,7.68293,32.2866,19.6037,-37.1276,0.656235,-5.29299,-89.2378,-10.6707,-4.69512
265.982,28.6545,-3.21578,0,0.256267,6.62462,0.63947,3.44512,28.689,9.60366,-36.8785,0.445474,-5.47501,-96.4634,-9.2378,-8.90244
265.992,28.6618,-3.45534,0,0.385598,6.46416,0.395178,-2.22561,23.5366,0.731707,-36.2654,0.0335303,-5.93486,-99.2988,-5.82317,-12.6829
266.002,28.1366,-3.75593,0,0.780776,6.35878,0.277822,-6.67683,20.3049,-9.08537,-34.6847,1.13524,-6.77791,-100,-2.2561,-16.6768
266.012,27.5947,-4.13801,0,1.26457,6.27495,0.229922,-10.4573,21.2195,-21.128,-33.8416,1.2981,-8.04248,-99.6341,7.28659,-15.7012
266.022,27.0574,-4.53965,0,1.72441,6.057,0.105381,-13.3232,15.8537,-30.9451,-33.6021,1.5855,-8.50232,-97.439,16.372,-16.0671
266.032,26.5578,-4.89685,0,2.31119,5.94444,-0.182021,-12.9573,0.457317,-39.1159,-34.244,1.74836,-8.18618,-96.3719,23.2927,-14.6341
266.042,26.0827,-5.19796,0,2.83331,5.80553,-0.414338,-7.37805,-13.1707,-47.378,-35.5948,1.51844,-7.81255,-94.8476,24.5122,-16.5549
266.052,25.5916,-5.52465,0,3.45841,6.21508,-0.205972,-2.56098,-20.8537,-56.25,-35.7576,1.2981,-8.464,-94.0549,26.372,-18.3232
266.062,25.0807,-5.86146,0,4.22481,6.91203,-0.0981958,0.0914634,-29.1159,-64.0549,-36.2271,1.74836,-8.95258,-94.2988,30.122,-20.5488
266.072,24.5613,-6.14456,0,4.98643,7.65927,-0.275427,0.701219,-40.122,-69.2988,-37.2138,2.11241,-8.49274,-96.311,31.2805,-19.0549
266.082,24.1439,-6.40034,0,6.22466,8.12151,-0.440684,-1.52439,-52.0732,-68.9329,-38.4113,2.38065,-8.49274,-95.3354,27.5,-12.3476
266.092,23.8888,-6.57345,0,7.92751,8.58615,-0.522114,-4.7561,-58.0488,-63.9329,-39.8196,2.19863,-7.50599,-91.4329,19.5732,-4.78659
266.102,23.8148,-6.73428,0,10.3249,9.26633,-0.687371,-7.2561,-54.7866,-56.9512,-40.6147,1.48012,-7.57305,-85.5793,14.6951,3.9939
266.112,23.9907,-6.93285,0,13.3091,9.4268,-1.14482,-3.53659,-46.0061,-45.061,-40.9692,0.387993,-8.45442,-79.4817,17.8963,10.7622
266.122,24.426,-7.14262,0,15.194,9.11065,-1.95194,6.95122,-34.5122,-27.1341,-41.2566,-1.16398,-8.85678,-70.3049,23.0488,13.3841
266.132,25.029,-7.45065,0,15.0264,9.24478,-2.5962,22.1951,-23.7805,-7.80488,-41.544,-2.49561,-10.9357,-57.1037,35.0915,11.8902
266.142,25.6318,-7.85481,0,12.4158,9.62079,-2.34233,31.0976,-14.7256,6.0061,-41.5919,-3.48236,-13.0624,-45.1829,44.6951,7.83537
266.152,26.1026,-8.30372,0,8.9454,9.33579,-1.72681,34.7256,-11.311,11.0061,-41.4769,-3.45362,-14.2216,-32.7439,53.5366,1.15854
266.162,26.3947,-8.74809,0,6.33243,8.54064,-1.42743,35.7012,-11.4024,8.47561,-41.9943,-2.94587,-14.6527,-20.4268,58.628,-1.40244
266.172,26.4404,-9.09153,0,4.18649,7.87482,-1.36037,36.7683,-14.2073,-1.58537,-43.5558,-1.85375,-13.4361,-10.7317,55.9451,0.670732
266.182,26.023,-9.39725,0,2.22737,8.20294,-1.06578,32.0427,-14.4512,-19.6341,-45.5197,-0.502954,-13.551,0.579268,47.2256,9.66463
266.192,25.1309,-9.66529,0,0.486189,8.86157,-0.579595,24.2378,-11.128,-44.3293,-47.9627,0.0910107,-13.7139,12.1646,42.2866,24.0244
266.202,23.9105,-9.87604,0,-0.249082,9.81,0.0119751,14.1463,-12.5305,-70.2744,-49.1602,0.244292,-12.9762,25.3354,40.5793,36.7988
266.212,22.7021,-9.85966,0,1.35319,11.0291,1.31247,-0.121951,-19.7256,-88.7805,-51.6127,0.110171,-8.464,40.061,30.1524,49.5427
266.222,21.842,-9.68187,0,5.52771,12.3344,1.95913,-13.3537,-23.7195,-90.7012,-54.6783,-0.895737,-5.09181,59.5732,10.061,60.9756
266.232,21.294,-9.44823,0,10.4159,14.4539,1.19032,-20.061,-25.6402,-84.3598,-56.4985,-3.06083,-3.74102,78.3841,-1.31098,66.5854
266.242,21.0739,-9.09709,0,15.6251,16.7963,-0.404758,-14.4817,1.12805,-66.6159,-56.1057,-5.87738,-0.637075,88.5061,-14.0244,66.6159
266.252,21.3225,-8.71727,0,17.8692,17.4693,-0.404758,-6.85976,60.9756,-24.7866,-52.3791,-5.78158,0.397573,98.1098,-12.0122,68.6585
266.262,21.8374,-8.22331,0,10.6938,13.0385,-0.56762,-16.0366,92.5,15.7317,-49.0644,-4.15296,3.20454,101.28,-3.96341,71.7683
266.272,21.9975,-7.64441,0,1.86572,8.54064,-2.22018,-4.93902,84.939,35.7622,-43.0481,0.167651,4.86189,97.1951,9.78659,75
266.282,21.1966,-6.85385,0,-4.64873,6.48571,-2.73032,12.1951,68.1098,35.8841,-39.3502,4.49785,8.63644,73.8415,12.0122,78.1707
266.292,19.766,-5.96474,0,-10.0591,6.13365,-1.24781,26.5854,45.6402,16.9207,-39.1586,8.6556,10.9644,48.689,8.87195,75.3354
266.302,17.971,-4.93075,0,-13.1343,6.84257,1.55197,29.3293,-1.40244,-15.3049,-40.6339,11.338,14.8252,1.79878,-20.5793,66.9512
266.312,15.9489,-4.04609,0,-12.0877,7.48923,1.95913,19.8476,-69.3902,-50.8537,-40.4136,12.0853,12.4685,-30.3659,-53.1098,53.3537
266.322,14.0946,-3.27842,0,-6.64857,8.44244,-0.593965,2.04268,-122.591,-78.6585,-40.289,12.6313,10.8111,-65.4878,-64.4207,40.5183
266.332,12.7208,-2.70966,0,-1.15919,9.0891,-4.02124,-3.90244,-130.976,-96.5854,-39.5322,11.2326,7.53473,-93.5976,-59.2378,34.3598
266.342,11.7137,-2.26661,0,2.52675,10.8087,-4.5673,2.77439,-98.1402,-103.659,-40.107,7.70717,5.82948,-110.061,-42.1341,31.6159
266.352,10.9553,-1.8638,0,4.89063,12.2888,-3.2213,8.35366,-56.3415,-97.7744,-41.5728,3.53026,5.60914,-116.738,-44.6646,27.8354
266.362,10.4036,-1.54731,0,5.22354,12.4733,-1.77231,6.21951,-26.6463,-80.3049,-42.2242,-0.713716,4.33499,-119.97,-53.872,21.372
266.372,9.94304,-1.28984,0,3.90628,11.3452,-1.17595,4.14634,-5.36585,-64.5427,-42.2242,-4.70861,3.44404,-114.36,-58.872,15.0915
266.382,9.45144,-1.13629,0,2.4525,10.3513,-0.898132,3.56707,6.15854,-57.0732,-41.9368,-7.18985,1.69088,-100.366,-56.3415,6.67683
266.392,8.86712,-1.05952,0,1.31966,9.82677,-0.960403,2.0122,11.5244,-55.9451,-39.8962,-8.78014,0.387993,-80.4268,-49.5122,1.7378
266.402,8.15607,-0.983136,0,0.328118,9.40764,-0.953218,2.34756,9.7561,-58.5366,-37.0414,-3.91346,0.426313,-57.0427,-42.439,3.5061
266.412,7.273,-1.02737,0,-0.833467,9.22322,-0.855022,2.10366,-0.304878,-62.9268,-34.9433,-7.17069,-1.38432,-46.25,-34.0549,2.28659
266.422,6.36347,-0.975069,0,-0.833467,9.04838,-1.18553,1.18902,-11.25,-67.2256,-35.0583,-4.91937,0.0910107,-30.7317,-29.2073,6.4939
266.432,5.46143,-0.935896,0,-0.512534,9.00288,-1.69088,0.487805,-23.9024,-72.4085,-35.6044,-4.02842,-0.0718506,-20.0305,-26.2195,3.5061
266.442,4.70541,-0.897244,0,0.847837,9.00048,-2.16031,2.40854,-31.7073,-76.9817,-36.639,-2.83091,-0.0431104,-8.10976,-21.7378,-3.23171
266.452,4.08382,-0.875859,0,2.10283,9.02922,-2.25371,5.88415,-33.7195,-80.5793,-37.1372,-1.80584,-0.301772,-1.79878,-21.8902,-11.0061
