time,angle1,angle2,intgangle,accX1,accY1,accZ1,gyroX1,gyroY1,gyroZ1,accX2,accY2,accZ2,gyroX2,gyroY2,gyroZ2
139.891,92.3283,3.63649,0,9.84593,-0.490979,0.459844,0.0914634,0.0914634,-1.28049,-39.2448,-2.14115,2.42855,-14.4207,-2.62195,3.71951
139.901,92.3291,3.65026,0,9.83156,-0.479004,0.404758,0.304878,0.152439,-1.34146,-39.4556,-2.13157,2.73511,-14.7866,-3.78049,3.71951
139.911,92.327,3.64886,0,9.82677,-0.481399,0.426313,0.27439,-0.0304878,-1.58537,-39.4268,-2.20821,2.47645,-16.2195,-4.20732,3.62805
139.921,92.3256,3.67204,0,9.86748,-0.488584,0.409548,0.518293,-0.0609756,-1.58537,-39.2448,-2.32317,2.88839,-16.5854,-5,4.14634
139.931,92.3128,3.68357,0,9.88904,-0.428708,0.435894,0.365854,0.0304878,-1.7378,-39.2065,-2.35191,2.69679,-17.5305,-5.73171,4.69512
139.941,92.3032,3.68649,0,9.87946,-0.433499,0.455054,0.121951,0.121951,-1.55488,-39.1969,-2.32317,2.55309,-17.1951,-6.15854,4.96951
139.952,92.298,3.67642,0,9.89383,-0.459844,0.457449,0.335366,0.213415,-1.55488,-39.0149,-2.49561,2.32317,-17.3476,-4.96951,4.11585
139.961,92.2928,3.67047,0,9.8579,-0.471819,0.457449,-0.152439,0.426829,-1.7378,-39.149,-2.44771,2.39981,-15.7622,-3.68902,3.9939
139.971,92.2923,3.65766,0,9.8579,-0.467029,0.486189,-0.182927,0.762195,-1.34146,-39.331,-2.38065,2.28485,-15.2439,-4.54268,4.42073
139.981,92.2926,3.65342,0,9.82437,-0.471819,0.455054,0.0914634,1.12805,-1.37195,-39.3693,-2.20821,2.42855,-15.4268,-4.17683,4.72561
139.991,92.2982,3.66384,0,9.86269,-0.502954,0.457449,0.0914634,0.853659,-1.34146,-39.3023,-2.20821,2.67763,-14.5427,-3.81098,3.93293
140.001,92.2994,3.67097,0,9.83874,-0.471819,0.464634,0.27439,0.792683,-1.28049,-39.1681,-2.15073,2.62015,-15.6707,-3.41463,5.33537
140.011,92.3019,3.66613,0,9.81958,-0.493374,0.498164,0.27439,0.335366,-1.46341,-39.0723,-2.27527,2.40939,-16.2805,-4.05488,5.94512
140.021,92.3076,3.63919,0,9.81479,-0.514929,0.443079,0.365854,0.487805,-1.4939,-39.1394,-2.37107,2.02619,-16.4939,-4.54268,4.14634
140.031,92.3068,3.6411,0,9.83874,-0.474214,0.419128,0.426829,0.0609756,-1.43293,-39.0915,-2.34233,2.50519,-17.1341,-4.14634,5.06098
140.041,92.3101,3.63657,0,9.85072,-0.488584,0.409548,0.487805,0.426829,-1.31098,-39.1298,-2.29443,2.39981,-17.1037,-3.47561,6.55488
140.051,92.3052,3.64544,0,9.8124,-0.457449,0.469424,0.487805,0.457317,-1.55488,-39.1777,-2.31359,2.62973,-16.6159,-4.11585,6.18902
140.061,92.3027,3.61997,0,9.88425,-0.464634,0.495769,0.487805,1.03659,-1.40244,-39.2927,-2.43813,2.04535,-16.0061,-4.57317,6.06707
140.071,92.2964,3.61392,0,9.84593,-0.450264,0.459844,0.243902,0.365854,-1.55488,-39.1681,-2.47645,2.36149,-15.5793,-3.41463,5.97561
140.081,92.2918,3.61981,0,9.8555,-0.462239,0.462239,0.426829,0.792683,-1.58537,-39.2927,-2.33275,2.57225,-15.8841,-3.44512,6.95122
140.091,92.2918,3.63119,0,9.81,-0.471819,0.510139,0.457317,0.27439,-1.40244,-39.1011,-2.22737,2.65847,-15.4878,-3.59756,6.46341
140.101,92.291,3.62855,0,9.81479,-0.469424,0.550855,0.0914634,0.548781,-1.43293,-39.1777,-2.23695,2.42855,-15.6707,-3.47561,6.55488
140.111,92.2878,3.63496,0,9.81,-0.450264,0.510139,-0.0304878,0.243902,-1.37195,-39.1298,-2.21779,2.58183,-15.8537,-3.17073,7.46951
140.121,92.2904,3.63686,0,9.78844,-0.479004,0.529299,-0.182927,0.701219,-1.34146,-39.0915,-2.11241,2.50519,-16.189,-3.23171,7.5
140.131,92.2931,3.64075,0,9.8076,-0.476609,0.517324,0.0609756,0.396341,-1.28049,-39.1586,-2.12199,2.54351,-15.9146,-3.81098,6.95122
140.141,92.2917,3.66642,0,9.83156,-0.490979,0.536484,-0.0609756,0.0304878,-1.70732,-39.2065,-2.17947,2.92671,-15.4878,-3.96341,7.10366
140.151,92.2906,3.67959,0,9.8076,-0.464634,0.519719,0.0304878,0.0304878,-1.40244,-39.034,-2.17947,2.71595,-14.878,-3.84146,7.59146
140.161,92.2896,3.68302,0,9.82916,-0.462239,0.519719,-0.579268,-0.121951,-1.34146,-39.1394,-2.17947,2.56267,-14.3598,-4.05488,7.2561
140.171,92.2837,3.67599,0,9.81,-0.452659,0.538879,-0.640244,0.152439,-1.61585,-39.0723,-2.13157,2.38065,-13.4451,-3.78049,7.04268
140.181,92.2828,3.68542,0,9.83156,-0.476609,0.514929,-0.701219,0.0914634,-1.52439,-39.2352,-2.16989,2.66805,-14.6951,-4.84756,7.22561
140.191,92.2806,3.67383,0,9.84832,-0.462239,0.546064,-0.548781,0.243902,-1.43293,-39.4364,-2.17947,2.32317,-15,-4.29878,6.52439
140.201,92.2801,3.67486,0,9.81719,-0.469424,0.490979,-0.579268,0.121951,-1.43293,-39.2831,-2.16031,2.52435,-15.1829,-4.66463,6.31098
140.211,92.2819,3.67905,0,9.8603,-0.481399,0.502954,-0.396341,-0.243902,-1.37195,-39.3693,-2.04535,2.58183,-15,-5.79268,7.68293
140.222,92.2791,3.68367,0,9.86988,-0.457449,0.488584,-0.426829,-0.487805,-1.40244,-39.3214,-2.16989,2.59141,-15.6098,-5.09146,6.98171
140.231,92.2667,3.68907,0,9.84832,-0.404758,0.462239,-0.396341,-0.335366,-1.4939,-39.1586,-2.22737,2.60099,-15.2134,-3.9939,6.40244
140.241,92.2585,3.70039,0,9.82197,-0.414338,0.445474,-0.701219,-0.487805,-1.31098,-39.2256,-2.16031,2.71595,-15.6402,-2.86585,6.76829
140.251,92.2621,3.69656,0,9.83156,-0.462239,0.438289,-0.457317,-0.670732,-1.09756,-39.3406,-2.06451,2.46687,-13.3537,-3.14024,6.67683
140.261,92.267,3.69098,0,9.82197,-0.476609,0.431104,-0.426829,-0.365854,-1.18902,-39.4843,-2.25611,2.43813,-13.1098,-4.5122,5.82317
140.271,92.269,3.68443,0,9.8603,-0.467029,0.457449,-0.579268,-0.396341,-1.21951,-39.6472,-1.98787,2.42855,-12.622,-4.08537,4.42073
140.281,92.2761,3.69157,0,9.86988,-0.505349,0.481399,-0.396341,-0.365854,-1.31098,-39.4939,-1.99745,2.64889,-14.8171,-5.57927,4.84756
140.291,92.2849,3.70311,0,9.89383,-0.510139,0.510139,-0.701219,-0.0914634,-1.21951,-39.1298,-1.81542,2.70637,-15.3963,-5.36585,4.69512
140.301,92.2922,3.70195,0,9.85072,-0.493374,0.481399,-0.304878,-0.0609756,-1.15854,-39.149,-1.89207,2.49561,-14.6341,-5.30488,4.72561
140.311,92.2987,3.69986,0,9.81,-0.500559,0.428708,-0.182927,-0.396341,-1.31098,-39.149,-1.91123,2.47645,-15.1829,-6.0061,4.57317
140.322,92.3075,3.67924,0,9.81719,-0.498164,0.457449,-0.213415,-0.396341,-1.12805,-39.4076,-2.19863,2.16989,-15.2439,-5.54878,4.93902
140.331,92.3126,3.67112,0,9.78126,-0.474214,0.452659,-0.457317,-0.121951,-1.09756,-39.5035,-1.85375,2.38065,-14.4512,-5.15244,2.68293
140.341,92.3235,3.6927,0,9.78366,-0.517324,0.512534,-0.335366,-0.213415,-1.21951,-40.4327,-2.67763,2.93629,-9.5122,-12.5915,2.40854
140.351,92.3426,3.67415,0,9.8076,-0.5772,0.531694,-0.121951,-0.457317,-1.31098,-39.5514,-1.85375,2.19863,-13.5061,-8.62805,2.13415
140.361,92.3587,3.668,0,9.83635,-0.570015,0.474214,-0.426829,-0.548781,-1.34146,-39.3598,-1.7771,2.39981,-16.372,-6.0061,2.16463
140.371,92.3693,3.67346,0,9.81,-0.550855,0.464634,0.0609756,-0.823171,-1.46341,-39.0915,-1.75794,2.59141,-16.9512,-2.65244,1.61585
140.381,92.3776,3.68011,0,9.80521,-0.570015,0.445474,0.213415,-0.945122,-1.76829,-38.9286,-1.79626,2.61057,-18.2317,-1.0061,2.80488
140.391,92.3812,3.68169,0,9.8076,-0.514929,0.447869,0.27439,-0.914634,-1.4939,-38.8233,-1.98787,2.52435,-18.628,0.0609756,3.44512
140.401,92.3833,3.67957,0,9.80521,-0.531694,0.447869,0.27439,-0.945122,-1.76829,-39.0915,-2.09325,2.47645,-18.3841,-0.670732,3.47561
140.411,92.3834,3.68578,0,9.83395,-0.505349,0.416733,0.213415,-0.945122,-1.58537,-39.0915,-2.31359,2.62015,-16.5549,-0.365854,4.26829
140.421,92.377,3.69957,0,9.86509,-0.471819,0.349673,0.579268,-0.609756,-1.64634,-39.1298,-2.34233,2.75427,-17.0427,-1.55488,4.11585
140.431,92.3745,3.71406,0,9.86748,-0.498164,0.414338,0.365854,-0.640244,-1.67683,-39.1777,-2.35191,2.78301,-16.6768,-0.457317,5.03049
140.441,92.3658,3.72904,0,9.86509,-0.474214,0.407153,0.365854,-0.304878,-1.89024,-39.216,-2.39023,2.81175,-17.7439,1.76829,4.60366
140.451,92.3592,3.74881,0,9.88904,-0.476609,0.426313,0.335366,-0.243902,-1.7378,-39.3214,-2.18905,2.90755,-15.9146,0.121951,5.2439
140.461,92.3492,3.74762,0,9.85072,-0.450264,0.380808,0.335366,-0.243902,-1.7378,-39.1394,-2.36149,2.55309,-16.2195,2.68293,5.2439
140.471,92.3382,3.75234,0,9.86748,-0.457449,0.409548,0.823171,-0.152439,-1.92073,-38.9861,-2.34233,2.64889,-16.7073,4.08537,4.42073
140.481,92.3254,3.73767,0,9.85072,-0.426313,0.411943,0.487805,-0.182927,-1.70732,-39.1203,-2.33275,2.32317,-14.0549,3.35366,5.39634
140.492,92.3176,3.73345,0,9.8579,-0.457449,0.433499,0.396341,-0.579268,-1.70732,-39.2352,-2.41897,2.50519,-14.7561,4.5122,5.60976
140.502,92.3066,3.72595,0,9.84353,-0.440684,0.443079,0.365854,-0.518293,-1.79878,-39.2256,-2.62015,2.44771,-15.6098,5.39634,4.78659
140.512,92.2989,3.72356,0,9.8555,-0.440684,0.479004,0.243902,-0.457317,-1.52439,-39.149,-2.50519,2.53393,-15.4573,7.59146,5.30488
140.521,92.2927,3.73286,0,9.84114,-0.438289,0.452659,-0.0609756,-0.0609756,-1.40244,-39.0723,-2.47645,2.72553,-15.7012,6.46341,5.7622
140.531,92.2884,3.74735,0,9.86509,-0.431104,0.428708,-0.0914634,-0.304878,-1.12805,-38.967,-2.24653,2.81175,-15.9756,5.73171,5.91463
140.541,92.2853,3.75228,0,9.83635,-0.426313,0.421523,0.0304878,-0.121951,-1.0061,-39.2735,-1.99745,2.67763,-15.8537,5.7622,5.88415
140.551,92.2859,3.75944,0,9.8579,-0.459844,0.452659,-0.152439,-0.396341,-1.18902,-39.149,-2.00703,2.70637,-15.0305,4.32927,4.84756
140.561,92.2895,3.74143,0,9.86269,-0.469424,0.498164,-0.0914634,-0.152439,-1.09756,-39.0436,-2.15073,2.26569,-16.2805,3.35366,5.82317
140.571,92.2937,3.73232,0,9.84353,-0.457449,0.464634,-0.487805,-0.152439,-0.914634,-39.1777,-2.16989,2.41897,-16.6768,4.35976,6.64634
140.581,92.3,3.71914,0,9.81958,-0.476609,0.481399,-0.213415,-0.0304878,-1.03659,-39.034,-2.21779,2.33275,-15.7927,4.17683,5.94512
140.591,92.3087,3.71,0,9.81958,-0.500559,0.510139,-0.487805,0.0304878,-1.15854,-39.0149,-2.32317,2.39023,-16.6159,3.5061,6.4939
140.601,92.316,3.69483,0,9.8124,-0.483794,0.488584,-0.243902,0.335366,-1.03659,-39.1969,-2.29443,2.28485,-17.1341,1.85976,6.92073
140.611,92.3219,3.69561,0,9.83156,-0.462239,0.500559,-0.304878,0.243902,-0.823171,-39.7909,-2.41897,2.57225,-17.9268,-3.17073,6.92073
140.621,92.322,3.69989,0,9.84353,-0.471819,0.471819,-0.457317,-0.27439,-1.31098,-39.5322,-2.42855,2.60099,-17.0427,-7.9878,6.92073
140.631,92.3289,3.68831,0,9.8124,-0.502954,0.462239,-0.365854,-0.27439,-1.25,-39.2831,-2.18905,2.32317,-18.4756,-4.63415,8.59756
140.641,92.3335,3.70237,0,9.84353,-0.510139,0.440684,0.0609756,-0.396341,-1.43293,-39.3598,-2.39981,2.76385,-15.8537,-5.36585,8.65854
140.651,92.3345,3.69371,0,9.85311,-0.514929,0.438289,-0.304878,-0.579268,-1.70732,-39.2256,-2.25611,2.37107,-17.5915,-4.96951,8.35366
140.661,92.3319,3.7034,0,9.8603,-0.481399,0.455054,-0.304878,-0.518293,-1.58537,-39.4172,-2.32317,2.69679,-17.561,-4.96951,8.41463
140.671,92.3404,3.71686,0,9.84353,-0.522114,0.414338,-0.152439,0.152439,-1.31098,-39.4172,-2.31359,2.76385,-18.2927,-6.52439,8.59756
140.681,92.3405,3.67337,0,9.84832,-0.490979,0.416733,-0.152439,0.121951,-1.4939,-38.6796,-2.08367,1.74836,-17.1646,-6.18902,9.29878
140.691,92.3385,3.67675,0,9.86509,-0.502954,0.421523,-0.152439,0.365854,-1.76829,-39.3693,-2.35191,2.58183,-14.4512,-1.31098,8.56707
140.701,92.3363,3.66796,0,9.85072,-0.469424,0.459844,0,0.0304878,-1.40244,-39.1011,-1.88249,2.33275,-15.122,-8.20122,8.68902
140.711,92.3448,3.64008,0,9.83635,-0.510139,0.411943,-0.0609756,0.0609756,-1.18902,-39.331,-2.38065,2.03577,-16.9512,-0.213415,7.59146
140.721,92.3443,3.6366,0,9.85311,-0.490979,0.445474,0.0304878,0.0304878,-1.52439,-39.5226,-2.18905,2.44771,-16.9512,-1.67683,7.92683
140.731,92.3475,3.62206,0,9.85311,-0.502954,0.469424,0.0914634,0.243902,-1.40244,-39.8675,-1.83458,2.24653,-16.7683,-8.93293,8.29268
140.742,92.3445,3.62529,0,9.89143,-0.483794,0.440684,-0.0609756,0.426829,-1.58537,-39.5993,-1.92081,2.54351,-15.061,-5.73171,8.62805
140.751,92.3467,3.57468,0,9.88185,-0.510139,0.421523,0.0304878,0.426829,-1.52439,-39.0244,-2.11241,1.6334,-16.7683,9.96951,8.41463
140.761,92.3456,3.56971,0,9.83635,-0.486189,0.416733,0.121951,-0.0304878,-1.52439,-39.9729,-2.08367,2.38065,-15,-8.2622,8.62805
140.771,92.3475,3.61425,0,9.83395,-0.490979,0.445474,0.243902,0,-1.37195,-40.1836,-2.16031,3.2716,-13.628,-8.04878,7.04268
140.781,92.3489,3.55087,0,9.84114,-0.462239,0.421523,0.304878,-0.0304878,-1.03659,-39.0628,-2.35191,1.4418,-18.4146,20.2134,8.56707
140.791,92.348,3.57585,0,9.83635,-0.450264,0.467029,0.213415,0.121951,-1.03659,-40.2507,-2.24653,2.96503,-14.7866,6.34146,8.17073
140.801,92.3453,3.54194,0,9.86269,-0.452659,0.455054,0.0609756,0.213415,-1.18902,-39.1873,-1.74836,1.86333,-15.4268,0.579268,8.20122
140.811,92.3395,3.59903,0,9.84593,-0.440684,0.399968,0.182927,0.304878,-1.28049,-40.7105,-2.32317,3.59732,-14.7256,13.3537,8.2622
140.822,92.344,3.61919,0,9.86748,-0.486189,0.459844,-0.0304878,0.335366,-1.12805,-40.3369,-2.05493,2.90755,-15.122,2.95732,7.92683
140.831,92.3483,3.55099,0,9.8579,-0.495769,0.426313,0.304878,0.304878,-1.25,-39.149,-2.01661,1.37474,-17.0427,23.0793,8.20122
140.841,92.3546,3.55523,0,9.86509,-0.502954,0.474214,0.396341,0.457317,-1.18902,-39.5993,-1.88249,2.51477,-15.3963,-4.90854,7.53049
140.851,92.3611,3.57394,0,9.83635,-0.505349,0.483794,0.396341,0.335366,-1.21951,-39.8004,-2.08367,2.89797,-15.9756,27.622,7.7439
140.861,92.364,3.62826,0,9.8124,-0.500559,0.459844,0.304878,0.335366,-1.40244,-40.3944,-2.33275,3.53984,-14.8171,12.622,7.65244
140.871,92.3687,3.5493,0,9.80042,-0.488584,0.476609,0.27439,0.518293,-1.15854,-38.9286,-1.4897,1.04902,-15.6707,-18.3232,6.58537
140.881,92.3749,3.50261,0,9.77407,-0.498164,0.457449,0.213415,0.548781,-1.18902,-39.9154,-2.43813,1.74836,-17.3171,27.8354,5.94512
140.891,92.3773,3.46016,0,9.79803,-0.493374,0.514929,0.152439,0.182927,-1.34146,-39.7813,-1.64298,1.62382,-18.0793,-18.8415,6.79878
140.901,92.3878,3.41012,0,9.78605,-0.514929,0.488584,0.27439,-0.0914634,-1.09756,-39.5705,-2.36149,1.59508,-17.622,22.622,6.7378
140.911,92.3937,3.43813,0,9.80042,-0.483794,0.526904,0.152439,-0.243902,-0.97561,-40.2603,-1.7292,2.89797,-15.1829,-0.0609756,6.58537
140.922,92.3989,3.38668,0,9.79563,-0.486189,0.510139,0.27439,-0.27439,-1.03659,-39.4843,-1.90165,1.49928,-17.6829,7.16463,7.07317
140.931,92.3944,3.36897,0,9.82437,-0.445474,0.490979,-0.243902,-0.640244,-1.12805,-39.5897,-2.33275,2.05493,-16.8598,6.46341,6.21951
140.941,92.3947,3.29249,0,9.8124,-0.464634,0.500559,-0.27439,-0.670732,-1.06707,-39.1298,-2.37107,0.972378,-18.5061,-2.86585,6.43293
140.951,92.3932,3.53547,0,9.82677,-0.435894,0.493374,-0.182927,-0.792683,-0.731707,-44.4947,-2.28485,7.29523,-20.2134,-23.6585,5.73171
140.961,92.3992,3.47664,0,9.78366,-0.479004,0.512534,-0.518293,-0.579268,-0.914634,-39.5705,-1.825,1.2502,-20.122,-48.5366,5.2439
140.971,92.4,3.42966,0,9.79323,-0.464634,0.555645,-0.304878,-0.701219,-1.03659,-39.1681,-1.825,1.43222,-16.4329,-39.6341,5.70122
140.981,92.4005,3.35325,0,9.80281,-0.440684,0.5772,-0.762195,-0.762195,-0.670732,-38.9382,-2.03577,1.04902,-20.1829,8.68902,7.07317
140.991,92.4031,3.32858,0,9.79803,-0.445474,0.495769,-0.731707,-0.884146,-0.609756,-39.9537,-2.57225,1.87291,-20.4878,-9.35976,5.03049
141.001,92.4072,3.31203,0,9.84593,-0.476609,0.459844,-0.762195,-0.670732,-0.914634,-39.9825,-2.14115,1.95913,-16.4634,-21.2805,5.85366
141.011,92.4201,3.30917,0,9.81,-0.517324,0.548459,-0.701219,-1.37195,-0.914634,-39.9154,-2.04535,2.09325,-16.8598,-48.0488,6.37195
141.021,92.4277,3.28181,0,9.83395,-0.479004,0.490979,-0.762195,-1.70732,-0.701219,-39.6184,-2.09325,1.66214,-16.8293,-43.628,6.76829
141.031,92.4314,3.26557,0,9.84832,-0.479004,0.505349,-1.09756,-1.67683,-0.914634,-40.2028,-1.88249,1.90165,-18.1098,-33.0793,6.0061
141.041,92.436,3.21638,0,9.82197,-0.467029,0.493374,-1.18902,-1.61585,-0.701219,-39.4172,-1.94955,1.346,-21.9207,-13.628,5.82317
141.051,92.444,3.21173,0,9.83874,-0.495769,0.447869,-1.64634,-1.46341,-0.853659,-39.8675,-2.33275,2.16031,-23.872,0.518293,5.88415
141.061,92.4508,3.19719,0,9.89143,-0.498164,0.428708,-1.55488,-0.97561,-0.884146,-39.6184,-2.04535,1.92081,-21.7988,-13.9024,5.4878
141.071,92.4577,3.18805,0,9.8603,-0.457449,0.416733,-1.43293,-0.670732,-0.304878,-39.4172,-2.14115,1.98787,-23.4146,-16.0061,5.15244
141.081,92.472,3.21039,0,9.83874,-0.483794,0.407153,-1.43293,-0.609756,-0.304878,-39.7621,-2.17947,2.42855,-20.1829,-51.9817,6.03659
141.091,92.4864,3.19676,0,9.83156,-0.486189,0.445474,-1.58537,-0.640244,-0.304878,-38.9765,-1.825,1.85375,-21.2805,-28.9024,7.10366
141.101,92.5136,3.22319,0,9.82677,-0.510139,0.421523,-1.46341,-0.701219,0.152439,-40.2124,-2.11241,2.55309,-22.0122,-46.7378,6.76829
141.111,92.5487,3.23507,0,9.8579,-0.58199,0.402363,-1.58537,-0.182927,-0.396341,-39.8004,-2.19863,2.34233,-23.9634,-31.372,5.42683
141.121,92.5909,3.23427,0,9.81719,-0.661025,0.380808,-1.40244,0.0304878,-0.762195,-39.4364,-1.94955,2.13157,-24.3598,-24.4512,5.18293
141.131,92.6218,3.2645,0,9.75252,-0.66821,0.414338,-1.18902,-0.121951,-1.21951,-39.8962,-2.09325,2.67763,-23.0488,-31.8902,4.5122
141.141,92.64,3.30306,0,9.75731,-0.63468,0.402363,-1.4939,-0.640244,-1.46341,-40.1166,-2.02619,2.79259,-22.8963,-51.7988,4.39024
141.151,92.6508,3.34296,0,9.81,-0.656235,0.349673,-1.18902,-0.914634,-1.98171,-39.8196,-1.95913,2.79259,-20.7012,-60.3659,5.21341
141.161,92.6449,3.3677,0,9.79323,-0.565225,0.407153,-1.15854,-0.792683,-2.22561,-39.4364,-1.71962,2.54351,-22.1037,-56.0976,5.39634
141.171,92.6389,3.39893,0,9.77886,-0.570015,0.378413,-0.823171,-0.792683,-2.31707,-39.1298,-1.89207,2.64889,-21.6768,-57.2866,5.79268
141.181,92.6355,3.45374,0,9.84114,-0.59636,0.359253,-0.884146,-0.731707,-2.34756,-39.3693,-2.10283,3.06083,-19.0244,-68.1707,6.70732
141.191,92.6264,3.50679,0,9.82437,-0.579595,0.414338,-0.701219,-1.15854,-2.65244,-39.4556,-2.07409,3.06083,-18.0488,-72.2256,5.85366
141.201,92.6129,3.54212,0,9.92257,-0.507744,0.332908,0.121951,-1.18902,-2.13415,-39.4556,-2.39981,2.77343,-14.3902,-76.4024,5.79268
141.211,92.5919,3.60124,0,9.94652,-0.455054,0.376018,0.0304878,-1.31098,-2.16463,-39.5514,-2.46687,3.21412,-12.5,-78.6281,5.85366
141.222,92.5791,3.65509,0,9.90101,-0.514929,0.356858,-0.0609756,-1.21951,-2.2561,-39.6663,-2.38065,3.16622,-13.75,-80.2744,4.60366
141.231,92.5699,3.73666,0,10.0423,-0.538879,0.387993,-0.152439,0.304878,-2.13415,-39.7334,-2.33275,3.67396,-10.0305,-87.2561,5.45732
141.241,92.5688,3.82901,0,9.91538,-0.55804,0.383203,-0.701219,1.37195,-1.82927,-39.7238,-2.19863,3.91346,-10.4878,-89.3902,3.9939
141.251,92.5663,3.937,0,9.58008,-0.546064,0.390388,-0.609756,1.15854,-2.10366,-39.5226,-2.10283,4.23918,-10.7927,-87.6829,3.71951
141.262,92.5599,4.04854,0,9.7118,-0.58199,0.342488,-0.853659,0.518293,-2.68293,-39.5609,-2.19863,4.38289,-10.8841,-87.1951,3.90244
141.271,92.5458,4.13385,0,9.78844,-0.531694,0.361648,-0.548781,0.0304878,-2.71341,-39.0915,-2.31359,3.96136,-12.378,-84.1768,2.62195
141.281,92.5254,4.20865,0,9.8579,-0.507744,0.419128,-0.396341,-0.213415,-2.9878,-39.1107,-1.95913,3.83682,-11.0671,-84.8171,1.89024
141.291,92.5007,4.29724,0,9.81479,-0.498164,0.349673,-0.609756,-0.0304878,-3.35366,-38.7562,-1.93997,4.0859,-11.4329,-86.3719,3.20122
141.301,92.483,4.40121,0,9.76928,-0.56283,0.455054,-0.762195,-0.152439,-3.53659,-38.8233,-2.12199,4.44037,-10.8841,-80.4268,3.23171
141.311,92.468,4.50645,0,9.7597,-0.675395,0.443079,-0.548781,0.182927,-4.60366,-39.4747,-2.04535,4.61281,-10.4573,-79.5122,3.07927
141.322,92.4498,4.61124,0,9.83156,-0.708926,0.459844,-0.457317,0.457317,-5.27439,-39.3981,-2.09325,4.66071,-10.0305,-82.0427,4.08537
141.331,92.4112,4.75522,0,9.83635,-0.617915,0.423918,-0.0609756,0.426829,-6.28049,-39.3981,-2.16031,5.40795,-10.061,-87.1646,3.56707
141.341,92.3591,4.90313,0,9.8076,-0.526904,0.440684,-0.152439,0,-6.67683,-39.446,-2.02619,5.57082,-11.0671,-91.2805,3.44512
141.351,92.2996,5.0581,0,9.81719,-0.490979,0.407153,-0.609756,-0.0609756,-7.10366,-39.0532,-2.01661,5.7241,-12.3476,-96.5549,3.14024
141.361,92.2427,5.2137,0,9.82916,-0.481399,0.428708,-0.518293,0.213415,-6.82927,-38.7945,-1.95913,5.80074,-15.3049,-97.6524,1.85976
141.371,92.18,5.35267,0,9.86269,-0.445474,0.395178,-0.335366,0.152439,-7.10366,-38.8616,-1.99745,5.6283,-15.7927,-97.4085,2.59146
141.381,92.1173,5.4375,0,9.81479,-0.438289,0.464634,-0.335366,0.213415,-7.16463,-38.4496,-2.15073,4.73735,-13.5671,-95.1219,2.2561
141.391,92.062,5.54298,0,9.83635,-0.488584,0.450264,-0.243902,-0.243902,-7.13415,-38.8999,-2.27527,5.20677,-13.75,-96.4939,3.07927
141.401,92.0113,5.68641,0,9.77407,-0.502954,0.423918,-0.304878,0.182927,-6.98171,-38.9382,-2.21779,5.93486,-13.5366,-100.732,5.12195
141.411,91.9562,5.87173,0,9.79803,-0.522114,0.435894,-0.182927,0.182927,-7.7439,-38.9765,-2.21779,6.75875,-14.5427,-106.799,6.40244
141.421,91.9061,6.05019,0,9.8555,-0.543669,0.380808,0.304878,-0.121951,-7.56098,-39.1873,-2.26569,6.77791,-15,-114.268,8.38415
141.431,91.8494,6.2518,0,9.9058,-0.471819,0.359253,0.487805,0.304878,-7.46951,-39.1681,-2.10283,7.28565,-17.5305,-122.073,9.87805
141.441,91.7932,6.42195,0,10.0208,-0.467029,0.332908,0.792683,1.06707,-7.40854,-38.3826,-1.90165,6.74917,-16.5854,-116.311,10.7622
141.451,91.7271,6.56456,0,9.94412,-0.409548,0.328118,0.853659,1.09756,-7.89634,-38.009,-2.03577,6.3468,-15.7927,-109.756,12.2866
141.461,91.6606,6.72687,0,9.73096,-0.376018,0.440684,1.06707,0.701219,-7.77439,-37.7311,-1.85375,6.74917,-14.6341,-105.427,11.7988
141.471,91.5899,6.88768,0,9.82916,-0.349673,0.311353,0.97561,0.27439,-7.9878,-38.2293,-1.79626,6.90245,-16.0366,-111.738,10.2134
141.482,91.5171,7.06547,0,9.85072,-0.320933,0.289797,0.731707,0.518293,-7.9878,-38.1622,-2.10283,7.29523,-16.7683,-112.104,8.07927
141.491,91.4484,7.26608,0,9.84353,-0.335303,0.352068,0.853659,1.12805,-7.89634,-38.4975,-2.08367,7.88919,-14.6037,-111.22,5.85366
141.501,91.3778,7.48447,0,9.8555,-0.299377,0.352068,0.731707,1.18902,-7.80488,-38.6221,-2.60099,8.3682,-13.8415,-112.256,4.42073
141.511,91.3117,7.72412,0,9.82437,-0.332908,0.390388,0.884146,1.09756,-7.89634,-38.6604,-2.10283,8.90468,-14.6951,-114.268,4.17683
141.521,91.2479,7.94467,0,9.82677,-0.320933,0.390388,0.884146,0.731707,-7.65244,-38.7275,-2.34233,8.71308,-16.7378,-124.055,4.26829
141.531,91.1815,8.15575,0,9.89862,-0.289797,0.399968,1.0061,1.12805,-7.65244,-37.9611,-2.06451,8.54064,-17.2256,-120.274,6.12805
141.541,91.1099,8.34367,0,9.97047,-0.196392,0.416733,1.28049,1.34146,-7.19512,-37.9323,-2.18905,8.30114,-15.1829,-112.591,6.03659
141.551,91.0382,8.54457,0,9.89143,-0.124541,0.390388,1.37195,1.12805,-6.52439,-38.2964,-2.24653,8.73224,-12.7439,-115.549,7.62195
141.561,90.9672,8.7344,0,9.86269,-0.107776,0.443079,1.06707,1.64634,-6.40244,-38.2389,-2.24653,8.62686,-12.9268,-126.28,9.63415
141.571,90.8994,8.96186,0,9.83395,-0.112566,0.479004,0.914634,1.21951,-6.28049,-38.1527,-2.31359,9.39327,-15.2439,-130.762,9.02439
141.582,90.8367,9.19873,0,9.84832,-0.162861,0.493374,1.25,1.37195,-6.4939,-38.0185,-2.45729,9.69025,-13.1402,-130.152,8.75
141.591,90.7824,9.47896,0,9.87946,-0.234712,0.519719,0.853659,1.25,-6.61585,-38.1431,-2.14115,10.6578,-11.4939,-134.146,7.71341
141.601,90.7301,9.74302,0,9.89862,-0.251477,0.459844,0.640244,1.21951,-6.70732,-37.9323,-2.33275,10.5046,-12.2256,-135,7.68293
141.611,90.68,9.94465,0,9.89383,-0.234712,0.483794,0.792683,1.09756,-6.40244,-37.6641,-2.37107,9.51781,-12.5,-131.89,7.22561
141.621,90.6294,10.1576,0,9.94652,-0.249082,0.431104,0.701219,1.06707,-6.70732,-37.0701,-2.13157,9.70941,-14.4207,-130.457,7.46951
141.631,90.5796,10.3858,0,9.96568,-0.201182,0.368833,0.792683,1.7378,-6.15854,-37.3671,-2.39023,10.2076,-10.1524,-129.299,6.18902
141.641,90.5287,10.6163,0,10.1022,-0.203577,0.411943,0.426829,4.48171,-6.37195,-37.5874,-2.20821,10.4471,-9.63415,-136.311,6.18902
141.651,90.4668,10.8584,0,9.44117,-0.179626,0.431104,0.548781,3.23171,-7.46951,-37.6353,-1.78668,10.8303,-9.87805,-136.402,5.67073
141.661,90.4048,11.1108,0,9.57529,-0.237107,0.404758,0.0914634,2.9878,-8.2622,-37.4916,-1.87291,11.1464,-11.0976,-136.311,3.84146
141.672,90.332,11.404,0,9.63756,-0.229922,0.416733,0.0609756,2.46951,-9.39024,-37.233,-1.24062,11.9799,-11.4939,-137.256,4.05488
141.681,90.2596,11.6931,0,9.74294,-0.222737,0.440684,0.0914634,2.10366,-9.39024,-37.3958,-0.847837,12.1715,-13.8415,-136.311,2.5
141.691,90.1881,11.9556,0,9.81719,-0.222737,0.541274,0.304878,2.0122,-9.42073,-37.0126,-1.1544,11.7787,-17.2561,-135.183,0
141.702,90.1172,12.2263,0,9.89862,-0.184417,0.481399,0.579268,1.52439,-9.02439,-36.6007,-1.62382,11.9895,-18.872,-132.104,0.27439
141.711,90.0531,12.4756,0,9.89862,-0.193997,0.493374,1.06707,1.18902,-8.59756,-36.2366,-1.71004,11.6829,-19.5427,-131.707,-0.304878
141.721,89.9892,12.7204,0,9.86988,-0.251477,0.452659,0.914634,0.701219,-9.39024,-36.0642,-1.98787,11.7212,-19.1768,-132.195,0.853659
141.731,89.9143,13.0081,0,9.71899,-0.237107,0.490979,1.06707,0.396341,-10.5183,-35.863,-2.37107,12.5739,-18.5366,-134.36,1.76829
141.741,89.8357,13.3441,0,9.69743,-0.215552,0.495769,0.945122,0.213415,-10.7927,-35.9492,-2.43813,13.666,-19.4817,-137.073,4.2378
141.751,89.7511,13.6669,0,9.72857,-0.174836,0.423918,0.762195,0.518293,-11.0671,-36.342,-2.54351,13.8097,-19.7256,-138.933,4.66463
141.761,89.6588,13.9848,0,9.84114,-0.0934058,0.445474,1.28049,0.304878,-11.0366,-36.1696,-2.56267,13.8959,-19.0549,-137.409,4.63415
141.772,89.5585,14.29,0,9.89383,0.0119751,0.476609,1.28049,0.670732,-10.7927,-35.7768,-2.24653,13.7426,-17.4085,-137.012,5.2439
141.781,89.4616,14.5835,0,9.95131,0.100591,0.476609,1.43293,0.731707,-9.60366,-35.4607,-2.24653,13.6277,-15.2744,-137.622,6.76829
141.791,89.3613,14.8912,0,9.96328,0.160466,0.490979,1.92073,0.304878,-9.45122,-35.4798,-2.27527,14.0875,-13.872,-140.701,9.08537
141.801,89.2644,15.1838,0,9.74054,0.126936,0.486189,1.70732,-0.792683,-9.66463,-35.6618,-2.33275,14.1067,-14.2378,-141.22,8.84146
141.811,89.1691,15.4885,0,9.75491,0.107776,0.541274,1.4939,-0.853659,-9.93902,-35.6906,-2.16989,14.5473,-13.3841,-141.799,7.40854
141.821,89.0677,15.7519,0,9.74773,0.167651,0.459844,2.04268,-0.884146,-10.0305,-35.7768,-2.01661,14.0588,-11.372,-138.963,7.07317
141.831,88.9601,16.0352,0,9.87467,0.220342,0.380808,2.07317,0.487805,-10.2744,-35.9684,-1.346,14.7006,-8.62805,-136.25,6.82927
141.841,88.8446,16.3637,0,9.94652,0.366438,0.387993,2.37805,1.21951,-9.60366,-36.4953,-1.02028,15.9844,-5.82317,-137.256,8.17073
141.851,88.7362,16.6686,0,10.0663,0.431104,0.380808,2.95732,1.46341,-8.41463,-37.0701,-1.346,16.0131,-3.96341,-141.494,7.65244
141.861,88.6465,16.9778,0,10.016,0.352068,0.397573,3.14024,1.61585,-7.62195,-37.1276,-1.47054,16.3484,-2.59146,-143.567,4.81707
141.871,88.5811,17.2538,0,10.0112,0.225132,0.483794,3.5061,0.640244,-6.79878,-36.4953,-1.90165,15.6682,-4.81707,-144.085,3.93293
141.882,88.5276,17.5549,0,9.93933,0.117356,0.517324,3.84146,0.304878,-6.98171,-35.384,-2.09325,15.8502,-5.88415,-146.89,2.71341
141.891,88.4782,17.8596,0,9.90341,0.0670605,0.495769,4.11585,0.121951,-7.2561,-34.7996,-2.53393,15.8598,-8.38415,-151.22,2.62195
141.901,88.429,18.1922,0,9.78366,0.00958008,0.481399,4.42073,-0.884146,-8.01829,-34.4548,-3.06083,16.4346,-10.8537,-153.018,5
141.911,88.3752,18.4905,0,9.83156,0.0670605,0.495769,3.96341,-0.884146,-7.89634,-34.1673,-3.19496,15.9077,-9.63415,-153.659,8.44512
141.921,88.3129,18.7733,0,9.8603,0.198787,0.488584,4.39024,-0.853659,-7.31707,-33.8416,-3.43446,15.6874,-4.26829,-153.72,10.1524
141.931,88.2499,19.0703,0,9.94652,0.318538,0.483794,4.60366,0.0914634,-6.12805,-33.4776,-3.11832,15.9844,-1.18902,-151.799,14.4817
141.941,88.1913,19.4083,0,10.0136,0.373623,0.505349,4.35976,0.884146,-5.18293,-33.3818,-2.86923,16.8945,2.2561,-153.689,16.25
141.951,88.139,19.7304,0,9.97526,0.364043,0.464634,3.68902,1.52439,-4.7561,-33.7075,-2.84049,17.019,3.96341,-152.378,15.5488
141.961,88.1,20.0683,0,9.91778,0.273032,0.479004,4.08537,2.2561,-4.57317,-33.7841,-2.32317,17.613,4.05488,-147.104,14.2988
141.972,88.0576,20.3757,0,9.81479,0.280217,0.524509,3.5061,2.59146,-4.87805,-33.9566,-2.15073,17.3831,4.48171,-145.671,12.439
141.981,88.0168,20.6808,0,9.86509,0.277822,0.574805,3.65854,2.7439,-4.84756,-34.062,-2.01661,17.6321,6.21951,-143.933,9.63415
141.991,87.9696,21.0136,0,9.91778,0.332908,0.570015,3.32317,2.37805,-4.93902,-34.3494,-2.07409,18.5518,5.42683,-143.72,6.98171
142.001,87.9231,21.3663,0,9.93694,0.359253,0.488584,2.89634,1.85976,-4.66463,-34.6272,-2.32317,19.347,4.63415,-146.921,4.11585
142.011,87.8814,21.7044,0,9.9058,0.340093,0.445474,2.89634,2.16463,-4.48171,-34.4548,-2.26569,19.232,1.85976,-148.476,1.79878
142.021,87.8351,22.0366,0,9.72857,0.330513,0.522114,2.34756,2.53049,-5.09146,-34.1673,-2.16031,19.2224,0.365854,-147.927,-0.609756
142.031,87.7909,22.3725,0,9.78844,0.268242,0.505349,1.85976,3.07927,-5.73171,-33.6596,-2.11241,19.2703,0.823171,-146.738,-0.670732
142.041,87.7453,22.7357,0,9.82916,0.265847,0.486189,2.04268,3.47561,-6.0061,-33.2764,-2.16031,19.8451,1.18902,-148.476,-1.79878
142.051,87.6997,23.0764,0,9.88904,0.277822,0.538879,1.95122,3.38415,-5.97561,-32.8357,-2.33275,19.414,1.95122,-150.488,-0.792683
142.061,87.6451,23.3948,0,9.89383,0.344883,0.488584,2.10366,3.35366,-6.18902,-32.3471,-2.37107,18.9638,6.15854,-148.72,0.213415
142.071,87.5887,23.727,0,9.88425,0.378413,0.433499,2.43902,3.90244,-6.09756,-32.2705,-2.15073,19.4332,11.0671,-147.012,0.792683
142.082,87.53,24.0847,0,9.81958,0.459844,0.495769,2.86585,4.57317,-5.42683,-32.1555,-2.25611,20.123,14.2683,-145.671,3.10976
142.091,87.4716,24.4273,0,9.82916,0.476609,0.464634,2.65244,5.57927,-5.33537,-32.1843,-2.16031,20.1325,16.189,-143.171,3.35366
142.101,87.4141,24.7536,0,9.88664,0.522114,0.498164,2.9878,6.67683,-4.84756,-32.5483,-2.16031,20.3146,21.0366,-140.732,2.5
142.112,87.361,25.0821,0,9.94173,0.522114,0.574805,2.62195,6.95122,-4.54268,-32.5866,-1.7292,20.6403,26.0976,-141.128,2.0122
142.121,87.3168,25.4191,0,9.99681,0.443079,0.613125,1.70732,7.46951,-4.72561,-32.7208,-1.93039,21.1576,26.4329,-142.591,-1.34146
142.131,87.2794,25.7308,0,10.0064,0.344883,0.680186,1.34146,7.34756,-5.27439,-32.5004,-1.99745,20.784,25.1524,-139.604,-5.57927
142.141,87.245,26.0554,0,9.99681,0.277822,0.64905,0.487805,6.76829,-5.82317,-32.4142,-1.93997,21.263,18.4756,-134.451,-11.311
142.151,87.2136,26.4218,0,9.99442,0.213157,0.656235,0.213415,6.28049,-6.34146,-32.2418,-1.71004,22.2689,11.4939,-136.159,-15.9756
142.161,87.1814,26.8135,0,9.89622,0.246687,0.56762,-1.12805,7.31707,-6.06707,-32.146,-1.5376,23.0353,5,-139.482,-17.3476
142.171,87.1526,27.1796,0,9.88904,0.241897,0.443079,-2.5,9.57317,-5.85366,-32.031,-0.934058,22.7383,0.792683,-138.598,-16.128
142.181,87.1345,27.5459,0,9.77647,0.0574805,0.411943,-1.61585,11.311,-6.98171,-31.5903,-0.627495,22.7383,1.25,-138.415,-15
142.191,87.1223,27.8992,0,9.74054,-0.0383203,0.524509,-0.548781,11.4634,-7.56098,-31.1879,-0.301772,22.4797,-0.609756,-137.957,-11.9512
142.201,87.0818,28.2481,0,9.65432,0.100591,0.59636,0.670732,9.20732,-8.78049,-30.5269,-0.177231,22.2114,-0.945122,-135.457,-7.22561
142.211,87.0401,28.6126,0,9.60882,0.102986,0.699346,1.55488,6.98171,-8.96341,-30.0383,-0.368833,22.4701,-2.07317,-132.53,-4.57317
142.221,86.9908,28.9773,0,9.64474,0.196392,0.665815,1.67683,5.64024,-8.68902,-29.8946,-0.397573,22.6713,-3.07927,-130.61,-4.26829
142.231,86.9198,29.331,0,9.77647,0.392783,0.507744,1.64634,5.18293,-8.68902,-29.8276,-0.541274,22.7096,-1.79878,-126.22,-2.95732
142.241,86.8597,29.6805,0,10.0375,0.407153,0.61073,1.85976,5.27439,-7.68293,-29.703,-0.771196,22.8341,-0.701219,-122.195,-4.11585
142.251,86.798,30.0077,0,10.1166,0.423918,0.565225,3.84146,4.42073,-7.80488,-29.2432,-0.876577,22.3264,1.34146,-117.622,-4.57317
142.261,86.7379,30.3751,0,9.96568,0.371228,0.66821,4.78659,3.62805,-8.32317,-29.224,-1.0586,23.4281,1.85976,-114.665,-6.06707
142.271,86.6641,30.7523,0,9.77168,0.462239,0.823887,3.56707,5.45732,-8.65854,-29.2432,-1.17356,23.9646,-0.152439,-114.329,-7.68293
142.281,86.5783,31.1115,0,9.63277,0.529299,0.831072,1.92073,7.2561,-9.14634,-29.4156,-1.28852,24.0508,-2.62195,-111.921,-8.35366
142.291,86.5252,31.4413,0,9.83635,0.337698,0.814307,1.76829,8.2622,-8.38415,-29.0707,-1.43222,23.4664,-2.34756,-106.86,-9.2378
142.301,86.4522,31.789,0,9.56571,0.522114,0.914897,3.44512,6.89024,-8.17073,-28.8025,-0.953218,23.9262,-1.79878,-101.677,-9.66463
142.311,86.3778,32.1643,0,9.54176,0.538879,0.943638,4.63415,3.96341,-8.23171,-28.5534,-0.924478,24.6256,-1.64634,-99.1159,-8.81098
142.321,86.3047,32.5228,0,9.62558,0.60115,0.941243,5.73171,2.71341,-7.56098,-28.5055,-0.560435,24.549,-1.67683,-97.7439,-8.5061
142.331,86.2349,32.8835,0,9.62319,0.665815,0.912502,6.06707,2.31707,-6.58537,-28.5917,-0.780776,24.9896,-3.53659,-96.1281,-8.29268
142.341,86.1567,33.1978,0,9.57768,0.756826,0.931663,5.39634,3.53659,-6.43293,-28.5822,-1.1065,24.2903,-3.59756,-93.5366,-9.90854
142.351,86.0946,33.5241,0,9.59445,0.62989,0.960403,5.82317,3.71951,-6.52439,-28.5726,-1.00112,24.8268,-2.5,-90.6098,-10.6707
142.361,86.0281,33.8664,0,9.69983,0.622705,1.00591,6.98171,2.95732,-7.2561,-28.5534,-1.18314,25.4495,-1.92073,-92.7134,-11.0976
142.371,85.9433,34.1799,0,9.86509,0.754431,0.914897,7.92683,0.731707,-7.83537,-28.8887,-1.47054,25.392,0,-94.4817,-10.1524
142.382,85.8573,34.4645,0,10.0112,0.816702,0.761616,7.34756,0.0304878,-7.53049,-28.8887,-1.36516,25.0088,0.670732,-98.2317,-9.32927
142.391,85.7974,34.756,0,10.0878,0.792751,0.826282,5,1.64634,-5.39634,-28.6684,-1.30768,25.2196,1.82927,-98.5061,-10.6707
142.401,85.7154,35.0387,0,9.83874,0.926873,1.08973,5.21341,0.762195,-5.94512,-28.7354,-1.02986,25.3441,3.81098,-97.561,-11.189
142.411,85.6477,35.3335,0,9.78366,0.701741,1.14482,4.96951,-1.09756,-7.28659,-28.6492,-0.857417,25.7944,1.46341,-97.7134,-11.5244
142.421,85.602,35.6064,0,9.33818,0.510139,1.18553,6.09756,-1.40244,-7.16463,-28.4097,-0.771196,25.3633,0.304878,-94.8476,-12.8963
142.431,85.5548,35.885,0,9.38608,0.471819,1.04662,6.43293,0.182927,-7.92683,-28.3043,-1.00112,25.6411,-1.0061,-94.1768,-13.0793
142.441,85.5008,36.1581,0,9.34297,0.512534,0.922083,6.18902,0.853659,-8.17073,-28.2085,-0.886157,25.6794,-2.37805,-94.6951,-12.4695
142.451,85.4592,36.4338,0,9.48907,0.457449,0.958008,5.88415,0.243902,-7.80488,-27.9978,-1.06818,25.7944,-2.62195,-94.1159,-11.8598
142.461,85.3971,36.6962,0,9.63037,0.617915,0.972378,6.21951,-0.914634,-8.10976,-27.9403,-1.00112,25.689,-4.35976,-93.5976,-11.0061
142.471,85.3371,36.9397,0,9.78605,0.65384,0.953218,5,0.457317,-7.71341,-27.8637,-0.991538,25.4303,-3.78049,-93.0183,-10.6098
142.481,85.2846,37.1711,0,9.77168,0.627495,0.900527,4.63415,2.77439,-7.37805,-27.72,-1.21188,25.2483,-2.59146,-91.7988,-11.128
142.491,85.2211,37.4128,0,9.74773,0.641865,1.19032,3.71951,2.56098,-8.41463,-28.0457,-1.54718,25.986,-3.62805,-92.8354,-11.0976
142.501,85.1695,37.668,0,10.0184,0.469424,1.38672,2.7439,2.59146,-9.54268,-28.2085,-1.92081,26.6566,-4.78659,-96.189,-12.378
142.511,85.136,37.8943,0,10.1836,0.325723,1.56874,2.40854,0.884146,-9.54268,-28.2085,-1.92081,26.2159,-6.52439,-97.0732,-14.7256
142.521,85.0744,38.1253,0,10.1022,0.550855,1.36037,1.64634,-0.579268,-9.84756,-28.266,-1.88249,26.5895,-7.40854,-96.3719,-16.8598
142.531,84.9904,38.3164,0,9.86988,0.682581,0.969983,2.28659,-0.182927,-10.5488,-28.4193,-1.5855,26.0243,-8.17073,-95.0915,-18.1402
142.541,84.9044,38.4752,0,9.68785,0.749641,0.855022,2.16463,0.884146,-9.96951,-28.448,-1.40348,25.4974,-7.9878,-92.2866,-20.3354
142.551,84.8501,38.6666,0,9.78844,0.65863,0.797541,1.0061,1.0061,-8.07927,-28.563,-0.981958,26.4937,-9.5122,-93.0488,-20.5793
142.561,84.7845,38.8321,0,9.58487,0.699346,0.704136,0.335366,-0.487805,-8.68902,-28.5822,-0.972378,26.0626,-10.6098,-98.4756,-21.8598
142.571,84.7218,38.9465,0,10.1693,0.773591,0.704136,1.12805,-1.92073,-8.17073,-28.8696,-0.914897,25.277,-6.98171,-104.207,-21.8293
142.582,84.6606,39.0725,0,10.0854,0.835862,1.02746,2.16463,-3.23171,-7.34756,-28.9366,-1.17356,25.6698,-5.27439,-111.768,-21.4939
142.591,84.5814,39.2383,0,9.77647,0.929268,1.08734,3.23171,-4.7561,-7.89634,-28.927,-1.69088,26.647,-6.79878,-122.622,-20.6402
142.601,84.4963,39.4268,0,9.42919,0.809517,0.950823,2.37805,-3.75,-9.72561,-28.7642,-1.71962,27.1547,-10.6098,-130.915,-20.1829
142.611,84.4232,39.6004,0,9.55134,0.60594,1.11847,0.518293,-1.82927,-11.2805,-28.266,-2.19863,26.4937,-12.1646,-134.36,-18.2012
142.622,84.3892,39.7643,0,9.99202,0.378413,0.991538,-0.365854,-0.731707,-10.4268,-28.2373,-2.78301,26.3979,-13.5061,-134.482,-16.2805
142.631,84.3507,39.9498,0,9.97047,0.411943,0.768801,-0.792683,1.37195,-10.5488,-28.2469,-3.53026,27.0589,-10.8841,-137.256,-13.1098
142.641,84.2894,40.1469,0,10.0375,0.656235,0.699346,-2.46951,1.12805,-10.1524,-28.0265,-3.04167,27.2793,-5.4878,-141.738,-8.9939
142.651,84.178,40.31,0,10.0279,0.905317,0.402363,-2.31707,-2.22561,-12.5,-28.199,-3.02251,26.8194,1.61585,-141.707,-5.15244
142.661,84.0752,40.4768,0,10.1669,0.883762,0.974773,-3.04878,-5.18293,-12.2256,-28.4097,-3.28118,27.2697,9.57317,-140.64,-0.914634
142.671,83.9768,40.6957,0,10.2651,0.826282,0.929268,-8.20122,-11.5549,-12.7439,-28.2085,-3.6548,28.5055,15.0915,-142.134,0.731707
142.681,83.8803,40.9,0,10.095,0.474214,0.0622705,-7.80488,-10.6402,-16.6463,-28.5055,-3.53026,28.6588,23.5061,-142.073,1.52439
142.691,83.7665,41.1107,0,9.43638,0.311353,0.536484,-7.89634,-9.60366,-20.2439,-28.5726,-3.63564,29.0995,29.3598,-140.64,3.9939
142.701,83.6214,41.3909,0,9.84353,0.498164,1.11608,-11.311,-18.1707,-21.6159,-28.4864,-3.25244,31.073,33.1098,-141.646,6.43293
142.711,83.4412,41.6998,0,10.2555,0.742456,1.06578,-17.8659,-26.3415,-22.9573,-28.2948,-2.47645,31.9352,32.1951,-147.774,9.08537
142.721,83.2451,42.0589,0,10.8686,0.924478,0.821492,-25.4268,-31.4634,-23.4756,-28.0648,-1.92081,33.4297,31.2805,-158.018,9.96951
142.731,83.0532,42.4591,0,11.168,0.759221,0.828677,-23.7195,-34.6341,-25.4268,-27.9116,-2.02619,34.905,28.3841,-164.207,11.0671
142.742,82.8633,42.8713,0,10.8782,0.467029,0.105381,-16.0366,-36.9512,-28.5366,-28.1223,-3.07042,36.0259,31.8598,-170.244,9.17683
142.751,82.6337,43.2351,0,10.1908,0.548459,0.862207,-9.60366,-31.0061,-31.7073,-27.72,-4.23918,34.5218,41.7988,-166.098,7.89634
142.761,82.3828,43.6068,0,9.41003,0.65384,1.18074,-6.52439,-22.8659,-32.5305,-26.4075,-5.26425,33.6117,52.7134,-157.012,5.94512
142.771,82.0725,43.9765,0,9.72857,1.17595,0.464634,-6.64634,-11.1585,-33.1402,-25.1908,-5.22593,32.51,60.4268,-144.055,4.90854
142.782,81.7792,44.4308,0,10.8183,1.14721,0.215552,-6.95122,-5.60976,-33.75,-23.4856,-3.85598,33.2477,62.1951,-138.415,4.78659
142.791,81.4727,44.9778,0,10.4902,1.23104,0.778381,-5.88415,-2.07317,-34.3902,-22.0006,-1.71004,34.5793,62.1341,-143.415,6.18902
142.801,81.158,45.5398,0,9.82677,1.2526,0.421523,-6.43293,-0.27439,-34.6951,-21.2342,0.349673,34.6176,54.4512,-140.579,13.4451
142.811,80.8484,46.0568,0,9.79323,1.30529,-0.184417,-5.06098,-2.22561,-34.1463,-20.5828,2.10283,32.9124,44.4512,-124.604,23.0488
142.821,80.5231,46.5155,0,9.66151,1.51126,-0.265847,-2.9878,-0.579268,-33.7195,-20.9373,2.75427,32.3759,33.4451,-106.89,28.5671
142.831,80.1994,46.9219,0,9.58008,1.69567,0.237107,-2.62195,3.04878,-31.8902,-21.5312,2.61057,32.2897,21.9512,-95.8232,31.9817
142.842,79.8827,47.2822,0,9.53697,1.76034,0.0598755,0.213415,3.47561,-30.9756,-22.1252,1.98787,32.2418,12.5915,-96.9512,29.8476
142.851,79.5715,47.6134,0,9.31423,1.79626,0.177231,1.43293,4.96951,-30.122,-22.4318,1.46096,32.2226,3.9939,-99.1768,28.0488
142.861,79.2942,47.9519,0,9.25675,1.61185,-0.102986,3.93293,2.65244,-29.4207,-22.0869,1.16398,32.328,-4.69512,-101.494,24.939
142.871,79.0486,48.2779,0,9.49146,1.50886,-0.58199,7.34756,0.823171,-28.4756,-21.56,1.22146,31.5807,-7.31707,-101.921,22.0427
142.882,78.8055,48.5952,0,9.35495,1.64777,0.193997,9.84756,-2.28659,-26.7683,-21.0331,1.47054,30.9389,-15.7317,-100.945,20.0305
142.891,78.5686,48.9224,0,9.11305,1.70286,0.0335303,10.9451,-2.46951,-25.4268,-20.3816,1.43222,30.6419,-21.9817,-98.75,21.4329
142.902,78.342,49.2499,0,9.57529,1.84896,-0.0574805,13.5671,-5.64024,-24.1463,-20.3625,1.32684,31.0059,-25.1829,-97.9878,23.872
142.912,78.1055,49.5795,0,9.54415,2.0669,0.0407153,15.9146,-5.18293,-22.9878,-20.5253,0.617915,31.7148,-26.189,-97.7134,29.1768
142.922,77.851,49.9052,0,9.32142,2.22258,0.237107,14.6037,-5.21341,-22.8659,-20.6403,0.311353,32.1651,-26.3415,-99.5732,32.1951
142.931,77.6045,50.2321,0,9.59924,2.20342,0.0886157,14.4817,-6.85976,-23.5671,-21.1863,0.340093,33.4201,-25.3963,-107.409,33.811
142.941,77.3536,50.5521,0,9.53218,2.22018,0.399968,14.2073,-7.10366,-24.1463,-20.6499,0.330513,32.7687,-23.9939,-107.591,34.1768
142.951,77.1238,50.8578,0,10.0064,2.03816,0.507744,15.7927,-5.85366,-25.7622,-20.8319,0.0143701,33.0082,-28.4451,-106.402,34.6037
142.961,76.8628,51.1876,0,10.1166,2.28006,0.330513,13.7805,-4.17683,-26.9817,-21.0139,-0.493374,34.3685,-20.7927,-127.104,33.0183
142.971,76.581,51.5055,0,9.87467,2.39262,0.60594,12.9573,-1.09756,-27.7744,-20.2762,-0.761616,33.1998,-25.5183,-127.195,30.5488
142.981,76.2785,51.8032,0,9.83395,2.5028,0.65384,13.2622,-1.25,-29.1159,-20.4583,-1.12566,33.3914,-23.9024,-105,29.1768
142.991,75.9514,52.1046,0,9.61121,2.63213,0.922083,12.9573,-3.20122,-30.122,-20.9373,-1.0586,34.723,-25.2439,-101.555,29.6951
143.002,75.6244,52.3937,0,9.8603,2.53393,0.637075,13.689,-4.11585,-32.622,-21.3875,-1.346,35.4319,-15.2439,-105.549,30.2439
143.011,75.2745,52.6566,0,9.99681,2.74948,0.929268,12.3171,-3.2622,-33.6585,-21.924,-1.346,35.6331,-12.3476,-127.957,30.9756
143.021,74.9067,52.9515,0,9.86748,2.7902,0.404758,12.1037,-1.12805,-35.3659,-21.2342,-0.972378,35.8918,-9.05488,-144.207,32.2256
143.031,74.5041,53.2553,0,9.80281,3.01533,0.443079,11.1585,-0.914634,-36.9817,-20.7552,-0.675395,35.8151,-9.87805,-144.543,35.5488
143.041,74.0835,53.5219,0,9.88904,3.28836,0.320933,10.6402,0.579268,-37.0122,-20.6594,-0.0335303,34.8571,-14.1768,-130.061,37.0732
143.052,73.6443,53.7941,0,9.72857,3.48236,0.124541,9.39024,0.609756,-37.1037,-20.7936,0.0910107,35.7289,-19.2683,-120,36.4329
143.062,73.215,54.0674,0,9.82677,3.50152,0.179626,7.31707,-0.457317,-37.1646,-21.1289,-0.0814307,36.6965,-22.2866,-126.677,34.4207
143.072,72.8094,54.3163,0,9.80281,3.30752,0.0718506,7.53049,-0.0304878,-37.5915,-21.4642,-0.656235,36.7061,-26.7378,-135.64,31.5244
143.082,72.3847,54.5364,0,9.44356,3.39614,0.148491,7.13415,0.27439,-38.0488,-21.5025,-0.991538,36.045,-26.4939,-139.665,28.2317
143.091,71.9594,54.7711,0,9.3286,3.23328,-0.0479004,7.77439,0.579268,-40.3354,-21.1193,-1.0586,36.2271,-23.3537,-142.47,25.8537
143.101,71.5219,55.0233,0,9.58966,3.2213,-0.0934058,9.17683,-2.95732,-43.5671,-20.8989,-0.579595,36.821,-18.4146,-144.848,22.8963
143.111,71.0653,55.3209,0,9.73336,3.32908,-0.191602,11.25,-3.75,-45.7622,-20.3241,-0.0143701,37.8844,-19.1768,-151.646,22.0732
143.121,70.5825,55.6335,0,10.0303,3.68833,0.00958008,11.4939,-2.62195,-46.7073,-19.8547,0.186812,38.0377,-22.9573,-157.439,20.6098
143.131,70.1105,55.9374,0,10.0136,3.71228,0.0215552,12.0427,-2.5,-46.2805,-19.6631,0.129331,37.7982,-28.7195,-159.909,19.8476
143.141,69.6299,56.2398,0,9.56331,3.72905,0.0814307,10.2744,-2.62195,-46.1585,-19.1745,-0.512534,37.2809,-28.75,-160.152,17.7134
143.151,69.2046,56.5216,0,9.7118,3.33626,-0.251477,11.8902,-2.34756,-46.2805,-18.6955,-0.637075,36.0163,-28.0793,-159.36,16.6159
143.161,68.7451,56.8076,0,8.93821,3.41769,-0.138911,12.9268,-2.40854,-46.6159,-18.1111,-1.02986,35.4894,-25.061,-157.774,16.8902
143.172,68.2867,57.1247,0,8.82086,3.32429,-0.172441,13.7195,-7.83537,-48.0183,-17.4789,-0.953218,35.8822,-21.9207,-158.841,17.378
143.182,67.815,57.4774,0,9.21603,3.6045,0.258662,10.3354,-7.80488,-48.8415,-17.1435,-0.752036,37.0893,-22.3171,-169.238,19.3293
143.191,67.3599,57.8284,0,9.51302,3.61408,0.229922,9.87805,-8.01829,-49.2683,-16.8945,-0.560435,36.9743,-25.061,-181.555,19.7561
143.201,66.8866,58.1604,0,9.77168,3.8943,-0.0526904,8.90244,-7.34756,-50.1524,-16.7316,-0.416733,36.3899,-28.0793,-182.622,20.8841
143.211,66.4133,58.4726,0,9.95849,4.04998,-0.0742456,10.0305,-5.12195,-50.3049,-16.425,-0.368833,35.499,-28.2012,-176.494,20.7927
143.221,65.9305,58.7771,0,9.8124,4.19607,-0.146096,11.5549,-5.33537,-50.1524,-16.2622,-0.387993,35.3744,-25.3049,-172.165,19.8476
143.231,65.4298,59.1114,0,9.52978,4.35415,-0.177231,13.7805,-4.72561,-50.0915,-15.582,-0.455054,35.5756,-26.1585,-176.159,19.3293
143.241,64.8995,59.4934,0,9.02443,4.44037,-0.589175,13.9329,-3.07927,-50.7927,-14.9593,-0.934058,36.7348,-27.0122,-184.695,17.0427
143.251,64.3897,59.8781,0,8.61968,4.01645,-0.505349,15.5488,-0.853659,-52.2561,-14.0779,-1.59508,35.3553,-33.872,-186.159,15.8537
143.261,63.8377,60.2699,0,7.5491,3.88712,-0.126936,16.2805,3.23171,-52.9878,-13.369,-1.75794,34.6751,-36.0061,-172.652,16.4024
143.271,63.2984,60.7137,0,7.61616,3.79371,0.0598755,15.6098,0.670732,-54.3902,-12.2386,-1.2502,34.838,-32.2561,-168.567,20.1524
143.282,62.7919,61.2018,0,8.943,4.19607,-0.0862207,15.7317,-12.5,-54.878,-11.5775,-0.579595,35.9588,-26.7683,-179.146,27.4695
143.291,62.3092,61.6773,0,9.53697,4.54814,0.0526904,15.6402,-12.1341,-52.7439,-11.4913,-0.186812,35.9684,-24.9085,-187.439,33.872
143.301,61.8198,62.1208,0,9.27831,4.69184,0.160466,13.8415,-10.0305,-51.7073,-11.2422,0.0910107,34.5122,-25.0305,-185.427,35.8232
143.312,61.3425,62.5057,0,9.05796,4.59604,0.0910107,12.1037,-6.89024,-51.311,-11.932,-0.914897,34.2248,-20.4878,-214.39,32.8049
143.321,60.8744,62.9193,0,8.84002,4.48587,-0.301772,11.4634,-5.39634,-51.3415,-11.1464,-1.57592,35.0008,-26.5549,-124.36,29.7256
143.331,60.3897,63.3825,0,8.38736,4.44995,-0.292192,10.8537,-1.98171,-51.8598,-10.2746,-1.61424,35.7289,-25.5488,-133.171,25.061
143.341,59.9,63.8565,0,8.33467,4.49306,-0.306563,11.25,-4.42073,-52.5915,-9.70941,-2.03577,35.4702,-24.2073,-133.75,22.7134
143.351,59.3872,64.3395,0,8.28198,4.91219,-0.490979,12.1037,-2.22561,-51.1585,-9.26873,-1.13524,35.5565,-24.9085,-134.146,19.878
143.361,58.8566,64.8556,0,8.0808,5.22114,-0.632285,8.53659,-3.65854,-49.5427,-8.06164,-0.483794,34.3302,-22.8354,-118.415,18.9024
143.371,58.3632,65.3389,0,8.0305,5.0032,-0.366438,9.2378,-0.27439,-48.75,-8.24366,0.263452,34.5027,-23.0793,-100.884,18.3232
143.382,57.9071,65.7956,0,8.51669,5.0487,-0.56283,10.1524,1.70732,-48.5366,-8.59812,0.416733,35.5756,-25.4878,-92.7744,16.2805
143.391,57.4312,66.2071,0,8.10714,5.10379,-0.371228,10.8232,0.884146,-48.3537,-9.31663,0.416733,36.7061,-30.3963,-86.5854,14.2378
143.401,56.9401,66.5877,0,7.98979,5.24749,-0.239502,9.72561,0.0304878,-48.628,-9.39327,-0.234712,36.0738,-33.7195,-83.6281,10.7622
143.411,56.4568,66.9373,0,7.82213,5.17564,-0.138911,9.78659,-3.29268,-48.4451,-9.42201,-0.665815,35.2595,-35.1829,-75.8537,9.32927
143.422,55.9568,67.3333,0,7.75507,5.34568,-0.0790356,10.3963,-4.48171,-48.9024,-8.47358,-1.02986,35.5373,-35.1524,-70.7622,6.67683
143.431,55.4366,67.7449,0,7.65927,5.63548,-0.167651,8.59756,-3.44512,-48.3841,-7.87003,-1.19272,35.1541,-35.2134,-69.9085,7.04268
143.441,54.9534,68.1644,0,7.89638,5.50136,-0.62989,9.84756,-4.5122,-48.689,-7.56347,-1.0586,35.5373,-32.561,-71.311,6.37195
143.451,54.4666,68.6003,0,7.96584,5.76721,-0.323328,10.0915,-8.29268,-47.9268,-7.16111,-0.962798,36.2462,-34.4817,-70,4.29878
143.461,54.0031,69.0285,0,7.93709,5.63788,-0.589175,9.05488,-8.71951,-47.5915,-7.09405,-0.646655,36.7156,-34.6037,-70.4878,3.29268
143.471,53.5454,69.4346,0,7.8844,5.65225,-0.258662,11.4329,-8.71951,-47.439,-7.12279,-0.0335303,36.5336,-37.2561,-64.2073,3.75
143.482,53.0581,69.822,0,7.67604,5.92528,0.205972,7.56098,-9.96951,-47.2561,-7.12279,-0.282612,36.6294,-39.7256,-44.4207,2.28659
143.492,52.6006,70.1667,0,7.71675,5.78158,-0.407153,6.70732,-12.3476,-46.8902,-7.29523,-0.589175,35.5373,-42.8049,-26.0976,0.853659
143.501,52.1423,70.4878,0,7.64251,5.87738,-0.495769,7.0122,-12.1951,-46.4329,-7.41019,-1.09692,35.4894,-43.689,-13.9329,0.945122
143.511,51.6769,70.7991,0,7.46528,5.88935,-0.421523,6.61585,-11.5854,-46.6463,-7.35271,-1.2023,35.5469,-42.8659,-6.82927,-0.97561
143.521,51.2094,71.1008,0,7.49881,6.02587,-0.397573,6.79878,-12.0122,-46.7683,-7.36229,-1.5376,35.9301,-44.1768,0.152439,-1.89024
143.531,50.7573,71.3953,0,7.64011,6.03305,-0.603545,6.82927,-12.0732,-47.1341,-7.45809,-1.95913,36.8306,-43.4451,2.95732,-1.85976
143.541,50.2913,71.6557,0,7.59461,6.21268,-0.510139,6.76829,-9.42073,-47.4695,-7.70717,-2.29443,36.3133,-41.4329,9.32927,-1.95122
143.551,49.8314,71.9086,0,7.64011,6.28214,-0.510139,5.57927,-5.06098,-47.5,-7.60179,-2.38065,36.1217,-37.7744,15.061,-2.46951
143.561,49.3779,72.1518,0,7.69759,6.26298,-0.627495,6.52439,-0.823171,-48.3841,-7.55389,-2.41897,36.0067,-33.0488,20.2439,-2.59146
143.571,48.9088,72.388,0,7.57784,6.44979,-0.0215552,6.43293,-1.06707,-48.3232,-7.42935,-2.32317,35.681,-28.2927,24.939,-4.05488
143.582,48.4371,72.6195,0,7.4078,6.51685,-0.287402,5,0.640244,-47.622,-7.28565,-2.13157,35.4607,-22.378,31.5244,-3.10976
143.591,47.9661,72.8353,0,7.24014,6.46176,-0.421523,4.87805,1.06707,-47.6829,-7.19943,-1.60466,34.6368,-17.2256,38.1098,-1.95122
143.601,47.4982,73.0252,0,7.24493,6.47374,-0.294587,5.33537,-2.10366,-48.2622,-7.58263,-1.30768,35.1733,-15,41.189,-1.95122
143.611,47.0578,73.1907,0,7.42935,6.51445,-0.775986,5.70122,-5.88415,-47.5,-7.89877,-1.16398,35.384,-14.7561,42.5,-2.22561
143.622,46.6128,73.3337,0,7.22098,6.59588,-0.55804,6.12805,-6.89024,-46.4939,-8.29156,-1.08734,35.9397,-16.7073,42.1341,-0.945122
143.631,46.1761,73.4748,0,7.09165,6.55277,-0.258662,5,-7.95732,-45.8841,-8.25324,-1.18314,36.0834,-18.5366,44.3598,-1.03659
143.641,45.7647,73.6206,0,7.13237,6.42584,-0.251477,4.42073,-8.35366,-45.6707,-7.93709,-1.06818,35.5948,-21.8902,55.2439,0.121951
143.651,45.3578,73.7812,0,7.04375,6.38033,-0.474214,4.14634,-8.29268,-45.7317,-7.59221,-0.732876,35.7097,-23.872,64.3598,1.98171
143.661,44.9505,73.9418,0,6.93598,6.40428,-0.352068,3.62805,-8.14024,-45.4878,-7.36229,-0.665815,35.2882,-25.3354,76.7988,5.97561
143.672,44.533,74.0767,0,6.79707,6.47374,-0.55325,4.45122,-7.22561,-45.5488,-7.66885,-0.790356,35.3553,-26.0061,83.5671,7.37805
143.681,44.1016,74.1931,0,6.7827,6.66055,-0.58199,5.39634,-7.0122,-46.0366,-7.93709,-1.02028,35.6235,-25.1524,85.5183,7.04268
143.691,43.6587,74.2492,0,6.85455,6.95035,-0.522114,4.26829,-5.85366,-46.2195,-8.63644,-1.65256,34.7805,-23.9329,89.9085,6.70732
143.701,43.2181,74.2565,0,6.92161,7.09165,-0.474214,4.05488,-4.90854,-46.2805,-9.25915,-2.18905,34.3302,-21.1585,95.1219,6.31098
143.711,42.7779,74.2812,0,6.9719,7.33594,-0.294587,3.78049,-4.96951,-45.5793,-9.36453,-2.16989,35.8439,-19.1768,96.7378,5.79268
143.721,42.3285,74.3177,0,6.84976,7.47246,-0.344883,2.43902,-1.95122,-45.3049,-9.2304,-2.25611,36.1313,-19.6951,94.2988,7.7439
143.731,41.8764,74.3341,0,6.64857,7.44372,-0.270637,0.579268,0.0609756,-45,-9.32621,-1.99745,35.3074,-17.1037,95.3049,8.53659
143.741,41.4313,74.334,0,6.60067,7.39582,-0.160466,-1.06707,-0.701219,-45.1524,-9.45075,-1.62382,34.9529,-15.2134,108.78,12.5
143.751,40.9649,74.3246,0,6.35159,7.45091,-0.258662,-1.25,-3.10976,-45.5793,-9.91059,-1.51844,36.1313,-13.9939,113.963,14.3293
143.762,40.5144,74.2672,0,6.50008,7.47486,-0.526904,-0.335366,-1.67683,-46.0671,-10.2938,-1.5855,34.7613,-11.4634,127.134,14.7561
143.771,40.0268,74.2185,0,6.2534,7.80297,-0.419128,-1.92073,-0.823171,-46.0671,-10.0256,-1.59508,34.426,-9.5122,146.829,12.8659
143.781,39.5407,74.1288,0,6.25579,7.90596,-0.438289,-2.68293,-2.37805,-46.189,-11.4434,-2.04535,36.7061,-10.3354,147.53,9.87805
143.791,39.0542,74.0084,0,6.16718,7.97542,-0.507744,-3.29268,-1.03659,-45.9146,-12.1236,-2.22737,36.9456,-13.7195,150.762,6.37195
143.801,38.5721,73.8757,0,6.14802,8.02811,-0.380808,-4.5122,0.0609756,-45.9146,-12.2386,-2.39023,36.457,-11.9207,158.841,2.19512
143.811,38.0962,73.749,0,6.10251,7.96584,-0.380808,-5.82317,2.22561,-46.2805,-11.999,-1.89207,35.8918,-11.311,169.055,-3.04878
143.821,37.6253,73.6012,0,6.057,7.87722,-0.435894,-6.67683,4.93902,-46.9512,-11.9224,-1.76752,34.4356,-9.93902,179.238,-5.15244
143.831,37.1576,73.4006,0,5.93246,7.75986,-0.502954,-6.85976,3.07927,-47.2561,-12.4685,-1.49928,33.2572,-9.02439,184.207,-5.7622
143.841,36.6976,73.2164,0,5.91809,7.76944,-0.56762,-7.07317,-0.335366,-47.2256,-12.7559,-1.56634,34.426,-7.9878,185.762,-4.81707
143.851,36.2358,73.0169,0,5.88456,7.81734,-0.752036,-6.64634,-0.609756,-47.6829,-13.1582,-1.92081,34.4548,-4.87805,186.006,-4.45122
143.861,35.7557,72.7501,0,5.81271,8.06643,-0.445474,-6.46341,-0.0609756,-48.0488,-14.0779,-2.15073,33.5255,-1.46341,190.396,-4.08537
143.872,35.2772,72.4908,0,5.83666,8.1263,-0.263452,-7.80488,0,-48.689,-14.4899,-2.29443,34.4356,7.95732,197.53,-2.80488
143.881,34.8079,72.2116,0,5.93486,8.25084,-0.234712,-9.08537,0.762195,-48.811,-14.7869,-2.63931,33.947,16.6463,206.311,-1.64634
143.891,34.3523,71.9246,0,5.96599,8.27719,-0.102986,-8.81098,2.10366,-48.4756,-14.7773,-2.45729,33.2572,19.4207,218.293,0.853659
143.901,33.919,71.653,0,5.93486,8.16702,0.0191602,-8.38415,3.68902,-47.5915,-14.9689,-1.89207,33.8895,20.8537,222.683,2.80488
143.911,33.501,71.3931,0,5.88456,8.14067,0.0143701,-9.17683,5.51829,-46.6159,-14.921,-1.26936,33.8225,17.7439,223.354,5.36585
143.921,33.0905,71.0602,0,5.80313,8.15744,0.0119751,-10.2744,6.7378,-45.8232,-15.3617,-0.493374,31.6382,16.5549,225.03,5.54878
143.931,32.6767,70.6922,0,5.57082,8.18378,-0.138911,-11.25,5.06098,-44.5732,-15.8981,0.359253,31.0538,17.7439,226.768,5.12195
143.941,32.2481,70.2958,0,5.26904,8.14307,-0.177231,-11.2805,3.68902,-44.2073,-17.201,0.378413,32.0597,21.0976,223.049,2.40854
143.951,31.8052,69.9137,0,5.06307,8.14307,-0.273032,-11.4634,1.89024,-44.4207,-17.1723,0.129331,31.9735,19.3598,224.97,-2.22561
143.961,31.3403,69.5494,0,4.86907,8.30353,-0.383203,-12.4085,0,-44.5427,-17.431,-0.00479004,32.5483,13.3232,225.213,-6.79878
143.971,30.8668,69.1852,0,4.68945,8.33706,-0.476609,-12.0122,-1.25,-44.2683,-17.1435,-0.340093,31.5616,9.60366,230.244,-9.57317
143.982,30.3811,68.8063,0,4.48348,8.44723,-0.550855,-11.8902,-3.35366,-43.628,-16.9807,-0.196392,30.3832,7.0122,238.628,-10.7012
143.991,29.8965,68.4526,0,4.26792,8.3203,-0.728086,-12.1951,-5.85366,-42.8659,-16.722,0.282612,30.2491,4.57317,240.823,-8.62805
144.001,29.4233,68.0789,0,4.22721,8.21013,-0.785566,-11.9817,-9.29878,-42.8659,-17.1244,0.311353,29.9138,3.29268,241.159,-5.60976
144.011,28.9532,67.6922,0,4.11943,8.25084,-0.694556,-12.4695,-15.7317,-42.0732,-17.6896,0.455054,30.0096,-0.884146,236.159,-5.7622
144.021,28.4766,67.2852,0,3.95178,8.2245,-0.673001,-14.0854,-21.1585,-41.9207,-18.5231,0.464634,30.297,-5,231.22,-5.82317
144.031,28.0151,66.844,0,3.95897,8.13109,-0.840652,-13.3841,-26.8293,-41.9512,-19.05,0.330513,29.6551,-9.02439,230.579,-8.23171
144.041,27.5614,66.3676,0,4.09069,8.39694,-0.752036,-15.0915,-32.0122,-42.1341,-19.4428,0.0622705,28.7833,-11.3415,231.738,-13.2622
144.051,27.1459,65.918,0,4.32062,8.2245,-0.898132,-15.7927,-34.9085,-42.7134,-19.6248,0.330513,29.2719,-13.0183,231.677,-16.311
144.061,26.7538,65.4859,0,4.46911,7.99458,-0.862207,-13.9634,-36.0061,-44.2073,-19.9793,0.0335303,29.7414,-15,222.713,-16.7683
144.071,26.3662,65.0231,0,4.49306,7.75747,-0.704136,-10.6707,-36.3415,-46.3415,-20.0367,-0.435894,28.5247,-13.7805,225.152,-16.189
144.081,25.9925,64.5264,0,4.58167,7.6473,-0.344883,-8.75,-36.8902,-47.439,-20.372,-1.00112,27.6721,-11.7683,234.299,-14.2378
144.091,25.643,64.0233,0,4.88344,7.87003,-0.179626,-9.78659,-36.0671,-47.561,-21.0618,-1.54718,27.9978,-10.6098,247.591,-12.7439
144.102,25.3436,63.5071,0,5.41753,8.38257,-0.296982,-12.2561,-32.8659,-45.3049,-21.6941,-1.56634,27.9882,-7.56098,249.238,-10.0915
144.111,25.1075,62.9224,0,5.98994,8.8496,-0.560435,-13.6585,-28.3232,-41.9512,-22.6329,-1.65256,26.944,-2.2561,247.957,-9.11585
144.122,24.9161,62.3571,0,6.09532,8.8496,-0.773591,-13.2317,-20.5488,-38.811,-23.0353,-1.52802,27.3368,0.945122,248.994,-7.71341
144.132,24.7204,61.8089,0,5.80074,8.72745,-0.783171,-11.8902,-14.1768,-37.7134,-23.6293,-0.953218,27.902,-1.15854,248.049,-7.68293
144.141,24.4988,61.2338,0,5.30257,8.49034,-0.900527,-10.6402,-10.7317,-37.439,-23.9358,-0.483794,27.0589,-2.53049,245.976,-7.46951
144.151,24.2494,60.6611,0,4.82357,8.38496,-0.993933,-9.14634,-10.1524,-36.4939,-23.9454,0.0335303,26.6087,-4.17683,251.585,-7.53049
144.161,23.9802,60.07,0,4.49785,8.30832,-1.08015,-7.62195,-8.84146,-36.0061,-24.0508,0.512534,25.7944,-2.31707,256.28,-7.83537
144.172,23.6763,59.4862,0,4.20326,8.38017,-0.965193,-5.54878,-5.09146,-36.4329,-24.4723,0.866997,25.9093,-4.29878,264.085,-6.31098
144.181,23.3335,58.9218,0,3.9422,8.64123,-0.627495,-5.70122,-3.75,-36.7073,-24.8459,1.2502,26.2159,-4.48171,263.11,-3.84146
144.191,22.9899,58.297,0,3.91825,8.79691,-0.464634,-6.09756,-2.95732,-36.4329,-25.2483,1.2502,24.7693,-3.68902,264.36,-0.640244
144.201,22.6518,57.6944,0,4.02363,8.87594,-0.385598,-7.34756,-1.98171,-37.3476,-25.9668,1.21188,25.4303,-7.95732,266.982,3.07927
144.211,22.3172,57.109,0,4.03321,8.86636,-0.344883,-7.83537,-2.65244,-37.8354,-26.2829,0.972378,25.5644,-12.378,261.463,6.09756
144.221,22.01,56.5063,0,4.21763,8.82086,-0.277822,-8.44512,-2.59146,-37.9573,-26.944,0.560435,25.277,-14.939,258.841,7.9878
144.231,21.7304,55.946,0,4.37091,8.88313,-0.198787,-7.59146,-1.67683,-37.0732,-27.0398,0.100591,25.756,-17.439,252.591,9.45122
144.241,21.4609,55.3333,0,4.30625,9.02443,-0.172441,-6.95122,0.579268,-35.2134,-26.9536,-0.273032,24.0316,-17.3171,252.012,10.122
144.251,21.1851,54.7214,0,4.03321,9.137,-0.0598755,-6.70732,0.304878,-32.9573,-26.6757,-0.397573,23.294,-15.0305,252.012,10.061
144.261,20.9095,54.1629,0,3.74342,9.01246,-0.380808,-6.09756,-0.701219,-30.9146,-26.6566,-0.397573,23.8975,-15.5793,254.024,10
144.271,20.6218,53.6023,0,3.49194,8.99809,-0.543669,-4.78659,-2.2561,-29.9695,-27.4134,-0.464634,24.0508,-15.8232,253.902,8.01829
144.281,20.3378,53.0167,0,3.39614,8.8951,-0.529299,-3.23171,-4.02439,-29.5427,-27.6912,-0.627495,23.2748,-13.5976,248.933,5.21341
144.291,20.0484,52.3562,0,3.37219,8.9454,-0.316143,-2.56098,-5.70122,-30.1829,-28.3618,-0.378413,21.8186,-9.5122,249.421,4.72561
144.301,19.7686,51.7268,0,3.47517,9.03162,-0.280217,-4.14634,-6.7378,-30.5793,-28.7738,-0.0526904,22.2689,-5.09146,257.378,1.58537
144.311,19.4984,51.102,0,3.56618,9.06994,-0.325723,-5.15244,-7.56098,-31.0366,-29.339,0.320933,22.2881,-6.31098,257.47,0.884146
144.321,19.2388,50.4831,0,3.56858,9.15616,-0.534089,-6.15854,-6.70732,-30.1524,-30.0767,0.215552,22.4701,-11.0671,260.518,0.640244
144.331,19.0085,49.8619,0,3.59971,9.02204,-0.459844,-5.45732,-3.44512,-28.628,-30.1725,0.953218,21.9911,-15.5488,260.61,0.27439
144.341,18.7779,49.2447,0,3.44404,9.00048,-0.392783,-4.2378,-0.914634,-27.4695,-30.4407,1.65256,21.7899,-24.5122,266.616,1.52439
144.351,18.552,48.5874,0,3.39374,8.97893,-0.311353,-1.61585,0.0609756,-26.9817,-30.2587,1.73878,20.5157,-38.5366,301.28,2.62195
144.361,18.3158,47.8451,0,3.35782,9.23759,-0.311353,-1.92073,-1.76829,-27.0122,-29.3677,0.780776,18.1495,-39.0854,378.872,2.77439
144.371,18.08,47.2256,0,3.25723,9.29507,-0.277822,-1.98171,-2.77439,-26.0976,-28.3618,0.263452,18.8296,-10.3049,278.537,0.609756
144.381,17.861,46.5395,0,3.34105,9.43398,-0.265847,-1.25,-0.762195,-25.2439,-28.8983,0.742456,18.0728,-25.4878,428.963,-0.914634
144.391,17.6414,45.9561,0,3.24765,9.48907,-0.213157,-2.83537,-0.0914634,-24.5122,-33.9757,0.742456,23.5047,-44.2073,579.238,-0.304878
144.401,17.4369,45.1846,0,3.18777,9.23759,-0.174836,-3.65854,0.396341,-23.7195,-35.1445,1.03944,19.6056,-60.3049,541.799,-1.25
144.411,17.2394,44.4494,0,3.13508,9.0867,-0.0718506,-4.29878,0.731707,-23.4146,-34.6272,-0.464634,18.9063,-49.6951,407.073,0.701219
144.421,17.0527,43.7213,0,3.16861,9.0388,-0.189207,-4.26829,1.46341,-23.2927,-33.5446,-0.694556,17.6417,-32.1646,339.329,2.04268
144.432,16.8594,43.0248,0,3.14945,9.01246,-0.277822,-2.7439,1.4939,-24.2378,-34.0907,0.416733,17.8812,-24.9085,312.073,4.93902
144.441,16.6552,42.3259,0,3.01054,9.15137,-0.486189,-2.04268,1.92073,-23.5976,-33.9662,1.0107,17.1435,-51.7378,283.75,6.25
144.451,16.4256,41.5927,0,2.68242,9.28549,-0.579595,-2.22561,4.5122,-22.3171,-34.9338,0.100591,16.4346,-61.5244,279.848,4.72561
144.461,16.1824,40.9042,0,2.56028,9.50104,-0.469424,-0.823171,6.89024,-22.0732,-36.3516,-0.0910107,17.2489,-49.3293,237.866,4.02439
144.471,15.928,40.2105,0,2.49322,9.58726,-0.347278,-0.762195,4.84756,-22.6829,-36.5432,-0.148491,16.6071,-39.3902,212.805,4.2378
144.482,15.6709,39.5678,0,2.49082,9.48667,-0.268242,-0.426829,1.55488,-23.75,-37.779,-0.579595,17.2585,-29.6646,115.518,4.84756
144.492,15.4275,38.9222,0,2.58902,9.4244,-0.203577,-0.0304878,-0.213415,-24.2073,-35.7576,0.387993,15.7257,-31.4634,95.5488,3.47561
144.501,15.1964,38.2168,0,2.63931,9.38848,-0.215552,0.609756,-0.884146,-24.1463,-34.129,0.0431104,13.5319,-37.561,105.122,2.31707
144.511,14.9895,37.5792,0,2.73751,9.4747,-0.337698,0.182927,-0.426829,-22.9878,-33.2764,0.541274,14.1929,-49.878,198.445,2.80488
144.521,14.8043,37.0338,0,2.7423,9.4723,-0.455054,-0.457317,0.853659,-21.25,-34.6943,0.167651,16.0993,-53.2012,219.756,2.28659
144.531,14.6291,36.3984,0,2.71116,9.51781,-0.332908,0.701219,3.62805,-20.122,-35.202,0.0814307,14.2504,-48.0183,212.226,2.10366
144.542,14.4503,35.8009,0,2.5507,9.37411,-0.213157,0.97561,6.55488,-19.4512,-36.1696,-1.1065,14.7198,-28.0793,168.537,3.87195
144.551,14.2505,35.1943,0,2.31598,9.35734,-0.0479004,1.85976,8.04878,-19.2683,-35.0391,-0.234712,13.5702,-24.4207,139.207,4.7561
144.561,14.0192,34.5687,0,2.12199,9.48907,0.0574805,1.03659,9.66463,-20.2439,-35.5086,-0.838257,13.1774,-23.2317,194.299,4.35976
144.571,13.7855,34.0048,0,2.13875,9.59445,-0.0407153,0.487805,7.83537,-20.8841,-36.2941,-0.493374,14.2312,-33.9329,218.72,4.02439
144.582,13.5605,33.419,0,2.21539,9.55373,-0.0742456,0.823171,5.45732,-21.4634,-35.6427,-1.16398,13.2445,-33.3232,237.043,4.17683
144.591,13.3507,32.8187,0,2.28245,9.6184,-0.0862207,0.945122,3.71951,-20.9756,-36.4666,-0.991538,12.8804,-40.2744,241.341,4.90854
144.601,13.1584,32.2316,0,2.31359,9.57768,-0.170046,1.12805,4.35976,-20.0915,-36.1217,-0.723296,12.6122,-49.2378,253.384,7.2561
144.611,12.974,31.6422,0,2.22976,9.53936,-0.189207,1.55488,5.30488,-18.811,-36.0163,-0.359253,12.2194,-51.5549,281.311,8.78049
144.621,12.7925,31.021,0,2.14354,9.53697,-0.210762,1.46341,5.60976,-17.8963,-36.16,-0.905317,11.3763,-52.4085,304.848,9.81707
144.631,12.6054,30.4031,0,2.04535,9.57529,-0.215552,0.97561,5.79268,-17.5915,-36.6965,-0.924478,11.1656,-47.439,304.177,10.4268
144.641,12.4248,29.8121,0,1.9711,9.47949,-0.306563,0.457317,5.12195,-16.6768,-37.3,-1.04902,11.1943,-38.4451,247.988,10.9146
144.651,12.2469,29.24,0,1.95673,9.53697,-0.189207,0.701219,3.87195,-16.4634,-37.0126,-1.06818,10.8782,-28.5976,204.299,11.0671
144.661,12.0711,28.6938,0,1.9232,9.60882,-0.129331,0.0609756,2.28659,-16.0366,-36.7348,-0.732876,10.8207,-28.3537,195.549,10.7927
144.672,11.8934,28.1596,0,1.8753,9.58247,-0.100591,0.701219,1.09756,-16.0976,-37.4246,-0.704136,10.8399,-37.3476,191.799,9.66463
144.681,11.7106,27.6275,0,1.8274,9.6184,0.0239502,0.243902,1.0061,-16.3415,-37.8174,-0.809517,10.5908,-48.4146,186.372,10.0305
144.691,11.5394,27.0488,0,1.91362,9.64474,-0.167651,-0.304878,0.670732,-16.4634,-37.8748,-1.14482,9.39327,-52.1341,184.939,9.32927
144.701,11.3803,26.4902,0,1.95194,9.52978,-0.368833,-0.0609756,0.945122,-16.311,-37.7311,-0.886157,9.29747,-51.0366,181.433,11.372
144.711,11.2348,25.9713,0,2.05253,9.62798,-0.543669,-0.457317,0.670732,-16.189,-38.3634,-0.426313,9.70941,-50.9756,165.122,13.6585
144.721,11.1194,25.4169,0,2.15552,9.57768,-0.706531,0.182927,1.92073,-14.7256,-37.779,-0.282612,8.5598,-50.1524,160.579,15.3659
144.731,11.004,24.84,0,2.05493,9.5705,-0.66342,1.25,4.87805,-13.811,-37.8269,-0.541274,7.80297,-49.9085,163.11,15.5488
144.741,10.8893,24.2948,0,1.95194,9.58487,-0.419128,2.28659,6.31098,-12.7439,-38.1335,-0.761616,8.05206,-48.75,171.89,14.2073
144.751,10.7617,23.7435,0,1.83938,9.616,-0.193997,2.04268,5.82317,-12.8963,-38.5742,-0.991538,7.66885,-48.7805,175.823,12.378
144.761,10.6212,23.1904,0,1.71004,9.62798,-0.227527,1.61585,5.15244,-12.9268,-38.4688,-1.3939,7.24733,-45.7622,180.427,10.5183
144.771,10.4934,22.6607,0,1.78429,9.60882,-0.407153,-0.152439,5.70122,-12.8354,-38.0569,-1.28852,7.19943,-47.439,181.555,8.56707
144.782,10.3682,22.1355,0,1.76752,9.52978,-0.524509,-0.365854,4.63415,-12.8049,-37.7982,-1.0107,6.87371,-50.2439,183.445,10.0305
144.791,10.2502,21.6079,0,1.81782,9.48428,-0.459844,0.152439,4.90854,-13.0183,-37.5683,-0.780776,6.43302,-53.2622,182.866,13.0488
144.801,10.1294,21.1004,0,1.73639,9.56571,-0.292192,0.579268,6.06707,-12.4085,-37.9323,-0.531694,6.48092,-57.7134,182.439,16.189
144.811,10.0013,20.6374,0,1.69328,9.69264,-0.404758,0.853659,7.71341,-12.622,-38.4017,-0.263452,6.97909,-62.7439,180.518,20.122
144.821,9.86302,20.1562,0,1.60466,9.78126,-0.490979,1.55488,7.92683,-12.7134,-39.0149,-0.589175,6.43302,-67.0122,176.799,21.7378
144.831,9.73692,19.679,0,1.75794,9.85311,-0.514929,1.82927,9.26829,-13.3841,-39.3885,-0.876577,6.22226,-68.1098,176.311,23.3537
144.842,9.62121,19.179,0,1.82261,9.83874,-0.493374,2.16463,11.8293,-13.3537,-39.446,-1.36516,5.50376,-67.7744,179.787,22.1951
144.851,9.5224,18.6864,0,1.89446,9.81479,-0.426313,2.13415,13.628,-12.7439,-39.4939,-1.73878,5.29299,-67.5915,180.488,19.939
144.861,9.42803,18.1783,0,1.79626,9.75252,-0.445474,1.46341,16.0671,-11.4939,-39.2544,-1.89207,4.64155,-68.2927,179.39,18.9939
144.871,9.34161,17.6862,0,1.6837,9.51302,-0.419128,1.43293,17.5915,-10.061,-39.0915,-1.7771,4.52659,-66.9207,172.287,17.6829
144.882,9.24675,17.2257,0,1.47054,9.35734,-0.383203,1.18902,17.5915,-8.84146,-38.8712,-1.54718,4.67987,-63.0183,163.506,19.9695
144.891,9.12975,16.7707,0,1.22864,9.38129,-0.265847,0.731707,16.2805,-8.29268,-38.8616,-0.943638,4.42121,-59.6037,152.256,22.4695
144.901,9.01417,16.2972,0,1.11368,9.35016,-0.170046,0.579268,14.3902,-7.0122,-38.8233,-0.273032,3.7506,-58.1098,142.348,25.6402
144.911,8.88922,15.871,0,0.972378,9.45075,-0.0838257,1.67683,12.439,-6.31098,-39.034,-0.177231,4.25834,-58.872,139.878,27.2256
144.921,8.76829,15.4129,0,0.938848,9.79563,-0.131726,2.04268,9.11585,-5.30488,-39.5226,-0.579595,3.44404,-58.2622,136.89,26.7073
144.931,8.65522,14.9876,0,0.974773,9.99442,-0.155676,1.85976,6.89024,-4.93902,-40.586,-0.742456,3.77934,-59.7256,130.64,23.4451
144.941,8.55731,14.5628,0,1.11368,10.0351,-0.177231,2.46951,4.39024,-5.21341,-40.8063,-1.02028,3.47278,-58.9329,122.012,19.2683
144.952,8.4784,14.1303,0,1.21667,9.98244,-0.177231,2.43902,3.23171,-4.72561,-41.0937,-1.4897,3.02251,-60.122,114.177,16.0976
144.961,8.41607,13.7214,0,1.32445,9.77168,-0.227527,2.16463,2.9878,-4.78659,-40.4902,-1.62382,3.07042,-57.9878,107.744,15.8537
144.971,8.36461,13.326,0,1.40348,9.54176,-0.143701,2.62195,4.08537,-5.15244,-40.2315,-1.59508,2.98419,-54.0854,101.921,16.8902
144.982,8.34112,12.9264,0,1.48731,9.57768,-0.256267,1.43293,5.39634,-3.41463,-39.7238,-1.02028,2.58183,-51.7683,97.7744,18.4146
144.991,8.32005,12.5462,0,1.36516,9.57289,-0.282612,-0.365854,6.70732,-1.46341,-39.216,-0.895737,2.60099,-48.5366,95.0305,21.3415
145.001,8.28232,12.1601,0,1.27655,9.52739,-0.172441,0.701219,7.13415,0.243902,-38.9382,-0.186812,2.20821,-46.9207,90.8232,25.8841
145.011,8.23123,11.7591,0,1.18553,9.51781,-0.0574805,1.12805,5.03049,0.579268,-38.7754,0.359253,1.67172,-42.0122,87.6524,28.6585
145.021,8.13916,11.3507,0,0.929268,9.48907,-0.0934058,2.0122,5.30488,1.03659,-38.9957,0.397573,1.26936,-40.6707,84.6341,30.4878
145.032,8.01439,10.935,0,1.0083,9.77168,-0.261057,2.53049,2.28659,0.0914634,-39.5514,0.196392,0.866997,-40.1829,81.1281,29.6646
145.041,7.92643,10.5396,0,0.996328,10.0471,-0.249082,3.01829,1.25,-0.731707,-40.5189,-0.435894,0.962798,-39.0854,83.0793,27.2866
145.051,7.88936,10.1705,0,1.28134,10.3824,-0.313748,2.71341,4.29878,-1.58537,-40.5285,-0.809517,1.1544,-38.811,83.5671,24.7866
145.061,7.85756,9.81872,0,1.33642,10.4183,-0.399968,1.7378,7.7439,-1.89024,-41.3141,-1.3939,1.23104,-36.25,84.6646,21.2195
145.071,7.83891,9.45575,0,1.42025,10.2339,-0.359253,0.97561,13.5061,-2.0122,-41.362,-1.47054,0.771196,-35.9756,83.9024,20.122
145.081,7.81376,9.08058,0,1.38911,10.0256,-0.292192,1.4939,15.4268,-2.68293,-41.065,-0.866997,0.273032,-31.7073,80.6402,21.7988
145.091,7.76267,8.72428,0,1.2023,9.83874,-0.141306,1.43293,15.5793,-3.38415,-40.4519,-0.100591,0.330513,-31.25,77.8049,27.378
145.101,7.69707,8.35819,0,1.06099,9.75252,-0.220342,1.21951,14.2988,-3.29268,-40.2028,0.196392,-0.100591,-31.25,76.1585,32.6524
145.111,7.60409,8.01514,0,0.843047,9.77407,-0.203577,1.15854,12.4085,-3.5061,-40.5477,0.464634,0.0431104,-35.2439,73.8719,35.7317
145.121,7.51105,7.66099,0,0.869392,9.84832,-0.208367,0.27439,11.6463,-4.11585,-40.8542,0.0814307,-0.416733,-38.628,69.4512,35.4573
145.131,7.40668,7.31079,0,0.816702,9.8603,-0.193997,0.152439,9.87805,-4.90854,-41.2758,-0.301772,-0.608335,-38.628,68.2927,31.311
145.141,7.29691,6.97299,0,0.790356,10.0184,-0.308958,-0.579268,7.7439,-5.2439,-41.3524,-0.349673,-0.656235,-40.1524,62.7134,25.9756
145.151,7.18568,6.65541,0,0.775986,10.0543,-0.407153,-0.426829,6.82927,-5.42683,-40.7776,-0.502954,-0.531694,-38.689,60.5488,19.1463
145.161,7.08744,6.34375,0,0.912502,9.92257,-0.335303,-0.396341,5.7622,-6.06707,-40.4998,-0.253872,-0.656235,-37.9878,57.8659,17.7439
145.172,7.00534,6.02471,0,1.09931,9.74773,-0.251477,-1.4939,6.40244,-7.04268,-39.9537,-0.522114,-1.0107,-37.6524,53.2927,16.189
145.181,6.94267,5.73484,0,1.24062,9.47949,-0.301772,-1.37195,6.15854,-7.31707,-39.3981,-0.522114,-0.723296,-35,49.1768,15.122
145.191,6.89801,5.44651,0,1.36995,9.2807,-0.340093,0.0609756,6.67683,-7.53049,-39.0532,-0.570015,-0.895737,-33.4756,46.9512,14.2378
145.201,6.87605,5.17664,0,1.52563,9.2352,-0.419128,0.945122,9.60366,-7.31707,-38.8137,-0.244292,-0.780776,-33.3537,43.5976,13.689
145.211,6.87141,4.91281,0,1.59029,9.2831,-0.433499,0.853659,10.7317,-6.31098,-38.3251,0.110171,-0.857417,-33.0183,41.25,12.439
145.221,6.88622,4.65938,0,1.71483,9.4244,-0.433499,1.37195,12.3476,-5.57927,-38.5071,0.225132,-0.866997,-32.9573,39.8171,10.9451
145.231,6.91653,4.45046,0,1.88009,9.73336,-0.423918,1.7378,13.0793,-5.2439,-39.3598,-0.129331,-0.301772,-34.2683,35.8232,7.0122
145.241,6.97395,4.24417,0,2.08606,9.96807,-0.404758,1.43293,13.0488,-4.32927,-39.6376,-0.110171,-0.407153,-36.6159,34.4207,4.17683
145.251,7.03211,4.02143,0,2.08127,10.1597,-0.387993,1.46341,14.7866,-3.71951,-39.4747,0.100591,-0.838257,-34.4512,33.1402,2.83537
145.261,7.07314,3.78849,0,1.83938,10.1046,-0.385598,1.79878,17.561,-2.95732,-39.4556,-0.292192,-1.16398,-34.9695,34.5427,1.28049
145.271,7.08526,3.54673,0,1.55676,9.9058,-0.330513,2.10366,18.3232,-2.89634,-39.5035,-0.349673,-1.47054,-34.8476,37.3476,2.0122
145.281,7.07635,3.30655,0,1.38432,9.84593,-0.359253,2.2561,17.7744,-2.95732,-39.743,-0.215552,-1.61424,-35.4573,38.872,3.5061
145.291,7.04276,3.06723,0,1.16637,9.64953,-0.330513,2.46951,17.0122,-3.01829,-39.7621,-0.349673,-1.76752,-38.6585,38.7195,4.17683
145.301,7.00747,2.83486,0,1.14721,9.58966,-0.301772,2.86585,16.7073,-3.10976,-39.7621,-0.186812,-1.80584,-40.3659,40.4878,4.87805
145.312,6.98092,2.63023,0,1.15919,9.53697,-0.229922,3.56707,12.622,-2.53049,-39.5609,0.0239502,-1.48012,-41.7073,38.3537,5.88415
145.322,6.98871,2.42278,0,1.38911,9.5705,-0.129331,3.20122,11.128,-2.37805,-39.2256,0.0431104,-1.66214,-42.7439,36.7683,7.34756
145.332,7.06804,2.21107,0,1.50647,9.59205,-0.239502,2.22561,9.48171,-0.609756,-39.2352,0.100591,-1.87291,-42.2866,38.5061,7.95732
145.341,7.18862,1.99707,0,1.57832,9.59924,-0.287402,1.89024,6.52439,0.304878,-39.3214,-0.0143701,-2.05493,-41.8902,40.6707,7.28659
145.351,7.31996,1.77964,0,1.76752,9.59205,-0.423918,2.13415,5.33537,0.853659,-39.2544,-0.177231,-2.25611,-38.9024,41.2805,7.59146
145.361,7.43806,1.55778,0,1.85614,9.54176,-0.519719,2.37805,5.73171,1.76829,-39.3885,-0.205972,-2.50519,-35.1524,37.0732,5.7622
145.371,7.53348,1.3413,0,1.7771,9.63037,-0.438289,1.82927,7.56098,2.16463,-39.2065,-0.407153,-2.56267,-33.0488,34.2073,4.81707
145.381,7.60747,1.13975,0,1.61903,9.616,-0.301772,1.52439,8.47561,2.9878,-39.3119,-0.205972,-2.46687,-32.9268,31.8293,3.90244
145.391,7.66885,0.954153,0,1.53521,9.64474,-0.359253,1.09756,9.57317,3.04878,-39.1777,-0.138911,-2.33275,-34.4512,28.2012,2.59146
145.401,7.71835,0.764814,0,1.42264,9.62558,-0.347278,0.335366,10.8232,3.44512,-39.5801,-0.138911,-2.55309,-37.1341,27.561,1.28049
145.411,7.75947,0.560179,0,1.35798,9.53936,-0.383203,0.0609756,11.6463,3.35366,-39.6472,-0.186812,-2.95545,-40.4573,28.2012,0.396341
145.421,7.7856,0.351121,0,1.26218,9.50104,-0.366438,0.27439,10.2744,3.10976,-39.7621,0.0143701,-3.18538,-41.2195,28.0488,1.7378
145.431,7.81327,0.127006,0,1.31247,9.58487,-0.438289,0.579268,8.9939,2.80488,-39.8388,0.186812,-3.6069,-42.622,27.2866,3.2622
145.441,7.85081,-0.0959071,0,1.41785,9.80042,-0.328118,0.27439,6.58537,2.89634,-40.0016,0.196392,-3.76018,-42.1951,26.6768,5.09146
145.451,7.89148,-0.31918,0,1.43462,9.86509,-0.340093,0.182927,3.96341,3.23171,-39.9825,-0.0718506,-3.92304,-40.4878,26.311,6.18902
145.461,7.94024,-0.525404,0,1.48491,9.96807,-0.397573,-0.457317,3.84146,3.75,-40.1549,-0.512534,-3.7985,-40.0915,24.8476,6.12805
145.471,7.99363,-0.714639,0,1.53042,9.93454,-0.328118,-0.365854,4.26829,3.71951,-40.2315,-0.761616,-3.6548,-37.7744,22.8963,6.28049
145.481,8.03873,-0.927821,0,1.51605,9.98963,-0.270637,-0.243902,4.45122,3.23171,-40.1645,-1.0586,-4.22002,-35.5793,20.2134,4.54268
145.491,8.07137,-1.15428,0,1.44899,9.92975,-0.296982,-0.914634,4.14634,2.7439,-40.0304,-1.1065,-4.60323,-33.9024,17.5,4.11585
145.501,8.08423,-1.35333,0,1.32684,9.85311,-0.328118,-0.97561,3.56707,2.28659,-39.9537,-1.02028,-4.26792,-32.8354,16.8598,4.32927
145.511,8.08282,-1.56912,0,1.28373,9.78126,-0.301772,-0.762195,2.86585,1.58537,-39.9537,-0.866997,-4.71819,-32.3476,13.689,5.82317
145.522,8.08596,-1.7781,0,1.32924,9.80281,-0.205972,-1.58537,1.76829,1.40244,-39.9825,-0.895737,-4.75651,-30.5488,12.5305,7.62195
145.531,8.1061,-1.98863,0,1.42025,9.71899,-0.146096,-1.61585,0.426829,1.37195,-40.1645,-1.0586,-4.95769,-29.5427,11.6768,8.10976
145.541,8.12352,-2.20214,0,1.40827,9.73096,-0.148491,-2.68293,-0.884146,1.40244,-40.2794,-0.934058,-5.18761,-27.3171,8.41463,9.11585
145.551,8.14188,-2.41241,0,1.41785,9.71899,-0.191602,-2.95732,-2.10366,1.34146,-40.2507,-0.617915,-5.28341,-24.8171,6.85976,7.80488
145.561,8.16783,-2.60558,0,1.48012,9.75731,-0.244292,-3.07927,-3.53659,0.97561,-40.0495,-0.426313,-5.11097,-22.0732,3.59756,8.23171
145.571,8.20786,-2.7918,0,1.55916,9.79803,-0.337698,-2.65244,-3.23171,0.640244,-39.9154,-0.541274,-5.11097,-19.9085,2.31707,8.71951
145.581,8.24893,-2.96849,0,1.57832,9.87706,-0.332908,-2.92683,-2.34756,0.335366,-39.6088,-0.368833,-5.03433,-18.628,2.04268,8.78049
145.591,8.29903,-3.15195,0,1.62861,9.85311,-0.320933,-2.80488,-1.4939,-0.243902,-39.6472,-0.617915,-5.28341,-16.8902,2.16463,9.02439
145.601,8.32905,-3.30239,0,1.64538,9.79803,-0.289797,-3.56707,-1.40244,-1.03659,-39.81,-0.349673,-4.85231,-16.2805,0.335366,8.14024
145.611,8.35549,-3.45386,0,1.72441,9.70701,-0.349673,-3.38415,-1.46341,-1.89024,-40.0016,-0.493374,-5.00559,-15.6402,-1.06707,8.62805
145.622,8.39803,-3.58801,0,1.83219,9.64235,-0.395178,-3.17073,-1.4939,-1.95122,-39.9825,-0.244292,-4.80441,-16.372,-2.10366,8.81098
145.631,8.43421,-3.71923,0,1.87051,9.65432,-0.450264,-3.32317,-0.548781,-2.43902,-39.9537,-0.464634,-4.85231,-16.2195,-4.63415,8.17073
145.641,8.48071,-3.85283,0,1.85375,9.64474,-0.404758,-3.32317,0.0609756,-1.82927,-39.7142,-0.349673,-4.95769,-14.8476,-4.60366,8.78049
145.651,8.51918,-3.99461,0,1.77231,9.5705,-0.390388,-3.20122,0.701219,-1.7378,-39.8962,-0.598755,-5.22593,-14.6037,-5.91463,8.07927
145.661,8.55771,-4.13776,0,1.80345,9.65432,-0.440684,-3.14024,2.0122,-1.7378,-39.5609,-0.752036,-5.30257,-12.8659,-5.03049,8.20122
145.672,8.57965,-4.27065,0,1.70286,9.61121,-0.409548,-3.44512,0.487805,-1.82927,-39.5226,-0.809517,-5.21635,-11.9512,-5.03049,8.10976
145.681,8.58937,-4.40237,0,1.70286,9.63516,-0.361648,-3.47561,-0.518293,-2.46951,-39.3885,-0.684976,-5.27383,-11.25,-5.94512,7.43902
145.691,8.59797,-4.5141,0,1.71483,9.64474,-0.371228,-3.56707,-0.762195,-2.62195,-39.3214,-0.646655,-5.00559,-9.35976,-6.21951,6.25
145.702,8.60266,-4.61715,0,1.73399,9.58487,-0.292192,-3.14024,-2.10366,-3.20122,-39.2927,-0.617915,-4.92895,-8.23171,-6.79878,7.7439
145.711,8.60329,-4.72294,0,1.73639,9.62079,-0.246687,-3.14024,-3.10976,-3.47561,-39.3406,-0.665815,-5.05349,-9.96951,-6.31098,7.10366
145.721,8.60476,-4.81516,0,1.73878,9.64235,-0.232317,-3.56707,-3.01829,-3.38415,-39.3406,-0.234712,-4.89063,-8.53659,-6.98171,6.4939
145.731,8.60488,-4.88316,0,1.73399,9.68785,-0.253872,-4.29878,-2.9878,-3.35366,-39.4651,-0.253872,-4.54575,-9.69512,-7.7439,6.28049
145.741,8.61735,-4.95732,0,1.87051,9.66151,-0.280217,-4.78659,-2.65244,-3.75,-39.5418,-0.292192,-4.71819,-11.7378,-9.81707,6.34146
145.751,8.63557,-5.03497,0,1.94236,9.68785,-0.241897,-4.54268,-2.0122,-3.90244,-39.628,-0.0814307,-4.84273,-12.9878,-9.87805,4.72561
145.761,8.65685,-5.14879,0,1.94236,9.58487,-0.285007,-4.63415,-1.0061,-3.84146,-39.5226,-0.292192,-5.52291,-13.8415,-9.26829,4.29878
145.771,8.6727,-5.23628,0,1.8777,9.50823,-0.184417,-4.02439,-1.0061,-3.78049,-39.5705,-0.0910107,-5.13971,-14.5427,-8.56707,4.7561
145.781,8.66701,-5.32369,0,1.7316,9.53457,-0.182021,-3.71951,-2.10366,-4.02439,-39.4172,0.129331,-5.17803,-14.2378,-8.10976,5.09146
145.791,8.64582,-5.41393,0,1.69328,9.67109,-0.227527,-3.65854,-2.71341,-4.78659,-39.149,-0.0718506,-5.25467,-14.0854,-8.56707,5.30488
145.801,8.61951,-5.4734,0,1.69567,9.72857,-0.237107,-4.29878,-4.20732,-5.2439,-39.1873,-0.0718506,-4.78525,-15.9146,-9.35976,5.70122
145.812,8.60017,-5.52618,0,1.76273,9.64474,-0.330513,-4.84756,-6.64634,-5.54878,-39.0819,-0.138911,-4.69903,-18.1098,-10.061,3.81098
145.821,8.58583,-5.6035,0,1.84177,9.61361,-0.378413,-4.54268,-7.43902,-6.06707,-39.3214,-0.349673,-5.19719,-19.4512,-10.2134,3.93293
145.831,8.57722,-5.66713,0,1.93278,9.55613,-0.301772,-4.48171,-7.19512,-6.70732,-39.2256,0.0143701,-4.99601,-19.9695,-9.72561,4.29878
145.841,8.59048,-5.73129,0,2.10283,9.53218,-0.318538,-4.54268,-7.68293,-6.55488,-39.264,-0.263452,-5.05349,-21.5854,-9.42073,4.90854
145.851,8.61332,-5.79351,0,2.15312,9.50583,-0.229922,-4.17683,-8.59756,-6.21951,-39.2831,-0.378413,-5.06307,-23.4146,-8.44512,5.88415
145.862,8.66895,-5.8559,0,2.37107,9.50583,-0.234712,-4.29878,-8.14024,-5.42683,-39.1394,-0.378413,-5.09181,-23.9634,-8.71951,8.23171
145.872,8.75919,-5.88967,0,2.56507,9.4268,-0.244292,-4.26829,-7.22561,-4.48171,-38.7658,-0.416733,-4.59365,-23.5671,-9.90854,7.07317
145.881,8.90804,-5.92018,0,2.74469,9.28549,-0.208367,-5.18293,-7.04268,-2.77439,-38.5454,-0.349673,-4.53617,-22.7744,-10.4573,8.23171
145.891,9.36557,-5.94828,0,3.05844,8.9933,-0.203577,-5.57927,-7.43902,-0.701219,-38.8424,-0.426313,-4.55533,-18.7805,-11.9817,7.43902
145.901,9.68851,-5.97268,0,3.40332,8.7514,-0.150886,-5.2439,-9.57317,2.46951,-38.5454,-0.397573,-4.47869,-15.7622,-12.7744,6.25
145.911,10.041,-5.9985,0,3.80329,8.62446,-0.0311353,-5.06098,-10.9146,7.10366,-38.3634,-0.359253,-4.50743,-12.6829,-15.4268,3.9939
145.921,10.4683,-6.00529,0,4.09788,8.66518,0.0670605,-5.73171,-10.8841,12.439,-37.8269,-0.416733,-4.14338,-8.62805,-16.372,0.884146
145.931,10.9624,-6.01917,0,4.34457,8.81367,-0.0359253,-6.25,-9.26829,18.2317,-37.53,-0.311353,-4.2296,-5.67073,-15,-2.89634
145.941,11.5081,-6.0403,0,4.47869,8.85199,-0.129331,-5.64024,-7.56098,23.2927,-36.9072,0.148491,-4.28709,-1.92073,-14.7561,-5.85366
145.951,12.0789,-6.05115,0,4.50264,9.06754,-0.294587,-4.69512,-3.87195,27.8354,-36.9935,0.359253,-4.14338,2.68293,-15.4268,-8.01829
145.961,12.6495,-6.06868,0,4.38768,9.30226,-0.464634,-4.72561,0.121951,31.3415,-37.3,0.828677,-4.29667,5.73171,-15.6098,-8.84146
145.972,13.2128,-6.08389,0,4.33978,9.64235,-0.61073,-4.11585,4.11585,33.8415,-38.3251,0.934058,-4.39247,10.7622,-17.2561,-8.32317
145.981,13.7746,-6.10569,0,4.30625,10.0423,-0.862207,-3.96341,7.80488,36.9207,-39.0149,1.35558,-4.60323,16.4939,-19.0854,-4.84756
145.991,14.3343,-6.13684,0,4.14578,10.2243,-1.07057,-4.11585,11.7378,40.1829,-40.0112,1.21188,-4.90979,21.7683,-20.9146,-0.0609756
146.002,14.9121,-6.17037,0,4.05237,10.2148,-1.03465,-2.46951,15.1829,44.0549,-40.8926,0.799937,-5.08223,25.2134,-20.3963,4.29878
146.011,15.5111,-6.22646,0,4.01645,10.3489,-0.61552,0.579268,18.2622,48.2622,-41.3045,0.368833,-5.5804,28.2622,-21.7378,6.76829
146.021,16.1211,-6.32723,0,3.87514,10.5932,-0.00479004,2.07317,18.9024,52.8963,-41.2087,-0.330513,-6.42344,33.689,-17.8963,6.79878
146.031,16.7549,-6.43084,0,3.82724,10.7728,0.63947,2.65244,19.7866,57.6524,-41.0554,-0.493374,-6.51924,38.1707,-15.9756,7.86585
146.041,17.4036,-6.52183,0,3.64761,10.5836,1.08734,3.68902,20,61.5854,-41.3045,-0.292192,-6.3947,45.4268,-14.5732,8.96341
146.051,18.0446,-6.63277,0,3.34824,10.3656,1.36037,4.02439,17.9878,64.3902,-41.5632,0.110171,-6.87371,49.9085,-13.5366,10.061
146.061,18.658,-6.74534,0,3.06802,10.4231,1.07057,2.46951,18.2927,65.9451,-41.8506,-0.0718506,-7.03657,53.4451,-13.9329,10.7622
146.071,19.2226,-6.84811,0,2.73751,10.3968,0.371228,1.79878,19.9695,65.5793,-42.1763,-0.167651,-6.97909,52.8963,-11.1585,12.4695
146.081,19.7058,-6.91395,0,2.25132,10.0136,0.00239502,5.2439,16.2805,62.6829,-42.914,0.196392,-6.47134,52.5915,-13.0488,11.0366
146.091,20.124,-6.97244,0,1.9735,9.80521,0.102986,9.87805,5.21341,59.6646,-42.7032,0.531694,-6.36596,50.9146,-17.8049,12.7439
146.101,20.5234,-7.03726,0,2.10762,10.1549,0.126936,11.1585,-5.27439,57.8963,-42.2529,1.38432,-6.48092,49.4207,-22.4085,14.9085
146.111,20.9169,-7.06072,0,2.28485,10.3968,-0.0455054,9.26829,-11.5549,56.7378,-41.5536,1.6813,-5.66662,44.8476,-27.4085,17.8963
146.122,21.3275,-7.0773,0,2.68961,10.4016,-0.184417,7.7439,-13.4146,55,-41.1129,1.96871,-5.51333,42.5,-32.0732,20.3659
146.131,21.8296,-7.06573,0,3.72186,10.1716,-0.285007,6.85976,-10.9756,53.75,-40.8734,1.93997,-4.99601,39.0854,-37.0732,22.5305
146.141,22.3876,-7.06557,0,4.52898,10.0232,-0.143701,7.07317,-4.11585,51.8598,-40.4136,2.35191,-5.14929,36.189,-40.3354,23.689
146.152,22.9773,-7.05092,0,4.83554,9.72857,0.0958008,7.43902,1.89024,51.9207,-40.2986,2.25611,-4.89063,32.8659,-45.2134,25
146.161,23.5828,-7.04894,0,4.94572,9.48188,0.179626,8.44512,8.04878,52.4695,-39.8483,2.18905,-5.06307,32.0122,-48.5366,25.7927
146.171,24.1882,-7.03659,0,4.93134,9.37171,0.129331,9.57317,13.9329,53.2622,-39.7334,2.15073,-4.87147,29.6341,-51.0671,26.25
146.181,24.7745,-7.01767,0,4.69184,9.26154,0.0981958,9.81707,19.6341,54.3598,-39.7142,1.84417,-4.74693,24.1463,-51.9817,25.3963
146.191,25.3381,-7.0092,0,4.39247,9.08191,0.213157,10.3354,22.8963,55.3963,-39.3214,1.69088,-4.88105,19.878,-55.0305,22.6829
146.201,25.8799,-6.96725,0,4.1362,8.91187,0.419128,9.29878,23.9939,56.189,-39.0436,1.65256,-4.26792,15.7622,-58.2622,21.7378
146.211,26.408,-6.93369,0,3.97334,8.64842,0.426313,9.72561,24.7256,56.3415,-38.7849,1.346,-4.36373,13.3537,-60.5183,20.9451
146.222,26.895,-6.88683,0,3.85598,8.78254,0.5772,7.62195,25.3354,55.2134,-38.2964,1.47054,-4.05716,10.6402,-60.061,17.8963
146.231,27.3514,-6.86748,0,3.78653,8.56938,0.560435,7.16463,25.061,52.8049,-37.9323,1.64298,-4.44995,5.60976,-59.1463,15.3659
146.241,27.7676,-6.84127,0,3.71468,8.53824,0.455054,7.19512,24.0549,50.3049,-37.597,1.93039,-4.2775,2.43902,-57.5915,12.8659
146.251,28.1491,-6.81602,0,3.77455,8.53106,0.390388,5.82317,22.1646,46.8902,-37.7407,2.02619,-4.28709,-2.71341,-55.9756,10.061
146.261,28.5122,-6.79631,0,3.82964,8.40652,0.63468,4.39024,19.6037,44.5122,-37.9611,2.28485,-4.38289,-8.68902,-54.0854,8.93293
146.271,28.8319,-6.78351,0,3.77455,8.33706,0.907712,1.21951,14.6951,41.0976,-38.076,2.46687,-4.49785,-17.2866,-53.3232,6.76829
146.281,29.1736,-6.79713,0,4.03321,8.00655,0.593965,0.792683,10.6098,39.1463,-37.8269,2.73511,-4.90021,-22.439,-51.2805,6.0061
146.291,29.5086,-6.83042,0,4.06674,7.78142,0.361648,2.04268,8.29268,37.4085,-37.7695,2.85965,-5.22593,-29.3293,-48.4451,5.7622
146.301,29.8249,-6.87914,0,4.00926,7.60898,0.220342,5.42683,4.63415,35.7927,-37.8078,2.66805,-5.50376,-34.1159,-44.8171,4.63415
146.311,30.114,-6.95327,0,3.95657,7.6473,0.512534,5.91463,0.213415,34.5427,-37.7695,2.61057,-5.95402,-37.0732,-41.8902,4.2378
146.321,30.3854,-7.02005,0,3.97573,7.63053,0.172441,5.09146,-5.09146,32.9878,-38.2197,2.80217,-5.93486,-41.372,-37.7744,2.16463
146.331,30.6352,-7.07445,0,4.04519,7.60419,0.126936,3.44512,-9.60366,30.3354,-38.5263,2.90755,-5.81032,-45.0915,-36.8902,-0.121951
146.341,30.8578,-7.13536,0,4.10506,7.5012,-0.0886157,3.17073,-12.7744,26.6768,-39.0149,2.96503,-6.03066,-48.8415,-35.2134,-1.79878
146.351,31.0103,-7.1755,0,3.92065,7.56347,-0.148491,3.44512,-17.7744,22.622,-39.1394,2.65847,-5.7241,-52.378,-34.6037,-5.12195
146.361,31.1325,-7.22395,0,3.93741,7.48683,-0.328118,4.05488,-21.8902,19.1463,-39.0819,2.52435,-5.88696,-56.9512,-33.7805,-6.82927
146.371,31.201,-7.29924,0,3.58055,7.27607,0.0981958,6.7378,-28.4451,17.0427,-38.7275,2.14115,-6.32764,-62.8354,-31.189,-11.0061
146.381,31.2566,-7.405,0,3.95418,7.6928,0.234712,2.46951,-29.939,13.8415,-38.373,1.825,-6.83539,-65.7927,-26.311,-13.0488
146.391,31.3964,-7.52326,0,4.59365,7.17548,-0.126936,0.609756,-30.9756,11.4634,-38.009,1.55676,-7.04615,-66.2805,-22.4085,-14.7866
146.401,31.5593,-7.62222,0,4.84752,7.05094,-0.275427,2.04268,-31.0061,10.2744,-37.8269,1.25978,-6.74917,-67.9878,-19.0244,-17.3171
146.411,31.7219,-7.69864,0,5.02715,7.06291,-0.318538,4.96951,-29.8476,8.65854,-37.4821,1.47054,-6.36596,-70.2439,-17.5915,-18.1098
146.422,31.921,-7.76779,0,5.45346,6.88808,-0.146096,8.07927,-26.9512,6.64634,-37.3767,1.47054,-6.27016,-72.9573,-15.7927,-19.4512
146.431,32.1109,-7.8054,0,5.78397,7.22817,-0.0670605,7.2561,-23.3537,5.39634,-37.3863,1.61424,-5.78158,-77.3476,-14.8476,-21.4024
146.441,32.2955,-7.85467,0,5.8199,7.24014,-0.531694,4.48171,-17.8659,4.84756,-37.4629,1.93039,-6.0115,-81.4634,-13.4451,-23.628
146.451,32.4965,-7.90132,0,5.76242,7.05812,-0.378413,4.72561,-12.1341,2.7439,-37.1372,1.93039,-5.94444,-85,-12.4085,-25.2439
146.461,32.8003,-7.95845,0,5.56842,7.10602,-0.344883,5.67073,-7.22561,-0.884146,-37.3384,2.10283,-6.18394,-85.7622,-12.0732,-25.5793
146.471,32.8634,-8.02537,0,5.65225,7.25691,-0.158071,5.18293,-2.68293,-4.45122,-37.5587,1.94955,-6.42344,-84.3598,-11.4939,-25.8841
146.481,32.9279,-8.09937,0,6.07377,7.28325,-0.165256,3.87195,-1.03659,-7.65244,-37.9898,1.78668,-6.66294,-86.0061,-10.8232,-25.5488
146.491,33.049,-8.15722,0,6.84976,7.31439,-0.232317,2.92683,0.0914634,-8.44512,-38.3155,1.40348,-6.4905,-84.2378,-10.9451,-26.7073
146.501,33.2045,-8.22666,0,7.18027,7.32157,-0.390388,5.51829,2.0122,-7.40854,-38.5646,1.18314,-6.76833,-83.3537,-8.84146,-28.3232
146.512,33.3721,-8.30811,0,7.22098,7.52515,-0.325723,7.37805,4.2378,-4.7561,-38.67,1.08734,-7.03657,-80.7622,-5.97561,-29.0244
146.522,33.4986,-8.40799,0,6.60546,7.66885,-0.253872,7.2561,8.04878,-3.10976,-38.6987,0.905317,-7.41019,-80.1219,-1.95122,-30.3659
146.531,33.5706,-8.51201,0,6.01868,7.53234,-0.352068,8.2622,13.1098,-3.71951,-39.0819,0.886157,-7.61137,-78.9634,2.86585,-31.0976
146.541,33.5529,-8.63929,0,5.33371,7.41019,-0.399968,10.5488,16.4329,-6.28049,-39.1777,1.21188,-8.10954,-80.2439,6.34146,-31.7073
146.551,33.4294,-8.76919,0,4.68705,7.29762,-0.229922,11.6159,16.25,-10.8841,-39.3598,1.2981,-8.2724,-81.4329,10.1829,-30.3659
146.561,33.2161,-8.88224,0,4.38049,7.24014,-0.0622705,12.0427,13.5671,-17.1646,-39.3885,1.57592,-8.06164,-83.2622,11.4939,-27.7439
146.572,32.9519,-9.02415,0,4.32541,7.05573,-0.112566,13.2622,11.0976,-23.4756,-39.3119,1.91123,-8.63644,-84.4512,15.2134,-25.9146
146.581,32.649,-9.15819,0,4.44755,7.11321,-0.138911,15.0915,7.92683,-28.9939,-39.7909,2.31359,-8.69392,-90.6707,17.0122,-21.6463
146.591,32.3355,-9.31933,0,4.7613,7.15871,-0.136516,17.439,4.45122,-33.9939,-39.8675,2.43813,-9.29747,-92.439,20.2439,-17.4085
146.601,31.9817,-9.49822,0,4.75411,7.15871,0.136516,21.8902,-2.80488,-38.6585,-39.8196,3.08958,-9.72857,-96.4024,21.7073,-14.6037
146.611,31.5695,-9.608,0,5.10139,7.86764,0.323328,21.4329,-6.52439,-44.0549,-40.3944,3.16622,-8.71308,-97.8659,19.8476,-10.8232
146.621,31.1205,-9.67648,0,5.50136,8.32988,0.0502954,22.1341,-10.3963,-49.6341,-41.1704,2.93629,-8.19576,-96.8902,15.8537,-6.40244
146.631,30.5905,-9.71079,0,5.69057,9.32621,-0.359253,21.9817,-13.3537,-54.6341,-42.2242,2.01661,-7.81255,-97.0427,12.1951,-2.7439
146.641,29.9724,-9.76045,0,5.22833,10.2243,-0.493374,21.0976,-14.5427,-55.9146,-43.096,0.656235,-8.31072,-91.8598,10.0305,-2.9878
146.651,29.3538,-9.8295,0,5.01996,10.689,-0.522114,19.3902,-11.0366,-53.2927,-43.7762,-0.512534,-8.86636,-82.8049,11.0366,0.121951
146.661,28.788,-9.8623,0,5.19959,10.9596,-0.00479004,15.3354,-17.5,-49.6341,-43.8528,-1.76752,-8.20534,-71.6463,12.0122,4.11585
146.671,28.4157,-9.83015,0,6.64857,10.6219,0.177231,8.44512,-27.3476,-44.6341,-44.4851,-2.86923,-7.04615,-57.378,10.0915,8.5061
146.682,28.2389,-9.73756,0,8.56459,10.4375,-0.00958008,6.61585,-36.7073,-40.3963,-45.4527,-3.6548,-5.9636,-39.4512,3.47561,11.25
146.691,28.1258,-9.66404,0,9.61361,11.0865,0.179626,6.95122,-40.7622,-37.439,-45.97,-4.97685,-6.36596,-22.3171,-0.640244,13.7805
146.701,28.0427,-9.61862,0,10.4255,12.0685,0.785566,4.69512,-26.6463,-34.3902,-46.2478,-6.26058,-6.92161,-0.396341,1.03659,14.5732
146.711,27.9229,-9.60775,0,9.6184,13.0002,1.70286,-1.09756,-6.70732,-29.4817,-46.3915,-7.75507,-7.62095,21.128,3.07927,13.9024
146.721,27.8058,-9.70814,0,8.36341,12.9714,1.67412,-11.5244,4.02439,-21.9207,-45.673,-8.39694,-9.75731,43.9024,16.9512,12.8354
146.731,27.7021,-9.86352,0,6.66773,11.6111,0.950823,-15.3659,9.54268,-14.7866,-44.0348,-7.34313,-10.5429,68.5671,33.8415,16.7683
146.741,27.512,-10.0199,0,4.06435,10.0711,0.313748,-17.6829,7.37805,-7.71341,-41.8027,-4.85231,-10.083,88.5366,50.6402,24.4512
146.751,27.0681,-10.0803,0,1.41785,8.0784,-0.752036,-16.372,0.670732,-4.17683,-39.6663,-1.43222,-7.87961,101.341,62.8049,37.2866
146.761,26.2953,-10.0171,0,-0.850232,6.71563,-1.1544,-8.65854,-3.65854,-7.86585,-39.1586,1.41306,-5.59956,101.921,70,47.3171
146.771,25.0751,-9.78608,0,-3.01772,6.43063,-0.450264,-2.46951,-14.8476,-19.5427,-40.586,3.00335,-2.72553,91.9207,68.9024,49.6646
146.782,23.581,-9.3835,0,-4.27032,6.95753,0.114961,0,-40.2744,-36.9207,-42.1859,4.98643,0.483794,79.939,55.9756,43.4451
146.791,22.0349,-8.86358,0,-3.97573,7.80776,-0.62989,-3.10976,-73.811,-54.5732,-43.3451,7.47725,2.98419,66.0061,38.9024,35.061
146.801,20.6841,-8.07109,0,-2.01421,8.82086,-2.37107,-4.63415,-103.293,-66.6159,-43.4504,1.02986,8.6077,42.3171,11.4634,33.3232
146.811,19.6503,-7.36976,0,0.764011,9.76449,-4.09309,-0.914634,-108.628,-72.4085,-42.6553,8.97174,7.30481,16.9817,15.8232,28.2012
146.821,18.843,-6.57348,0,2.70398,10.4782,-3.91586,8.07927,-87.7744,-71.7988,-41.4195,7.98499,9.36453,-3.32317,0.304878,24.2683
146.831,18.2192,-5.77367,0,3.97573,11.1057,-2.50759,11.372,-58.3841,-65.3963,-40.9596,6.52882,9.88185,-33.8415,-12.0732,17.0427
146.841,17.7176,-5.05009,0,4.40684,11.2422,-1.43941,8.59756,-32.8659,-57.6829,-39.5035,3.47278,8.67476,-52.7439,-22.8963,12.0122
146.851,17.2738,-4.3975,0,4.05477,10.7321,-0.929268,2.92683,-13.5671,-51.372,-38.7945,0.234712,7.73591,-62.439,-30.7622,8.23171
146.861,16.7885,-3.77695,0,3.09437,10.0184,-0.661025,-0.152439,-1.0061,-49.2988,-38.4975,-2.47645,7.53473,-70.6707,-40.2134,6.79878
146.871,16.2035,-3.2643,0,2.08846,9.37171,-0.780776,-0.335366,5.42683,-51.0671,-38.0473,-4.22002,5.99234,-73.6281,-44.1159,8.56707
146.881,15.5212,-2.88169,0,1.38911,9.22801,-0.766406,0.701219,5.45732,-54.0244,-37.3479,-5.81032,4.04758,-71.0366,-42.8659,12.9268
146.891,14.7585,-2.62072,0,0.821492,9.32142,-0.967588,-0.304878,4.63415,-56.4329,-36.9552,-5.36963,2.26569,-59.0549,-40.4268,21.0061
146.901,14.019,-2.49038,0,0.912502,9.30226,-1.37235,2.07317,3.2622,-56.7683,-35.7768,-4.77567,0.301772,-45.2134,-37.8659,29.2988
146.911,13.2607,-2.35654,0,0.63468,9.48428,-1.94476,4.17683,4.69512,-56.5854,-36.1887,-4.07632,0.455054,-24.9085,-34.1463,39.4817
146.921,12.4592,-2.23561,0,0.112566,9.76928,-2.03577,5.39634,2.16463,-56.0671,-37.3,-3.35782,0.378413,-13.7195,-23.4451,45.3049
146.931,11.5885,-2.14023,0,-0.560435,9.84353,-1.72202,7.65244,-4.87805,-56.7683,-38.5838,-3.14706,0.0622705,-1.03659,-16.25,45.9146
146.942,10.658,-2.06627,0,-1.17595,9.92017,-1.35798,8.17073,-14.3902,-57.5,-39.2352,-2.54351,-0.225132,6.92073,-11.372,38.5976
146.951,9.75902,-2.04905,0,-0.996328,10.0351,-1.14482,6.31098,-24.1768,-58.4146,-40.107,-2.68721,-1.1544,16.5549,-3.5061,28.1707
146.961,8.97048,-2.03243,0,0.0287402,9.94891,-1.20709,3.32317,-32.378,-60.8841,-40.7201,-2.18905,-1.12566,24.3293,9.26829,16.189
146.971,8.26294,-2.01857,0,0.773591,9.82437,-1.37235,2.56098,-38.5366,-63.0793,-41.5248,-1.61424,-1.1544,29.0549,18.2012,3.41463
146.981,7.64108,-2.0311,0,1.51126,9.80042,-1.52563,1.0061,-41.4329,-64.4817,-41.2662,-1.23104,-1.62382,30.7927,16.4939,-6.89024
146.991,7.00564,-2.00635,0,1.17835,9.65672,-1.52323,1.25,-44.7866,-63.4451,-40.5573,-0.876577,-0.953218,29.0244,12.0732,-15.4268
147.001,6.36685,-1.94438,0,1.02028,9.72378,-1.65017,0.579268,-48.9329,-63.1098,-39.7334,-0.225132,-0.292192,22.8659,4.05488,-18.689
147.011,5.77564,-1.8902,0,1.28134,9.60882,-1.90404,0.426829,-48.9634,-62.8354,-38.6317,-0.110171,-0.397573,16.5244,-2.71341,-19.2378
147.021,5.2478,-1.82795,0,1.76513,9.50823,-1.97829,1.06707,-45.1829,-63.5366,-37.9132,0.0718506,-0.244292,9.90854,-10.3049,-17.0427
147.031,4.70779,-1.79588,0,1.61903,9.5681,-1.82021,-0.152439,-39.6951,-63.9939,-37.6258,-0.263452,-0.723296,9.69512,-16.7988,-14.7561
147.041,4.20575,-1.78657,0,1.73399,9.4244,-1.9735,-1.34146,-31.372,-62.8963,-37.3671,-0.570015,-1.08734,8.47561,-21.4024,-13.3232
147.051,3.72477,-1.79902,0,1.70765,9.24238,-2.00942,-2.22561,-24.1159,-61.8598,-37.3288,-1.2023,-1.47054,10.7012,-31.3415,-13.3537
147.061,3.27786,-1.81385,0,1.79147,9.00048,-1.98787,-1.4939,-18.1402,-60.9756,-37.233,-2.11241,-1.54718,13.3232,-41.6159,-15.9756
147.072,2.86044,-1.83087,0,1.84177,8.99809,-1.88728,-1.61585,-13.689,-59.5122,-37.0126,-2.85965,-1.59508,18.1402,-45.2744,-18.8415
147.082,2.48971,-1.86054,0,2.00463,9.15616,-1.89207,-1.15854,-9.63415,-57.1951,-36.7252,-3.33866,-1.80584,23.9024,-47.4695,-22.439
147.091,2.13114,-1.92165,0,1.84177,9.35495,-1.7316,-2.31707,-5.27439,-54.2378,-36.4282,-3.93262,-2.31359,28.2317,-46.4939,-25.8841
147.101,1.79276,-2.01995,0,1.67891,9.45314,-1.59269,-1.25,-0.823171,-50.7317,-36.1121,-4.25834,-2.91713,34.939,-43.3232,-26.7378
147.111,1.44099,-2.15118,0,1.31487,9.5705,-1.30529,-0.426829,-0.701219,-48.2012,-35.9588,-4.76609,-3.48236,43.4146,-39.9085,-26.7988
147.121,1.09668,-2.3056,0,1.12566,9.65672,-1.29092,-0.121951,0.579268,-45.7622,-35.5756,-4.65113,-3.88472,49.2683,-36.6159,-22.7744
147.131,0.738374,-2.48215,0,0.893342,9.43159,-1.27655,-0.335366,-0.823171,-45.3659,-35.4607,-4.53617,-4.30625,57.0732,-32.3171,-18.0488
147.141,0.392755,-2.68541,0,0.914897,9.33579,-1.42025,-0.701219,-2.46951,-45.1829,-35.0775,-3.95178,-4.77567,63.75,-27.8659,-11.8902
147.151,0.0468543,-2.90178,0,0.898132,9.41961,-1.42025,1.06707,-4.93902,-45.6098,-34.4835,-3.09916,-5.00559,70.5488,-22.2256,-3.53659
147.161,-0.268854,-3.11374,0,1.01549,9.7142,-1.26457,0.487805,-7.04268,-44.2988,-34.0332,-1.96871,-4.98643,76.4329,-16.4024,6.31098
147.171,-0.553586,-3.35867,0,1.10171,9.58247,-1.39869,0.853659,-8.44512,-42.9878,-33.7841,-0.857417,-5.57082,80.8232,-13.0488,15.8841
147.181,-0.849763,-3.6037,0,0.893342,9.23999,-1.37953,1.7378,-12.5305,-42.622,-34.0332,-0.205972,-5.75284,84.3293,-9.7561,25.5488
147.191,-1.18822,-3.83017,0,0.500559,8.94779,-1.27176,1.34146,-16.4634,-42.8049,-34.3494,0.617915,-5.65704,87.2256,-5.94512,32.6524
147.201,-1.52764,-4.03059,0,0.505349,8.86397,-1.4442,0.426829,-21.0061,-43.7195,-34.541,1.17356,-5.41753,85.9756,-4.54268,38.628
147.211,-1.85067,-4.19786,0,0.62031,8.71308,-1.69328,0.0609756,-25.4268,-44.3902,-34.6847,1.50886,-5.04391,81.5854,-3.96341,40.2439
147.221,-2.12323,-4.35838,0,1.0107,8.59573,-2.1651,0.182927,-25.9451,-45.2744,-34.4835,1.73878,-5.01517,75.1829,-4.72561,40.061
147.231,-2.34616,-4.51,0,1.29331,8.62686,-1.86572,1.06707,-25.0915,-44.4817,-34.4356,1.79626,-4.97685,70.1829,-7.40854,40.5793
147.241,-2.5131,-4.70102,0,1.70525,9.01246,-1.69567,2.53049,-19.0244,-43.689,-34.7517,1.41306,-5.73368,68.4756,-7.07317,39.6037
147.251,-2.70482,-4.89046,0,1.59748,9.46751,-1.44899,1.67683,-12.9573,-44.2378,-35.9971,0.742456,-6.03066,68.689,-5.21341,37.5305
147.261,-2.91127,-5.06876,0,1.45138,10.4567,-1.35558,1.43293,-6.64634,-42.7134,-37.2138,-0.138911,-6.16478,64.8781,-2.65244,34.878
147.271,-3.14809,-5.25292,0,1.21188,10.5285,-1.42264,-0.426829,-3.56707,-43.5061,-38.4305,-1.25978,-6.57672,59.7866,1.64634,34.4512
147.281,-3.67971,-5.48409,0,-0.385598,8.95498,-0.950823,-5,-14.6646,-55.6402,-39.0532,-1.97829,-7.62095,54.6037,9.81707,33.2927
147.291,-4.08622,-5.70221,0,0.905317,9.91778,-1.71723,-4.11585,-0.701219,-59.6341,-39.3885,-1.93039,-7.59221,48.75,16.5549,32.7439
147.302,-4.49877,-5.88788,0,0.737666,10.0974,-1.36756,-4.93902,-6.98171,-58.9634,-40.2603,-1.54718,-7.30481,39.7866,21.6159,34.0854
147.311,-4.82652,-6.0043,0,1.18074,9.9082,-1.94236,-4.66463,0.365854,-56.4939,-40.7584,-0.704136,-6.251,27.4695,21.9207,33.872
147.321,-5.17281,-6.10428,0,0.881367,9.66151,-2.07169,-3.9939,-5.85366,-55.8232,-40.9309,0.282612,-6.0594,15.4573,21.8598,32.7439
147.331,-5.40836,-6.20651,0,1.65017,9.91778,-2.30401,-3.84146,3.68902,-53.872,-41.4386,1.14482,-6.24142,2.89634,24.3293,30.3354
147.341,-5.49473,-6.33104,0,2.33993,10.6578,-2.27287,-3.2622,10.2439,-45.122,-41.8506,1.80584,-6.77791,-7.80488,30.6402,26.0366
147.352,-5.54393,-6.5057,0,2.27287,10.3441,-2.17468,-3.90244,13.1098,-41.5244,-42.3679,1.73878,-7.89877,-12.8659,36.6159,19.8476
147.361,-5.5382,-6.7667,0,2.45729,10.483,-1.93278,-3.96341,18.5061,-37.6524,-42.3871,1.43222,-9.70941,-16.6768,39.3293,13.5671
147.371,-5.52387,-7.10116,0,2.22737,10.574,-1.70286,-4.72561,20.4573,-34.1159,-42.1092,0.579595,-11.2805,-16.128,43.628,7.95732
147.381,-5.52921,-7.49773,0,1.83458,10.7488,-1.57113,-5.42683,17.5,-31.5854,-41.8027,-0.234712,-12.6792,-11.189,48.9939,6.12805
147.391,-5.54943,-7.91215,0,1.44899,10.8063,-1.27655,-6.61585,10.3659,-28.9329,-41.2374,-0.780776,-13.1487,-5.94512,56.128,3.44512
147.401,-5.56797,-8.20249,0,1.28852,10.7512,-0.876577,-8.90244,-1.03659,-27.1646,-41.9943,-1.04902,-11.2135,-3.65854,59.2683,3.35366
147.411,-5.51879,-8.32847,0,1.77231,10.9237,-0.775986,-10.8841,-11.3415,-25.1524,-44.121,-1.0107,-8.6556,-4.17683,57.5,3.81098
147.421,-5.3798,-8.2856,0,2.4022,11.053,-0.869392,-14.0854,-19.9695,-22.1037,-46.9184,0.00479004,-5.73368,-14.2378,56.311,-0.365854
147.431,-5.09682,-8.09135,0,3.50631,11.0746,-1.01309,-16.7988,-22.2256,-17.9573,-50.4918,1.03944,-2.74469,-37.1646,54.2683,-10.061
147.441,-4.64592,-7.8487,0,4.69424,11.0003,-1.13524,-19.2683,-19.0854,-11.5549,-53.6245,2.31359,-1.57592,-70.9451,56.7073,-28.7805
147.451,-4.01741,-7.60196,0,5.60674,10.7297,-1.15679,-22.4695,-12.6524,-2.59146,-55.2244,5.54208,-1.28852,-107.805,56.7988,-49.0549
147.461,-3.25024,-7.38149,0,6.07616,10.3896,-1.12087,-23.6585,-5.36585,8.20122,-54.3622,7.08447,-1.6813,-145.488,53.1707,-69.3902
147.471,-2.30857,-7.21931,0,6.67971,10.2555,-0.878972,-24.9695,-0.457317,21.9512,-50.9037,7.60179,-2.72553,-173.75,44.6646,-79.0549
147.481,-1.19305,-7.01571,0,7.37666,10.3776,-0.65863,-25.9451,1.15854,36.8598,-49.3997,7.59221,-1.6334,-196.768,37.2256,-78.7805
147.491,0.0894888,-6.75113,0,7.73112,10.6123,0.107776,-30.2744,0.548781,54.8171,-45.2611,3.30034,-0.177231,-203.598,22.2256,-75.6707
147.501,1.51842,-6.36151,0,7.56587,10.7057,0.488584,-43.3841,2.89634,74.0549,-42.138,-1.91123,2.25611,-201.22,-4.63415,-72.3171
147.511,3.06317,-5.86497,0,6.5863,9.7597,-0.203577,-49.9085,23.2317,91.311,-41.4099,-6.24142,4.39247,-174.36,-24.7866,-72.1951
147.521,4.63374,-5.33898,0,5.56363,9.82197,0.323328,-50.8537,35.4573,106.25,-40.8063,-8.35862,5.19719,-139.238,-32.1951,-69.939
147.531,6.2573,-5.0015,0,4.78525,10.0447,-0.301772,-41.5549,38.1402,123.14,-40.1645,-10.9548,2.13157,-105.945,-29.3598,-70.9146
147.541,7.79743,-4.56412,0,3.1734,10.8997,-0.934058,-26.7683,40.6098,136.799,-37.6545,-9.51781,3.9422,-65.061,-13.4756,-64.2988
147.551,9.17834,-4.12304,0,1.07297,12.0805,-1.76273,-18.7195,47.561,146.463,-37.0222,-8.43526,4.2296,-29.9085,-11.4329,-52.2866
147.561,10.3831,-3.75564,0,-0.919688,13.0696,-2.28006,-15.7622,60.4878,149.878,-36.7156,-6.95993,3.28118,-6.18902,-9.69512,-33.2927
147.571,11.4373,-3.38689,0,-2.16989,14.0995,-1.84656,-16.1585,55.3659,146.616,-37.2234,-4.63197,3.58774,6.67683,-10.2744,-11.6768
147.581,12.4579,-3.05308,0,-1.62382,14.5162,-1.77471,-17.8354,43.0488,140.518,-38.191,-2.99377,3.35782,8.32317,-3.65854,6.67683
147.591,13.4935,-2.72407,0,-0.356858,14.3653,-1.42025,-15.0915,29.4207,133.994,-40.1262,-1.04902,3.69312,1.7378,0.670732,17.4085
147.601,14.538,-2.39447,0,0.531694,14.2216,-0.740061,-11.5244,13.5366,129.756,-41.6877,0.378413,4.07632,-7.71341,-2.89634,20.9756
147.611,15.5963,-2.14186,0,0.857417,14.0779,-1.0083,-7.16463,3.84146,130.549,-42.1667,1.24062,2.92671,-18.4451,-2.86585,18.628
147.621,16.687,-1.87853,0,1.02986,13.6229,-1.85135,-3.87195,11.5854,134.299,-41.2566,2.21779,3.23328,-30.6707,-5.39634,14.2683
147.631,17.7758,-1.65075,0,1.0107,13.4289,-2.05972,-1.52439,27.1037,136.372,-39.7909,2.88839,2.67763,-41.2195,-4.78659,11.0061
147.641,18.8134,-1.47086,0,0.764011,13.3762,-1.90404,-0.823171,41.4329,135.488,-37.8653,3.34824,1.89207,-49.0549,-6.34146,14.1768
147.651,19.7502,-1.34723,0,-0.00479004,13.1654,-1.62861,-2.13415,48.9024,134.024,-36.6294,3.26202,1.02986,-55.2134,-8.23171,22.2561
147.661,20.6236,-1.26831,0,-0.58678,12.5858,-1.71723,-2.77439,54.6037,134.878,-35.4511,2.72553,0.359253,-56.5244,-13.1402,32.0122
147.671,21.5383,-1.20599,0,0.102986,11.6182,-1.80584,-2.07317,63.4756,134.39,-34.7901,2.10283,0.138911,-54.1463,-15.4878,42.8049
147.681,22.1214,-1.14458,0,-3.02491,10.8063,-1.23823,1.0061,64.6951,135.366,-34.1961,1.99745,0.158071,-55.2134,-16.1585,51.128
147.691,22.7574,-1.10313,0,-2.03337,10.1046,-1.30529,2.5,62.6829,133.262,-34.1578,1.55676,-0.110171,-54.0244,-17.5305,57.1037
147.701,23.3325,-1.08506,0,-2.12917,9.59205,-0.905317,3.62805,51.0671,130.671,-34.0811,1.48012,-0.445474,-53.1098,-20.6402,57.8354
147.712,23.9518,-1.04586,0,-1.06818,9.03401,-1.18314,6.70732,51.25,124.573,-34.2631,1.00112,-0.148491,-47.8049,-30.9451,58.2012
147.722,24.5612,-1.01738,0,-0.589175,8.47597,-1.91602,15.3963,47.8049,119.177,-34.2057,0.684976,-0.301772,-44.2073,-36.128,56.372
147.731,25.0311,-1.03368,0,-1.1065,8.64602,-1.76034,17.4695,34.1159,112.957,-34.5889,-0.330513,-0.962798,-42.8659,-33.4146,48.5976
147.741,25.46,-1.08826,0,-0.862207,8.45681,-1.9256,16.9207,31.0366,106.738,-34.4931,-0.637075,-1.52802,-42.9573,-25.1829,40.3659
147.751,25.8407,-1.18741,0,-0.747246,8.16941,-1.65975,17.0732,19.2073,101.463,-34.5697,-0.340093,-2.22737,-40.6402,-19.0549,30.6402
147.762,26.1224,-1.29639,0,-0.831072,7.85327,-1.3005,19.2378,12.7134,93.811,-34.3877,0.301772,-2.41897,-39.5122,-17.0732,24.8476
147.771,26.2569,-1.3996,0,-1.14721,7.82932,-1.06099,21.6463,12.561,84.0549,-34.6655,0.953218,-2.40939,-38.628,-14.7561,22.4695
147.781,26.1851,-1.51256,0,-1.77471,7.95625,-0.632285,21.8598,8.75,71.9207,-34.8954,1.60466,-2.63931,-41.8902,-14.7866,20.7317
147.791,25.9523,-1.62761,0,-2.06211,7.791,-0.488584,20.4573,5.57927,59.939,-35.2116,2.36149,-2.76385,-45.8232,-14.2378,21.6159
147.801,25.6124,-1.76697,0,-2.12199,7.54431,0.170046,18.9024,1.7378,50.3354,-35.4223,2.30401,-3.23328,-52.1646,-13.811,20.2134
147.811,25.3265,-1.90263,0,-1.2981,7.85327,0.435894,14.4512,16.6768,42.2561,-35.7289,2.92671,-3.28118,-55.9146,-10.9756,17.5
147.821,25.129,-2.03158,0,-0.217947,7.26888,0.529299,8.04878,35.9146,35.0305,-35.7289,2.70637,-3.25244,-62.7439,-8.59756,15.3963
147.831,24.9087,-2.18046,0,0.0622705,7.21859,1.1065,8.81098,50.5183,27.8049,-35.796,2.59141,-3.6548,-68.9024,-7.77439,10.5183
147.841,24.6387,-2.36463,0,0.296982,7.41259,1.40827,5.06098,57.3476,18.5976,-35.9684,2.10283,-4.33499,-72.2866,-8.32317,5.45732
147.851,24.3733,-2.58022,0,0.785566,7.31199,1.1544,3.32317,57.3476,10.7012,-36.1696,1.76752,-4.98643,-77.7439,-8.17073,3.10976
147.861,24.0188,-2.82384,0,1.0083,7.40301,0.974773,-0.396341,46.9817,4.57317,-36.6965,0.799937,-5.65704,-82.2256,-6.37195,-1.67683
147.871,22.8054,-3.10708,0,1.21906,7.71436,0.831072,-4.7561,38.1707,-1.55488,-36.9743,0.0814307,-6.51924,-84.5732,-4.63415,-5.97561
147.881,22.4973,-3.38918,0,1.64298,8.07361,0.823887,-11.7988,34.5732,-8.32317,-36.7061,-0.397573,-6.6342,-86.189,-2.89634,-9.72561
147.891,22.1694,-3.67136,0,1.91841,8.20055,1.04902,-18.4146,27.7439,-14.4207,-36.4953,-0.646655,-6.77791,-86.8293,-1.21951,-13.0183
147.901,21.8919,-4.00945,0,2.51717,7.80058,1.01788,-22.1951,15.0305,-19.5732,-36.0834,-0.570015,-7.80297,-87.1037,1.37195,-15.1829
147.911,21.7262,-4.35607,0,3.30273,7.19703,0.680186,-21.0976,-4.57317,-22.5305,-35.6044,-0.148491,-8.05206,-82.2256,3.87195,-13.1402
147.921,21.6561,-4.66853,0,4.07393,6.84257,0.476609,-15.3354,-26.3415,-25.6098,-35.9588,0.0814307,-7.78381,-79.0244,6.52439,-8.75
147.931,21.6302,-4.97763,0,4.89302,6.8761,0.447869,-7.95732,-45.3963,-30.7622,-36.5911,0.407153,-8.07122,-71.4329,7.07317,-3.01829
147.941,21.6112,-5.27058,0,5.86301,7.36229,0.330513,-2.89634,-58.9024,-36.4329,-37.8174,0.502954,-8.2724,-66.311,7.40854,2.04268
147.951,21.574,-5.53788,0,6.59588,8.10475,0.0718506,-4.08537,-69.5427,-39.5732,-38.8616,1.1544,-8.25324,-57.9878,6.12805,9.17683
147.961,21.6282,-5.74451,0,7.82692,8.48555,-0.512534,-8.93293,-75.5793,-37.561,-39.9633,1.25978,-7.58263,-50.6098,2.46951,16.4939
147.971,21.8845,-5.94265,0,9.61361,8.32748,-1.02746,-9.84756,-71.3415,-29.9085,-40.8734,1.13524,-7.76465,-42.0122,-1.61585,23.0793
147.981,22.3472,-6.12435,0,11.3021,8.3203,-1.43222,-3.75,-60.061,-17.5915,-41.6302,0.445474,-7.74549,-32.4695,-1.76829,25
147.991,22.9929,-6.36208,0,12.6074,8.74182,-2.08606,4.11585,-48.811,-1.40244,-42.3871,-0.723296,-9.06754,-25.3963,10.6707,22.5
148.001,23.7653,-6.65243,0,13.0648,9.5202,-3.0776,19.5122,-34.8476,15.7012,-42.7607,-1.5855,-10.3225,-19.4512,24.7561,16.2195
148.011,24.5641,-6.99829,0,11.7524,10.1549,-3.05365,34.939,-20.0915,29.6646,-42.6936,-1.65256,-11.5967,-14.3902,38.3537,6.82927
148.021,25.2872,-7.38521,0,9.15137,9.78366,-1.96152,44.6341,-16.0061,35.9756,-42.4829,-0.694556,-12.593,-11.8902,52.1037,-1.98171
148.031,25.8658,-7.83425,0,6.90484,8.68913,-1.66693,48.0183,-16.9512,32.1341,-41.9368,-0.0814307,-13.963,-12.2256,62.5,-4.29878
148.041,26.1838,-8.31642,0,4.7589,7.71436,-1.67412,49.8476,-17.1646,20.6098,-42.0039,1.40348,-14.988,-13.5366,75.2439,-0.396341
148.051,25.7957,-8.80351,0,3.01772,7.76705,-1.01309,45.2134,-17.8354,1.0061,-43.0768,2.37107,-15.8502,-12.439,83.9634,10.2134
148.061,25.2812,-9.23492,0,1.96871,8.5119,-0.234712,32.8963,-25.4573,-26.4329,-45.0024,2.93629,-15.7257,-9.60366,88.1098,24.878
148.071,24.4532,-9.61582,0,1.47054,8.70111,-0.962798,20.9146,-35.4878,-52.4695,-47.0142,2.58183,-15.6491,-4.02439,89.5427,38.1098
148.081,23.3481,-9.83363,0,0.65384,8.90229,-0.59636,12.8963,-36.6463,-71.4329,-49.1602,1.79626,-12.8804,7.22561,87.7134,45.2134
148.091,22.1306,-9.74024,0,0.828677,10.5381,0.0742456,-0.548781,-33.9329,-85.7622,-52.3791,0.464634,-6.5863,26.1585,62.3171,48.7805
148.101,21.0974,-9.52879,0,3.78413,13.1918,0.0838257,-18.0793,-29.5427,-92.9268,-55.0615,-2.30401,-4.07632,48.4146,33.628,52.1646
148.111,20.3692,-9.24531,0,8.96695,15.752,-0.61073,-29.2988,-21.9512,-91.7683,-56.5273,-4.74693,-2.25611,68.6281,17.1037,49.9085
148.121,20.1171,-9.54033,0,15.1317,16.8538,-0.598755,-22.1646,16.9512,-69.6951,-46.0371,-7.03657,-13.6756,74.2988,30.4878,53.872
148.131,20.49,-9.22391,0,17.4741,15.0335,-0.452659,-7.0122,74.2378,-21.4939,-49.6871,-7.94667,-1.17356,75.3963,39.8171,51.9512
148.141,21.2193,-8.64883,0,9.9561,10.186,-1.75076,5.85366,105.488,25.7317,-44.6384,-4.76609,4.29667,68.1402,40.3354,54.4817
148.151,21.2818,-7.88283,0,0.622705,6.75395,-2.14115,23.9024,122.409,38.9329,-39.2448,-0.0622705,7.56347,49.939,43.2317,58.7805
148.161,20.2965,-6.83805,0,-6.21747,6.28214,-0.874182,26.8293,116.067,34.1159,-37.3,3.8943,12.5643,24.5427,23.2927,61.8293
148.171,18.7376,-5.76099,0,-12.6098,6.72282,1.71483,23.628,60.7012,8.75,-37.1659,7.67843,13.8097,-13.628,4.66463,62.1341
148.181,16.7506,-4.91358,0,-15.6347,7.76226,3.31231,18.689,-27.0427,-34.7256,-36.2654,2.91713,10.1022,-54.4512,-14.6037,60.9451
148.191,14.624,-4.22112,0,-11.5416,9.02443,0.993933,-1.12805,-96.6463,-76.7378,-37.5395,8.29156,8.18618,-55.2134,-54.7866,50.6098
148.201,12.7354,-3.71469,0,-5.45585,9.13939,-3.3674,-11.5244,-117.774,-99.939,-40.4231,8.54064,5.88696,-73.4451,-56.8598,45.2744
148.211,11.3699,-3.3182,0,-0.62989,10.1932,-5.25946,0.731707,-103.811,-106.128,-42.2242,7.20901,4.50743,-84.7256,-41.3415,38.3537
148.221,10.3895,-2.96522,0,2.56986,11.8817,-4.09548,11.4024,-83.0183,-101.738,-44.236,3.53026,4.1817,-92.4085,-39.4207,32.4085
148.232,9.70789,-2.66741,0,4.40444,12.6289,-2.31598,10.7317,-61.311,-87.5915,-45.3186,-0.886157,3.44404,-87.8659,-42.2866,21.9817
148.241,9.19455,-2.45264,0,4.52419,11.7859,-1.56634,2.59146,-40.3049,-75.4268,-45.0503,-4.20086,2.01661,-80.1829,-39.0244,8.20122
148.251,8.76791,-2.33013,0,3.80808,10.7249,-1.2981,2.95732,-15.4878,-64.6646,-43.575,-6.00192,0.407153,-68.0793,-21.3415,-5.09146
148.261,8.24554,-2.25463,0,2.14115,9.94173,-1.346,3.81098,-2.10366,-60.2134,-41.247,-6.96951,-0.378413,-48.4756,-20.6402,-13.0488
148.271,7.48103,-2.20773,0,-0.0598755,9.63277,-1.17835,5.21341,-1.31098,-60.4573,-38.4401,-6.72042,-0.761616,-23.5061,-13.0488,-15.6098
148.282,6.56573,-2.15776,0,-1.17356,9.59684,-1.04423,4.5122,-12.4085,-63.9024,-36.8306,-5.14929,-0.627495,-3.87195,-6.12805,-17.3476
148.291,5.64953,-2.12515,0,-0.735271,9.63995,-1.03944,3.62805,-22.2866,-71.189,-36.8881,-5.30257,-0.876577,7.80488,-5.42683,-21.2195
148.301,4.7192,-2.08208,0,-0.306563,9.82916,-1.1544,1.52439,-34.6646,-79.7561,-36.6486,-3.95178,-0.684976,14.6037,-6.7378,-23.4756
148.311,3.97312,-2.0571,0,1.49449,9.36692,-1.74118,1.98171,-42.0732,-85,-36.4953,-2.71595,-0.953218,15.7622,-9.05488,-27.378
148.321,3.28831,-2.01413,0,1.88249,9.33818,-1.78908,4.02439,-46.1585,-85.0305,-36.4761,-2.17947,-0.656235,16.0976,-11.8902,-27.2256
148.331,2.64079,-1.97039,0,1.78429,9.34058,-1.96871,4.35976,-48.3841,-81.4329,-36.2079,-1.18314,-0.627495,12.9268,-16.8293,-27.439
148.341,1.99115,-1.90123,0,1.4442,9.43638,-1.73878,5.45732,-43.75,-78.6585,-36.275,-0.531694,-0.205972,11.4939,-20.4573,-25.7622
148.351,1.38697,-1.83328,0,1.59508,9.77886,-1.50886,3.53659,-36.8293,-76.4939,-36.2845,-0.273032,-0.234712,8.96341,-37.439,-23.0183
148.361,0.818393,-1.78154,0,1.74357,9.83635,-1.45857,-1.37195,-31.25,-75.7012,-36.1792,0.244292,-0.474214,9.35976,-45.3354,-22.2256
148.371,0.332013,-1.76559,0,2.18665,9.44117,-1.70046,-3.41463,-20.3049,-74.5732,-35.7481,0.397573,-1.0107,8.78049,-48.628,-21.2195
148.382,-0.151925,-1.81103,0,1.91841,9.19927,-1.59987,-3.90244,-10.3049,-72.7439,-35.5181,0.263452,-1.93997,8.9939,-43.0488,-21.7988
148.391,-0.624079,-1.88527,0,1.84177,9.06754,-1.67412,-3.84146,-1.34146,-71.9207,-35.0487,-0.196392,-2.38065,12.4085,-40.4573,-23.0488
148.401,-1.11363,-1.96375,0,1.47054,9.03641,-1.70046,-3.59756,1.85976,-70.0915,-34.9146,-1.40348,-2.48603,17.2561,-41.5244,-25.8841
148.411,-1.58652,-2.067,0,1.45617,9.02204,-1.73878,-3.2622,4.60366,-69.2378,-34.5506,-2.28485,-2.88839,21.4329,-41.9512,-30.0915
148.421,-2.03642,-2.20593,0,1.43462,9.03401,-1.71004,-2.80488,7.04268,-67.561,-34.2919,-3.11832,-3.47278,25.7317,-41.8902,-32.6829
148.432,-2.46299,-2.37103,0,1.36277,9.02204,-1.47294,-1.89024,6.76829,-65.2134,-34.244,-3.58774,-3.95178,28.7195,-42.0122,-34.1768
148.441,-2.87547,-2.56395,0,1.29331,9.14897,-1.27655,-1.21951,4.45122,-63.5366,-33.6692,-4.10506,-4.39247,32.1037,-38.3841,-30.6707
148.451,-3.27076,-2.76542,0,1.24302,9.2831,-1.17356,-1.82927,-0.426829,-61.7683,-33.2285,-4.04758,-4.56491,35.7927,-34.5122,-27.0732
148.461,-3.63133,-2.97709,0,1.3005,9.40045,-1.35558,-1.12805,-6.61585,-59.5427,-32.4717,-3.78892,-4.71819,39.1463,-31.6159,-19.8171
148.471,-3.94011,-3.23575,0,1.44899,9.50104,-1.38193,-0.945122,-9.69512,-56.6159,-31.437,-3.38656,-5.33131,39.5732,-23.5061,-10
148.481,-4.19105,-3.58353,0,1.62861,9.33579,-1.4418,0,-7.92683,-53.8415,-30.6036,-2.75427,-6.54798,41.9207,-11.8902,0.670732
148.491,-4.4238,-3.9422,0,1.59748,9.17053,-1.45378,0.457317,-4.72561,-52.4695,-30.5173,-2.12199,-6.84497,51.189,-0.243902,12.0122
148.502,-4.65731,-4.30575,0,1.55197,9.05078,-1.32445,-0.335366,-0.213415,-52.7134,-30.8814,-1.35558,-7.18027,58.7805,6.76829,21.0976
148.511,-4.89346,-4.63365,0,1.62861,8.82565,-1.20709,0.701219,3.29268,-54.939,-32.3855,-0.934058,-7.19943,66.2195,10.6707,29.939
148.521,-5.16868,-4.89765,0,1.4418,8.8951,-0.907712,-0.945122,3.01829,-56.8598,-34.0907,-0.656235,-6.77791,70.2744,11.1585,33.628
148.531,-5.45223,-5.1118,0,1.41306,8.97414,-1.02746,-3.29268,2.92683,-57.7439,-35.8918,-0.311353,-6.4905,71.1585,11.1585,35.5183
148.541,-5.74826,-5.31469,0,1.27176,9.26394,-1.17116,-3.14024,0.0304878,-57.2866,-37.3958,-0.330513,-6.73,68.5366,6.67683,37.2256
148.551,-6.07487,-5.48462,0,0.934058,9.46991,-1.23344,-3.93293,-0.762195,-56.5549,-38.6796,-0.541274,-6.5384,64.4512,2.31707,37.1646
148.561,-6.39585,-5.63712,0,0.855022,9.73336,-1.41306,-3.65854,-2.22561,-55.3963,-39.216,0.138911,-6.45218,55.1829,-1.55488,36.7988
148.571,-6.70631,-5.78135,0,0.807122,9.84353,-1.42983,-2.53049,-4.96951,-54.2988,-39.5993,0.129331,-6.47134,46.0061,-0.396341,35.3354
148.581,-6.99377,-5.94374,0,0.862207,9.81719,-1.50407,-2.62195,-3.81098,-53.2622,-39.7046,0.205972,-6.90245,33.9329,4.08537,33.1707
148.591,-7.29335,-6.10589,0,0.725691,9.60642,-1.68609,-2.62195,-2.71341,-53.6585,-39.8292,0.589175,-7.02699,25.7622,6.61585,30.3963
148.602,-7.59731,-6.26708,0,0.684976,9.55613,-1.90165,-2.37805,-4.81707,-54.2683,-39.8004,1.26936,-7.12279,16.3415,6.03659,26.6463
148.611,-7.88142,-6.44028,0,0.876577,9.73096,-2.16031,-1.92073,-6.28049,-55,-40.3561,1.19272,-7.56347,9.11585,5.18293,23.9024
148.621,-8.17291,-6.6299,0,0.993933,9.79563,-2.04056,-4.32927,-5.18293,-57.6524,-40.9405,0.675395,-8.11912,1.98171,2.34756,18.2622
148.631,-8.42829,-6.81308,0,1.42743,10.7105,-1.9256,-2.53049,-8.23171,-58.2317,-40.9788,-0.608335,-8.14786,-3.2622,2.04268,12.622
148.641,-8.54651,-7.02616,0,2.19623,11.2542,-2.1172,-3.96341,-2.31707,-51.7988,-41.3428,-1.74836,-8.91426,-7.43902,5.30488,6.79878
148.652,-8.64143,-7.26778,0,2.02379,11.0099,-1.8274,-4.7561,-1.70732,-48.3841,-41.2853,-2.62015,-9.59445,-11.9817,9.02439,1.46341
148.661,-8.68953,-7.57396,0,2.32556,10.7033,-1.91841,-5.2439,4.63415,-47.561,-40.7201,-3.49194,-10.8399,-14.1159,18.7805,-0.27439
148.671,-8.70406,-7.96833,0,2.5004,10.6842,-1.73639,-5.57927,6.98171,-46.0976,-40.0591,-4.06674,-12.5355,-16.5549,31.6463,-1.43293
148.681,-8.73121,-8.46019,0,2.18186,10.6291,-1.39869,-7.04268,2.56098,-44.2073,-39.513,-3.71228,-14.4994,-14.8476,48.1098,1.40244
148.691,-8.72162,-8.91096,0,2.20102,10.7632,-0.948428,-10.8537,-3.10976,-40.4268,-39.3502,-3.32908,-13.9438,-13.0183,66.9817,5.85366
148.702,-8.6706,-9.19368,0,2.37107,10.7321,-0.502954,-15.7317,-16.1585,-38.0183,-39.9346,-2.79259,-11.2039,-13.1707,76.4939,10.2744
148.711,-8.52165,-9.22791,0,2.94108,10.4926,-0.368833,-19.8476,-26.8598,-34.4512,-42.3583,-2.06451,-7.24733,-15.9146,70.5183,8.29268
148.721,-8.22252,-8.95239,0,3.94939,10.2483,-0.687371,-22.4085,-33.5976,-29.878,-46.8418,-0.560435,-1.6334,-24.8476,55.1829,2.40854
148.731,-7.73346,-8.45817,0,5.32413,10.4016,-0.941243,-24.0244,-34.7256,-22.1951,-53.6628,2.37107,3.48236,-50.1524,37.3476,-12.622
148.741,-7.02807,-7.90038,0,6.75875,10.6171,-1.20948,-25.5183,-30.6707,-10.0915,-61.4706,5.9636,6.17436,-83.2012,21.9207,-36.3415
148.751,-6.1175,-8.02622,0,7.89638,11.2135,-1.44899,-26.5549,-24.6951,6.82927,-54.1993,1.2502,-10.313,-148.201,61.5549,-66.0671
148.761,-4.97663,-7.78651,0,8.82565,11.5847,-1.16398,-28.872,-19.0549,27.8049,-62.898,16.358,-1.87291,-135.03,54.0244,-84.9695
148.771,-3.60821,-7.45335,0,9.36453,11.8122,0.191602,-33.1402,-12.439,51.0976,-56.4889,11.8937,0.732876,-150.366,23.5976,-93.1402
148.781,-2.04414,-7.01407,0,9.29747,12.1883,0.732876,-49.0244,-3.62805,76.0366,-47.9052,5.55166,3.08,-159.482,7.89634,-91.8902
148.791,-0.297384,-6.53306,0,8.09996,10.4471,0.289797,-54.9085,23.9329,96.9512,-43.2876,-1.35558,3.85598,-148.384,-8.53659,-82.6219
148.802,1.46793,-6.06823,0,6.09293,9.69743,0.938848,-55.3354,40.0915,113.933,-41.6494,-7.30481,3.7027,-119.848,-25.2134,-77.5
148.811,3.17408,-5.62364,0,3.95897,9.57529,-0.119751,-45.5793,47.3476,131.25,-40.222,-10.3034,3.5111,-85.6402,-34.3293,-77.6219
148.821,4.67826,-5.3395,0,1.30289,10.1453,-0.304167,-32.8354,45.0305,145.03,-38.6891,-11.453,0.943638,-52.7439,-31.189,-83.1098
148.831,6.0481,-4.9151,0,-0.742456,11.1033,-0.950823,-22.7439,34.3293,157.134,-37.7599,-9.77647,3.44404,-14.4817,-33.5976,-78.1402
148.841,7.36001,-4.53723,0,-1.88967,12.526,-1.75315,-14.7561,23.8415,163.72,-36.5145,-7.87003,2.81175,19.939,-45.2134,-68.6281
148.851,8.6056,-4.13695,0,-2.77343,14.2863,-1.81542,-12.2256,10.8537,164.543,-36.2175,-4.92895,3.35782,41.189,-55.3659,-51.3415
148.861,9.81916,-3.67864,0,-2.34233,15.4455,-1.54239,-12.4695,-1.0061,158.994,-37.4054,-2.56267,4.66071,45.7317,-67.5,-34.9695
148.871,11.0087,-3.26759,0,-0.843047,16.0514,-0.843047,-11.3415,-18.7195,147.561,-38.6317,-0.215552,4.38289,38.6585,-46.189,-23.1098
148.881,12.1574,-2.97953,0,0.387993,15.9532,-0.416733,-9.60366,-33.0488,136.829,-39.216,1.71004,2.64889,28.7805,-28.7805,-13.628
148.891,13.2493,-2.67937,0,0.66821,14.6072,-0.725691,-6.18902,-35.1524,130.884,-39.3023,3.49194,3.08,16.9817,-24.0854,-5.91463
148.902,14.3129,-2.39851,0,0.519719,13.1295,-1.0562,1.52439,-30.8537,130.945,-39.2256,4.67029,2.94587,-1.61585,-23.872,0.609756
148.911,15.3939,-2.16463,0,0.570015,12.3176,-1.52323,8.41463,-19.6646,134.116,-38.0281,5.40795,2.27527,-21.0061,-16.8902,7.0122
148.922,16.4305,-1.98112,0,0.0263452,11.7332,-1.51605,12.0732,-10.9451,136.921,-36.1792,5.84864,1.52802,-39.6037,-10.3354,15.2744
148.932,17.4478,-1.8431,0,-0.179626,11.2686,-1.89207,14.3598,2.89634,139.207,-34.6655,5.55166,0.886157,-56.2195,-8.01829,24.1463
148.942,18.4787,-1.73168,0,0.0814307,10.6962,-1.94955,16.5854,12.6829,139.909,-33.7937,5.63788,0.550855,-65.3354,-7.43902,31.8902
148.951,19.4993,-1.64177,0,0.155676,10.1645,-1.69567,19.4207,22.7439,140.061,-32.9219,4.1338,0.273032,-68.2317,-12.8354,34.3293
148.961,20.513,-1.57093,0,0.246687,9.73575,-1.3005,21.311,29.8476,140.274,-32.4908,3.38656,0.0431104,-68.0488,-14.3598,35.5183
148.971,21.4852,-1.52342,0,0.160466,9.32621,-1.07297,23.2622,35.0305,139.055,-32.4813,2.45729,-0.253872,-63.5061,-15.4878,32.5915
148.981,22.3819,-1.4468,0,0.0718506,9.09868,-1.04183,25.9756,41.7988,134.421,-32.6633,1.78668,0.186812,-58.1098,-16.9512,28.0793
148.991,23.1501,-1.38079,0,-0.160466,8.95977,-1.04662,28.3537,45.9451,126.159,-33.1806,1.61424,0.0718506,-53.75,-19.3902,22.378
149.001,23.7993,-1.29901,0,-0.256267,8.82325,-1.33403,32.8659,50.4573,116.89,-33.5255,1.13524,0.330513,-54.7256,-24.1159,16.9817
149.011,24.3721,-1.25367,0,0.0263452,8.8951,-1.66214,39.5732,56.4939,106.677,-34.2536,0.732876,-0.167651,-57.1951,-25.5793,13.872
149.021,24.8828,-1.2458,0,0.318538,8.99809,-1.65017,40.6707,63.689,97.7134,-35.087,-0.0910107,-0.723296,-59.5122,-25.4573,13.3841
149.031,25.3235,-1.26687,0,0.383203,8.87355,-1.48731,39.6646,72.8354,90.7012,-36.3995,-0.244292,-1.2023,-64.5122,-23.0183,12.5915
149.041,25.6775,-1.32659,0,0.239502,8.76577,-1.28852,38.1098,79.9695,84.6037,-36.9839,-0.292192,-1.85375,-70.1829,-19.0549,13.5366
149.051,25.9211,-1.42716,0,-0.0287402,8.6077,-1.2023,38.0183,83.6585,77.6524,-37.0605,0.608335,-2.54351,-75.9756,-12.1341,15.061
149.061,26.0185,-1.58752,0,-0.440684,8.53345,-1.07297,36.372,87.7744,68.8719,-36.1696,1.30768,-3.48236,-78.5976,-4.60366,18.1402
149.071,25.9393,-1.80004,0,-1.08255,8.5095,-0.692161,34.3598,87.5305,59.8171,-35.2403,1.71962,-4.28709,-81.8598,3.68902,22.1341
149.081,25.6997,-2.03966,0,-1.54958,8.18378,-0.457449,30.1829,84.5427,50.3659,-34.9433,1.57592,-4.78525,-82.6524,10.7317,20.2439
149.091,25.3513,-2.31351,0,-1.66933,7.75028,-0.220342,26.9512,82.6829,41.7073,-34.8188,1.54718,-5.43669,-81.311,16.2805,13.9939
149.102,24.9136,-2.60076,0,-1.73639,7.50599,0.332908,24.1463,81.4024,33.6585,-34.9529,1.47054,-5.82948,-81.0366,19.9085,5.4878
149.111,24.4535,-2.82612,0,-1.37714,7.33834,0.960403,19.5427,82.1037,25.5793,-35.2786,1.37474,-5.07265,-82.561,22.0732,-4.26829
149.121,23.9743,-3.02809,0,-0.993933,7.23056,1.37474,14.6341,80.1524,16.9817,-35.4223,1.26936,-4.86189,-84.2073,22.4695,-9.7561
149.131,23.4893,-3.2165,0,-0.488584,7.14434,1.47773,10.3354,72.6829,7.92683,-35.7672,1.25978,-4.82357,-88.3232,21.2805,-13.628
149.141,23.4911,-3.42064,0,-0.287402,7.02938,1.62622,6.7378,57.5,0.182927,-35.5373,0.924478,-5.16845,-93.3232,19.4817,-14.4207
