time,angle1,angle2,intgangle,accX1,accY1,accZ1,gyroX1,gyroY1,gyroZ1,accX2,accY2,accZ2,gyroX2,gyroY2,gyroZ2
54.8009,88.7859,-19.1792,0,9.8579,0.0981958,0.428708,-0.609756,0.792683,-1.55488,-0.0718506,0.129331,0.00479004,4.96951,1.21951,1.67683
54.8188,88.787,-19.167,0,9.81719,0.0790356,0.347278,-0.487805,1.06707,-1.89024,-0.0718506,0.129331,0.00479004,4.96951,1.21951,1.67683
54.8245,88.7816,-18.5283,0,9.78844,0.122146,0.356858,-0.152439,0.396341,-1.89024,-39.513,-1.70046,-2.09325,4.96951,1.21951,1.67683
54.842,88.778,-18.5161,0,9.76689,0.129331,0.361648,0.335366,0.27439,-1.67683,-0.0718506,0.129331,0.00479004,4.96951,1.21951,1.67683
54.848,88.7714,-17.8884,0,9.79323,0.126936,0.335303,0.213415,-0.396341,-1.95122,-39.5322,-1.65256,-1.83458,4.93902,1.18902,1.64634
54.8643,88.7662,-19.1405,0,9.82197,0.114961,0.337698,0.0914634,-0.121951,-1.98171,-39.4412,-16.9615,-46.6909,-49.0244,-61.25,4.87805
54.8816,88.7686,-19.1283,0,9.86748,0.0790356,0.371228,0.0609756,0.0609756,-1.82927,-0.0718506,0.129331,0.00479004,4.96951,1.21951,1.67683
54.8874,88.766,-18.4944,0,9.87467,0.100591,0.359253,-0.365854,0.396341,-1.95122,-39.5322,-1.6813,-2.15073,4.96951,1.21951,1.67683
54.9046,88.7658,-18.4822,0,9.8555,0.114961,0.387993,-0.182927,0.579268,-1.61585,-0.0718506,0.129331,0.00479004,4.96951,1.21951,1.67683
54.9103,88.7684,-17.8713,0,9.84114,0.0838257,0.340093,0,0.27439,-1.76829,-39.4651,-1.70046,-2.10283,4.93902,1.18902,1.64634
54.927,88.7675,-19.1241,0,9.83874,0.117356,0.349673,-0.0914634,0.213415,-1.64634,-39.4412,-16.9615,-46.6909,-49.0244,-61.25,4.87805
54.9445,88.7687,-19.1119,0,9.83874,0.100591,0.397573,0.0609756,0.0609756,-1.67683,-0.0718506,0.129331,0.00479004,4.96951,1.21951,1.67683
54.9502,88.7542,-18.4772,0,9.8124,0.160466,0.383203,0.365854,-0.579268,-2.22561,-39.6472,-1.90165,-2.13157,4.96951,1.21951,1.67683
54.9675,88.7424,-18.465,0,9.83395,0.160466,0.344883,0.243902,-0.731707,-2.0122,-0.0718506,0.129331,0.00479004,4.96951,1.21951,1.67683
54.9734,88.7337,-17.8447,0,9.8579,0.141306,0.373623,0.0914634,-0.426829,-2.0122,-39.5226,-1.74836,-1.93039,4.93902,1.18902,1.64634
54.9899,88.7271,-19.0986,0,9.85311,0.143701,0.402363,-0.304878,0,-1.82927,-39.4412,-16.9615,-46.6909,-49.0244,-61.25,4.87805
55.0074,88.7249,-19.0864,0,9.8555,0.126936,0.356858,-0.609756,0.335366,-1.70732,-0.0718506,0.129331,0.00479004,4.96951,1.21951,1.67683
55.0133,88.7313,-18.4456,0,9.85311,0.0718506,0.359253,-0.823171,0.0609756,-1.70732,-39.446,-1.84417,-1.99745,4.96951,1.21951,1.67683
55.0311,88.7381,-18.4334,0,9.84593,0.0814307,0.356858,-0.701219,0.0304878,-1.58537,-0.0718506,0.129331,0.00479004,4.96951,1.21951,1.67683
55.0369,88.7413,-17.8217,0,9.79084,0.0886157,0.356858,-0.365854,-0.762195,-1.7378,-39.6663,-1.91123,-2.06451,4.93902,1.18902,1.64634
55.0533,88.7401,-19.0765,0,9.77647,0.0862207,0.380808,-0.426829,-0.762195,-2.07317,-39.4412,-16.9615,-46.6909,-49.0244,-61.25,4.87805
55.0705,88.7446,-19.0643,0,9.79084,0.0742456,0.364043,-0.487805,-0.609756,-1.79878,-0.0718506,0.129331,0.00479004,4.96951,1.21951,1.67683
55.0763,88.744,-18.4246,0,9.85072,0.107776,0.385598,-0.426829,-0.213415,-1.76829,-39.5705,-1.59508,-2.00703,4.96951,1.21951,1.67683
55.0937,88.7482,-18.4124,0,9.8579,0.0742456,0.349673,-0.27439,-0.0304878,-1.79878,-0.0718506,0.129331,0.00479004,4.96951,1.21951,1.67683
55.0998,88.747,-17.7978,0,9.89383,0.107776,0.359253,-0.457317,-0.0914634,-1.79878,-39.4172,-1.50886,-1.98787,4.93902,1.18902,1.64634
55.1161,88.7481,-19.0535,0,9.89622,0.110171,0.366438,-0.609756,-0.548781,-1.61585,-39.4412,-16.9615,-46.6909,-49.0244,-61.25,4.87805
55.1338,88.7479,-19.0413,0,9.8579,0.112566,0.332908,-0.27439,-0.518293,-1.67683,-0.0718506,0.129331,0.00479004,4.96951,1.21951,1.67683
55.14,88.7472,-18.3997,0,9.81,0.117356,0.328118,-0.213415,-0.426829,-1.67683,-39.5801,-1.79626,-1.95913,4.96951,1.21951,1.67683
55.1563,88.7494,-19.6316,0,9.81719,0.0814307,0.253872,-0.27439,0.0304878,-1.85976,-39.4412,-16.9615,-46.6909,-49.0244,-61.25,4.87805
55.1736,88.7519,-19.6194,0,9.86509,0.0981958,0.306563,0.121951,-0.243902,-1.64634,-0.0718506,0.129331,0.00479004,4.96951,1.21951,1.67683
55.1794,88.7507,-18.9489,0,9.89383,0.107776,0.256267,0.0304878,-0.152439,-1.79878,-39.5993,-1.71004,-1.85375,4.96951,1.21951,1.67683
55.1967,88.7487,-18.9367,0,9.89622,0.112566,0.277822,-0.0609756,-0.213415,-1.79878,-0.0718506,0.129331,0.00479004,4.96951,1.21951,1.67683
55.2025,88.7436,-18.3076,0,9.87227,0.136516,0.270637,0.152439,-0.0609756,-1.76829,-39.5226,-1.76752,-2.10283,4.93902,1.18902,1.64634
55.2192,88.7405,-19.5432,0,9.86269,0.124541,0.301772,0.0609756,0.213415,-1.76829,-39.4412,-16.9615,-46.6909,-49.0244,-61.25,4.87805
55.2367,88.7434,-19.531,0,9.83874,0.0862207,0.349673,-0.0914634,0.518293,-1.76829,-0.0718506,0.129331,0.00479004,4.96951,1.21951,1.67683
55.2426,88.7462,-18.8894,0,9.81719,0.0694556,0.332908,0.0304878,0.335366,-1.95122,-39.6855,-1.86333,-2.30401,4.96951,1.21951,1.67683
55.2598,88.7476,-18.8772,0,9.81719,0.0838257,0.366438,0.182927,0.487805,-1.89024,-0.0718506,0.129331,0.00479004,4.96951,1.21951,1.67683
55.2656,88.749,-18.2375,0,9.82916,0.0838257,0.328118,-0.0609756,0.0914634,-1.89024,-39.4556,-1.71004,-1.87291,4.93902,1.18902,1.64634
55.2822,88.7482,-19.4758,0,9.84114,0.0862207,0.378413,-0.27439,0.0914634,-2.0122,-39.4412,-16.9615,-46.6909,-49.0244,-61.25,4.87805
55.2995,88.7487,-19.4636,0,9.82677,0.0694556,0.323328,0.0609756,0.0914634,-2.10366,-0.0718506,0.129331,0.00479004,4.96951,1.21951,1.67683
55.3052,88.7418,-18.8231,0,9.79803,0.114961,0.332908,-0.27439,0.243902,-2.16463,-39.6663,-1.74836,-2.27527,4.96951,1.21951,1.67683
55.3224,88.7347,-18.8109,0,9.84353,0.146096,0.344883,0.0304878,0.0609756,-1.82927,-0.0718506,0.129331,0.00479004,4.96951,1.21951,1.67683
55.3282,88.733,-18.1835,0,9.9082,0.129331,0.371228,-0.213415,0.365854,-1.61585,-39.5322,-1.83458,-2.04535,36.1585,1.18902,1.64634
55.3446,88.7297,-19.424,0,9.88425,0.122146,0.373623,0.0304878,0.182927,-1.82927,-39.4412,-16.9615,-46.6909,-49.0244,-61.25,4.87805
55.3618,88.7286,-19.4118,0,9.87467,0.105381,0.337698,0.0914634,0.0914634,-1.85976,-0.0718506,0.129331,0.00479004,4.96951,1.21951,1.67683
55.3675,88.7202,-18.7713,0,9.81719,0.134121,0.349673,0.27439,-0.152439,-2.10366,-39.6184,-1.85375,-2.23695,4.96951,1.21951,1.67683
55.3847,88.7153,-18.7591,0,9.82197,0.124541,0.395178,-0.0304878,-0.0609756,-1.95122,-0.0718506,0.129331,0.00479004,4.96951,1.21951,1.67683
55.3904,88.7114,-18.1442,0,9.78366,0.124541,0.359253,-0.27439,-0.27439,-1.89024,-39.513,-1.73878,-2.22737,67.3781,1.18902,1.64634
55.4069,88.7103,-19.3862,0,9.84593,0.119751,0.390388,-0.335366,0.0304878,-1.7378,-39.4412,-16.9615,-46.6909,-49.0244,-61.25,4.87805
55.424,88.7046,-19.374,0,9.8555,0.126936,0.318538,-0.27439,0.0304878,-2.0122,-0.0718506,0.129331,0.00479004,4.96951,1.21951,1.67683
55.4299,88.7014,-18.7118,0,9.88904,0.114961,0.373623,-0.0914634,-0.121951,-1.95122,-39.6951,-1.98787,-1.83458,4.96951,1.21951,1.67683
55.4471,88.6946,-18.6996,0,9.83874,0.153281,0.371228,-0.243902,-0.182927,-1.79878,-0.0718506,0.129331,0.00479004,4.96951,1.21951,1.67683
55.4529,88.6933,-18.0913,0,9.81479,0.126936,0.342488,-0.182927,-0.426829,-1.70732,-39.4076,-1.7771,-2.29443,4.93902,1.18902,1.64634
55.4694,88.6938,-19.3354,0,9.80521,0.124541,0.342488,0.0304878,-0.548781,-1.61585,-39.4412,-16.9615,-46.6909,-49.0244,-61.25,4.87805
55.4868,88.6959,-19.3232,0,9.79563,0.100591,0.311353,-0.609756,-0.396341,-1.76829,-0.0718506,0.129331,0.00479004,4.96951,1.21951,1.67683
55.4925,88.6976,-18.6931,0,9.83874,0.0958008,0.364043,-0.487805,-0.0304878,-1.82927,-39.3693,-1.79626,-2.34233,4.96951,1.21951,1.67683
55.51,88.6971,-18.6809,0,9.84353,0.110171,0.390388,-0.640244,0.0304878,-1.82927,-0.0718506,0.129331,0.00479004,4.96951,1.21951,1.67683
55.5157,88.6923,-18.0685,0,9.89143,0.119751,0.320933,-0.426829,-0.243902,-2.04268,-39.3693,-1.79626,-2.20821,4.93902,1.18902,1.64634
55.5323,88.6921,-19.3135,0,9.84353,0.117356,0.361648,-0.335366,-0.518293,-1.7378,-39.4412,-16.9615,-46.6909,-49.0244,-61.25,4.87805
55.5499,88.6861,-19.3013,0,9.8579,0.138911,0.282612,0.0304878,-0.457317,-1.92073,-0.0718506,0.129331,0.00479004,4.96951,1.21951,1.67683
55.556,88.679,-18.6544,0,9.82437,0.165256,0.354463,-0.0609756,-0.609756,-1.70732,-39.5705,-1.88249,-2.04535,4.96951,1.21951,1.67683
55.5734,88.6716,-18.6422,0,9.86748,0.150886,0.311353,-0.243902,-0.518293,-1.92073,-0.0718506,0.129331,0.00479004,4.96951,1.21951,1.67683
55.5794,88.6747,-18.0286,0,9.84114,0.102986,0.349673,-0.243902,0,-1.70732,-39.3789,-1.65256,-2.16031,4.93902,1.18902,1.64634
55.5959,88.6745,-19.2751,0,9.86988,0.117356,0.359253,0.0609756,-0.0304878,-1.76829,-39.4412,-16.9615,-46.6909,-49.0244,-61.25,4.87805
55.6133,88.6734,-19.2629,0,9.86509,0.138911,0.325723,-0.213415,0.0304878,-1.58537,-0.0718506,0.129331,0.00479004,4.96951,1.21951,1.67683
55.6191,88.6781,-18.607,0,9.83635,0.0981958,0.335303,-0.213415,-0.27439,-1.64634,-39.6376,-1.80584,-1.86333,4.96951,1.21951,1.67683
55.6363,88.6808,-18.5948,0,9.82916,0.124541,0.304167,0,-0.518293,-1.4939,-0.0718506,0.129331,0.00479004,4.96951,1.21951,1.67683
55.6421,88.6813,-17.9608,0,9.87946,0.102986,0.308958,0.0914634,-0.396341,-1.85976,-39.4556,-1.67172,-1.7771,4.93902,1.18902,1.64634
55.6589,88.6854,-19.21,0,9.82437,0.114961,0.342488,0.182927,-0.457317,-1.4939,-39.4412,-16.9615,-46.6909,-49.0244,-61.25,4.87805
55.6761,88.7006,-19.1978,0,9.83156,0.0311353,0.347278,0.0609756,-0.243902,-1.64634,-0.0718506,0.129331,0.00479004,4.96951,1.21951,1.67683
55.6819,88.7045,-18.5586,0,9.82197,0.0814307,0.306563,-0.426829,0.0304878,-1.82927,-39.4651,-1.98787,-2.10283,4.96951,1.21951,1.67683
55.6991,88.71,-18.5464,0,9.82916,0.0790356,0.332908,-0.304878,-0.0609756,-1.7378,-0.0718506,0.129331,0.00479004,4.96951,1.21951,1.67683
55.7049,88.7083,-17.9381,0,9.88425,0.112566,0.285007,-0.0304878,-0.304878,-1.85976,-39.5993,-1.69088,-2.19863,4.93902,1.18902,1.64634
55.7214,88.7081,-19.1882,0,9.87227,0.105381,0.337698,0.182927,-0.0914634,-1.82927,-39.4412,-16.9615,-46.6909,-49.0244,-61.25,4.87805
55.7386,88.7052,-19.1761,0,9.88664,0.112566,0.352068,0.335366,0.121951,-1.95122,-0.0718506,0.129331,0.00479004,4.96951,1.21951,1.67683
55.7444,88.7075,-18.5464,0,9.85072,0.0934058,0.330513,-0.152439,0.0914634,-1.79878,-39.3119,-2.08367,-2.24653,4.96951,1.21951,1.67683
55.7619,88.7075,-18.5342,0,9.87227,0.107776,0.332908,-0.121951,0.365854,-1.79878,-0.0718506,0.129331,0.00479004,4.96951,1.21951,1.67683
55.7676,88.7057,-17.9365,0,9.82437,0.102986,0.316143,-0.396341,0.457317,-1.98171,-39.3693,-1.94955,-2.36149,4.93902,1.18902,1.64634
55.7841,88.7095,-19.1867,0,9.83395,0.0502954,0.368833,-0.396341,0.27439,-2.13415,-39.4412,-16.9615,-46.6909,-49.0244,-61.25,4.87805
55.8013,88.7078,-19.1745,0,9.8603,0.107776,0.299377,-0.335366,0.243902,-1.92073,-0.0718506,0.129331,0.00479004,4.96951,1.21951,1.67683
55.8074,88.7058,-18.5219,0,9.86269,0.0958008,0.320933,0.0609756,0.152439,-2.07317,-39.4651,-1.6813,-1.85375,4.96951,1.21951,1.67683
55.8248,88.7025,-18.5097,0,9.83874,0.129331,0.323328,-0.121951,0.304878,-1.79878,-0.0718506,0.129331,0.00479004,4.96951,1.21951,1.67683
55.8306,88.7039,-17.8928,0,9.84114,0.105381,0.390388,-0.0609756,-0.0609756,-1.7378,-39.4747,-1.61424,-2.01661,4.93902,1.18902,1.64634
55.8472,88.7004,-19.1447,0,9.84114,0.131726,0.352068,-0.213415,0.0304878,-1.79878,-39.4412,-16.9615,-46.6909,-49.0244,-61.25,4.87805
55.8646,88.7021,-19.1326,0,9.87227,0.117356,0.340093,0.182927,0.243902,-1.58537,-0.0718506,0.129331,0.00479004,4.96951,1.21951,1.67683
55.8704,88.7012,-18.4932,0,9.86748,0.102986,0.332908,-0.365854,0.426829,-1.92073,-39.6567,-1.93039,-2.06451,4.96951,1.21951,1.67683
55.8878,88.7045,-18.481,0,9.8555,0.0958008,0.335303,-0.0914634,0.518293,-1.70732,-0.0718506,0.129331,0.00479004,4.96951,1.21951,1.67683
55.8936,88.7051,-17.8562,0,9.87946,0.114961,0.347278,0.0304878,0.152439,-1.67683,-39.5418,-1.81542,-1.86333,4.93902,1.18902,1.64634
55.9102,88.7016,-19.1096,0,9.8579,0.138911,0.325723,0.152439,-0.152439,-1.70732,-39.4412,-16.9615,-46.6909,-49.0244,-61.25,4.87805
55.9274,88.6983,-19.0974,0,9.86988,0.146096,0.366438,0.365854,-0.213415,-1.61585,-0.0718506,0.129331,0.00479004,4.96951,1.21951,1.67683
55.9332,88.6995,-18.4644,0,9.84114,0.112566,0.340093,0,0.27439,-1.67683,-39.4556,-1.81542,-2.14115,4.96951,1.21951,1.67683
55.9504,88.7038,-18.4522,0,9.84114,0.0934058,0.364043,0.243902,0.0609756,-1.67683,-0.0718506,0.129331,0.00479004,4.96951,1.21951,1.67683
55.9562,88.7099,-17.8417,0,9.82437,0.0694556,0.366438,0.396341,0.243902,-1.79878,-39.8962,-1.6813,-2.11241,4.93902,1.18902,1.64634
55.9727,88.7105,-19.0957,0,9.81479,0.112566,0.347278,0.27439,-0.121951,-1.70732,-39.4412,-16.9615,-46.6909,-49.0244,-61.25,4.87805
55.9899,88.7137,-19.0835,0,9.83635,0.0981958,0.316143,0.182927,-0.0914634,-1.67683,-0.0718506,0.129331,0.00479004,4.96951,1.21951,1.67683
55.9956,88.7119,-18.4584,0,9.8603,0.110171,0.335303,0.121951,-0.0609756,-1.89024,-39.5609,-1.79626,-2.27527,4.96951,1.21951,1.67683
56.0135,88.7079,-18.4462,0,9.88185,0.119751,0.323328,0.121951,0.0914634,-1.95122,-0.0718506,0.129331,0.00479004,4.96951,1.21951,1.67683
56.0192,88.7077,-17.8292,0,9.87706,0.105381,0.337698,0.335366,0,-1.82927,-39.8388,-1.93997,-1.99026,4.93902,1.18902,1.64634
56.0357,88.7072,-19.0837,0,9.89862,0.124541,0.289797,0.121951,0.213415,-1.64634,-39.4412,-16.9615,-46.6909,-49.0244,-61.25,4.87805
56.0529,88.7106,-19.0715,0,9.85072,0.119751,0.330513,0.457317,0.0304878,-1.43293,-0.0718506,0.129331,0.00479004,4.96951,1.21951,1.67683
56.0587,88.7129,-18.4394,0,9.82677,0.110171,0.368833,0.640244,0.0914634,-1.61585,-40.2124,-1.94955,-2.17947,4.96951,1.21951,1.67683
56.0761,88.7214,-18.4272,0,9.82197,0.0742456,0.337698,0.457317,0.152439,-1.58537,-0.0718506,0.129331,0.00479004,4.96951,1.21951,1.67683
56.0818,88.721,-17.8251,0,9.84114,0.122146,0.337698,0.182927,-0.0304878,-1.64634,-39.9825,-1.59508,-2.24653,4.93902,1.18902,1.64634
56.0983,88.7186,-19.0797,0,9.85072,0.134121,0.385598,0.27439,-0.0609756,-1.64634,-39.4412,-16.9615,-46.6909,-49.0244,-61.25,4.87805
56.1155,88.7233,-19.0675,0,9.83395,0.0934058,0.404758,-0.152439,0.27439,-1.61585,-0.0718506,0.129331,0.00479004,4.96951,1.21951,1.67683
56.1212,88.7254,-18.4286,0,9.82197,0.100591,0.411943,-0.152439,-0.0304878,-1.70732,-39.8004,-1.81542,-2.03577,4.96951,1.21951,1.67683
56.1384,88.7308,-18.4164,0,9.82197,0.0790356,0.344883,-0.213415,0,-1.70732,-0.0718506,0.129331,0.00479004,4.96951,1.21951,1.67683
56.1441,88.7379,-17.806,0,9.82437,0.0646655,0.395178,-0.365854,0.0609756,-1.7378,-39.628,-1.7771,-2.07409,20.5488,1.18902,1.64634
56.1608,88.7392,-19.0614,0,9.80281,0.0981958,0.344883,-0.396341,0.213415,-1.76829,-39.4412,-16.9615,-46.6909,-49.0244,-61.25,4.87805
56.1782,88.748,-19.0492,0,9.83635,0.0670605,0.397573,-0.487805,-0.0609756,-1.58537,-0.0718506,0.129331,0.00479004,4.96951,1.21951,1.67683
56.184,88.7542,-18.3937,0,9.8124,0.0862207,0.328118,-0.304878,-0.365854,-1.55488,-39.7525,-1.86333,-1.7292,4.96951,1.21951,1.67683
56.2012,88.7589,-18.3816,0,9.86509,0.0862207,0.356858,-0.0914634,-0.365854,-1.61585,-0.0718506,0.129331,0.00479004,4.96951,1.21951,1.67683
56.2069,88.7583,-17.7498,0,9.88664,0.126936,0.325723,-0.213415,-0.884146,-1.52439,-39.9729,-1.70046,-1.69088,4.93902,1.18902,1.64634
56.2235,88.7572,-19.0074,0,9.88185,0.122146,0.337698,-0.0914634,-1.06707,-1.61585,-39.4412,-16.9615,-46.6909,-49.0244,-61.25,4.87805
56.241,88.7595,-18.9952,0,9.87227,0.117356,0.313748,0.0914634,-0.518293,-1.43293,-0.0718506,0.129331,0.00479004,4.96951,1.21951,1.67683
56.247,88.7663,-18.3226,0,9.9058,0.0981958,0.263452,-0.0609756,0.335366,-1.34146,-40.0974,-1.81542,-1.40348,4.96951,1.21951,1.67683
56.2645,88.7737,-18.3104,0,9.85072,0.114961,0.296982,-0.121951,0.243902,-1.12805,-0.0718506,0.129331,0.00479004,4.96951,1.21951,1.67683
56.2703,88.7816,-17.5855,0,9.82197,0.102986,0.316143,-0.213415,0.670732,-1.21951,-40.1932,-1.6334,0.00239502,4.93902,1.18902,1.64634
56.2887,88.7891,-18.8496,0,9.84114,0.0981958,0.335303,-0.0304878,0.152439,-1.28049,-39.4412,-16.9615,-46.6909,-49.0244,-61.25,4.87805
56.3063,88.7978,-18.8374,0,9.8555,0.0981958,0.301772,0.121951,-0.121951,-1.18902,-0.0718506,0.129331,0.00479004,4.96951,1.21951,1.67683
56.3121,88.8049,-18.1771,0,9.80042,0.0981958,0.349673,-0.0304878,0.0609756,-1.28049,-40.0687,-1.74836,-1.50886,4.96951,1.21951,1.67683
56.3287,88.821,-19.4178,0,9.8124,0.0574805,0.349673,-0.121951,0.0304878,-1.18902,-39.4412,-16.9615,-46.6909,-49.0244,-61.25,4.87805
56.346,88.8301,-19.4056,0,9.81719,0.0766406,0.387993,-0.182927,0.152439,-1.34146,-0.0718506,0.129331,0.00479004,4.96951,1.21951,1.67683
56.3517,88.8426,-18.6778,0,9.84832,0.0359253,0.373623,-0.152439,-0.121951,-1.52439,-40.0495,-1.99745,-0.713716,4.96951,1.21951,1.67683
56.369,88.853,-18.6656,0,9.8579,0.0455054,0.402363,-0.396341,0.0914634,-1.52439,-0.0718506,0.129331,0.00479004,4.96951,1.21951,1.67683
56.3748,88.8514,-17.9751,0,9.78844,0.122146,0.387993,-0.426829,-0.335366,-1.46341,-39.6855,-1.74836,-0.847837,4.93902,1.18902,1.64634
56.3915,88.8517,-19.2238,0,9.77407,0.117356,0.376018,-0.426829,-0.243902,-1.40244,-39.4412,-16.9615,-46.6909,-49.0244,-61.25,4.87805
56.4088,88.8532,-19.2116,0,9.76928,0.105381,0.399968,-0.731707,-0.640244,-1.46341,-0.0718506,0.129331,0.00479004,4.96951,1.21951,1.67683
56.4145,88.8501,-18.4991,0,9.85311,0.165256,0.371228,-1.55488,-0.548781,-0.97561,-39.628,-2.35191,-0.838257,4.96951,1.21951,1.67683
56.4318,88.8575,-18.4869,0,9.89862,0.138911,0.416733,-1.7378,-0.27439,-0.640244,-0.0718506,0.129331,0.00479004,4.96951,1.21951,1.67683
56.4376,88.8898,-17.7899,0,9.90101,0.0239502,0.366438,-1.18902,0.823171,-0.670732,-39.5993,-1.83458,-0.608335,-994.085,1.18902,1.64634
56.454,88.9216,-19.0459,0,9.9082,0.0455054,0.359253,-1.4939,1.09756,-0.457317,-39.4412,-16.9615,-46.6909,-49.0244,-61.25,4.87805
56.4712,88.9379,-19.0337,0,9.83874,0.100591,0.268242,-1.18902,1.37195,-0.518293,-0.0718506,0.129331,0.00479004,4.96951,1.21951,1.67683
56.477,88.9935,-18.2148,0,9.73575,-0.0119751,0.232317,-1.0061,0.426829,-0.304878,-40.3273,-1.57592,1.16398,4.96951,1.21951,1.67683
56.4942,89.0182,-18.2026,0,9.70462,0.0407153,0.234712,-0.914634,-0.213415,-0.731707,-0.0718506,0.129331,0.00479004,4.96951,1.21951,1.67683
56.5,89.0287,-17.4266,0,9.81719,0.0167651,0.205972,-0.853659,-1.34146,-1.52439,-40.1932,-1.7292,0.981958,4.93902,1.18902,1.64634
56.5166,89.0377,-18.697,0,9.88664,0.0455054,0.232317,-0.243902,-1.18902,-1.28049,-39.4412,-16.9615,-46.6909,-49.0244,-61.25,4.87805
56.534,89.0374,-18.6848,0,9.93694,0.0622705,0.296982,-0.579268,-0.823171,-1.67683,-0.0718506,0.129331,0.00479004,4.96951,1.21951,1.67683
56.54,89.0308,-17.889,0,9.97526,0.0718506,0.270637,-0.579268,0.426829,-2.04268,-39.3023,-2.14115,0.972378,4.96951,1.21951,1.67683
56.5576,89.0251,-17.8768,0,9.97286,0.0910107,0.275427,-0.762195,0.97561,-1.76829,-0.0718506,0.129331,0.00479004,4.96951,1.21951,1.67683
56.5636,89.0242,-17.169,0,9.90341,0.0550855,0.304167,-1.09756,2.37805,-1.82927,-39.5418,0.126936,0.00239502,4.93902,1.18902,1.64634
56.58,89.028,-18.4496,0,9.83635,0.0143701,0.313748,-1.21951,2.53049,-1.95122,-39.4412,-16.9615,-46.6909,-49.0244,-61.25,4.87805
56.5973,89.0267,-18.4374,0,9.81958,0.0335303,0.313748,-0.518293,2.28659,-2.10366,-0.0718506,0.129331,0.00479004,4.96951,1.21951,1.67683
56.603,89.0351,-17.5717,0,9.8124,-0.0455054,0.344883,0.27439,0.731707,-2.22561,-40.2028,-1.4897,2.40939,4.96951,1.21951,1.67683
56.6203,89.039,-17.5595,0,9.82437,-0.0311353,0.325723,0.640244,0.304878,-2.37805,-0.0718506,0.129331,0.00479004,4.96951,1.21951,1.67683
56.6264,89.0357,-16.7468,0,9.78366,-0.0335303,0.361648,0.823171,0.0609756,-2.95732,-40.1549,-1.825,2.08367,4.93902,1.18902,1.64634
56.6427,89.0318,-18.0441,0,9.85311,-0.00718506,0.301772,1.34146,0.701219,-2.71341,-39.4412,-16.9615,-46.6909,-49.0244,-61.25,4.87805
56.66,89.0139,-18.0319,0,9.90101,0.0934058,0.270637,1.58537,1.15854,-2.80488,-0.0718506,0.129331,0.00479004,4.96951,1.21951,1.67683
56.6658,88.9981,-17.1896,0,9.89143,0.102986,0.277822,1.58537,1.85976,-2.53049,-39.628,-1.97829,2.24653,4.96951,1.21951,1.67683
56.6831,88.9852,-17.1774,0,9.85311,0.0814307,0.304167,1.67683,1.55488,-2.56098,-0.0718506,0.129331,0.00479004,4.96951,1.21951,1.67683
56.689,88.9707,-16.2786,0,9.75731,0.0981958,0.471819,1.64634,1.34146,-2.53049,-39.5609,-1.57592,3.82724,4.93902,1.18902,1.64634
56.7053,88.958,-17.5945,0,9.72617,0.100591,0.452659,1.34146,0.914634,-2.37805,-39.4412,-16.9615,-46.6909,-49.0244,-61.25,4.87805
56.7233,88.9533,-17.5823,0,9.73815,0.0646655,0.541274,1.28049,0.914634,-2.16463,-0.0718506,0.129331,0.00479004,4.96951,1.21951,1.67683
56.729,88.9546,-16.6151,0,9.83635,-0.0143701,0.526904,1.67683,-0.762195,-2.53049,-39.5322,-2.33275,4.74693,4.96951,1.21951,1.67683
56.7454,88.9465,-17.9177,0,9.84832,0.0143701,0.584385,1.79878,-1.70732,-2.9878,-39.4412,-16.9615,-46.6909,-49.0244,-61.25,4.87805
56.7632,88.9295,-17.9055,0,9.82916,0.0191602,0.60115,1.28049,-2.0122,-3.75,-0.0718506,0.129331,0.00479004,4.96951,1.21951,1.67683
56.7689,88.9001,-16.8837,0,9.75252,0.119751,0.584385,0.182927,-1.7378,-3.78049,-38.8137,-2.85965,5.38879,4.96951,1.21951,1.67683
56.7864,88.874,-16.8715,0,9.75731,0.129331,0.5772,-0.243902,-1.61585,-3.41463,-0.0718506,0.129331,0.00479004,4.96951,1.21951,1.67683
56.7921,88.8429,-15.8448,0,9.70941,0.153281,0.58199,-1.06707,-1.4939,-3.65854,-38.4688,-2.35191,6.13365,4.93902,1.18902,1.64634
56.8085,88.8236,-17.1779,0,9.70701,0.0287402,0.57241,-1.67683,-2.16463,-4.05488,-39.4412,-16.9615,-46.6909,-49.0244,-61.25,4.87805
56.8257,88.808,-17.1657,0,9.76449,-0.100591,0.579595,-2.31707,-3.41463,-5.2439,-0.0718506,0.129331,0.00479004,4.96951,1.21951,1.67683
56.8314,88.7678,-16.1063,0,9.84114,0.0143701,0.500559,-2.92683,-4.05488,-6.37195,-38.737,-3.1758,6.54798,4.96951,1.21951,1.67683
56.8494,88.7247,-16.0941,0,9.84593,0.0359253,0.467029,-3.17073,-4.02439,-6.4939,-0.0718506,0.129331,0.00479004,4.96951,1.21951,1.67683
56.8551,88.6649,-15.4568,0,9.86748,0.0862207,0.332908,-3.96341,-3.2622,-7.68293,-39.1873,-2.86205,0.00239502,4.93902,1.18902,1.64634
56.8716,88.6012,-16.8053,0,9.87467,0.112566,0.251477,-4.63415,-2.13415,-7.89634,-39.4412,-16.9615,-46.6909,-49.0244,-61.25,4.87805
56.8889,88.5319,-16.7931,0,9.80042,0.136516,0.299377,-5,-1.58537,-8.29268,-0.0718506,0.129331,0.00479004,4.96951,1.21951,1.67683
56.8947,88.4515,-15.6625,0,9.83156,0.172441,0.215552,-5.33537,-0.97561,-9.14634,-38.258,-2.24653,7.96584,4.96951,1.21951,1.67683
56.9118,88.3702,-15.6503,0,9.85072,0.182021,0.179626,-5.15244,-1.28049,-9.29878,-0.0718506,0.129331,0.00479004,4.96951,1.21951,1.67683
56.9176,88.286,-14.4782,0,9.87227,0.205972,0.0814307,-4.05488,-1.70732,-9.48171,-37.4916,-2.77343,9.31663,4.93902,1.18902,1.64634
56.9341,88.1972,-15.8654,0,9.8603,0.280217,0.146096,-3.93293,-2.13415,-9.2378,-39.4412,-16.9615,-46.6909,-49.0244,-61.25,4.87805
56.9512,88.1186,-15.8532,0,9.81479,0.234712,0.193997,-4.11585,-1.89024,-8.90244,-0.0718506,0.129331,0.00479004,4.96951,1.21951,1.67683
56.957,88.0503,-14.5985,0,9.89143,0.155676,0.210762,-4.42073,-1.79878,-8.96341,-37.4342,-2.74469,10.6195,4.96951,1.21951,1.67683
56.9741,87.9799,-14.5863,0,9.93933,0.182021,0.246687,-4.32927,-0.97561,-9.02439,-0.0718506,0.129331,0.00479004,4.96951,1.21951,1.67683
56.9798,87.8969,-13.407,0,9.97286,0.304167,0.179626,-4.20732,-0.426829,-9.02439,-36.6582,-1.75794,9.95849,4.93902,1.18902,1.64634
56.9964,87.8121,-14.8366,0,9.91778,0.390388,0.177231,-3.75,-0.243902,-8.35366,-39.4412,-16.9615,-46.6909,-49.0244,-61.25,4.87805
57.0139,87.7186,-14.8244,0,9.82677,0.502954,0.184417,-3.44512,1.12805,-8.01829,-0.0718506,0.129331,0.00479004,4.96951,1.21951,1.67683
57.0198,87.6342,-13.5195,0,9.85072,0.447869,0.217947,-2.62195,1.79878,-7.95732,-37.9802,-2.40939,12.4397,4.96951,1.21951,1.67683
57.0375,87.5544,-13.5073,0,9.91778,0.402363,0.198787,-1.85976,1.58537,-8.23171,-0.0718506,0.129331,0.00479004,4.96951,1.21951,1.67683
57.0436,87.4876,-12.9725,0,10.0327,0.251477,0.249082,-0.884146,0.640244,-8.87195,-37.4725,-2.78062,0.00239502,4.93902,1.18902,1.64634
57.0601,87.4208,-14.4193,0,10.095,0.263452,0.203577,-0.487805,0.792683,-8.90244,-39.4412,-16.9615,-46.6909,-49.0244,-61.25,4.87805
57.0774,87.3597,-14.4071,0,10.0854,0.316143,0.196392,-0.487805,0.945122,-7.83537,-0.0718506,0.129331,0.00479004,4.96951,1.21951,1.67683
57.0834,87.301,-13.0515,0,9.8603,0.407153,0.208367,-1.25,1.55488,-6.55488,-34.6272,-2.70637,12.4876,4.96951,1.21951,1.67683
57.1006,87.2432,-13.0393,0,9.7621,0.399968,0.220342,-1.31098,1.98171,-6.61585,-0.0718506,0.129331,0.00479004,4.96951,1.21951,1.67683
57.1066,87.1827,-11.6808,0,9.61361,0.428708,0.277822,-0.579268,3.04878,-6.58537,-35.1924,-2.06451,13.7019,4.93902,1.18902,1.64634
57.1231,87.117,-13.1787,0,9.59684,0.462239,0.275427,-0.304878,2.80488,-6.82927,-39.4412,-16.9615,-46.6909,-49.0244,-61.25,4.87805
57.1405,87.0509,-13.1665,0,9.63037,0.445474,0.275427,0.243902,1.61585,-7.22561,-0.0718506,0.129331,0.00479004,4.96951,1.21951,1.67683
57.1463,86.9875,-11.7016,0,9.91299,0.402363,0.273032,1.85976,-0.213415,-7.7439,-36.1217,-1.73878,15.9556,4.96951,1.21951,1.67683
57.1635,86.9231,-11.6894,0,9.95131,0.392783,0.376018,2.2561,-0.762195,-8.10976,-0.0718506,0.129331,0.00479004,4.96951,1.21951,1.67683
57.1692,86.8492,-10.2578,0,9.98723,0.433499,0.364043,1.92073,-1.40244,-8.75,-34.4739,-2.79259,15.6874,4.93902,1.18902,1.64634
57.1857,86.7817,-11.8122,0,9.92017,0.359253,0.337698,1.18902,-1.46341,-9.08537,-39.4412,-16.9615,-46.6909,-49.0244,-61.25,4.87805
57.2032,86.7107,-11.8,0,9.76689,0.399968,0.265847,0.243902,-1.03659,-9.02439,-0.0718506,0.129331,0.00479004,4.96951,1.21951,1.67683
57.209,86.6208,-10.2821,0,9.77886,0.61552,0.150886,-0.0609756,1.06707,-8.53659,-34.1961,-4.26792,17.0765,4.96951,1.21951,1.67683
57.2262,86.5264,-10.2699,0,9.77407,0.64905,0.179626,-0.0609756,1.89024,-8.78049,-0.0718506,0.129331,0.00479004,4.96951,1.21951,1.67683
57.2321,86.4438,-8.80652,0,9.69264,0.6251,0.201182,-0.762195,2.07317,-7.9878,-34.2919,-2.78301,17.2394,4.93902,1.18902,1.64634
57.2486,86.3671,-10.4183,0,9.75731,0.61552,0.253872,-0.609756,1.98171,-7.71341,-39.4412,-16.9615,-46.6909,-49.0244,-61.25,4.87805
57.2658,86.2954,-10.4061,0,9.83395,0.598755,0.237107,-0.182927,0.640244,-7.62195,-0.0718506,0.129331,0.00479004,4.96951,1.21951,1.67683
57.2716,86.2295,-8.82974,0,9.98723,0.57241,0.208367,0.121951,0.457317,-7.59146,-33.9853,-1.55676,19.1554,4.96951,1.21951,1.67683
57.2887,86.1665,-8.81755,0,9.93454,0.560435,0.174836,0.27439,0.213415,-7.53049,-0.0718506,0.129331,0.00479004,4.96951,1.21951,1.67683
57.2946,86.1095,-7.31892,0,9.90101,0.541274,0.177231,0.243902,0.823171,-7.2561,-33.4584,-2.18905,18.571,4.93902,1.18902,1.64634
57.3109,86.0608,-8.98962,0,9.91778,0.524509,0.143701,0.152439,1.58537,-6.7378,-39.4412,-16.9615,-46.6909,-49.0244,-61.25,4.87805
57.3281,85.9901,-8.97742,0,9.8603,0.670605,0.155676,1.06707,2.19512,-7.31707,-0.0718506,0.129331,0.00479004,4.96951,1.21951,1.67683
57.334,85.9191,-7.42083,0,9.8555,0.723296,0.258662,1.61585,2.5,-6.85976,-32.1268,-2.88839,18.8009,4.96951,1.21951,1.67683
57.3511,85.8496,-7.40863,0,9.83156,0.718506,0.301772,1.92073,2.46951,-6.89024,-0.0718506,0.129331,0.00479004,4.96951,1.21951,1.67683
57.3569,85.7876,-5.84828,0,9.80281,0.694556,0.392783,2.62195,2.37805,-6.52439,-32.51,-3.01293,20.3146,4.93902,1.18902,1.64634
57.3733,85.7341,-7.57721,0,9.82437,0.64905,0.335303,3.10976,2.2561,-6.34146,-39.4412,-16.9615,-46.6909,-49.0244,-61.25,4.87805
57.3905,85.6794,-7.56501,0,9.87467,0.64905,0.368833,4.02439,2.16463,-6.61585,-0.0718506,0.129331,0.00479004,4.96951,1.21951,1.67683
57.3964,85.6205,-5.94579,0,9.77407,0.64426,0.387993,3.2622,0.396341,-7.13415,-32.3759,-2.72553,21.2917,4.96951,1.21951,1.67683
57.4135,85.5695,-5.93359,0,9.80042,0.59157,0.292192,3.47561,0.426829,-7.10366,-0.0718506,0.129331,0.00479004,4.96951,1.21951,1.67683
57.4193,85.4936,-4.35292,0,9.80521,0.792751,0.251477,4.20732,0.396341,-7.34756,-31.9639,-1.90165,21.5504,504.451,1.18902,1.64634
57.4357,85.4165,-6.14106,0,9.84832,0.833467,0.325723,4.35976,0.762195,-7.19512,-39.4412,-16.9615,-46.6909,-49.0244,-61.25,4.87805
57.4528,85.3392,-6.12887,0,9.75731,0.852627,0.404758,3.44512,1.46341,-7.04268,-0.0718506,0.129331,0.00479004,4.96951,1.21951,1.67683
57.4586,85.2763,-4.52267,0,9.65193,0.773591,0.378413,3.53659,2.43902,-6.58537,-31.1496,-2.06451,21.3588,4.96951,1.21951,1.67683
57.4757,85.2207,-4.51047,0,9.63037,0.735271,0.459844,3.53659,1.43293,-6.40244,-0.0718506,0.129331,0.00479004,4.96951,1.21951,1.67683
57.4815,85.1719,-2.94095,0,9.62798,0.684976,0.440684,4.08537,-1.21951,-6.43293,-31.3508,-3.33866,22.0581,4.93902,1.18902,1.64634
57.499,85.1114,-4.78501,0,9.72857,0.797541,0.328118,4.57317,-1.7378,-6.46341,-39.4412,-16.9615,-46.6909,-49.0244,-61.25,4.87805
57.5165,85.0452,-4.77281,0,9.85072,0.895737,0.433499,4.08537,-2.31707,-6.12805,-0.0718506,0.129331,0.00479004,4.96951,1.21951,1.67683
57.5222,84.9858,-3.16783,0,9.77647,0.785566,0.55325,2.56098,-3.29268,-6.79878,-30.5461,-3.77934,22.0006,4.96951,1.21951,1.67683
57.5388,84.9285,-5.0029,0,9.75252,0.773591,0.514929,2.5,-2.68293,-6.82927,-39.4412,-16.9615,-46.6909,-49.0244,-61.25,4.87805
57.5561,84.8734,-4.99071,0,9.78366,0.795146,0.536484,2.34756,-2.10366,-6.4939,-0.0718506,0.129331,0.00479004,4.96951,1.21951,1.67683
57.5619,84.7917,-3.31249,0,9.60403,0.943638,0.579595,1.70732,-4.29878,-7.34756,-29.8467,-2.81175,22.815,4.96951,1.21951,1.67683
57.5792,84.7061,-3.3003,0,9.57768,0.979563,0.58199,0.853659,-5,-7.43902,-0.0718506,0.129331,0.00479004,4.96951,1.21951,1.67683
57.5849,84.6291,-1.65657,0,9.75012,0.981958,0.426313,1.06707,-3.17073,-6.92073,-29.6839,-2.63931,23.3706,4.93902,1.18902,1.64634
57.6015,84.558,-3.55149,0,9.88904,1.08015,0.445474,0.914634,-3.59756,-5.4878,-39.4412,-16.9615,-46.6909,-49.0244,-61.25,4.87805
57.6188,84.4914,-3.53929,0,9.87706,1.08255,0.452659,0.396341,-3.41463,-5.12195,-0.0718506,0.129331,0.00479004,4.96951,1.21951,1.67683
57.6246,84.4305,-1.87781,0,9.78366,1.04183,0.431104,-1.12805,-2.83537,-5.03049,-30.2587,-2.83091,24.0029,4.96951,1.21951,1.67683
57.6418,84.3748,-1.86561,0,9.84353,1.02267,0.304167,-1.12805,-1.92073,-4.93902,-0.0718506,0.129331,0.00479004,4.96951,1.21951,1.67683
57.6476,84.3261,-0.259044,0,9.93454,1.08734,0.129331,-0.884146,-1.18902,-3.65854,-29.8659,-3.23328,23.9358,4.93902,1.18902,1.64634
57.6641,84.2866,-2.20931,0,10.0208,1.0562,0.143701,-0.487805,-1.0061,-3.29268,-39.4412,-16.9615,-46.6909,-49.0244,-61.25,4.87805
57.6814,84.2551,-2.19711,0,9.8579,0.960403,0.210762,-0.365854,-1.58537,-3.53659,-0.0718506,0.129331,0.00479004,4.96951,1.21951,1.67683
57.6871,84.2212,-0.568278,0,9.73815,0.893342,0.198787,-0.243902,-1.64634,-4.5122,-29.7509,-3.02251,24.0412,4.96951,1.21951,1.67683
57.7046,84.1895,-0.556083,0,9.74054,0.888552,0.184417,-0.121951,-1.46341,-4.42073,-0.0718506,0.129331,0.00479004,4.96951,1.21951,1.67683
57.7103,84.1635,1.0359,0,9.88425,0.902922,0.0359253,0.884146,-0.701219,-3.90244,-29.6551,-2.97461,24.5777,4.93902,1.18902,1.64634
57.7269,84.143,-0.965641,0,10.0064,0.890947,0.0215552,2.04268,-0.945122,-3.68902,-39.4412,-16.9615,-46.6909,-49.0244,-61.25,4.87805
57.7441,84.1244,-0.953446,0,10.0375,0.869392,0.0718506,2.86585,-1.28049,-3.81098,-0.0718506,0.129331,0.00479004,4.96951,1.21951,1.67683
57.7499,84.102,0.670372,0,9.76928,0.814307,0.114961,1.98171,-1.79878,-4.60366,-28.6492,-3.05125,24.0891,4.96951,1.21951,1.67683
57.7673,84.0877,0.682567,0,9.74773,0.740061,0.0455054,2.04268,-1.18902,-4.69512,-0.0718506,0.129331,0.00479004,4.96951,1.21951,1.67683
57.773,84.0554,2.27372,0,9.92257,0.919688,-0.0287402,1.31098,-0.884146,-4.57317,-28.6588,-3.26202,24.798,4.93902,1.18902,1.64634
57.7895,84.0225,0.223163,0,10.0926,0.958008,-0.306563,-0.335366,-0.213415,-4.45122,-39.4412,-16.9615,-46.6909,-49.0244,-61.25,4.87805
57.8068,83.9811,0.235358,0,9.9537,0.931663,0.100591,-1.70732,2.83537,-5.51829,-0.0718506,0.129331,0.00479004,4.96951,1.21951,1.67683
57.8126,83.9412,1.84552,0,9.96328,0.823887,0.431104,-2.95732,0.518293,-6.70732,-28.8025,-3.19496,24.9513,4.96951,1.21951,1.67683
57.8299,83.8986,1.85772,0,9.94891,0.835862,0.378413,-2.68293,1.31098,-6.92073,-0.0718506,0.129331,0.00479004,4.96951,1.21951,1.67683
57.8356,83.8552,3.41721,0,9.75012,0.910107,0.409548,-0.731707,5.91463,-6.0061,-28.7163,-3.52068,25.1788,4.93902,1.18902,1.64634
57.852,83.7966,1.32137,0,9.74294,1.0107,0.447869,-0.609756,4.69512,-6.43293,-39.4412,-16.9615,-46.6909,-49.0244,-61.25,4.87805
57.8694,83.7333,1.33356,0,9.71899,1.0586,0.126936,-1.64634,5.12195,-6.43293,-0.0718506,0.129331,0.00479004,4.96951,1.21951,1.67683
57.8752,83.6698,2.97105,0,9.61121,1.08734,0.256267,-1.46341,5.7622,-6.09756,-28.0457,-3.32908,25.871,4.96951,1.21951,1.67683
57.8927,83.6151,2.98324,0,9.65432,1.06578,0.275427,-1.06707,5.94512,-5.64024,-0.0718506,0.129331,0.00479004,4.96951,1.21951,1.67683
57.8984,83.5643,2.86507,0,9.93933,1.15679,0.265847,-0.762195,7.5,-4.66463,-27.9403,-2.86205,0.00239502,4.93902,1.18902,1.64634
57.915,83.5236,0.791093,0,9.86988,1.11129,0.498164,-0.243902,6.82927,-4.17683,-39.4412,-16.9615,-46.6909,-49.0244,-61.25,4.87805
57.9324,83.4874,0.803288,0,9.88425,1.08973,0.589175,1.28049,5.45732,-4.08537,-0.0718506,0.129331,0.00479004,4.96951,1.21951,1.67683
57.9381,83.4426,2.45148,0,9.73815,1.19032,0.548459,0.0609756,4.72561,-3.59756,-28.1032,-3.5111,25.689,4.96951,1.21951,1.67683
57.9553,83.3992,2.46367,0,9.75731,1.19272,0.443079,-0.152439,4.42073,-3.53659,-0.0718506,0.129331,0.00479004,4.96951,1.21951,1.67683
57.9611,83.36,4.06421,0,9.71659,1.20709,0.457449,-0.853659,5.94512,-2.92683,-27.8349,-3.39614,25.8542,4.93902,1.18902,1.64634
57.9775,83.3327,1.94275,0,9.76449,1.11368,0.373623,-2.34756,8.07927,-3.07927,-39.4412,-16.9615,-46.6909,-49.0244,-61.25,4.87805
57.9948,83.3116,1.95495,0,9.78366,1.08494,0.320933,-2.71341,8.68902,-2.92683,-0.0718506,0.129331,0.00479004,4.96951,1.21951,1.67683
58.0005,83.2822,3.56504,0,9.7597,1.10171,0.570015,-0.762195,5.30488,-3.53659,-28.2085,-3.69312,25.9572,4.96951,1.21951,1.67683
58.0179,83.2577,3.57724,0,9.8124,1.11847,0.476609,-0.518293,5.21341,-2.9878,-0.0718506,0.129331,0.00479004,4.96951,1.21951,1.67683
58.0237,83.2202,5.24529,0,9.78844,1.21188,0.656235,-0.609756,5.67073,-3.14024,-28.7163,-3.50152,29.4324,4.93902,1.18902,1.64634
58.0402,83.1767,3.07705,0,9.87227,1.24541,0.730481,-3.10976,2.07317,-3.56707,-39.4412,-16.9615,-46.6909,-49.0244,-61.25,4.87805
58.0574,83.1427,3.08925,0,10.0423,1.18314,0.452659,-3.01829,1.21951,-3.68902,-0.0718506,0.129331,0.00479004,4.96951,1.21951,1.67683
58.0631,83.0976,4.64963,0,10.1214,1.31726,0.593965,-9.14634,2.2561,-3.41463,-28.8408,-3.62606,26.4266,4.96951,1.21951,1.67683
58.0804,83.0695,4.66182,0,10.0806,1.19032,0.299377,-8.87195,3.93293,-3.23171,-0.0718506,0.129331,0.00479004,4.96951,1.21951,1.67683
58.0862,83.0395,6.14099,0,9.47949,1.09692,0.677791,-6.21951,0.945122,-3.78049,-28.6588,-3.30034,25.8231,4.93902,1.18902,1.64634
58.1026,83.0276,3.93729,0,9.40285,0.914897,0.354463,-5.2439,-0.792683,-4.20732,-39.4412,-16.9615,-46.6909,-49.0244,-61.25,4.87805
58.1205,83.0104,3.94949,0,9.45314,0.902922,0.337698,-4.39024,-2.95732,-4.90854,-0.0718506,0.129331,0.00479004,4.96951,1.21951,1.67683
58.1265,83.001,5.44908,0,9.93694,0.847837,0.285007,-3.23171,-3.65854,-5.30488,-28.4289,-3.68354,25.4399,4.96951,1.21951,1.67683
58.143,82.9874,3.27278,0,9.9561,0.895737,0.617915,-2.07317,-3.59756,-5.21341,-39.4412,-16.9615,-46.6909,-49.0244,-61.25,4.87805
58.1606,82.971,3.28497,0,9.88425,0.989143,0.524509,0.335366,-2.31707,-4.39024,-0.0718506,0.129331,0.00479004,4.96951,1.21951,1.67683
58.1666,82.9281,4.79774,0,9.58966,1.12326,0.61073,-2.46951,-1.0061,-5.09146,-29.3581,-2.52435,25.9668,4.96951,1.21951,1.67683
58.1828,82.9115,2.64723,0,9.61121,0.864602,0.215552,-2.28659,-0.762195,-5.67073,-39.4412,-16.9615,-46.6909,-49.0244,-61.25,4.87805
58.2002,82.8942,2.65943,0,9.64953,0.692161,0.443079,1.18902,-3.93293,-7.86585,-0.0718506,0.129331,0.00479004,4.96951,1.21951,1.67683
58.2061,82.8498,4.23499,0,9.97286,0.905317,0.66821,2.34756,-5.73171,-8.44512,-28.8983,-3.35782,26.4362,4.96951,1.21951,1.67683
58.2236,82.7934,4.24718,0,9.99921,1.03225,0.804727,0.182927,-3.78049,-8.32317,-0.0718506,0.129331,0.00479004,4.96951,1.21951,1.67683
58.2294,82.7477,5.75915,0,9.89622,0.981958,0.380808,-3.59756,2.59146,-7.80488,-28.8408,-3.34824,26.3668,4.93902,1.18902,1.64634
58.2458,82.6694,3.57057,0,9.89383,1.17835,0.495769,-3.81098,2.53049,-8.93293,-39.4412,-16.9615,-46.6909,-49.0244,-61.25,4.87805
58.263,82.5773,3.58276,0,9.83156,1.22864,0.428708,-2.86585,-1.55488,-9.81707,-0.0718506,0.129331,0.00479004,4.96951,1.21951,1.67683
58.2688,82.4844,5.13643,0,9.60882,1.17835,0.318538,0.914634,-1.89024,-10.3659,-28.7738,-2.68721,26.6661,4.96951,1.21951,1.67683
58.286,82.3955,5.14863,0,9.50104,1.11608,0.380808,1.79878,-2.46951,-10.7317,-0.0718506,0.129331,0.00479004,4.96951,1.21951,1.67683
58.2918,82.324,6.69485,0,9.73815,0.981958,0.395178,2.77439,-1.82927,-11.0671,-28.1894,-1.71962,27.4134,4.93902,1.18902,1.64634
58.3082,82.2576,4.46921,0,9.94173,0.941243,-0.0215552,3.20122,-1.58537,-11.4024,-39.4412,-16.9615,-46.6909,-49.0244,-61.25,4.87805
58.3257,82.1892,4.48141,0,9.8124,0.859812,0.165256,4.60366,-3.62805,-12.561,-0.0718506,0.129331,0.00479004,4.96951,1.21951,1.67683
58.3315,82.1214,5.98014,0,9.56092,0.759221,0.100591,5.03049,-4.39024,-13.5976,-26.8098,-1.70046,24.4244,4.96951,1.21951,1.67683
58.349,82.0597,5.99233,0,9.57289,0.651445,-0.241897,6.43293,-5.67073,-14.4207,-0.0718506,0.129331,0.00479004,4.96951,1.21951,1.67683
58.355,81.937,5.75501,0,9.95849,1.0586,-0.177231,8.81098,-8.56707,-16.3415,-26.235,0.126936,0.00239502,4.93902,1.18902,1.64634
58.3715,81.8175,3.56659,0,10.3704,1.14242,0.0646655,8.90244,-10.5183,-15.8232,-39.4412,-16.9615,-46.6909,-49.0244,-61.25,4.87805
58.389,81.6697,3.57879,0,9.95131,1.2502,0.852627,11.0366,-13.1707,-17.1646,-0.0718506,0.129331,0.00479004,4.96951,1.21951,1.67683
58.3949,81.5162,5.33995,0,9.66151,1.18074,0.682581,10.6402,-12.5,-18.4451,-26.5608,-2.89797,29.5593,4.96951,1.21951,1.67683
58.4114,81.3394,3.16796,0,9.60882,1.39151,0.673001,11.4329,-9.60366,-18.5366,-39.4412,-16.9615,-46.6909,-49.0244,-61.25,4.87805
58.4289,81.22,3.18016,0,10.5668,1.38432,0.526904,7.04268,-4.57317,-14.6341,-0.0718506,0.129331,0.00479004,4.96951,1.21951,1.67683
58.4347,81.0903,5.0381,0,10.0279,1.3484,0.888552,7.86585,-6.37195,-15.5183,-24.616,-1.0107,29.4444,4.96951,1.21951,1.67683
58.4528,80.992,5.05029,0,9.96328,1.17595,0.481399,7.65244,-5.06098,-14.4817,-0.0718506,0.129331,0.00479004,4.96951,1.21951,1.67683
58.4585,80.85,4.85028,0,9.29028,1.47533,1.17116,2.34756,-8.53659,-14.4512,-25.6411,-2.32556,0.00239502,4.93902,1.18902,1.64634
58.4749,80.7262,2.69769,0,9.69983,1.33882,0.0311353,-1.92073,-9.7561,-15.2744,-39.4412,-16.9615,-46.6909,-49.0244,-61.25,4.87805
58.4921,80.6004,2.70988,0,10.0375,1.37953,0.361648,-1.89024,-8.68902,-15.7927,-0.0718506,0.129331,0.00479004,4.96951,1.21951,1.67683
58.498,80.426,4.63777,0,9.93215,1.56634,-0.0311353,0.487805,-10.4878,-18.689,-24.5681,-4.77567,30.776,4.96951,1.21951,1.67683
58.5152,80.2433,4.64997,0,9.74773,1.5879,0.256267,-0.0609756,-9.60366,-19.2988,-0.0718506,0.129331,0.00479004,4.96951,1.21951,1.67683
58.521,80.0806,6.50891,0,10.119,1.2502,-0.443079,-1.85976,-9.02439,-22.1341,-23.9837,-5.58998,30.2587,4.93902,1.18902,1.64634
58.5374,79.9121,4.29064,0,9.86988,1.28373,-0.256267,-2.9878,-6.15854,-22.3171,-39.4412,-16.9615,-46.6909,-49.0244,-61.25,4.87805
58.5548,79.7285,4.30283,0,10.1142,1.40348,-0.61552,0.0609756,-7.65244,-23.2012,-0.0718506,0.129331,0.00479004,4.96951,1.21951,1.67683
58.5609,79.5001,6.27988,0,10.1788,1.98547,-0.462239,3.93293,-6.52439,-21.7378,-22.5755,-5.28341,31.3412,4.96951,1.21951,1.67683
58.578,79.2774,6.29208,0,10.2339,2.04774,-0.423918,2.83537,-5.21341,-21.0671,-0.0718506,0.129331,0.00479004,4.96951,1.21951,1.67683
58.5841,79.0621,8.23677,0,9.92736,2.0693,-0.344883,4.84756,-3.07927,-19.8171,-22.0965,-3.64522,32.0382,4.93902,1.18902,1.64634
58.6004,78.8603,5.95007,0,9.66869,1.95673,-0.323328,3.90244,-3.47561,-19.5732,-39.4412,-16.9615,-46.6909,-49.0244,-61.25,4.87805
58.6177,78.6552,5.96227,0,9.30944,1.89446,-0.193997,2.34756,-2.04268,-20.1829,-0.0718506,0.129331,0.00479004,4.96951,1.21951,1.67683
58.6235,78.4133,7.8896,0,9.6184,2.16989,-0.277822,2.07317,-3.84146,-21.8902,-23.2748,-3.23328,32.7974,4.96951,1.21951,1.67683
58.6409,78.1643,7.9018,0,9.84353,2.2585,-0.241897,2.0122,-3.5061,-22.6829,-0.0718506,0.129331,0.00479004,4.96951,1.21951,1.67683
58.6469,77.8935,9.77249,0,9.91299,2.42615,-0.328118,0.914634,-2.10366,-23.7195,-23.1598,-2.40939,33.2572,4.93902,1.18902,1.64634
58.6635,77.6384,7.42498,0,9.67348,2.22258,-0.146096,1.79878,-2.19512,-24.3293,-39.4412,-16.9615,-46.6909,-49.0244,-61.25,4.87805
58.6809,77.3795,7.43717,0,9.54655,2.25371,0.0143701,1.85976,-3.81098,-24.5427,-0.0718506,0.129331,0.00479004,4.96951,1.21951,1.67683
58.6868,77.1105,9.40853,0,9.99202,2.54351,0.292192,3.10976,-4.2378,-24.0549,-20.851,-3.47278,32.3855,4.96951,1.21951,1.67683
58.7055,76.8164,7.07543,0,9.616,2.76625,0.426313,-1.09756,0.0914634,-23.5671,-39.4412,-16.9615,-46.6909,-49.0244,-61.25,4.87805
58.7231,76.5307,7.08763,0,9.39806,2.54112,0.0143701,-1.55488,-1.61585,-25.1829,-0.0718506,0.129331,0.00479004,4.96951,1.21951,1.67683
58.7291,76.2195,9.1022,0,9.69504,2.68961,-0.155676,0.548781,-2.77439,-27.5915,-21.5216,-3.02251,34.3973,4.96951,1.21951,1.67683
58.7456,75.9142,6.78123,0,9.87227,2.72314,-0.258662,1.43293,0.0914634,-27.8049,-39.4412,-16.9615,-46.6909,-49.0244,-61.25,4.87805
58.7628,75.6027,6.79342,0,9.90101,2.82133,-0.0143701,3.32317,1.95122,-28.0793,-0.0718506,0.129331,0.00479004,4.96951,1.21951,1.67683
58.7686,75.2775,8.83774,0,9.49386,2.75188,-0.0455054,5.57927,-1.12805,-29.5732,-20.9181,-2.67763,34.0332,4.96951,1.21951,1.67683
58.7858,74.9536,8.84993,0,9.62558,2.81654,0.00479004,6.21951,-4.84756,-29.8171,-0.0718506,0.129331,0.00479004,4.96951,1.21951,1.67683
58.7917,74.6327,10.8379,0,9.62558,2.89079,-0.196392,1.21951,-2.46951,-29.3293,-20.5062,-2.77343,34.2057,254.695,1.18902,1.64634
58.8082,74.3175,8.44822,0,9.68546,2.92432,-0.376018,0.243902,-2.43902,-29.2378,-39.4412,-16.9615,-46.6909,-49.0244,-61.25,4.87805
58.8255,73.9998,8.46041,0,9.62558,3.05125,-0.155676,0.213415,-2.40854,-28.5366,-0.0718506,0.129331,0.00479004,4.96951,1.21951,1.67683
58.8316,73.6222,10.4268,0,9.49625,3.37219,-0.0598755,4.81707,-2.83537,-31.2805,-21.7899,-3.40572,35.0391,4.96951,1.21951,1.67683
58.8489,73.2209,10.439,0,9.41003,3.54942,0.0814307,5.15244,-3.71951,-32.1951,-0.0718506,0.129331,0.00479004,4.96951,1.21951,1.67683
58.8546,72.812,12.3929,0,9.73575,3.57816,-0.172441,5.30488,-3.68902,-34.7866,-21.4258,-2.04535,36.7899,4.93902,1.18902,1.64634
58.8711,72.3958,9.94159,0,9.65911,3.57816,-0.0455054,1.52439,-4.69512,-36.0671,-39.4412,-16.9615,-46.6909,-49.0244,-61.25,4.87805
58.8885,71.9927,9.95378,0,9.97765,3.52786,-0.241897,0.487805,-2.65244,-37.3171,-0.0718506,0.129331,0.00479004,4.96951,1.21951,1.67683
58.8944,71.5532,11.9174,0,9.84353,3.77455,-0.277822,0.884146,0.487805,-38.7805,-21.6653,-2.32317,36.8498,4.96951,1.21951,1.67683
58.9116,71.0986,11.9296,0,9.64953,3.83682,-0.162861,1.79878,-1.12805,-39.7866,-0.0718506,0.129331,0.00479004,4.96951,1.21951,1.67683
58.9173,70.613,13.8627,0,9.03641,3.81048,-0.193997,3.44512,-3.5061,-41.4634,-20.6882,-2.28485,36.9432,4.93902,1.18902,1.64634
58.934,70.0964,11.3533,0,8.69153,3.8943,-0.232317,2.59146,-3.68902,-43.0183,-39.4412,-16.9615,-46.6909,-49.0244,-61.25,4.87805
58.9514,69.5965,11.3654,0,9.137,3.85838,-0.60115,-2.71341,-6.61585,-44.9085,-0.0718506,0.129331,0.00479004,4.96951,1.21951,1.67683
58.9571,69.1135,13.3816,0,9.91299,4.22002,-0.541274,-2.16463,-6.09756,-43.872,-18.5901,-2.75427,35.384,4.96951,1.21951,1.67683
58.9743,68.6405,13.3938,0,9.89143,4.24637,-0.462239,-2.04268,-3.29268,-43.4756,-0.0718506,0.129331,0.00479004,4.96951,1.21951,1.67683
58.9801,68.1332,15.3468,0,9.39566,4.25116,-0.481399,0.792683,-5.67073,-45.6707,-18.4656,-2.85965,35.8055,4.93902,1.18902,1.64634
58.9966,67.6265,12.7785,0,9.10347,4.12422,-0.304167,2.28659,-8.23171,-46.5854,-39.4412,-16.9615,-46.6909,-49.0244,-61.25,4.87805
59.0138,67.1202,12.7907,0,8.76098,3.94939,-0.407153,4.84756,-5.57927,-47.8049,-0.0718506,0.129331,0.00479004,4.96951,1.21951,1.67683
59.0196,66.5809,14.821,0,8.35622,3.84401,-0.65384,2.43902,-0.945122,-51.311,-17.2777,-2.18905,35.5277,4.96951,1.21951,1.67683
59.037,66.0576,14.8332,0,8.59333,3.76018,-0.64905,3.62805,-3.23171,-52.9573,-0.0718506,0.129331,0.00479004,4.96951,1.21951,1.67683
59.0427,65.5099,16.8114,0,9.11784,4.07153,-0.603545,6.12805,-6.09756,-55.6402,-16.5017,-1.88249,35.0583,4.93902,1.18902,1.64634
59.0592,64.9539,14.1851,0,9.29986,4.3302,-0.704136,6.15854,-9.20732,-55.7622,-39.4412,-16.9615,-46.6909,-49.0244,-61.25,4.87805
59.0765,64.3807,14.1973,0,9.01725,4.5697,-0.198787,5.36585,-9.14634,-54.7561,-0.0718506,0.129331,0.00479004,4.96951,1.21951,1.67683
59.0823,63.7794,16.2184,0,8.39454,4.65113,-0.385598,6.82927,-7.28659,-54.4817,-16.2143,-2.16989,35.1541,4.96951,1.21951,1.67683
59.0998,63.1779,16.2306,0,8.38257,4.77327,-0.292192,4.66463,-4.54268,-54.3598,-0.0718506,0.129331,0.00479004,4.96951,1.21951,1.67683
59.1057,62.5672,18.1973,0,8.34185,4.77088,-0.670605,2.46951,-5.91463,-56.311,-15.2946,-2.89797,34.1961,4.93902,1.18902,1.64634
59.1223,61.9459,15.5162,0,8.43765,5.01517,-0.251477,1.12805,-2.86585,-56.6768,-39.4412,-16.9615,-46.6909,-49.0244,-61.25,4.87805
59.1398,61.3254,15.5284,0,8.55262,5.07984,-0.550855,0.579268,-3.68902,-57.8963,-0.0718506,0.129331,0.00479004,4.96951,1.21951,1.67683
59.1459,60.7088,17.5527,0,8.78972,5.61153,-0.162861,1.98171,-1.28049,-55,-14.6815,-3.1758,34.0141,4.96951,1.21951,1.67683
59.1622,60.1125,14.8971,0,8.67237,5.68578,-0.193997,3.90244,2.86585,-52.7744,-39.4412,-16.9615,-46.6909,-49.0244,-61.25,4.87805
59.1794,59.5205,14.9093,0,8.13109,5.54926,-0.143701,4.87805,-4.26829,-51.372,-0.0718506,0.129331,0.00479004,4.96951,1.21951,1.67683
59.1852,58.9011,17.0011,0,7.3575,5.25707,0.0431104,3.93293,-6.98171,-52.8659,-14.0875,-2.44771,34.4164,4.96951,1.21951,1.67683
59.2024,58.2831,17.0133,0,7.36708,5.3385,0.0574805,2.19512,-9.11585,-53.2012,-0.0718506,0.129331,0.00479004,4.96951,1.21951,1.67683
59.2083,57.6749,19.0267,0,7.85087,5.97078,-0.225132,-0.518293,-6.58537,-50.7622,-14.212,-2.20821,34.9338,4.93902,1.18902,1.64634
59.2246,57.1215,16.3127,0,8.3179,6.09053,-0.380808,-0.640244,-3.75,-48.5366,-39.4412,-16.9615,-46.6909,-49.0244,-61.25,4.87805
59.2421,56.5805,16.3249,0,8.29156,6.25819,-0.249082,-1.18902,-3.9939,-46.7073,-0.0718506,0.129331,0.00479004,4.96951,1.21951,1.67683
59.2478,56.0304,18.3161,0,7.83411,6.06658,-0.244292,-1.89024,0.27439,-47.2866,-15.1413,-3.08958,35.0104,4.96951,1.21951,1.67683
59.2656,55.4653,18.3283,0,7.60898,6.07856,-0.311353,-2.40854,0.853659,-48.1707,-0.0718506,0.129331,0.00479004,4.96951,1.21951,1.67683
59.2716,54.8449,20.205,0,7.23535,6.2031,-0.498164,-0.457317,-1.21951,-50.9146,-15.2084,-2.34233,33.7243,4.93902,1.18902,1.64634
59.288,54.2279,17.4444,0,7.27367,6.3492,-0.467029,1.15854,-2.68293,-50.7927,-39.4412,-16.9615,-46.6909,-49.0244,-61.25,4.87805
59.3054,53.6383,17.4566,0,7.61616,6.56954,-0.56762,-3.35366,-4.7561,-49.939,-0.0718506,0.129331,0.00479004,4.96951,1.21951,1.67683
59.3115,53.1221,19.321,0,7.94907,6.53361,-0.512534,0.609756,-3.5061,-46.4329,-16.6837,-2.99377,35.0487,4.96951,1.21951,1.67683
59.3287,52.6193,19.3332,0,7.84369,6.55996,-0.311353,-0.0914634,-3.29268,-45.122,-0.0718506,0.129331,0.00479004,4.96951,1.21951,1.67683
59.3346,52.1103,21.0715,0,7.28086,6.35399,-0.426313,0.152439,-1.95122,-44.3293,-16.7699,-2.64889,33.2501,4.93902,1.18902,1.64634
59.3511,51.5639,18.2766,0,7.03178,6.52164,-0.402363,-1.61585,-4.45122,-45.6402,-39.4412,-16.9615,-46.6909,-49.0244,-61.25,4.87805
59.3683,51.0054,18.2888,0,7.07728,6.59588,-0.423918,-0.640244,-4.81707,-47.7134,-0.0718506,0.129331,0.00479004,4.96951,1.21951,1.67683
59.3741,50.4077,19.9774,0,7.04854,6.91921,-0.179626,-0.365854,-4.90854,-49.8171,-17.9866,-3.64522,32.3663,4.96951,1.21951,1.67683
59.3913,49.8093,19.9896,0,7.10842,7.07489,-0.0502954,-0.914634,-4.35976,-50.3049,-0.0718506,0.129331,0.00479004,4.96951,1.21951,1.67683
59.397,49.221,21.6081,0,7.00064,6.90963,-0.445474,0.640244,-4.5122,-50.9756,-18.4943,-3.4632,33.1806,4.93902,1.18902,1.64634
59.4135,48.6548,18.7919,0,7.23535,6.99585,-0.502954,1.95122,-7.19512,-51.128,-39.4412,-16.9615,-46.6909,-49.0244,-61.25,4.87805
59.4307,48.0807,18.8041,0,7.1635,7.0701,-0.608335,2.43902,-4.5122,-51.8902,-0.0718506,0.129331,0.00479004,4.96951,1.21951,1.67683
59.4365,47.5751,20.4222,0,7.26888,7.08926,-0.479004,1.82927,-0.0609756,-46.7683,-17.68,-1.80584,30.2204,4.96951,1.21951,1.67683
59.4539,47.0939,20.4344,0,7.22817,6.91203,-0.447869,0.914634,4.14634,-46.4634,-0.0718506,0.129331,0.00479004,4.96951,1.21951,1.67683
59.4597,46.5888,22.0054,0,6.71563,6.83299,-0.589175,-1.09756,14.4817,-46.25,-18.3602,-1.13524,31.9448,4.93902,1.18902,1.64634
59.4761,46.0642,19.1734,0,6.46416,6.93837,-0.780776,-0.27439,13.2317,-46.1585,-39.4412,-16.9615,-46.6909,-49.0244,-61.25,4.87805
59.4933,45.5358,19.1856,0,6.47374,7.15392,-0.661025,2.80488,6.98171,-45.9146,-0.0718506,0.129331,0.00479004,4.96951,1.21951,1.67683
59.499,45.0145,20.6713,0,6.52403,7.30241,-0.514929,5.12195,2.68293,-45.5183,-20.2667,-1.7771,30.8622,4.96951,1.21951,1.67683
59.5164,44.5267,20.6835,0,6.70126,7.23535,-0.548459,5.30488,2.89634,-45.2744,-0.0718506,0.129331,0.00479004,4.96951,1.21951,1.67683
59.5224,44.0738,22.0623,0,6.7324,7.16111,-0.433499,5.79268,3.53659,-43.5671,-19.7302,-2.21779,28.7163,4.93902,1.18902,1.64634
59.5389,43.6292,19.2281,0,6.61025,7.16829,-0.373623,5.30488,6.85976,-42.5305,-39.4412,-16.9615,-46.6909,-49.0244,-61.25,4.87805
59.5561,43.1615,19.2403,0,6.11209,7.05094,-0.59636,3.20122,11.2805,-42.1951,-0.0718506,0.129331,0.00479004,4.96951,1.21951,1.67683
59.5619,42.6125,20.6732,0,5.61632,7.32157,-0.55804,1.09756,10.5488,-44.4512,-20.2092,-2.30401,29.3294,4.96951,1.21951,1.67683
59.5791,42.0608,20.6854,0,5.67141,7.38385,-0.627495,1.34146,7.9878,-45.9146,-0.0718506,0.129331,0.00479004,4.96951,1.21951,1.67683
59.5848,41.4913,21.9672,0,5.74565,7.67604,-0.265847,3.41463,3.35366,-47.4085,-20.9947,-2.46687,27.9211,4.93902,1.18902,1.64634
59.6012,40.936,19.1368,0,5.80553,7.81255,-0.160466,3.41463,2.46951,-46.7073,-39.4412,-16.9615,-46.6909,-49.0244,-61.25,4.87805
59.619,40.4081,19.149,0,5.95881,7.92751,-0.292192,2.7439,1.67683,-45.7012,-0.0718506,0.129331,0.00479004,4.96951,1.21951,1.67683
59.6248,39.9092,20.3721,0,6.0115,7.97542,-0.419128,2.89634,0.884146,-43.9634,-23.4089,-2.67763,27.9403,4.96951,1.21951,1.67683
59.6419,39.4245,20.3843,0,6.00192,7.96344,-0.342488,2.34756,1.12805,-43.5366,-0.0718506,0.129331,0.00479004,4.96951,1.21951,1.67683
59.6477,38.9094,21.4416,0,5.46304,8.02571,-0.232317,1.46341,6.06707,-41.9817,-24.5106,-1.94955,26.3668,4.93902,1.18902,1.64634
59.6641,38.3857,18.632,0,5.1948,8.01853,-0.153281,0.518293,3.71951,-41.25,-39.4412,-16.9615,-46.6909,-49.0244,-61.25,4.87805
59.6814,37.8275,18.6442,0,4.7613,8.04248,-0.148491,-1.79878,0.640244,-41.128,-0.0718506,0.129331,0.00479004,4.96951,1.21951,1.67683
59.6871,37.1906,19.6761,0,4.27032,7.99937,-0.277822,-1.0061,-8.65854,-45.122,-26.465,-1.75794,26.1967,4.96951,1.21951,1.67683
59.7043,36.5663,19.6883,0,4.3781,7.98739,-0.263452,-0.518293,-12.2256,-46.4329,-0.0718506,0.129331,0.00479004,4.96951,1.21951,1.67683
59.71,35.9251,20.6298,0,4.6176,8.09756,-0.172441,-2.2561,-21.0976,-51.4024,-27.0589,-2.32317,25.6507,4.93902,1.18902,1.64634
59.7264,35.32,17.8523,0,4.99601,7.87003,-0.387993,-2.28659,-23.9939,-54.5732,-39.4412,-16.9615,-46.6909,-49.0244,-61.25,4.87805
59.7436,34.7388,17.8645,0,5.25707,7.9347,-0.457449,-4.02439,-21.3415,-55.6402,-0.0718506,0.129331,0.00479004,4.96951,1.21951,1.67683
59.7493,34.212,18.8428,0,5.62111,8.39454,-0.65863,-5.27439,-16.7073,-51.8598,-26.1584,-2.26569,24.0316,4.96951,1.21951,1.67683
59.7669,33.6992,18.855,0,5.56603,8.59573,-0.704136,-4.2378,-13.4756,-49.6951,-0.0718506,0.129331,0.00479004,4.96951,1.21951,1.67683
59.7729,33.1813,19.7418,0,5.06068,8.73224,-0.874182,-4.7561,-5.03049,-45.4878,-26.829,-1.6813,23.5335,4.93902,1.18902,1.64634
59.7895,32.6451,16.9995,0,4.77567,8.53106,-0.845442,-3.29268,-1.95122,-46.6768,-39.4412,-16.9615,-46.6909,-49.0244,-61.25,4.87805
59.8071,32.0905,17.0117,0,4.5194,8.33706,-0.795146,-0.335366,-6.37195,-48.0488,-0.0718506,0.129331,0.00479004,4.96951,1.21951,1.67683
59.8129,31.6076,17.832,0,5.12534,8.20294,-0.718506,-1.70732,-6.76829,-49.0854,-28.4193,-0.713716,21.9911,4.96951,1.21951,1.67683
59.8293,31.1426,15.1654,0,5.26665,8.28677,-0.474214,-4.02439,-2.83537,-49.1463,-39.4412,-16.9615,-46.6909,-49.0244,-61.25,4.87805
59.8465,30.6995,15.1776,0,5.27623,8.3203,-0.419128,-4.08537,-1.55488,-47.7439,-0.0718506,0.129331,0.00479004,4.96951,1.21951,1.67683
59.8522,30.2529,15.9598,0,4.91698,8.40891,-0.838257,-3.29268,2.53049,-44.7866,-28.9845,-0.981958,20.2475,4.96951,1.21951,1.67683
59.8696,29.8016,15.972,0,4.71819,8.40652,-0.967588,-1.89024,3.90244,-44.1159,-0.0718506,0.129331,0.00479004,4.96951,1.21951,1.67683
59.8754,29.2761,16.6333,0,4.07153,8.57417,-0.395178,-1.21951,2.95732,-44.6341,-30.3545,-0.608335,19.4715,4.93902,1.18902,1.64634
59.8918,28.7023,14.0141,0,3.7051,8.58854,-0.177231,-1.58537,-0.213415,-46.4329,-39.4412,-16.9615,-46.6909,-49.0244,-61.25,4.87805
59.9093,28.1182,14.0263,0,3.67875,8.64842,-0.304167,-3.01829,-5.85366,-48.0488,-0.0718506,0.129331,0.00479004,4.96951,1.21951,1.67683
59.9152,27.5939,14.7017,0,3.98771,8.72985,-0.280217,-2.77439,-8.53659,-46.2195,-30.8814,0.0910107,18.6189,4.96951,1.21951,1.67683
59.9326,27.0925,14.7139,0,4.02363,8.73224,-0.282612,-3.41463,-8.81098,-45.3354,-0.0718506,0.129331,0.00479004,4.96951,1.21951,1.67683
59.9383,26.6669,15.2787,0,4.35175,8.53106,-0.541274,0.762195,-6.46341,-43.2927,-31.3125,-0.177231,17.3447,4.93902,1.18902,1.64634
59.955,26.2395,12.7132,0,4.24637,8.68913,-0.608335,0.823171,-3.14024,-42.3476,-39.4412,-16.9615,-46.6909,-49.0244,-61.25,4.87805
59.9725,25.7856,12.7253,0,3.8943,8.81607,-0.608335,1.21951,-4.96951,-41.4024,-0.0718506,0.129331,0.00479004,4.96951,1.21951,1.67683
59.9783,25.2603,13.2826,0,3.38895,8.93821,-0.548459,0.0304878,-6.67683,-43.3537,-32.7208,-0.646655,16.5304,4.96951,1.21951,1.67683
59.9955,24.7496,13.2948,0,3.43685,8.93342,-0.637075,1.28049,-7.71341,-43.5061,-0.0718506,0.129331,0.00479004,4.96951,1.21951,1.67683
60.0014,24.2452,13.7748,0,3.40572,9.20166,-0.59636,1.18902,-6.06707,-42.4085,-33.832,-0.474214,16.0802,4.93902,1.18902,1.64634
60.0177,23.7863,11.2688,0,3.71468,9.1849,-0.61552,-0.243902,-4.90854,-42.2866,-39.4412,-16.9615,-46.6909,-49.0244,-61.25,4.87805
60.0351,23.3776,11.2809,0,3.92304,9.13221,-0.831072,-0.884146,-0.701219,-40.6098,-0.0718506,0.129331,0.00479004,4.96951,1.21951,1.67683
60.041,23.0054,11.7848,0,3.70749,9.137,-0.790356,-2.5,5.79268,-35.3354,-33.7746,-0.541274,15.0455,4.96951,1.21951,1.67683
60.0582,22.6389,11.797,0,3.56379,9.06754,-0.850232,-1.89024,7.53049,-34.2378,-0.0718506,0.129331,0.00479004,4.96951,1.21951,1.67683
60.0641,22.1825,12.1801,0,2.60818,8.98372,-0.514929,-0.579268,2.04268,-33.4146,-34.2919,-0.368833,13.4911,4.93902,1.18902,1.64634
60.0805,21.7232,9.73722,0,2.5483,8.90708,-0.399968,0.97561,-2.31707,-34.1768,-39.4412,-16.9615,-46.6909,-49.0244,-61.25,4.87805
60.0977,21.2705,9.74942,0,2.60099,8.87115,-0.342488,3.29268,-8.41463,-35.2134,-0.0718506,0.129331,0.00479004,4.96951,1.21951,1.67683
60.1035,20.8895,10.1471,0,3.11592,9.11784,-0.63947,-0.792683,-6.67683,-33.9634,-35.5948,-0.828677,12.8134,4.96951,1.21951,1.67683
60.1207,20.5416,10.1593,0,3.26441,9.13221,-0.66342,-1.43293,-4.60366,-33.0183,-0.0718506,0.129331,0.00479004,4.96951,1.21951,1.67683
60.1264,20.1999,10.4708,0,3.15903,9.31902,-0.845442,-2.7439,-5.21341,-31.1585,-35.6235,-1.17356,11.5967,4.93902,1.18902,1.64634
60.143,19.8758,8.09565,0,3.11832,9.27831,-0.936453,-1.15854,-5.33537,-29.7561,-39.4412,-16.9615,-46.6909,-49.0244,-61.25,4.87805
60.1602,19.5656,8.10784,0,2.95785,9.20885,-0.847837,0.0914634,0.731707,-27.439,-0.0718506,0.129331,0.00479004,4.96951,1.21951,1.67683
60.166,19.2028,8.4153,0,2.38304,9.39566,-0.66342,-0.731707,3.9939,-26.128,-37.0989,-0.799937,10.5525,4.96951,1.21951,1.67683
60.1832,18.8252,8.42749,0,2.23216,9.44117,-0.55325,-0.823171,2.10366,-26.4939,-0.0718506,0.129331,0.00479004,4.96951,1.21951,1.67683
60.189,18.4699,8.6718,0,2.52196,9.39327,-0.910107,0.914634,-4.87805,-28.5061,-37.415,-0.876577,9.74773,4.93902,1.18902,1.64634
60.2055,18.0972,6.36787,0,2.39981,9.42919,-0.898132,0.609756,-7.13415,-29.4817,-39.4412,-16.9615,-46.6909,-49.0244,-61.25,4.87805
60.2228,17.7409,6.38007,0,2.51717,9.56331,-0.838257,-0.121951,-1.31098,-29.5122,-0.0718506,0.129331,0.00479004,4.96951,1.21951,1.67683
60.2285,17.4256,6.66268,0,2.61536,9.32142,-0.787961,0.548781,6.18902,-27.9573,-37.4246,-0.761616,9.00048,4.96951,1.21951,1.67683
60.2458,17.1173,6.67487,0,2.57465,9.35016,-0.795146,1.06707,6.89024,-27.3171,-0.0718506,0.129331,0.00479004,4.96951,1.21951,1.67683
60.2516,16.8007,6.8971,0,2.3088,9.55613,-0.641865,1.92073,5.39634,-25.0915,-37.7886,-0.723296,8.23408,4.93902,1.18902,1.64634
60.2684,16.4862,4.66345,0,2.22976,9.67109,-0.708926,0.0914634,5.39634,-24.2988,-39.4412,-16.9615,-46.6909,-49.0244,-61.25,4.87805
60.286,16.1779,4.67565,0,2.15791,9.6639,-0.787961,-0.304878,12.622,-23.5061,-0.0718506,0.129331,0.00479004,4.96951,1.21951,1.67683
60.2922,15.8325,4.92586,0,1.72681,9.45075,-0.433499,0.640244,15.4573,-23.3537,-37.8748,-1.52802,7.36229,4.96951,1.21951,1.67683
60.3085,15.4542,2.77028,0,1.45857,9.51302,-0.479004,1.18902,10.8841,-24.0854,-39.4412,-16.9615,-46.6909,-49.0244,-61.25,4.87805
60.326,15.0781,2.78247,0,1.52323,9.45075,-0.5772,1.85976,7.0122,-25.5183,-0.0718506,0.129331,0.00479004,4.96951,1.21951,1.67683
60.3317,14.7688,3.03168,0,1.89207,9.68306,-0.656235,1.03659,7.31707,-23.3537,-38.2676,-0.723296,6.11688,4.96951,1.21951,1.67683
60.349,14.4743,3.04387,0,1.84656,9.65193,-0.65384,0.701219,10.1829,-22.0122,-0.0718506,0.129331,0.00479004,4.96951,1.21951,1.67683
60.3548,14.1995,3.23378,0,1.67891,9.64474,-0.536484,0.670732,14.1768,-18.6585,-38.6221,-0.866997,5.32173,4.93902,1.18902,1.64634
60.3715,13.9265,1.1452,0,1.66693,9.72857,-0.632285,1.18902,11.5549,-18.7195,-39.4412,-16.9615,-46.6909,-49.0244,-61.25,4.87805
60.3891,13.6392,1.1574,0,1.49689,9.64235,-0.651445,1.79878,10.061,-18.9024,-0.0718506,0.129331,0.00479004,4.96951,1.21951,1.67683
60.3949,13.3765,1.40485,0,1.6334,9.55134,-0.665815,0.97561,10.6402,-18.7805,-40.0974,-0.704136,5.21635,4.96951,1.21951,1.67683
60.4114,13.1458,-0.611306,0,1.7316,9.51781,-0.833467,1.03659,13.6585,-17.2866,-39.4412,-16.9615,-46.6909,-49.0244,-61.25,4.87805
60.4287,12.9166,-0.599111,0,1.48731,9.49386,-0.689766,1.70732,12.5915,-14.7256,-0.0718506,0.129331,0.00479004,4.96951,1.21951,1.67683
60.4344,12.6494,-0.367781,0,1.06578,9.5705,-0.696951,2.80488,7.92683,-13.872,-40.2028,0.00479004,3.69312,4.96951,1.21951,1.67683
60.4516,12.3838,-0.355586,0,1.09692,9.57289,-0.66342,3.07927,6.31098,-14.6341,-0.0718506,0.129331,0.00479004,4.96951,1.21951,1.67683
60.4575,12.1486,-0.154546,0,1.42025,9.78126,-0.792751,3.14024,4.26829,-15.5793,-40.3752,-0.0910107,3.33866,4.93902,1.18902,1.64634
60.474,11.9349,-2.10895,0,1.48012,9.87227,-0.723296,2.40854,9.17683,-14.4207,-39.4412,-16.9615,-46.6909,-49.0244,-61.25,4.87805
60.4913,11.74,-2.09675,0,1.45617,9.7142,-0.483794,3.10976,13.9939,-12.9268,-0.0718506,0.129331,0.00479004,4.96951,1.21951,1.67683
60.497,11.5235,-1.87239,0,1.20709,9.73336,-0.220342,0.97561,14.2683,-12.561,-39.1777,-0.761616,2.44771,4.96951,1.21951,1.67683
60.5142,11.2994,-1.86019,0,1.14482,9.72857,-0.292192,1.18902,13.0488,-13.0488,-0.0718506,0.129331,0.00479004,4.96951,1.21951,1.67683
60.52,11.0564,-1.71735,0,1.03704,9.61361,-0.486189,1.43293,11.6768,-14.2988,-38.9765,-0.205972,1.19272,4.93902,1.18902,1.64634
60.5365,10.8096,-3.60987,0,1.02507,9.64474,-0.57241,1.67683,10.3963,-15,-39.4412,-16.9615,-46.6909,-49.0244,-61.25,4.87805
60.5537,10.5857,-3.59767,0,1.13524,9.69025,-0.64426,1.79878,10.7317,-14.4207,-0.0718506,0.129331,0.00479004,4.96951,1.21951,1.67683
60.5595,10.3925,-3.37903,0,1.25739,9.66869,-0.661025,1.18902,10.3963,-13.2317,-39.9537,-0.253872,1.346,4.96951,1.21951,1.67683
60.5769,10.2096,-3.36684,0,1.27655,9.69025,-0.622705,1.52439,10.7317,-12.7744,-0.0718506,0.129331,0.00479004,4.96951,1.21951,1.67683
60.5826,10.0537,-3.17809,0,1.28613,9.71899,-0.467029,1.18902,8.96341,-10.4573,-39.6376,-0.349673,0.972378,4.93902,1.18902,1.64634
60.5991,9.90245,-5.01276,0,1.18793,9.73096,-0.416733,0.945122,9.96951,-9.11585,-39.4412,-16.9615,-46.6909,-49.0244,-61.25,4.87805
60.6164,9.73884,-5.00057,0,1.0083,9.69743,-0.419128,0.731707,10.4268,-8.59756,-0.0718506,0.129331,0.00479004,4.96951,1.21951,1.67683
60.6221,9.5366,-4.79637,0,0.66821,9.40045,-0.428708,0.304878,7.7439,-9.05488,-38.9765,-0.0239502,0.110171,4.96951,1.21951,1.67683
60.6393,9.33267,-4.78418,0,0.63947,9.45793,-0.570015,0.518293,7.31707,-9.2378,-0.0718506,0.129331,0.00479004,4.96951,1.21951,1.67683
60.6452,9.1364,-4.59857,0,0.843047,9.83874,-0.66821,1.58537,6.28049,-10.9756,-39.1107,0.598755,-0.0622705,4.93902,1.18902,1.64634
60.6617,8.96155,-6.37698,0,0.998723,10.0639,-0.546064,1.98171,6.70732,-10.7622,-39.4412,-16.9615,-46.6909,-49.0244,-61.25,4.87805
60.6791,8.80711,-6.36479,0,1.08973,10.0567,-0.548459,1.67683,7.80488,-10.0915,-0.0718506,0.129331,0.00479004,4.96951,1.21951,1.67683
60.6848,8.67837,-6.1962,0,1.25499,9.8579,-0.730481,1.40244,12.2256,-9.96951,-40.3369,-0.790356,-1.48012,4.96951,1.21951,1.67683
60.702,8.55576,-6.18401,0,1.2502,9.78126,-0.632285,1.55488,14.878,-9.66463,-0.0718506,0.129331,0.00479004,4.96951,1.21951,1.67683
60.7078,8.38663,-6.05383,0,0.771196,9.78366,-0.529299,1.0061,17.3476,-8.9939,-39.9346,-1.08734,-2.01661,4.93902,1.18902,1.64634
60.7243,8.17492,-7.77462,0,0.380808,9.80281,-0.450264,1.15854,14.2073,-9.02439,-39.4412,-16.9615,-46.6909,-49.0244,-61.25,4.87805
60.7416,7.94606,-7.76242,0,0.215552,9.80042,-0.383203,0.396341,9.96951,-9.2378,-0.0718506,0.129331,0.00479004,4.96951,1.21951,1.67683
60.7474,7.73085,-7.59495,0,0.342488,9.60882,-0.378413,0.121951,4.72561,-9.90854,-39.3981,-0.186812,-2.42855,4.96951,1.21951,1.67683
60.7646,7.52506,-7.58276,0,0.390388,9.48428,-0.373623,0.27439,3.14024,-10.0305,-0.0718506,0.129331,0.00479004,4.96951,1.21951,1.67683
60.7704,7.35771,-7.45453,0,0.661025,9.75012,-0.371228,0.365854,-0.609756,-9.63415,-39.9633,0.435894,-3.03209,4.93902,1.18902,1.64634
60.7869,7.22649,-9.11985,0,0.912502,10.0184,-0.476609,-0.0914634,-0.884146,-8.9939,-39.4412,-16.9615,-46.6909,-49.0244,-61.25,4.87805
60.8042,7.11652,-9.10766,0,1.01549,10.1429,-0.62989,-0.762195,-1.28049,-8.14024,-0.0718506,0.129331,0.00479004,4.96951,1.21951,1.67683
60.81,7.0211,-8.95855,0,1.08973,10.0064,-0.864602,-0.609756,2.80488,-7.89634,-40.768,-1.61424,-3.80808,4.96951,1.21951,1.67683
60.8274,6.92716,-8.94636,0,1.07057,9.84114,-0.732876,0.121951,4.84756,-7.92683,-0.0718506,0.129331,0.00479004,4.96951,1.21951,1.67683
60.8331,6.81938,-8.80834,0,0.996328,9.616,-0.716111,1.12805,9.48171,-8.93293,-39.4747,-1.56634,-3.76976,4.93902,1.18902,1.64634
60.8495,6.70306,-10.42,0,0.926873,9.73096,-0.701741,1.03659,10.3354,-9.05488,-39.4412,-16.9615,-46.6909,-49.0244,-61.25,4.87805
60.8668,6.58278,-10.4079,0,0.874182,9.74533,-0.716111,1.43293,10.0305,-9.05488,-0.0718506,0.129331,0.00479004,4.96951,1.21951,1.67683
60.8725,6.46032,-10.2093,0,0.802332,9.72138,-0.723296,1.46341,11.7988,-8.68902,-38.852,0.292192,-3.66438,4.96951,1.21951,1.67683
60.89,6.34559,-10.1971,0,0.857417,9.74773,-0.713716,1.31098,12.6829,-8.78049,-0.0718506,0.129331,0.00479004,4.96951,1.21951,1.67683
60.8957,6.22775,-10.0012,0,0.811912,9.81958,-0.673001,0.762195,12.0427,-8.71951,-40.2603,-0.158071,-3.69552,4.93902,1.18902,1.64634
60.9123,6.12123,-11.5657,0,0.850232,9.9058,-0.754431,1.40244,10.8537,-8.17073,-39.4412,-16.9615,-46.6909,-49.0244,-61.25,4.87805
60.9297,6.01222,-11.5535,0,0.814307,9.89383,-0.670605,2.22561,9.45122,-8.23171,-0.0718506,0.129331,0.00479004,4.96951,1.21951,1.67683
60.9358,5.92275,-11.3515,0,0.869392,9.72138,-0.799937,1.82927,10.8232,-7.28659,-39.2065,-0.0910107,-4.43079,4.96951,1.21951,1.67683
60.953,5.83204,-11.3394,0,0.826282,9.66869,-0.684976,2.04268,11.3415,-7.13415,-0.0718506,0.129331,0.00479004,4.96951,1.21951,1.67683
60.9591,5.74717,-11.097,0,0.821492,9.65672,-0.56283,2.34756,10.5183,-6.67683,-39.4556,-0.301772,-3.59971,4.93902,1.18902,1.64634
60.9759,5.66776,-12.6181,0,0.783171,9.75012,-0.574805,2.28659,9.81707,-5.73171,-39.4412,-16.9615,-46.6909,-49.0244,-61.25,4.87805
60.9931,5.60641,-12.6059,0,0.857417,9.77168,-0.62989,2.07317,9.05488,-4.90854,-0.0718506,0.129331,0.00479004,4.96951,1.21951,1.67683
60.9989,5.55441,-12.4051,0,0.855022,9.69264,-0.747246,3.04878,12.0732,-4.11585,-39.8196,-0.138911,-5.26425,4.96951,1.21951,1.67683
61.0156,5.49212,-13.8744,0,0.756826,9.65911,-0.646655,2.71341,13.0488,-4.08537,-39.4412,-16.9615,-46.6909,-49.0244,-61.25,4.87805
61.0329,5.43469,-13.8622,0,0.775986,9.6184,-0.759221,2.62195,13.7195,-3.9939,-0.0718506,0.129331,0.00479004,4.96951,1.21951,1.67683
61.0387,5.40709,-13.5906,0,0.946033,9.7597,-0.869392,3.2622,14.6341,-3.04878,-40.6243,-0.617915,-4.98643,4.96951,1.21951,1.67683
61.056,5.38898,-13.5784,0,0.986748,9.84114,-0.874182,2.31707,14.8171,-2.59146,-0.0718506,0.129331,0.00479004,4.96951,1.21951,1.67683
61.0619,5.35669,-13.3084,0,0.831072,10.0232,-0.735271,2.46951,13.6585,-1.55488,-40.1645,-0.560435,-4.75651,4.93902,1.18902,1.64634
61.0782,5.31482,-14.7419,0,0.759221,9.97765,-0.895737,1.85976,14.5732,-0.853659,-39.4412,-16.9615,-46.6909,-49.0244,-61.25,4.87805
61.0957,5.2423,-14.7297,0,0.593965,9.84353,-0.780776,2.59146,14.6037,-0.97561,-0.0718506,0.129331,0.00479004,4.96951,1.21951,1.67683
61.1015,5.11729,-14.4426,0,0.280217,9.77168,-0.61552,1.89024,13.9024,-1.28049,-39.7621,-0.771196,-5.21635,4.96951,1.21951,1.67683
61.12,4.99794,-14.4304,0,0.239502,9.79084,-0.680186,1.67683,12.378,-1.61585,-0.0718506,0.129331,0.00479004,4.96951,1.21951,1.67683
61.1376,4.86745,-14.4182,0,0.110171,9.90341,-0.62989,0.823171,6.46341,-1.79878,-0.0718506,0.129331,0.00479004,4.96951,1.21951,1.67683
61.1437,4.76164,-14.1908,0,0.229922,9.90101,-0.534089,0.457317,0.365854,-2.34756,-39.6759,-0.205972,-6.04982,4.96951,1.21951,1.67683
61.1611,4.66423,-14.1786,0,0.275427,9.86509,-0.608335,0.0304878,-1.28049,-2.31707,-0.0718506,0.129331,0.00479004,4.96951,1.21951,1.67683
61.1671,4.59388,-13.9412,0,0.457449,9.75731,-0.713716,-0.670732,-3.5061,-2.40854,-39.4364,-0.167651,-5.66662,4.93902,1.18902,1.64634
61.1836,4.54867,-15.3497,0,0.64426,9.82197,-0.759221,-1.18902,-4.7561,-2.68293,-39.4412,-16.9615,-46.6909,-49.0244,-61.25,4.87805
61.2012,4.55144,-15.3375,0,0.914897,9.88425,-0.862207,-1.40244,-6.7378,-1.70732,-0.0718506,0.129331,0.00479004,4.96951,1.21951,1.67683
61.2072,4.62597,-15.0677,0,1.01309,9.76689,-0.799937,-0.670732,-5.60976,-0.0914634,-39.3693,-0.502954,-5.89654,4.96951,1.21951,1.67683
61.2235,4.69029,-16.4315,0,1.00112,9.70941,-0.778381,-0.670732,-3.65854,0.365854,-39.4412,-16.9615,-46.6909,-49.0244,-61.25,4.87805
61.2409,4.74541,-16.4193,0,0.998723,9.60163,-0.711321,-1.21951,-2.43902,1.03659,-0.0718506,0.129331,0.00479004,4.96951,1.21951,1.67683
61.2467,4.76958,-16.1311,0,0.840652,9.49625,-0.704136,-0.884146,-2.0122,1.46341,-38.9957,-0.205972,-6.27016,4.96951,1.21951,1.67683
61.2641,4.78933,-16.1189,0,0.828677,9.51062,-0.675395,-0.853659,-3.56707,1.31098,-0.0718506,0.129331,0.00479004,4.96951,1.21951,1.67683
61.2699,4.79832,-15.8529,0,0.802332,9.78126,-0.711321,-0.396341,-6.0061,1.25,-38.9286,0.656235,-6.4426,4.93902,1.18902,1.64634
61.2865,4.81338,-17.1857,0,0.843047,9.87946,-0.622705,-0.182927,-6.67683,1.31098,-39.4412,-16.9615,-46.6909,-49.0244,-61.25,4.87805
61.3039,4.84734,-17.1735,0,0.962798,9.89383,-0.696951,-0.579268,-4.96951,1.0061,-0.0718506,0.129331,0.00479004,4.96951,1.21951,1.67683
61.3099,4.91366,-16.8353,0,1.10889,9.82916,-0.708926,-0.792683,-0.762195,0.731707,-39.0532,0.493374,-5.92528,4.96951,1.21951,1.67683
61.3271,4.99003,-16.8231,0,1.15679,9.83635,-0.694556,-0.609756,0.701219,0.609756,-0.0718506,0.129331,0.00479004,4.96951,1.21951,1.67683
61.3329,5.02547,-16.533,0,0.967588,9.68546,-0.799937,-1.21951,2.31707,0.792683,-39.0436,0.570015,-6.52882,4.93902,1.18902,1.64634
61.3494,5.04875,-17.8389,0,0.917292,9.66869,-0.787961,-0.945122,1.85976,0.27439,-39.4412,-16.9615,-46.6909,-49.0244,-61.25,4.87805
61.3667,5.04665,-17.8267,0,0.835862,9.69504,-0.673001,-0.579268,0.518293,0.396341,-0.0718506,0.129331,0.00479004,4.96951,1.21951,1.67683
61.3725,5.06517,-17.5031,0,0.917292,9.76449,-0.725691,-0.0304878,-0.518293,0.213415,-39.3598,0.292192,-6.69168,4.96951,1.21951,1.67683
61.3901,5.09094,-17.4909,0,0.950823,9.78126,-0.708926,0,-0.365854,0.548781,-0.0718506,0.129331,0.00479004,4.96951,1.21951,1.67683
61.3959,5.13246,-17.1865,0,1.00112,9.72617,-0.718506,-0.365854,-0.792683,0.335366,-39.3693,0.158071,-6.79946,4.93902,1.18902,1.64634
61.4123,5.15806,-18.4664,0,0.960403,9.78605,-0.740061,-0.701219,0.213415,0.304878,-39.4412,-16.9615,-46.6909,-49.0244,-61.25,4.87805
61.4296,5.15692,-18.4542,0,0.869392,9.8076,-0.65863,-0.731707,0,0.335366,-0.0718506,0.129331,0.00479004,4.96951,1.21951,1.67683
61.4355,5.15588,-18.1142,0,0.878972,9.75491,-0.65384,-1.03659,0.182927,-0.0609756,-39.7046,0.205972,-6.90245,4.96951,1.21951,1.67683
61.4529,5.1461,-18.102,0,0.859812,9.77647,-0.684976,-1.12805,0.884146,-0.396341,-0.0718506,0.129331,0.00479004,4.96951,1.21951,1.67683
61.4586,5.14611,-17.7831,0,0.900527,9.76449,-0.62031,-0.670732,0.0914634,-0.548781,-39.628,0.100591,-7.01741,4.93902,1.18902,1.64634
61.4752,5.11316,-19.0394,0,0.775986,9.77168,-0.58678,-1.03659,0.213415,-0.27439,-39.4412,-16.9615,-46.6909,-49.0244,-61.25,4.87805
61.4926,5.07042,-19.0272,0,0.720901,9.7621,-0.603545,-1.31098,-0.884146,-0.640244,-0.0718506,0.129331,0.00479004,4.96951,1.21951,1.67683
61.4986,5.04998,-18.673,0,0.826282,9.81,-0.65384,-1.34146,-2.9878,-1.31098,-39.331,0.100591,-6.98867,4.96951,1.21951,1.67683
61.5161,5.02908,-18.6608,0,0.833467,9.81958,-0.677791,-1.34146,-3.35366,-1.58537,-0.0718506,0.129331,0.00479004,4.96951,1.21951,1.67683
61.5218,5.02548,-18.2907,0,0.979563,9.78605,-0.737666,-1.4939,-4.02439,-2.10366,-39.2544,0.196392,-6.43542,4.93902,1.18902,1.64634
61.5383,5.02856,-19.5269,0,1.02746,9.73096,-0.711321,-1.28049,-3.47561,-2.19512,-39.4412,-16.9615,-46.6909,-49.0244,-61.25,4.87805
61.5556,5.0521,-19.5147,0,1.1065,9.66869,-0.771196,-1.15854,-2.53049,-1.76829,-0.0718506,0.129331,0.00479004,4.96951,1.21951,1.67683
61.5613,5.08272,-19.1179,0,1.1065,9.69025,-0.56283,-1.21951,-0.27439,-1.40244,-39.0628,0.110171,-6.52882,4.96951,1.21951,1.67683
61.5785,5.10602,-19.1057,0,1.02986,9.7597,-0.5772,-1.70732,-0.0304878,-0.97561,-0.0718506,0.129331,0.00479004,4.96951,1.21951,1.67683
61.5842,5.09887,-18.7302,0,0.929268,9.79803,-0.759221,-1.76829,-0.609756,-1.61585,-38.7562,0.244292,-6.56714,4.93902,1.18902,1.64634
61.6008,5.08741,-19.949,0,0.938848,9.71659,-0.764011,-1.70732,-1.12805,-2.22561,-39.4412,-16.9615,-46.6909,-49.0244,-61.25,4.87805
61.618,5.0933,-19.9368,0,1.04423,9.70222,-0.694556,-2.0122,-2.19512,-2.10366,-0.0718506,0.129331,0.00479004,4.96951,1.21951,1.67683
61.6237,5.1094,-19.5563,0,1.06339,9.62798,-0.701741,-1.82927,-2.22561,-1.76829,-39.2735,-0.00479004,-7.15153,4.96951,1.21951,1.67683
61.6412,5.12365,-19.5441,0,1.09452,9.63516,-0.66821,-1.34146,-2.62195,-2.10366,-0.0718506,0.129331,0.00479004,4.96951,1.21951,1.67683
61.6469,5.15003,-19.1634,0,1.13284,9.7597,-0.6251,-1.61585,-1.52439,-1.58537,-39.2831,0.0718506,-6.87371,4.93902,1.18902,1.64634
61.6633,5.17516,-20.365,0,1.17835,9.77886,-0.735271,-2.07317,-0.121951,-1.92073,-39.4412,-16.9615,-46.6909,-49.0244,-61.25,4.87805
61.6804,5.19757,-20.3528,0,1.18553,9.72378,-0.799937,-2.16463,0.609756,-2.16463,-0.0718506,0.129331,0.00479004,4.96951,1.21951,1.67683
61.6861,5.20076,-19.9387,0,1.12087,9.78126,-0.797541,-1.82927,1.15854,-2.7439,-39.1011,-0.0239502,-6.81623,4.96951,1.21951,1.67683
61.7034,5.20653,-19.9265,0,1.10889,9.73336,-0.716111,-1.64634,1.03659,-2.5,-0.0718506,0.129331,0.00479004,4.96951,1.21951,1.67683
61.7092,5.20252,-19.5281,0,1.01788,9.73815,-0.617915,-1.46341,0.792683,-2.28659,-38.7179,-0.0910107,-6.73,4.93902,1.18902,1.64634
61.7256,5.19781,-20.7153,0,1.02028,9.75731,-0.646655,-2.16463,0.792683,-2.34756,-39.4412,-16.9615,-46.6909,-49.0244,-61.25,4.87805
61.7428,5.18785,-20.7031,0,1.01309,9.75252,-0.687371,-1.43293,1.06707,-2.71341,-0.0718506,0.129331,0.00479004,4.96951,1.21951,1.67683
61.7485,5.17751,-20.2652,0,1.08734,9.76449,-0.785566,-2.22561,0.97561,-3.56707,-39.4651,0.0526904,-6.70126,4.96951,1.21951,1.67683
61.7657,5.17603,-20.253,0,1.16398,9.72138,-0.775986,-1.67683,1.28049,-3.68902,-0.0718506,0.129331,0.00479004,4.96951,1.21951,1.67683
61.7714,5.18456,-19.8601,0,1.16158,9.71659,-0.725691,-2.37805,1.4939,-2.86585,-39.3502,-0.0526904,-7.17069,12.7439,1.18902,1.64634
61.788,5.17888,-21.0342,0,1.02267,9.67827,-0.656235,-1.7378,2.37805,-2.59146,-39.4412,-16.9615,-46.6909,-49.0244,-61.25,4.87805
61.8055,5.12713,-21.022,0,0.725691,9.8076,-0.560435,-2.71341,1.09756,-3.20122,-0.0718506,0.129331,0.00479004,4.96951,1.21951,1.67683
61.8112,5.08434,-20.5707,0,0.910107,9.75731,-0.764011,-2.5,-1.25,-4.78659,-39.7046,-0.186812,-6.73,4.96951,1.21951,1.67683
61.8285,5.04576,-20.5585,0,0.967588,9.74054,-0.773591,-2.13415,-0.97561,-5.15244,-0.0718506,0.129331,0.00479004,4.96951,1.21951,1.67683
61.8342,5.01876,-20.127,0,1.06339,9.73096,-0.756826,-2.16463,-0.121951,-5.21341,-39.6759,0.273032,-6.74917,4.93902,1.18902,1.64634
61.8506,4.99303,-21.2905,0,1.08015,9.75491,-0.677791,-2.62195,-0.27439,-5.30488,-39.4412,-16.9615,-46.6909,-49.0244,-61.25,4.87805
61.868,4.95601,-21.2783,0,1.01549,9.72857,-0.61552,-3.04878,0.518293,-5.7622,-0.0718506,0.129331,0.00479004,4.96951,1.21951,1.67683
61.8738,4.92848,-20.7986,0,1.11847,9.616,-0.725691,-3.47561,0.914634,-6.25,-39.1873,0.205972,-6.31806,4.96951,1.21951,1.67683
61.8909,4.90862,-20.7864,0,1.17595,9.55134,-0.694556,-3.29268,1.15854,-6.31098,-0.0718506,0.129331,0.00479004,4.96951,1.21951,1.67683
61.8967,4.91223,-20.3026,0,1.37474,9.48907,-0.768801,-3.17073,1.15854,-6.46341,-39.216,0.684976,-5.90612,4.93902,1.18902,1.64634
61.9133,4.9335,-21.4592,0,1.49689,9.52978,-0.783171,-3.35366,1.25,-6.06707,-39.4412,-16.9615,-46.6909,-49.0244,-61.25,4.87805
61.9305,4.9938,-21.447,0,1.73639,9.46272,-0.66821,-3.2622,2.34756,-5.15244,-0.0718506,0.129331,0.00479004,4.96951,1.21951,1.67683
61.9363,5.10806,-20.9756,0,1.825,9.37171,-0.706531,-3.41463,5.2439,-2.71341,-38.1143,-0.110171,-6.40428,4.96951,1.21951,1.67683
61.9535,5.27846,-20.9634,0,1.90644,9.33579,-0.665815,-3.35366,5.67073,-1.7378,-0.0718506,0.129331,0.00479004,4.96951,1.21951,1.67683
61.9593,5.70797,-20.4866,0,2.29682,9.31902,-0.701741,-2.83537,1.58537,0.487805,-37.9515,0.0814307,-5.95402,67.3781,1.18902,1.64634
61.9757,5.97514,-21.6358,0,2.74709,9.2304,-0.869392,-3.20122,-2.86585,3.41463,-39.4412,-16.9615,-46.6909,-49.0244,-61.25,4.87805
61.993,6.35739,-21.6236,0,3.41051,8.96695,-0.723296,-3.56707,-4.20732,8.68902,-0.0718506,0.129331,0.00479004,4.96951,1.21951,1.67683
61.9987,6.96492,-21.0921,0,4.35654,8.47597,-0.311353,-4.54268,-4.45122,19.4512,-38.8807,-0.0718506,-5.59956,4.96951,1.21951,1.67683
62.0161,7.63058,-21.0799,0,4.59604,8.42089,-0.253872,-4.60366,-4.39024,23.7195,-0.0718506,0.129331,0.00479004,4.96951,1.21951,1.67683
62.0219,8.48204,-20.5946,0,5.19719,8.53585,-0.220342,-5.85366,1.7378,38.5061,-39.1777,-0.129331,-6.07856,4.93902,1.18902,1.64634
62.0383,9.36767,-21.7396,0,5.10618,8.96935,-0.301772,-6.43293,6.40244,47.1646,-39.4412,-16.9615,-46.6909,-49.0244,-61.25,4.87805
62.0557,10.302,-21.7274,0,5.19719,9.61121,-0.61552,-6.43293,18.0183,56.4939,-0.0718506,0.129331,0.00479004,4.96951,1.21951,1.67683
62.0615,11.1943,-21.2312,0,4.02603,10.6099,-0.938848,-6.46341,28.689,69.6646,-39.9346,-0.196392,-6.46176,4.96951,1.21951,1.67683
62.0787,12.0835,-21.219,0,3.86077,10.8542,-0.958008,-5.57927,34.3598,73.6281,-0.0718506,0.129331,0.00479004,4.96951,1.21951,1.67683
62.0845,12.9424,-20.7866,0,3.07042,11.7236,-0.205972,-5.73171,43.2012,82.3476,-40.701,0.0431104,-7.39103,4.93902,1.18902,1.64634
62.1009,13.734,-21.9239,0,2.08367,12.011,0.953218,-3.93293,34.3598,87.1037,-39.4412,-16.9615,-46.6909,-49.0244,-61.25,4.87805
62.1185,14.4738,-21.9117,0,1.42983,12.0637,1.57592,-4.42073,19.9695,89.7256,-0.0718506,0.129331,0.00479004,4.96951,1.21951,1.67683
62.1242,15.1191,-21.5266,0,1.05141,11.8745,-0.00239502,-10.7927,12.8049,85.061,-42.3679,0.368833,-9.14418,4.96951,1.21951,1.67683
62.1415,15.7364,-21.5144,0,1.346,11.4721,-0.58199,-9.29878,15.7012,80.1829,-0.0718506,0.129331,0.00479004,4.96951,1.21951,1.67683
62.1472,16.1975,-21.134,0,1.11129,10.8135,-0.306563,-2.0122,-4.11585,67.1951,-43.6229,0.225132,-9.19448,4.93902,1.18902,1.64634
62.1636,16.6198,-22.2576,0,1.16637,10.8518,0.191602,-1.03659,-21.1585,63.628,-39.4412,-16.9615,-46.6909,-49.0244,-61.25,4.87805
62.181,17.0638,-22.2454,0,1.70286,10.768,0.0167651,-1.79878,-29.9085,60.8841,-0.0718506,0.129331,0.00479004,4.96951,1.21951,1.67683
62.1868,17.621,-21.785,0,3.2213,10.5046,-0.395178,-5.4878,-17.8354,56.8902,-39.9058,1.48012,-7.47725,4.96951,1.21951,1.67683
62.204,18.224,-21.7728,0,3.83203,10.2938,-0.244292,-5.7622,-10.5183,55.8232,-0.0718506,0.129331,0.00479004,4.96951,1.21951,1.67683
62.21,18.9193,-21.1934,0,4.83554,9.60403,0.280217,-6.21951,6.64634,53.5976,-39.1586,1.3939,-4.90261,4.93902,1.18902,1.64634
62.2265,19.6261,-22.3147,0,4.89302,9.22083,0.483794,-4.93902,12.5305,53.689,-39.4412,-16.9615,-46.6909,-49.0244,-61.25,4.87805
62.2439,20.3028,-22.3025,0,4.57928,9.00288,0.476609,-3.32317,16.3415,54.0854,-0.0718506,0.129331,0.00479004,4.96951,1.21951,1.67683
62.25,20.9443,-21.7429,0,4.16494,8.63884,0.280217,-3.07927,18.811,54.3598,-37.7503,2.03577,-5.41753,4.96951,1.21951,1.67683
62.2675,21.5678,-21.7307,0,4.14338,8.62926,0.177231,-2.40854,20.0915,54.0244,-0.0718506,0.129331,0.00479004,4.96951,1.21951,1.67683
62.2734,22.1608,-20.8703,0,4.02124,8.38257,0.251477,-2.92683,23.2927,52.2256,-37.015,0.126936,0.00239502,4.93902,1.18902,1.64634
62.2897,22.7313,-22.0043,0,4.05237,8.35622,-0.201182,-2.0122,23.3537,50.6402,-39.4412,-16.9615,-46.6909,-49.0244,-61.25,4.87805
62.3075,23.2466,-21.9921,0,3.76258,8.18618,-0.0862207,-2.65244,20.7012,48.5976,-0.0718506,0.129331,0.00479004,4.96951,1.21951,1.67683
62.3133,23.7113,-21.4898,0,3.68594,8.23408,0.426313,-4.02439,17.1951,45.6402,-36.821,3.49194,-6.03066,4.96951,1.21951,5.54878
62.3307,24.1774,-21.4776,0,3.77455,8.0784,0.632285,-4.7561,14.2988,44.8476,-0.0718506,0.129331,0.00479004,4.96951,1.21951,1.67683
62.3364,24.6475,-20.6272,0,3.88472,7.5491,0.311353,-1.7378,2.56098,41.7378,-37.5204,2.37825,0.00239502,4.93902,1.18902,1.64634
62.3529,25.1158,-21.7709,0,3.9925,7.36947,0.368833,-0.487805,0.884146,40.0305,-39.4412,-16.9615,-46.6909,-49.0244,-61.25,4.87805
62.3701,25.5587,-21.7587,0,3.96136,7.25691,0.56283,-1.58537,-3.10976,38.0183,-0.0718506,0.129331,0.00479004,4.96951,1.21951,1.67683
62.3758,26.0588,-21.3279,0,4.69424,7.22098,0.366438,-2.65244,-9.42073,35.7927,-37.3767,1.95913,-7.18027,4.96951,1.21951,1.67683
62.3931,26.5386,-21.3157,0,4.71819,7.31439,0.110171,-1.67683,-11.8902,35.1524,-0.0718506,0.129331,0.00479004,4.96951,1.21951,1.67683
62.3989,26.9117,-20.8972,0,4.39486,7.5036,0.170046,-2.04268,-16.25,30.2744,-38.0569,1.92081,-7.21859,4.93902,1.18902,1.64634
62.4156,27.2479,-22.0302,0,4.32301,7.24254,-0.0790356,0.792683,-15.6707,26.311,-39.4412,-16.9615,-46.6909,-49.0244,-61.25,4.87805
62.4328,27.4751,-22.018,0,4.00447,7.48444,0.0838257,-0.518293,-19.7256,21.3415,-0.0718506,0.129331,0.00479004,4.96951,1.21951,1.67683
62.4386,27.73,-21.5672,0,4.48827,6.94556,-0.0455054,-0.121951,-23.3537,15,-38.258,2.52435,-7.18027,4.96951,1.21951,1.67683
62.4558,27.9923,-21.555,0,4.6631,6.8785,-0.0574805,-0.884146,-25.7622,13.689,-0.0718506,0.129331,0.00479004,4.96951,1.21951,1.67683
62.4616,28.2632,-21.1255,0,5.08942,6.88808,-0.138911,2.04268,-24.939,10.3659,-38.1048,2.39023,-7.20182,4.93902,1.18902,1.64634
62.4781,28.5143,-22.2495,0,5.3864,7.2617,-0.263452,2.07317,-20.9146,8.65854,-39.4412,-16.9615,-46.6909,-49.0244,-61.25,4.87805
62.4955,28.7553,-22.2373,0,5.43669,7.15153,-0.153281,5.67073,-19.4512,6.67683,-0.0718506,0.129331,0.00479004,4.96951,1.21951,1.67683
62.5013,29.0034,-21.8239,0,5.31215,7.30002,-0.0143701,4.45122,-20.9756,2.04268,-37.1468,2.05493,-7.75507,4.96951,1.21951,1.67683
62.5186,29.5878,-21.8117,0,5.47741,7.2114,-0.184417,5.54878,-18.3537,0.518293,-0.0718506,0.129331,0.00479004,4.96951,1.21951,1.67683
62.5244,29.6961,-21.3837,0,5.69536,7.47246,-0.316143,6.79878,-10.2134,-5.03049,-37.8461,2.08367,-7.3551,4.93902,1.18902,1.64634
62.5409,29.8125,-22.4974,0,6.07616,7.42696,-0.354463,6.28049,-7.56098,-7.71341,-39.4412,-16.9615,-46.6909,-49.0244,-61.25,4.87805
62.558,29.9667,-22.4852,0,6.6845,7.35032,-0.490979,6.18902,-4.78659,-9.72561,-0.0718506,0.129331,0.00479004,4.96951,1.21951,1.67683
62.5638,30.1418,-22.1096,0,6.96951,7.46049,-0.749641,12.378,5.51829,-8.84146,-39.0053,1.35558,-9.00048,4.96951,1.21951,1.67683
62.5812,30.293,-22.0974,0,6.76593,7.53713,-0.541274,13.9939,12.0427,-8.59756,-0.0718506,0.129331,0.00479004,4.96951,1.21951,1.67683
62.5869,30.3304,-21.7772,0,5.82229,7.61856,-0.407153,15.6402,24.7256,-10.6707,-39.3214,0.819097,-9.8076,4.93902,1.18902,1.64634
62.6035,30.2657,-22.8753,0,5.04391,7.43654,-0.00958008,16.4329,22.3476,-14.3902,-39.4412,-16.9615,-46.6909,-49.0244,-61.25,4.87805
62.6211,30.1143,-22.8631,0,4.5697,7.0677,0.227527,20.1829,22.5305,-20.7927,-0.0718506,0.129331,0.00479004,4.96951,1.21951,1.67683
62.6268,29.8909,-22.4544,0,4.8571,7.2617,0.447869,19.8476,24.2378,-30.2744,-39.743,3.01293,-8.83762,4.96951,1.21951,1.67683
62.644,29.6826,-22.4422,0,5.31934,7.36229,0.0670605,18.75,25.061,-33.4146,-0.0718506,0.129331,0.00479004,4.96951,1.21951,1.67683
62.6497,29.2244,-22.0231,0,4.63915,8.37299,0.500559,20.1829,7.62195,-45.3354,-40.8926,4.47869,-8.58136,4.93902,1.18902,1.64634
62.6662,28.619,-23.1115,0,4.54814,9.5226,-0.100591,21.7683,0.731707,-54.2378,-39.4412,-16.9615,-46.6909,-49.0244,-61.25,4.87805
62.6835,27.8978,-23.0993,0,4.4236,10.7369,-0.174836,24.4512,-11.2805,-60.8841,-0.0718506,0.129331,0.00479004,4.96951,1.21951,1.67683
62.6892,27.2849,-22.5784,0,4.69184,11.1776,0.143701,13.9329,-30.6402,-52.0732,-46.4969,-2.34233,-8.14786,4.96951,1.21951,1.67683
62.7068,26.7766,-22.5662,0,5.40077,11.2686,0.349673,13.1402,-36.7683,-48.4451,-0.0718506,0.129331,0.00479004,4.96951,1.21951,1.67683
62.7125,26.5442,-22.0484,0,9.12263,12.5571,1.09931,9.26829,-55.4268,-42.5305,-47.6944,-5.57082,-7.96823,4.93902,1.18902,1.64634
62.7291,26.4339,-23.1358,0,10.5644,13.1726,1.59029,5.42683,-53.5976,-36.128,-39.4412,-16.9615,-46.6909,-49.0244,-61.25,4.87805
62.7463,26.4189,-23.1236,0,9.55134,13.1942,1.20709,-1.25,-39.9085,-20.8537,-0.0718506,0.129331,0.00479004,4.96951,1.21951,1.67683
62.752,26.2576,-22.8005,0,4.232,10.38,0.775986,-3.56707,-12.9573,-7.80488,-44.7725,-6.16478,-11.9607,4.96951,1.21951,1.67683
62.7693,26.076,-22.7883,0,3.59492,9.52499,0.232317,-5.64024,-7.0122,-7.13415,-0.0718506,0.129331,0.00479004,4.96951,1.21951,1.67683
62.775,25.2766,-22.2621,0,-0.598755,7.03178,-0.993933,-7.86585,-15.9451,-18.4146,-39.264,3.2716,-6.56714,4.93902,1.18902,1.64634
62.7916,24.0712,-23.341,0,-2.14115,6.37075,-1.05141,-4.2378,-25.1829,-33.5061,-39.4412,-16.9615,-46.6909,-49.0244,-61.25,4.87805
62.8088,22.517,-23.3288,0,-3.36261,6.7324,-0.330513,-2.5,-49.9085,-55.3049,-0.0718506,0.129331,0.00479004,4.96951,1.21951,1.67683
62.8146,21.1587,-22.0595,0,-0.814307,8.24126,-2.00942,-1.28049,-88.9329,-81.1281,-46.1329,13.2828,7.08447,4.96951,1.21951,1.67683
62.8321,19.8987,-22.0473,0,-0.158071,8.93582,-2.91234,2.43902,-102.104,-83.3232,-0.0718506,0.129331,0.00479004,4.96951,1.21951,1.67683
62.8378,19.1811,-20.6387,0,3.7985,10.6483,-4.60083,14.7561,-74.1159,-72.6829,-40.7776,9.1346,9.8124,4.93902,1.18902,1.64634
62.8542,18.6269,-21.7819,0,4.48348,11.0363,-2.90037,17.2866,-44.4207,-62.5305,-39.4412,-16.9615,-46.6909,-49.0244,-61.25,4.87805
62.8714,18.1604,-21.7697,0,4.17931,10.7944,-1.37714,13.2012,-21.7073,-52.7744,-0.0718506,0.129331,0.00479004,4.96951,1.21951,1.67683
62.8771,17.7055,-20.5014,0,3.49912,9.95849,-1.12805,7.10366,5.42683,-48.872,-37.4821,-3.4632,6.78749,4.96951,1.21951,1.67683
62.8944,17.2215,-20.4892,0,3.08239,9.69743,-0.711321,5.82317,12.7744,-49.2378,-0.0718506,0.129331,0.00479004,4.96951,1.21951,1.67683
62.9002,16.5311,-19.5019,0,1.24781,9.59445,-0.150886,0.0914634,14.2988,-50.4268,-35.8822,-5.57082,2.79259,4.93902,1.18902,1.64634
62.9165,15.7325,-20.6901,0,0.285007,9.45314,-0.409548,-2.40854,7.80488,-51.2805,-39.4412,-16.9615,-46.6909,-49.0244,-61.25,4.87805
62.9339,14.8059,-20.6779,0,-0.716111,9.48428,-0.946033,-1.28049,-1.06707,-53.628,-0.0718506,0.129331,0.00479004,4.96951,1.21951,1.67683
62.9397,13.7635,-19.8784,0,-1.62382,9.71899,-1.84177,3.56707,-26.189,-56.7988,-38.1431,-3.67396,-0.320933,4.96951,1.21951,1.67683
62.9569,12.7298,-19.8662,0,-1.65735,9.86748,-1.98068,4.02439,-31.128,-57.9268,-0.0718506,0.129331,0.00479004,4.96951,1.21951,1.67683
62.9626,11.6884,-19.0879,0,-1.83698,10.3058,-1.70525,5.2439,-49.6646,-59.6646,-41.1512,-2.89797,-0.148491,4.93902,1.18902,1.64634
62.979,10.8112,-20.2926,0,-0.407153,10.7441,-1.95194,4.11585,-51.0671,-61.2195,-39.4412,-16.9615,-46.6909,-49.0244,-61.25,4.87805
62.9963,10.0512,-20.2804,0,0.60115,10.5237,-1.97829,2.62195,-52.5915,-62.1646,-0.0718506,0.129331,0.00479004,4.96951,1.21951,1.67683
63.002,9.31244,-19.5709,0,0.56283,9.83395,-1.37235,3.84146,-51.8598,-61.5549,-42.4445,-1.32684,-1.74836,4.96951,1.21951,1.67683
63.0192,8.67354,-19.5587,0,1.46575,10.2459,-2.43573,-2.22561,-44.9085,-62.8049,-0.0718506,0.129331,0.00479004,4.96951,1.21951,1.67683
63.0249,7.90551,-18.7994,0,0.289797,9.49146,-1.65975,2.19512,-64.6646,-64.2378,-39.8675,-0.273032,-0.263452,129.817,1.18902,1.64634
63.0414,7.1617,-20.0155,0,0.526904,9.62798,-1.96631,0.609756,-51.9512,-66.1585,-39.4412,-16.9615,-46.6909,-49.0244,-61.25,4.87805
63.0586,6.46915,-20.0033,0,1.03944,9.91778,-2.00942,-4.60366,-49.8476,-68.2622,-0.0718506,0.129331,0.00479004,4.96951,1.21951,1.67683
63.0643,5.89751,-19.2071,0,1.7316,9.48188,-2.03577,-6.21951,-46.8902,-66.25,-37.9898,-1.12566,0.0718506,4.96951,1.21951,1.67683
63.0815,5.28611,-19.1949,0,1.13045,9.80042,-1.47773,-8.04878,-46.7683,-63.7805,-0.0718506,0.129331,0.00479004,4.96951,1.21951,1.67683
63.0873,4.74984,-18.5268,0,1.19272,9.36213,-1.81782,-8.35366,-25.2439,-58.75,-35.863,-1.93039,-1.45138,4.93902,1.18902,1.64634
63.1037,4.24449,-19.7537,0,1.29092,9.25436,-2.05493,-8.87195,-18.5366,-58.0793,-39.4412,-16.9615,-46.6909,-49.0244,-61.25,4.87805
63.121,3.71945,-19.7415,0,0.986748,9.15376,-1.83219,-10.7927,-13.9024,-57.4695,-0.0718506,0.129331,0.00479004,4.96951,1.21951,1.67683
63.1267,3.26723,-19.1591,0,1.45378,9.22562,-1.83458,-6.95122,-8.04878,-56.8293,-34.6751,-3.72186,-3.05125,4.96951,1.21951,1.67683
63.1439,2.86661,-19.1469,0,1.76513,9.37411,-1.91362,-8.17073,-2.68293,-55.9756,-0.0718506,0.129331,0.00479004,4.96951,1.21951,1.67683
63.1497,2.46392,-18.7186,0,1.35558,9.21603,-1.64059,-5.88415,2.83537,-52.3171,-33.5542,-3.6548,-4.90979,4.93902,1.18902,1.64634
63.1662,2.05576,-19.9378,0,1.02746,9.06515,-1.44899,-5.06098,4.72561,-49.8171,-39.4412,-16.9615,-46.6909,-49.0244,-61.25,4.87805
63.1834,1.62964,-19.9256,0,0.749641,8.86876,-1.57353,-3.78049,4.14634,-49.1463,-0.0718506,0.129331,0.00479004,4.96951,1.21951,1.67683
63.1892,1.16665,-19.4678,0,0.421523,9.15376,-1.43222,-3.01829,-4.57317,-49.2988,-33.5446,-0.455054,-4.92895,4.96951,1.21951,1.67683
63.2064,0.723511,-19.4556,0,0.495769,9.04838,-1.6334,-2.89634,-6.52439,-49.2378,-0.0718506,0.129331,0.00479004,4.96951,1.21951,1.67683
63.2121,0.297798,-19.0296,0,0.498164,8.93582,-1.60706,0.701219,-10.2439,-48.4756,-34.4356,0.981958,-5.26425,4.93902,1.18902,1.64634
63.2288,-0.101039,-20.2366,0,0.55804,8.83044,-1.8777,0.182927,-12.561,-47.4695,-39.4412,-16.9615,-46.6909,-49.0244,-61.25,4.87805
63.2463,-0.483514,-20.2244,0,0.502954,7.82692,-2.43813,1.67683,-16.0061,-46.7378,-0.0718506,0.129331,0.00479004,4.96951,1.21951,1.67683
63.252,-0.814285,-19.7684,0,0.946033,7.03657,-2.45969,7.10366,-16.1585,-50.3659,-32.0693,3.6069,-4.90979,4.96951,1.21951,1.67683
63.2693,-1.09922,-19.7562,0,1.36756,7.3575,-2.29203,9.60366,-13.628,-52.2256,-0.0718506,0.129331,0.00479004,4.96951,1.21951,1.67683
63.275,-1.3353,-19.2424,0,2.2106,10.7297,-1.0107,8.90244,2.62195,-50.0915,-36.1121,2.61057,-4.28948,4.93902,1.18902,1.64634
63.2915,-1.60523,-20.4409,0,1.42743,11.4626,-0.799937,3.71951,6.34146,-44.7561,-39.4412,-16.9615,-46.6909,-49.0244,-61.25,4.87805
63.3088,-1.96812,-20.4287,0,0.490979,10.9404,-1.08494,-1.06707,10.4268,-45.5488,-0.0718506,0.129331,0.00479004,4.96951,1.21951,1.67683
63.3145,-2.39953,-20.0869,0,0.443079,10.7273,-1.28852,-6.46341,13.3232,-52.8659,-41.3716,-3.97094,-8.63644,4.96951,1.21951,1.67683
63.3317,-2.88549,-20.0747,0,0.122146,10.2004,-1.21188,-8.29268,10.3659,-55.8841,-0.0718506,0.129331,0.00479004,4.96951,1.21951,1.67683
63.3375,-3.31754,-19.8161,0,0.493374,9.8579,-1.7292,-6.31098,6.82927,-55.8232,-40.1645,-1.61424,-9.67109,4.93902,1.18902,1.64634
63.3542,-3.71546,-20.9919,0,0.732876,9.5705,-2.06451,-5.67073,7.43902,-56.311,-39.4412,-16.9615,-46.6909,-49.0244,-61.25,4.87805
63.3714,-3.9419,-20.9797,0,1.66693,10.2315,-2.29203,-3.65854,16.5854,-49.5732,-0.0718506,0.129331,0.00479004,4.96951,1.21951,1.67683
63.3771,-4.07866,-20.8237,0,2.04056,10.7201,-2.08606,-4.45122,23.9329,-43.9939,-42.5691,1.08734,-13.0433,4.96951,1.21951,1.67683
63.3944,-4.21626,-20.8115,0,1.86812,10.8758,-1.79626,-5.42683,22.9573,-42.2561,-0.0718506,0.129331,0.00479004,4.96951,1.21951,1.67683
63.4001,-4.36367,-20.7078,0,1.17356,11.3141,-0.974773,-7.40854,10.9756,-35.7317,-43.0577,0.158071,-14.145,4.93902,1.18902,1.64634
63.4166,-4.50929,-21.8483,0,0.895737,11.0746,-0.58678,-11.311,1.58537,-33.2012,-39.4412,-16.9615,-46.6909,-49.0244,-61.25,4.87805
63.4339,-4.59124,-21.8361,0,1.31726,10.9093,-0.440684,-12.0427,-14.2378,-31.6159,-0.0718506,0.129331,0.00479004,4.96951,1.21951,1.67683
63.4397,-4.52489,-20.9461,0,2.26329,11.3835,-0.986748,-16.5549,-29.4512,-25.5488,-53.9981,1.16398,0.608335,4.96951,1.21951,1.67683
63.4569,-4.36989,-20.9339,0,2.94827,11.4458,-1.36756,-17.6524,-28.1402,-22.8963,-0.0718506,0.129331,0.00479004,4.96951,1.21951,1.67683
63.4627,-3.88721,-20.0886,0,4.84033,11.853,-1.66454,-25.2439,-17.561,-5.03049,-60.024,7.60179,0.435894,4.93902,1.18902,1.64634
63.4791,-3.23681,-21.2536,0,5.16845,11.1823,-1.18314,-29.0244,-13.0793,7.80488,-39.4412,-16.9615,-46.6909,-49.0244,-61.25,4.87805
63.4966,-2.31614,-21.2415,0,6.14323,11.0315,-0.804727,-30.2134,-4.96951,27.9268,-0.0718506,0.129331,0.00479004,4.96951,1.21951,1.67683
63.5025,-1.0316,-20.296,0,5.96599,9.97526,-0.0407153,-40.4268,-1.37195,63.3232,-39.9825,-0.0910107,1.84417,4.96951,1.21951,1.67683
63.52,0.333344,-20.2838,0,5.60674,9.40764,0.0838257,-42.4085,2.80488,74.3293,-0.0718506,0.129331,0.00479004,4.96951,1.21951,1.67683
63.526,1.88471,-19.4806,0,4.57688,9.16334,0.787961,-48.4451,10.7622,104.817,-41.3811,-7.59221,0.00239502,4.93902,1.18902,1.64634
63.5425,3.48112,-20.6697,0,4.14099,9.87946,-0.129331,-42.1037,17.7744,120.335,-39.4412,-16.9615,-46.6909,-49.0244,-61.25,4.87805
63.5597,4.89721,-20.6575,0,1.70286,10.9333,-2.48603,-28.75,42.5305,133.537,-0.0718506,0.129331,0.00479004,4.96951,1.21951,1.67683
63.5655,5.97184,-19.5695,0,-1.81063,12.9092,-1.57113,-20.9451,54.0244,135.945,-36.3803,-7.77423,4.35415,4.96951,1.21951,1.67683
63.5827,6.95902,-19.5573,0,-2.46927,13.5319,-1.01549,-21.4329,50.4573,134.024,-0.0718506,0.129331,0.00479004,4.96951,1.21951,1.67683
63.5885,7.88611,-18.5238,0,-1.97829,14.327,-0.531694,-22.5305,32.4085,124.848,-41.0075,-0.924478,4.70621,4.93902,1.18902,1.64634
63.6052,8.84661,-19.7507,0,-1.09213,14.1043,-0.637075,-23.0488,25.7622,123.14,-39.4412,-16.9615,-46.6909,-49.0244,-61.25,4.87805
63.6226,9.88364,-19.7385,0,-0.222737,13.5726,-0.512534,-17.7134,10.8841,125.793,-0.0718506,0.129331,0.00479004,4.96951,1.21951,1.67683
63.6287,10.9315,-18.7195,0,-0.696951,12.7655,-0.716111,-11.0671,2.80488,133.476,-42.5978,4.05716,4.47869,4.96951,1.21951,1.67683
63.6461,11.9313,-18.7073,0,-1.15679,12.787,-0.701741,-10.9146,2.13415,134.878,-0.0718506,0.129331,0.00479004,4.96951,1.21951,1.67683
63.6521,12.8564,-17.9666,0,-1.79866,12.8038,-1.0107,-6.76829,-10.7317,135.061,-38.0281,-78.3531,0.00239502,4.93902,1.18902,1.64634
63.6684,13.7693,-19.2156,0,-1.5855,12.5499,-1.06818,-6.64634,-17.1037,134.085,-39.4412,-16.9615,-46.6909,-49.0244,-61.25,4.87805
63.6857,14.7353,-19.2034,0,-0.6251,11.6278,-1.38432,-5.06098,-14.0854,132.957,-0.0718506,0.129331,0.00479004,4.96951,1.21951,1.67683
63.6915,15.6493,-18.4472,0,-0.881367,10.174,-1.24781,2.04268,1.76829,133.445,-34.9817,2.42855,-0.0622705,4.96951,1.21951,1.67683
63.7088,16.5885,-18.435,0,-0.354463,9.84353,-1.47533,3.9939,5.45732,131.982,-0.0718506,0.129331,0.00479004,4.96951,1.21951,1.67683
63.7146,17.4879,-17.7051,0,-0.0311353,9.65193,-1.56634,11.3415,16.4024,126.006,-34.1769,1.66214,0.00239502,4.93902,1.18902,1.64634
63.7311,18.3236,-18.9645,0,0.213157,9.53936,-1.79626,12.7744,25.5183,118.354,-39.4412,-16.9615,-46.6909,-49.0244,-61.25,4.87805
63.7487,19.0974,-18.9523,0,0.392783,9.10347,-2.16031,20.6402,32.9878,111.311,-0.0718506,0.129331,0.00479004,4.96951,1.21951,1.67683
63.7545,19.7574,-18.2448,0,0.318538,8.64123,-2.03577,25.3049,37.4695,102.012,-35.317,0.857417,-0.665815,4.96951,1.21951,1.76829
63.7717,20.3706,-18.2326,0,0.258662,8.41849,-1.86333,24.2683,39.6037,99.2988,-0.0718506,0.129331,0.00479004,4.96951,1.21951,1.67683
63.7774,20.8192,-17.5106,0,-0.0910107,8.13349,-1.37714,24.2073,43.9939,88.6585,-34.3302,1.84417,0.00239502,4.93902,1.18902,1.64634
63.7939,21.1352,-18.7777,0,-0.469424,7.99697,-1.21188,24.9085,46.6768,81.5854,-39.4412,-16.9615,-46.6909,-49.0244,-61.25,4.87805
63.8113,21.2582,-18.7655,0,-1.04183,7.89159,-1.00351,25.7622,50.8841,71.0366,-0.0718506,0.129331,0.00479004,4.96951,1.21951,1.67683
63.8171,21.2493,-18.1928,0,-0.883762,7.79579,-0.555645,22.622,58.3841,55.6707,-34.1099,2.85007,-2.56267,4.96951,1.21951,1.67683
63.8344,21.2564,-18.1806,0,-0.462239,7.70478,-0.323328,19.878,63.3232,51.0976,-0.0718506,0.129331,0.00479004,4.96951,1.21951,1.67683
63.8401,21.2728,-17.4607,0,0.426313,7.42456,0.409548,15.0915,81.5244,38.3537,-34.6272,2.57944,0.00239502,4.93902,1.18902,1.64634
63.8567,21.2968,-18.7298,0,1.07776,7.54671,0.253872,13.0488,96.4329,29.2683,-39.4412,-16.9615,-46.6909,-49.0244,-61.25,4.87805
63.8739,21.1451,-18.7176,0,0.61073,7.9826,0.922083,7.77439,83.8415,19.0549,-0.0718506,0.129331,0.00479004,4.96951,1.21951,1.67683
63.8798,20.9506,-18.3024,0,0.61552,7.25451,0.579595,2.10366,65.6098,13.4146,-36.4091,0.397573,-5.26425,4.96951,1.21951,1.67683
63.897,20.7607,-18.2902,0,0.735271,7.16829,0.404758,1.43293,58.5366,11.4329,-0.0718506,0.129331,0.00479004,4.96951,1.21951,1.67683
63.9034,20.4818,-17.566,0,0.787961,7.39103,0.969983,-2.19512,32.4085,5.12195,-36.5815,0.280217,0.00239502,4.93902,1.18902,1.64634
63.9198,16.7813,-18.8309,0,1.12326,7.2593,0.967588,-4.66463,14.9695,0.396341,-39.4412,-16.9615,-46.6909,-49.0244,-61.25,4.87805
63.9372,16.65,-18.8187,0,1.74357,7.19464,0.850232,0,-8.35366,-6.79878,-0.0718506,0.129331,0.00479004,4.96951,1.21951,1.67683
63.943,16.5742,-18.5381,0,3.15903,7.8365,1.0083,6.61585,-47.6524,-18.5671,-36.9456,1.5855,-7.66885,4.96951,1.21951,1.67683
63.9595,16.4944,-19.7645,0,3.95178,8.18857,0.895737,7.37805,-74.2378,-26.8902,-39.4412,-16.9615,-46.6909,-49.0244,-61.25,4.87805
63.9767,16.5132,-19.7523,0,5.26186,7.99697,0.170046,5.51829,-96.7073,-32.4695,-0.0718506,0.129331,0.00479004,4.96951,1.21951,1.67683
63.9825,16.7246,-19.4181,0,6.54319,7.40301,-1.09452,5.30488,-88.75,-29.3598,-39.8004,0.905317,-7.95625,4.96951,1.21951,1.67683
63.9998,16.9743,-19.4059,0,6.86173,7.41738,-1.50168,5.4878,-77.6524,-27.6829,-0.0718506,0.129331,0.00479004,4.96951,1.21951,1.67683
64.0055,17.4607,-19.1174,0,9.43638,7.51797,-2.22737,11.25,-36.9817,-20.7317,-40.1453,0.866997,-8.61728,4.93902,1.18902,1.64634
64.022,18.0372,-20.3208,0,10.9524,8.0784,-2.36149,15.9451,-10.2439,-14.9085,-39.4412,-16.9615,-46.6909,-49.0244,-61.25,4.87805
64.0393,18.6841,-20.3086,0,12.1308,9.11784,-2.89318,20.3049,15.5183,-5.4878,-0.0718506,0.129331,0.00479004,4.96951,1.21951,1.67683
64.045,19.2597,-20.1972,0,10.6291,10.3417,-2.97222,32.561,38.2317,3.41463,-41.9464,-1.37474,-13.2157,4.96951,1.21951,1.67683
64.0626,19.7766,-20.185,0,9.3789,10.1357,-2.49082,34.2073,43.0793,4.72561,-0.0718506,0.129331,0.00479004,4.96951,1.21951,1.67683
64.0683,20.0596,-20.12,0,6.32046,9.71899,-1.36516,38.2317,50.3354,-1.06707,-43.4121,-2.39981,-14.5569,4.93902,1.18902,1.64634
64.0848,20.0868,-21.2837,0,5.12295,9.9058,-0.960403,35.9146,45.5793,-12.1037,-39.4412,-16.9615,-46.6909,-49.0244,-61.25,4.87805
64.1021,19.8222,-21.2715,0,3.57097,9.84114,-1.54718,31.4024,34.6037,-26.7073,-0.0718506,0.129331,0.00479004,4.96951,1.21951,1.67683
64.1078,19.0459,-20.7638,0,1.07057,10.9261,-1.0586,26.8293,26.4939,-50.1829,-52.2354,-1.14482,-7.75507,4.96951,1.21951,1.67683
64.125,18.1718,-20.7516,0,0.740061,11.6494,-0.376018,19.7561,21.9512,-57.7439,-0.0718506,0.129331,0.00479004,4.96951,1.21951,1.67683
64.1308,17.4986,-20.1474,0,4.39007,14.3126,2.7423,-3.87195,17.1951,-66.4024,-56.5081,-5.08223,-5.42711,4.93902,1.18902,1.64634
64.1473,17.1176,-21.31,0,7.2593,15.582,4.10746,-12.6524,21.372,-54.1463,-39.4412,-16.9615,-46.6909,-49.0244,-61.25,4.87805
64.1647,17.3558,-21.2978,0,9.24478,13.1942,2.14354,-8.5061,43.0488,-12.2256,-0.0718506,0.129331,0.00479004,4.96951,1.21951,1.67683
64.1704,17.1932,-20.24,0,-0.136516,8.10954,-0.0143701,15.0305,68.8415,20.7927,-40.7297,0.0335303,3.86556,4.96951,1.21951,1.67683
64.1876,16.6178,-20.2278,0,-2.82373,7.61616,-0.234712,16.8902,61.25,17.8963,-0.0718506,0.129331,0.00479004,4.96951,1.21951,1.67683
64.1934,15.0636,-18.8952,0,-9.86748,7.62814,0.335303,22.4695,-12.561,-17.9573,-41.0937,7.46767,9.8124,4.93902,1.18902,1.64634
64.21,13.2075,-20.1075,0,-11.1009,8.16223,0.855022,18.6585,-74.9695,-49.1159,-39.4412,-16.9615,-46.6909,-49.0244,-61.25,4.87805
64.2274,11.2771,-20.0953,0,-8.45921,9.01246,-1.04423,5.27439,-119.665,-81.8902,-0.0718506,0.129331,0.00479004,4.96951,1.21951,1.67683
64.2331,10.0503,-18.9822,0,0.213157,10.4016,-4.76609,10.5488,-111.768,-104.573,-41.7835,4.78525,5.88696,4.96951,1.21951,1.67683
64.2504,9.0804,-18.97,0,2.44292,11.0195,-4.55054,14.3902,-96.0976,-103.963,-0.0718506,0.129331,0.00479004,4.96951,1.21951,1.67683
64.2562,8.5774,-18.0221,0,5.40316,11.829,-2.46687,9.93902,-47.1646,-82.8963,-42.32,-2.74469,3.68114,4.93902,1.18902,1.64634
64.2726,8.1546,-19.269,0,4.50264,10.9596,-1.7292,6.43293,-20.7927,-71.2195,-39.4412,-16.9615,-46.6909,-49.0244,-61.25,4.87805
64.2898,7.64235,-19.2568,0,2.53872,10.1908,-1.49928,4.5122,-0.457317,-64.1768,-0.0718506,0.129331,0.00479004,4.96951,1.21951,1.67683
64.2955,6.82068,-18.4141,0,-0.198787,9.96568,-1.05141,3.14024,2.62195,-65.9146,-38.258,-5.55166,1.35558,4.96951,1.21951,1.67683
64.3129,5.90138,-18.4019,0,-1.03225,9.98005,-0.807122,1.95122,-1.98171,-67.8354,-0.0718506,0.129331,0.00479004,4.96951,1.21951,1.67683
64.3186,4.77221,-17.6525,0,-2.34233,9.66151,-0.922083,0.152439,-31.0061,-75.3659,-36.8594,-3.77934,0.340093,4.93902,1.18902,1.64634
64.335,3.70377,-18.9139,0,-1.43462,9.58966,-1.34361,0.304878,-44.8171,-81.9207,-39.4412,-16.9615,-46.6909,-49.0244,-61.25,4.87805
64.3522,2.77079,-18.9018,0,-0.0167651,9.58487,-1.95434,0.0304878,-60.3049,-87.439,-0.0718506,0.129331,0.00479004,4.96951,1.21951,1.67683
64.358,2.00286,-18.137,0,1.06099,9.52978,-2.2106,1.25,-74.0549,-85.6707,-37.5779,-1.2023,0.273032,4.96951,1.21951,1.67683
64.3754,1.28219,-18.1248,0,1.17595,9.60882,-2.26808,0.701219,-77.1951,-83.689,-0.0718506,0.129331,0.00479004,4.96951,1.21951,1.67683
64.3812,0.625174,-16.8096,0,1.27894,9.8579,-2.29203,-2.22561,-66.3415,-79.5122,-36.3803,-0.445474,9.8124,4.93902,1.18902,1.64634
64.3976,0.0414476,-18.1044,0,1.66693,9.86269,-2.21779,-5.21341,-58.5671,-77.8659,-39.4412,-16.9615,-46.6909,-49.0244,-61.25,4.87805
64.4149,-0.483642,-18.0922,0,1.93518,9.59445,-2.27287,-8.01829,-43.1707,-76.7683,-0.0718506,0.129331,0.00479004,4.96951,1.21951,1.67683
64.4206,-0.884681,-17.5456,0,2.46927,9.09868,-2.3088,-6.79878,-16.9817,-72.8963,-34.9817,-2.36149,-2.62015,4.96951,1.21951,1.67683
64.4379,-1.25554,-17.5334,0,2.4549,9.06275,-2.21779,-5.97561,-8.93293,-70.5793,-0.0718506,0.129331,0.00479004,4.96951,1.21951,1.67683
64.4439,-1.63743,-17.0519,0,1.85614,8.71548,-2.03577,-5.21341,4.69512,-66.0671,-33.6979,-4.46911,-3.16622,4.93902,1.18902,1.64634
64.4603,-2.04597,-18.3372,0,1.3963,8.54782,-2.24892,-4.02439,10.3659,-63.9634,-39.4412,-16.9615,-46.6909,-49.0244,-61.25,4.87805
64.4777,-2.49447,-18.325,0,0.869392,8.32748,-2.32317,-2.04268,13.3232,-62.1037,-0.0718506,0.129331,0.00479004,4.96951,1.21951,1.67683
64.4838,-3.00691,-17.8787,0,0.378413,8.38736,-2.02858,2.77439,12.9268,-62.6524,-31.1784,-3.03209,-3.85598,4.96951,1.21951,1.67683
64.5011,-3.52475,-17.8665,0,0.316143,8.74901,-1.71723,4.60366,13.0488,-63.2012,-0.0718506,0.129331,0.00479004,4.96951,1.21951,1.67683
64.5068,-4.0072,-17.1591,0,0.498164,9.67348,-1.11847,3.84146,11.4024,-62.439,-31.734,0.126936,0.00239502,4.93902,1.18902,1.64634
64.5234,-4.44014,-18.4401,0,0.682581,9.72617,-0.799937,2.22561,9.42073,-60.5488,-39.4412,-16.9615,-46.6909,-49.0244,-61.25,4.87805
64.5406,-4.83934,-18.4279,0,0.682581,9.47949,-0.63468,1.03659,6.4939,-58.2012,-0.0718506,0.129331,0.00479004,4.96951,1.21951,1.67683
64.5463,-5.23974,-18.1385,0,0.565225,9.09868,-0.680186,-0.335366,2.04268,-57.9878,-33.7746,-1.0586,-6.6342,4.96951,1.21951,1.67683
64.5635,-5.62981,-18.1263,0,0.608335,8.96935,-0.831072,0.0609756,-0.182927,-58.4146,-0.0718506,0.129331,0.00479004,4.96951,1.21951,1.67683
64.5693,-5.94782,-17.8043,0,1.10889,9.10586,-1.38432,-1.4939,-5.30488,-58.1098,-34.7805,0.531694,-6.12646,4.93902,1.18902,1.64634
64.5857,-6.2153,-19.0598,0,1.24062,9.29986,-1.45617,-0.914634,-3.38415,-54.939,-39.4412,-16.9615,-46.6909,-49.0244,-61.25,4.87805
64.6029,-6.46016,-19.0476,0,1.11368,9.19209,-1.45138,-0.182927,-1.98171,-51.7683,-0.0718506,0.129331,0.00479004,4.96951,1.21951,1.67683
64.6087,-6.6795,-18.6655,0,1.07057,9.01246,-1.53042,1.09756,-4.81707,-49.3902,-37.4437,1.00112,-6.19352,4.96951,1.21951,1.67683
64.6258,-6.87256,-18.6533,0,1.22864,8.97653,-1.69088,1.37195,-5,-49.2378,-0.0718506,0.129331,0.00479004,4.96951,1.21951,1.67683
64.6316,-7.04668,-18.2514,0,1.31487,9.54176,-2.10043,2.10366,-1.34146,-47.8049,-39.8388,0.991538,-5.95402,4.93902,1.18902,1.64634
64.6481,-7.25743,-19.4892,0,1.06578,9.69504,-2.19384,-0.548781,0.701219,-48.689,-39.4412,-16.9615,-46.6909,-49.0244,-61.25,4.87805
64.6656,-7.4231,-19.477,0,1.11368,10.4111,-2.15073,0.609756,4.84756,-44.1768,-0.0718506,0.129331,0.00479004,4.96951,1.21951,1.67683
64.6714,-7.59166,-19.1471,0,1.0586,10.6507,-2.09085,0.213415,10.4573,-43.9329,-42.3966,0.273032,-8.34904,4.96951,1.21951,1.67683
64.6887,-7.77218,-19.1349,0,0.936453,10.9357,-1.67172,-0.609756,11.0671,-43.9024,-0.0718506,0.129331,0.00479004,4.96951,1.21951,1.67683
64.6944,-7.90034,-19.0774,0,1.51126,12.0685,-1.6813,-1.12805,6.64634,-43.5061,-42.2913,-0.541274,-13.4768,4.93902,1.18902,1.64634
64.7111,-7.99611,-20.2824,0,1.27655,11.7619,-1.3939,-4.93902,0.853659,-38.5366,-39.4412,-16.9615,-46.6909,-49.0244,-61.25,4.87805
64.7286,-8.04277,-20.2702,0,1.52084,11.4697,-1.30289,-7.86585,-10.2439,-36.4939,-0.0718506,0.129331,0.00479004,4.96951,1.21951,1.67683
64.7343,-7.93011,-20.3021,0,2.58662,11.053,-0.902922,-13.0793,-22.9878,-31.7988,-44.3989,-2.87881,-17.1052,4.96951,1.21951,1.67683
64.7516,-7.77762,-20.2899,0,2.72793,10.8878,-0.536484,-15.2439,-27.8049,-29.3293,-0.0718506,0.129331,0.00479004,4.96951,1.21951,1.67683
64.7573,-7.43857,-19.9205,0,3.59013,10.7225,-0.507744,-21.5854,-37.378,-19.0549,-48.0776,-1.93997,-9.30705,4.93902,1.18902,1.64634
64.7741,-6.95821,-21.0922,0,4.43558,10.7584,-0.570015,-25.061,-41.2195,-11.8902,-39.4412,-16.9615,-46.6909,-49.0244,-61.25,4.87805
64.7915,-6.21358,-21.08,0,6.02826,11.0674,-0.696951,-28.3841,-44.5732,-0.731707,-0.0718506,0.129331,0.00479004,4.96951,1.21951,1.67683
64.7972,-5.13502,-20.0388,0,7.81016,11.2781,-0.893342,-33.7195,-36.25,26.5549,-68.761,12.2386,6.27974,4.96951,1.21951,1.67683
64.8144,-3.91778,-20.0267,0,8.33946,11.1177,-0.598755,-34.2378,-30.1829,38.4756,-0.0718506,0.129331,0.00479004,4.96951,1.21951,1.67683
64.8202,-2.31453,-19.025,0,8.0305,11.0051,-0.467029,-52.5305,-2.59146,81.8902,-45.9221,8.44484,4.23918,4.93902,1.18902,1.64634
64.8368,-0.622218,-20.2321,0,6.40428,10.3201,0.150886,-56.189,25.5183,103.018,-39.4412,-16.9615,-46.6909,-49.0244,-61.25,4.87805
64.8541,1.13386,-20.2199,0,4.65113,9.91778,-0.229922,-54.6341,45.3963,126.646,-0.0718506,0.129331,0.00479004,4.96951,1.21951,1.67683
64.8598,2.70297,-19.2408,0,1.12326,11.2518,-1.31726,-34.2378,56.7378,150.793,-39.8867,-9.68067,3.14706,4.96951,1.21951,1.67683
64.8772,4.15591,-19.2286,0,-0.119751,12.0278,-1.20948,-28.8415,51.7073,154.939,-0.0718506,0.129331,0.00479004,4.96951,1.21951,1.67683
64.883,5.34193,-17.9226,0,-2.75188,14.0995,-1.42983,-18.9329,31.6463,152.043,-40.0783,-9.14418,9.8124,4.93902,1.18902,1.64634
64.8995,6.43768,-19.1734,0,-2.65847,14.7701,-1.80584,-15.8841,21.5854,143.537,-39.4412,-16.9615,-46.6909,-49.0244,-61.25,4.87805
64.9166,7.53922,-19.1612,0,-1.10889,15.2012,-1.11368,-13.7195,12.5,134.055,-0.0718506,0.129331,0.00479004,4.96951,1.21951,1.67683
64.9224,8.74818,-18.2222,0,0.747246,14.3174,-0.912502,-10.6707,5.51829,132.652,-40.2028,-0.809517,3.20454,4.96951,1.21951,1.67683
64.9396,9.96302,-18.21,0,0.778381,13.8336,-1.08494,-8.87195,8.78049,135.244,-0.0718506,0.129331,0.00479004,4.96951,1.21951,1.67683
64.9455,11.1214,-17.2907,0,-0.213157,12.9523,-1.23823,-2.62195,16.3415,140.457,-38.8424,3.69312,3.40572,4.93902,1.18902,1.64634
64.9618,12.1991,-18.5665,0,-0.768801,12.7271,-1.22146,-0.182927,16.2195,139.726,-39.4412,-16.9615,-46.6909,-49.0244,-61.25,4.87805
64.979,13.2064,-18.5543,0,-1.24302,12.0829,-1.2526,0.731707,16.2805,139.665,-0.0718506,0.129331,0.00479004,4.96951,1.21951,1.67683
64.9851,14.1105,-17.7319,0,-1.91841,10.7081,-1.27415,5.7622,16.7988,139.939,-34.2631,7.00783,1.32684,4.96951,1.21951,1.67683
65.0026,15.0139,-17.7197,0,-1.65256,10.3393,-1.46096,7.77439,16.9207,139.512,-0.0718506,0.129331,0.00479004,4.96951,1.21951,1.67683
65.0085,15.8236,-17.0181,0,-2.01182,9.75731,-1.09692,13.689,16.128,137.043,-29.5042,0.126936,0.00239502,4.93902,1.18902,1.64634
65.0248,16.654,-18.3047,0,-1.21188,9.4244,-1.05141,17.3171,18.689,131.982,-39.4412,-16.9615,-46.6909,-49.0244,-61.25,4.87805
65.042,17.4668,-18.2925,0,-0.502954,9.27352,-0.953218,20.8232,24.3598,123.262,-0.0718506,0.129331,0.00479004,4.96951,1.21951,1.67683
65.0478,18.1791,-17.6191,0,-0.0934058,8.78972,-1.23583,26.9817,28.7805,109.573,-34.5027,0.522114,-0.771196,4.96951,1.21951,1.67683
65.065,18.8416,-17.6069,0,-0.0502954,8.46639,-1.48012,30.3354,31.4024,105.396,-0.0718506,0.129331,0.00479004,4.96951,1.21951,1.67683
65.0708,19.4187,-17.0574,0,0.184417,8.25084,-1.39869,26.7073,42.7134,94.7256,-33.9183,-1.30768,-2.20821,4.93902,1.18902,1.64634
65.0873,19.9085,-18.3424,0,0.112566,8.10714,-1.13763,24.2073,49.7561,87.9878,-39.4412,-16.9615,-46.6909,-49.0244,-61.25,4.87805
65.1048,20.2825,-18.3302,0,0.0383203,7.98499,-1.25499,25.4573,55.4268,78.2317,-0.0718506,0.129331,0.00479004,4.96951,1.21951,1.67683
65.1106,20.3706,-17.8608,0,-0.764011,8.16702,-0.950823,24.4817,67.6829,61.2805,-34.6751,0.330513,-3.93262,4.96951,1.21951,1.67683
65.1279,20.3752,-17.8486,0,-0.919688,8.0784,-0.821492,22.0732,71.8598,55.3049,-0.0718506,0.129331,0.00479004,4.96951,1.21951,1.67683
65.1336,20.2208,-17.1419,0,-0.905317,7.61137,-0.208367,13.9939,83.5976,39.6646,-34.9912,1.56395,0.00239502,4.93902,1.18902,1.64634
65.1502,20.0657,-18.4236,0,-0.411943,7.35271,0.488584,11.3415,90.7012,31.9817,-39.4412,-16.9615,-46.6909,-49.0244,-61.25,4.87805
65.1675,19.8927,-18.4114,0,-0.0670605,7.43654,1.26936,6.12805,97.5,24.3598,-0.0718506,0.129331,0.00479004,4.96951,1.21951,1.67683
65.1732,19.5719,-18.0472,0,-0.253872,7.60898,1.49928,1.43293,83.7805,11.7683,-37.2042,1.16398,-6.03066,4.96951,1.21951,1.67683
65.1907,19.2072,-18.035,0,-0.311353,7.6473,1.34361,0.0914634,71.6463,7.77439,-0.0718506,0.129331,0.00479004,4.96951,1.21951,1.67683
65.1965,15.9566,-17.3209,0,0.0383203,8.05685,1.36277,-12.0122,31.0061,0.304878,-36.2654,0.330513,0.00239502,4.93902,1.18902,1.64634
65.213,15.5877,-18.5955,0,0.517324,7.92272,1.30768,-18.1402,13.7805,-3.44512,-39.4412,-16.9615,-46.6909,-49.0244,-61.25,4.87805
65.2302,15.3851,-18.5833,0,1.21667,7.7407,1.26936,-19.939,-4.7561,-6.92073,-0.0718506,0.129331,0.00479004,4.96951,1.21951,1.67683
65.2359,15.3912,-18.3255,0,2.66566,7.4533,1.26697,-11.189,-39.6037,-8.17073,-35.0679,0.502954,-7.49641,4.96951,1.21951,1.67683
65.2533,15.4519,-18.3133,0,3.21891,7.51557,1.1065,-8.10976,-55.4268,-9.72561,-0.0718506,0.129331,0.00479004,4.96951,1.21951,1.67683
65.2591,15.6598,-18.1441,0,4.42839,6.62702,-0.364043,6.64634,-95.8232,-16.128,-36.7827,0.129331,-9.19448,4.93902,1.18902,1.64634
65.2756,15.8035,-19.3861,0,4.22481,6.33722,-0.797541,14.3293,-109.756,-22.1341,-39.4412,-16.9615,-46.6909,-49.0244,-61.25,4.87805
65.293,15.8053,-19.3739,0,4.22002,6.87371,-0.795146,20.6707,-117.104,-31.9512,-0.0718506,0.129331,0.00479004,4.96951,1.21951,1.67683
65.2987,15.8977,-19.2322,0,6.87131,7.89638,-0.991538,15.3049,-114.421,-42.0427,-38.8712,-0.119751,-10.9931,4.96951,1.21951,1.67683
65.3161,16.1466,-19.2201,0,8.53345,7.81255,-1.48491,10.7927,-106.555,-39.1463,-0.0718506,0.129331,0.00479004,4.96951,1.21951,1.67683
65.3221,16.8029,-19.1875,0,13.3642,7.85087,-2.91474,12.1951,-62.439,-21.6463,-38.8233,-0.00479004,-12.9092,4.93902,1.18902,1.64634
65.3386,17.5644,-20.3882,0,14.6791,8.60291,-3.45362,22.9573,-31.4939,-9.69512,-39.4412,-16.9615,-46.6909,-49.0244,-61.25,4.87805
65.3561,18.3306,-20.376,0,13.1918,9.35974,-3.00335,33.0183,-0.335366,2.5,-0.0718506,0.129331,0.00479004,4.96951,1.21951,1.67683
65.3619,18.8686,-20.4476,0,8.24605,8.91187,-1.64777,29.7866,17.1341,4.93902,-38.5071,0.129331,-15.697,4.96951,1.21951,1.67683
65.3792,19.3511,-20.4354,0,6.74677,8.54303,-1.5879,27.4085,19.939,1.03659,-0.0718506,0.129331,0.00479004,4.96951,1.21951,1.67683
65.3853,19.1219,-19.6263,0,3.3195,8.0305,-1.04183,24.2988,35.0915,-29.7256,-42.9044,9.93694,0.00239502,4.93902,1.18902,1.64634
65.4017,18.4493,-20.8096,0,2.06211,9.00048,-1.19032,15.061,44.5122,-55.9451,-39.4412,-16.9615,-46.6909,-49.0244,-61.25,4.87805
65.4189,17.3662,-20.7974,0,1.15919,10.8303,-1.09213,7.16463,50.3354,-85.3354,-0.0718506,0.129331,0.00479004,4.96951,1.21951,1.67683
65.4247,16.3307,-20.0023,0,4.95769,17.6441,4.32062,-34.939,48.9634,-102.256,-63.3962,-4.1338,-0.790356,4.96951,1.21951,1.67683
65.4419,15.5197,-19.9901,0,7.32397,19.4571,5.37442,-47.4085,34.7256,-91.5244,-0.0718506,0.129331,0.00479004,4.96951,1.21951,1.67683
65.4476,16.1245,-19.4951,0,16.0897,16.8801,-2.27527,9.2378,31.4634,4.35976,-52.906,-15.6586,-6.95035,4.93902,1.18902,1.64634
65.4642,17.2311,-20.6837,0,10.368,12.4397,-1.75794,40.3963,74.8171,64.5732,-39.4412,-16.9615,-46.6909,-49.0244,-61.25,4.87805
65.4815,17.2103,-20.6715,0,-3.32429,8.49274,-0.759221,28.628,113.659,76.6768,-0.0718506,0.129331,0.00479004,4.96951,1.21951,1.67683
65.4874,15.8306,-19.2276,0,-14.1378,6.09772,1.36037,23.4756,41.0366,30.3963,-34.3877,4.73735,9.72857,4.96951,1.21951,1.67683
65.5047,14.1552,-19.2154,0,-15.9125,6.22466,2.49801,20.4268,-13.9329,1.46341,-0.0718506,0.129331,0.00479004,4.96951,1.21951,1.67683
65.5105,11.9755,-18.0679,0,-10.198,6.47134,-1.23104,-7.56098,-133.75,-75.9756,-38.7083,9.83395,6.66294,4.93902,1.18902,1.64634
65.527,10.0955,-19.3129,0,-4.33978,7.13955,-5.51813,-2.34756,-148.75,-103.537,-39.4412,-16.9615,-46.6909,-49.0244,-61.25,4.87805
65.5442,8.92819,-19.3007,0,1.91602,11.5033,-5.61632,17.561,-116.707,-117.805,-0.0718506,0.129331,0.00479004,4.96951,1.21951,1.67683
65.55,8.32748,-18.5062,0,5.90851,15.4479,-2.31359,14.5427,-61.7073,-85.7927,-50.281,0.0526904,0.675395,4.96951,1.21951,1.67683
65.5672,7.90344,-18.494,0,5.32413,14.1618,-1.67412,11.128,-49.2683,-68.3232,-0.0718506,0.129331,0.00479004,4.96951,1.21951,1.67683
65.573,7.58376,-17.7766,0,2.87881,10.3225,-1.37953,8.75,-15.9756,-48.2927,-43.6325,-6.2031,-0.282612,4.93902,1.18902,1.64634
65.5895,7.07252,-19.0331,0,1.1544,9.71659,-1.48731,8.07927,-6.21951,-50.5183,-39.4412,-16.9615,-46.6909,-49.0244,-61.25,4.87805
65.6067,6.34763,-19.0209,0,-0.217947,9.52739,-1.23104,4.7561,-9.26829,-56.8598,-0.0718506,0.129331,0.00479004,4.96951,1.21951,1.67683
65.6125,5.50335,-18.3275,0,-0.364043,8.95258,-1.44659,1.09756,-22.8963,-68.4451,-35.9301,-4.37331,-0.943638,4.96951,1.21951,1.67683
65.6298,4.65455,-18.3153,0,-0.229922,8.77535,-1.53281,1.34146,-28.2317,-72.3171,-0.0718506,0.129331,0.00479004,4.96951,1.21951,1.67683
65.6355,3.8161,-17.5726,0,0.0431104,9.55134,-1.70765,4.08537,-41.9817,-76.5854,-36.6199,-2.08367,0.285007,4.93902,1.18902,1.64634
65.652,3.0427,-18.8373,0,0.423918,10.0974,-1.5376,2.34756,-50.9451,-76.0366,-39.4412,-16.9615,-46.6909,-49.0244,-61.25,4.87805
65.6692,2.45418,-18.8251,0,1.66693,9.91299,-1.79387,0.304878,-56.3415,-73.3232,-0.0718506,0.129331,0.00479004,4.96951,1.21951,1.67683
65.675,2.07166,-18.0893,0,2.45729,9.54894,-1.95434,-1.95122,-54.4207,-63.4756,-37.7503,0.119751,-0.158071,4.96951,1.21951,1.67683
65.6925,1.66651,-18.0771,0,1.90883,9.37171,-2.00703,-2.31707,-56.0976,-60.6098,-0.0718506,0.129331,0.00479004,4.96951,1.21951,1.67683
65.6985,1.3494,-17.4372,0,2.06451,9.0388,-2.17707,-0.823171,-45.6098,-55.2134,-36.6869,0.129331,-1.22386,4.93902,1.18902,1.64634
65.715,1.01101,-18.7072,0,1.80824,9.06994,-2.22258,-0.426829,-39.878,-54.7866,-39.4412,-16.9615,-46.6909,-49.0244,-61.25,4.87805
65.7325,0.6754,-18.695,0,1.7795,9.11544,-2.22737,0.579268,-31.2805,-54.7256,-0.0718506,0.129331,0.00479004,4.96951,1.21951,1.67683
65.7383,0.332397,-18.1458,0,1.64298,9.26394,-1.89925,-1.55488,-18.5061,-54.1463,-35.6139,-2.40939,-3.00335,4.96951,1.21951,1.67683
65.7559,0.00318769,-18.1336,0,1.70525,9.28789,-1.8777,-2.5,-13.5061,-54.1463,-0.0718506,0.129331,0.00479004,4.96951,1.21951,1.67683
65.762,-0.275332,-17.6738,0,1.87051,9.08191,-1.70046,-2.9878,1.31098,-52.1646,-34.6943,-2.78301,-3.96376,4.93902,1.18902,1.64634
65.7783,-0.552103,-18.9345,0,1.59987,8.83283,-1.48491,-2.86585,3.35366,-49.7561,-39.4412,-16.9615,-46.6909,-49.0244,-61.25,4.87805
65.7955,-0.771008,-18.9223,0,1.67651,8.66039,-1.54718,-2.19512,4.57317,-45.8232,-0.0718506,0.129331,0.00479004,4.96951,1.21951,1.67683
65.8015,-0.921238,-18.5417,0,1.96631,8.92624,-1.38911,-1.58537,10.0915,-42.2561,-31.8394,-2.41897,-5.21635,4.96951,1.21951,1.67683
65.8188,-1.07331,-18.5295,0,1.89446,9.05078,-1.32445,-1.06707,11.2195,-41.5244,-0.0718506,0.129331,0.00479004,4.96951,1.21951,1.67683
65.8245,-1.24244,-18.1901,0,1.56155,9.23999,-1.18314,-0.823171,15.0305,-39.0244,-32.395,-1.4418,-5.68578,4.93902,1.18902,1.64634
65.8412,-1.448,-19.4303,0,1.20469,9.11784,-1.22864,-0.762195,15.7317,-38.872,-39.4412,-16.9615,-46.6909,-49.0244,-61.25,4.87805
65.8586,-1.71889,-19.4181,0,0.756826,9.01006,-1.17835,0.0914634,16.2805,-40.3963,-0.0718506,0.129331,0.00479004,4.96951,1.21951,1.67683
65.8643,-1.99312,-19.0649,0,0.752036,8.71548,-1.07776,0.579268,12.5915,-41.5549,-35.9301,0.0718506,-6.65336,4.96951,1.21951,1.67683
65.8815,-2.2558,-19.0527,0,0.797541,8.78014,-1.06578,0.701219,10.8232,-41.4634,-0.0718506,0.129331,0.00479004,4.96951,1.21951,1.67683
65.8873,-2.4606,-18.676,0,0.967588,9.02683,-1.35079,0.823171,6.4939,-37.9878,-36.4857,0.129331,-6.12885,4.93902,1.18902,1.64634
65.9038,-2.63109,-19.897,0,1.05141,9.32381,-1.45617,0.365854,6.64634,-35.5488,-39.4412,-16.9615,-46.6909,-49.0244,-61.25,4.87805
65.9215,-2.77837,-19.8848,0,1.02267,9.43877,-1.38193,0.548781,6.18902,-33.0183,-0.0718506,0.129331,0.00479004,4.96951,1.21951,1.67683
65.9275,-2.95818,-19.5508,0,0.63468,9.59924,-1.43941,-1.61585,-1.28049,-31.7378,-37.2617,-0.0143701,-7.54431,4.96951,1.21951,1.67683
65.9447,-3.13962,-19.5386,0,0.60115,9.64714,-1.59987,-2.22561,-5.09146,-31.8293,-0.0718506,0.129331,0.00479004,4.96951,1.21951,1.67683
65.9505,-3.29879,-19.1885,0,0.835862,9.62798,-2.06451,-3.04878,-10.122,-32.7744,-37.9802,-0.148491,-7.17069,4.93902,1.18902,1.64634
65.9669,-3.43418,-20.3892,0,1.08973,9.67827,-1.99745,-2.77439,-8.81098,-33.6585,-39.4412,-16.9615,-46.6909,-49.0244,-61.25,4.87805
65.9842,-3.51635,-20.377,0,1.52802,9.86988,-1.91362,-2.59146,-4.26829,-33.3537,-0.0718506,0.129331,0.00479004,4.96951,1.21951,1.67683
65.99,-3.49209,-20.2075,0,2.23216,9.89622,-1.48491,0.121951,9.11585,-30.6402,-38.8712,0.0526904,-11.2135,4.96951,1.21951,1.67683
66.0075,-3.44588,-20.1953,0,2.30161,9.99681,-1.42264,-0.0609756,13.5976,-28.872,-0.0718506,0.129331,0.00479004,4.96951,1.21951,1.67683
66.0136,-3.40313,-20.2973,0,1.95673,10.2363,-1.52563,-2.83537,17.5,-24.7561,-37.7982,-0.991538,-15.8622,4.93902,1.18902,1.64634
66.0301,-3.39273,-21.4541,0,1.62622,10.0375,-1.42504,-4.72561,12.8963,-24.6646,-39.4412,-16.9615,-46.6909,-49.0244,-61.25,4.87805
66.0476,-3.42517,-21.4419,0,1.45378,9.82677,-1.18793,-7.40854,2.9878,-27.4085,-0.0718506,0.129331,0.00479004,4.96951,1.21951,1.67683
66.0534,-3.45714,-21.2952,0,1.55197,9.72857,-1.09452,-9.29878,-10.2744,-28.75,-41.5728,-2.08367,-13.2924,4.96951,1.21951,1.67683
66.0699,-3.45822,-22.4124,0,1.84656,10.1836,-1.07536,-11.9207,-17.0732,-28.1402,-39.4412,-16.9615,-46.6909,-49.0244,-61.25,4.87805
66.0872,-3.37036,-22.4002,0,2.58902,10.5189,-1.62143,-15.4878,-21.6159,-26.311,-0.0718506,0.129331,0.00479004,4.96951,1.21951,1.67683
66.093,-3.08455,-21.2648,0,3.86556,10.883,-1.47533,-17.4085,-13.7195,-17.622,-62.9938,8.40652,6.93119,4.96951,1.21951,1.67683
66.1104,-2.71339,-21.2526,0,4.33499,11.2662,-1.59269,-20.4573,-8.2622,-11.372,-0.0718506,0.129331,0.00479004,4.96951,1.21951,1.67683
66.1161,-2.06512,-20.4111,0,5.37203,12.6146,-1.18793,-27.8659,5.73171,13.5366,-61.0107,22.1994,0.00239502,4.93902,1.18902,1.64634
66.1327,-1.27615,-21.5633,0,5.35047,12.708,-0.167651,-33.2622,9.96951,29.6951,-39.4412,-16.9615,-46.6909,-49.0244,-61.25,4.87805
66.15,-0.346748,-21.5512,0,4.86907,12.0733,0.256267,-40.6707,18.3232,47.4085,-0.0718506,0.129331,0.00479004,4.96951,1.21951,1.67683
66.1557,0.559029,-20.6431,0,2.4525,11.3045,-0.0215552,-43.9939,21.6159,66.7378,-42.1476,-7.26649,1.02028,4.96951,1.21951,1.67683
66.173,1.39606,-20.6309,0,1.37235,11.3644,-0.728086,-44.1159,28.1707,72.5,-0.0718506,0.129331,0.00479004,4.96951,1.21951,1.67683
66.1787,1.90849,-19.814,0,-2.23216,11.2614,-1.6334,-43.1098,38.7195,78.0183,-41.3811,-13.9438,0.00239502,4.93902,1.18902,1.64634
66.1951,2.32296,-20.9899,0,-2.98659,11.2877,-1.57353,-39.7256,33.9939,76.4329,-39.4412,-16.9615,-46.6909,-49.0244,-61.25,4.87805
66.2126,2.67878,-20.9777,0,-3.27399,11.5703,-1.5879,-33.4146,31.6159,73.2927,-0.0718506,0.129331,0.00479004,4.96951,1.21951,1.67683
66.2184,3.05591,-20.0449,0,-2.75906,11.8769,-1.5376,-27.1037,19.3293,70.6402,-38.3443,-3.559,1.7292,4.96951,1.21951,1.67683
66.2358,3.43966,-20.0327,0,-2.59141,11.7859,-1.49449,-25.3049,12.1951,70.7012,-0.0718506,0.129331,0.00479004,4.96951,1.21951,1.67683
66.2416,3.84624,-18.726,0,-2.23455,11.2662,-1.09931,-21.1585,-18.2317,71.4024,-42.5978,0.234712,9.8124,4.93902,1.18902,1.64634
66.2581,4.26553,-19.945,0,-2.04535,10.8878,-0.888552,-17.3476,-32.2866,72.3476,-39.4412,-16.9615,-46.6909,-49.0244,-61.25,4.87805
66.2753,4.70645,-19.9328,0,-1.7771,10.5381,-0.845442,-14.0549,-39.2073,73.2317,-0.0718506,0.129331,0.00479004,4.96951,1.21951,1.67683
66.2811,5.12244,-19.0227,0,-1.74836,10.0184,-0.61552,-7.77439,-26.8598,72.2561,-39.3981,4.07632,2.10283,4.96951,1.21951,1.67683
66.2984,5.51479,-19.0105,0,-1.81542,10.0423,-0.349673,-5.85366,-23.1707,71.4024,-0.0718506,0.129331,0.00479004,4.96951,1.21951,1.67683
66.3043,5.91669,-18.1182,0,-1.25978,10.1477,0.217947,-3.93293,-20.2744,66.7073,-37.6353,4.30625,2.32077,4.93902,1.18902,1.64634
66.3209,6.34804,-19.3612,0,-0.687371,10.1142,-0.0598755,-1.40244,-17.8049,64.0244,-39.4412,-16.9615,-46.6909,-49.0244,-61.25,4.87805
66.3382,6.79972,-19.349,0,-0.167651,9.99442,-0.64905,1.82927,-8.96341,61.0061,-0.0718506,0.129331,0.00479004,4.96951,1.21951,1.67683
