time,angle1,angle2,intgangle,accX1,accY1,accZ1,gyroX1,gyroY1,gyroZ1,accX2,accY2,accZ2,gyroX2,gyroY2,gyroZ2
13.407,84.1406,4.46916,0,9.82197,0.874182,0.65384,-0.396341,0.457317,-2.16463,-9.88425,-0.337698,0.787961,-1.15854,-0.121951,2.62195
13.4158,84.1303,4.45347,0,9.82437,0.907712,0.622705,-0.365854,0.579268,-2.43902,-9.89622,-0.371228,0.742456,-1.03659,-0.335366,2.43902
13.4258,84.1273,4.45687,0,9.78844,0.881367,0.64426,-0.640244,0.365854,-2.13415,-9.89143,-0.308958,0.775986,-0.884146,0.0304878,2.80488
13.4358,84.1269,4.44714,0,9.74294,0.869392,0.673001,-0.518293,0.0914634,-2.04268,-9.8603,-0.311353,0.749641,-0.701219,-0.335366,2.9878
13.4458,84.1264,4.42705,0,9.74054,0.866997,0.66342,-0.731707,0.182927,-2.07317,-9.88425,-0.328118,0.728086,-0.640244,-0.396341,3.14024
13.4558,84.1275,4.43108,0,9.72617,0.855022,0.646655,-0.97561,0.0914634,-2.07317,-9.86748,-0.306563,0.771196,-0.182927,-0.27439,3.07927
13.4659,84.1325,4.42573,0,9.71899,0.838257,0.65863,-0.945122,-0.182927,-1.98171,-9.88664,-0.335303,0.754431,-0.396341,-0.487805,3.23171
13.4759,84.1282,4.4461,0,9.74773,0.898132,0.58678,-0.823171,-0.762195,-2.0122,-9.87706,-0.356858,0.809517,-0.396341,-0.609756,3.35366
13.4861,84.1257,4.45128,0,9.77407,0.876577,0.61552,-1.15854,-0.762195,-2.13415,-9.90101,-0.344883,0.780776,-0.0914634,-0.548781,3.07927
13.4958,84.1211,4.46939,0,9.78126,0.878972,0.603545,-0.640244,-0.97561,-2.28659,-9.90341,-0.349673,0.804727,-0.365854,-0.243902,2.9878
13.5058,84.1242,4.46262,0,9.81719,0.859812,0.598755,-1.06707,-1.25,-1.95122,-9.87467,-0.335303,0.759221,-0.457317,-0.243902,2.80488
13.5159,84.1272,4.45545,0,9.78605,0.828677,0.56762,-1.43293,-1.37195,-2.2561,-9.8555,-0.311353,0.754431,-0.396341,-0.426829,2.92683
13.5259,84.1222,4.47285,0,9.73096,0.869392,0.579595,-1.43293,-1.7378,-2.37805,-9.86988,-0.265847,0.802332,-0.304878,-0.335366,2.7439
13.5358,84.1213,4.48424,0,9.75252,0.845442,0.62989,-1.21951,-1.31098,-2.34756,-9.86269,-0.285007,0.792751,-0.243902,-0.304878,3.07927
13.5459,84.1172,4.48151,0,9.76449,0.871787,0.62989,-1.40244,-1.46341,-2.31707,-9.84353,-0.299377,0.766406,-0.487805,-0.365854,3.01829
13.5559,84.1167,4.45841,0,9.75252,0.866997,0.541274,-1.34146,-1.61585,-2.10366,-9.83874,-0.316143,0.728086,-0.609756,-0.304878,3.20122
13.5659,84.1175,4.45143,0,9.78605,0.859812,0.57241,-1.61585,-1.70732,-2.10366,-9.88425,-0.304167,0.756826,-0.426829,-0.335366,2.83537
13.5758,84.1221,4.48044,0,9.8076,0.862207,0.538879,-1.28049,-1.70732,-1.82927,-9.86748,-0.332908,0.816702,-0.609756,-0.0914634,3.01829
13.5861,84.1265,4.48579,0,9.85311,0.852627,0.531694,-1.21951,-1.85976,-1.95122,-9.89862,-0.294587,0.785566,-0.27439,-0.27439,2.83537
13.5959,84.1274,4.48245,0,9.81958,0.871787,0.526904,-1.18902,-1.82927,-1.98171,-9.9058,-0.316143,0.771196,-0.152439,-0.121951,2.59146
13.6058,84.1311,4.48963,0,9.82916,0.831072,0.534089,-1.09756,-1.37195,-2.19512,-9.89383,-0.296982,0.787961,0.121951,-0.121951,2.86585
13.6159,84.1271,4.48734,0,9.8076,0.852627,0.517324,-1.18902,-1.21951,-2.53049,-9.88185,-0.299377,0.771196,-0.0914634,-0.335366,2.80488
13.6259,84.1236,4.47383,0,9.80042,0.840652,0.526904,-1.34146,-0.792683,-2.62195,-9.88185,-0.285007,0.752036,-0.0609756,0.152439,2.80488
13.6358,84.1234,4.45684,0,9.79563,0.819097,0.529299,-1.34146,-0.670732,-2.59146,-9.87706,-0.280217,0.744851,-0.0304878,0.0609756,2.62195
13.6459,84.1219,4.44814,0,9.81,0.852627,0.543669,-1.18902,-0.701219,-2.34756,-9.84832,-0.311353,0.752036,0.27439,-0.213415,2.62195
13.6559,84.1227,4.45201,0,9.8124,0.831072,0.534089,-1.03659,-0.609756,-2.40854,-9.86269,-0.292192,0.773591,0.0914634,-0.0914634,2.31707
13.6659,84.1255,4.46467,0,9.80521,0.831072,0.522114,-0.640244,-1.03659,-2.2561,-9.84832,-0.323328,0.787961,0.0914634,-0.121951,2.28659
13.676,84.125,4.47195,0,9.81,0.859812,0.536484,-0.97561,-1.18902,-2.19512,-9.87227,-0.301772,0.783171,0,-0.121951,2.2561
13.6861,84.1302,4.46279,0,9.8076,0.826282,0.471819,-0.884146,-1.25,-2.13415,-9.89143,-0.342488,0.754431,-0.0914634,-0.426829,2.68293
13.6958,84.1322,4.48049,0,9.79323,0.828677,0.495769,-0.731707,-0.884146,-2.31707,-9.89143,-0.296982,0.804727,-0.0609756,-0.243902,2.19512
13.7058,84.1302,4.48802,0,9.78366,0.847837,0.455054,-0.823171,-0.670732,-2.40854,-9.86988,-0.306563,0.785566,0.0609756,0.0304878,2.34756
13.716,84.1311,4.5055,0,9.81719,0.828677,0.392783,-0.335366,-0.0914634,-2.40854,-9.92257,-0.366438,0.835862,1.06707,-1.67683,2.16463
13.7258,84.1312,4.53082,0,9.7621,0.828677,0.479004,0,-0.0304878,-2.43902,-9.91059,-0.275427,0.840652,-0.0609756,-0.701219,2.07317
13.7358,84.1318,4.52082,0,9.78126,0.828677,0.469424,-0.243902,-0.335366,-2.40854,-9.8555,-0.299377,0.761616,0.365854,-0.335366,2.37805
13.7458,84.137,4.4906,0,9.82677,0.826282,0.423918,0,0.121951,-2.13415,-9.84114,-0.330513,0.725691,0.243902,-0.182927,2.22561
13.7559,84.133,4.49948,0,9.80042,0.859812,0.483794,-0.182927,-0.213415,-2.43902,-9.8603,-0.311353,0.790356,0.365854,-0.243902,2.5
13.7661,84.133,4.54049,0,9.82677,0.850232,0.522114,0.213415,-0.121951,-2.2561,-9.86988,-0.301772,0.843047,0.27439,-0.0304878,2.19512
13.7758,84.1296,4.55374,0,9.82677,0.883762,0.495769,0,-0.27439,-2.16463,-9.9058,-0.313748,0.809517,0.27439,0.0914634,1.76829
13.786,84.1312,4.59336,0,9.80281,0.862207,0.543669,-0.0609756,-0.152439,-2.0122,-9.88904,-0.285007,0.852627,0.426829,-0.0304878,2.0122
13.7958,84.1302,4.65706,0,9.79323,0.852627,0.522114,0.152439,0.152439,-2.28659,-9.89622,-0.292192,0.900527,-0.182927,0.0304878,1.82927
13.8058,84.1307,4.66296,0,9.77886,0.838257,0.555645,0.0609756,0.0609756,-2.31707,-9.84114,-0.285007,0.811912,0.0304878,-0.213415,2.0122
13.8161,84.1309,4.64788,0,9.74533,0.847837,0.502954,-0.0914634,0.0914634,-2.22561,-9.88425,-0.304167,0.780776,0.304878,0.0914634,2.07317
13.8258,84.1314,4.64172,0,9.76689,0.864602,0.55804,-0.0304878,-0.0609756,-2.04268,-9.82916,-0.335303,0.787961,0.27439,0.304878,2.07317
13.8359,84.1253,4.64649,0,9.7597,0.878972,0.546064,-0.0914634,-0.0304878,-2.37805,-9.83635,-0.354463,0.807122,0.152439,-0.27439,2.07317
13.8459,84.1247,4.63695,0,9.74054,0.876577,0.529299,-0.0609756,-0.335366,-1.98171,-9.85311,-0.340093,0.785566,0.304878,-0.0304878,2.07317
13.8559,84.1189,4.60189,0,9.78366,0.874182,0.529299,-0.0914634,-0.335366,-2.43902,-9.88185,-0.320933,0.742456,0.0609756,0.0914634,2.0122
13.8659,84.1219,4.63671,0,9.81719,0.855022,0.519719,-0.152439,-0.701219,-2.0122,-9.88904,-0.311353,0.857417,0.0609756,-0.152439,1.92073
13.876,84.12,4.63257,0,9.80281,0.866997,0.538879,-0.213415,-0.579268,-2.22561,-9.92017,-0.311353,0.797541,0.152439,0.0609756,2.0122
13.8859,84.114,4.63733,0,9.80521,0.900527,0.531694,-0.335366,-0.640244,-2.19512,-9.87706,-0.332908,0.809517,-0.0914634,0.27439,2.0122
13.8958,84.1113,4.63592,0,9.83395,0.878972,0.55325,-0.121951,-0.27439,-2.19512,-9.8603,-0.371228,0.797541,-0.335366,0.0609756,2.0122
13.9058,84.111,4.63156,0,9.82916,0.874182,0.502954,-0.213415,-0.152439,-2.07317,-9.86509,-0.354463,0.792751,-0.731707,-0.0609756,2.07317
13.9159,84.1122,4.62063,0,9.7597,0.874182,0.493374,-0.0304878,0.0304878,-1.92073,-9.84832,-0.368833,0.780776,-0.335366,0,2.19512
13.926,84.106,4.59584,0,9.81479,0.900527,0.502954,-0.243902,-0.396341,-2.22561,-9.85311,-0.342488,0.756826,-0.182927,-0.0304878,2.37805
13.9358,84.1095,4.58974,0,9.82197,0.857417,0.502954,-0.182927,-0.182927,-1.98171,-9.83395,-0.342488,0.780776,-0.0609756,0.0609756,2.2561
13.9458,84.1139,4.55378,0,9.80042,0.843047,0.510139,-0.396341,0.0609756,-2.04268,-9.85072,-0.368833,0.730481,-0.0609756,0.121951,2.53049
13.9559,84.1212,4.52713,0,9.78366,0.840652,0.534089,-0.0609756,0.182927,-1.85976,-9.8555,-0.380808,0.742456,0.487805,0.0304878,2.22561
13.9659,84.1252,4.51849,0,9.78126,0.843047,0.538879,-0.304878,0.0609756,-2.04268,-9.85311,-0.349673,0.766406,0.396341,0.0304878,2.13415
13.9761,84.1179,4.51165,0,9.75012,0.874182,0.517324,-0.335366,0.0304878,-2.53049,-9.87467,-0.347278,0.768801,0.152439,-0.0914634,2.5
13.9859,84.1121,4.48823,0,9.81958,0.883762,0.471819,-0.304878,0.0609756,-2.37805,-9.86269,-0.313748,0.740061,0.243902,0.0609756,2.22561
13.9958,84.1114,4.50827,0,9.81,0.855022,0.526904,-0.304878,0.0304878,-2.28659,-9.88185,-0.354463,0.809517,0.182927,-0.0914634,2.34756
14.0058,84.113,4.50745,0,9.80281,0.862207,0.505349,-0.243902,0.365854,-2.04268,-9.92017,-0.342488,0.780776,0.0304878,-0.0304878,2.16463
14.0158,84.1136,4.52364,0,9.82437,0.878972,0.512534,-0.243902,0.121951,-1.95122,-9.87467,-0.347278,0.804727,-0.0304878,0.0304878,2.10366
14.0261,84.111,4.51476,0,9.82916,0.898132,0.56762,-0.548781,0.27439,-1.98171,-9.88185,-0.325723,0.766406,-0.335366,0.152439,2.04268
14.0358,84.111,4.50152,0,9.78126,0.886157,0.512534,-0.396341,0.152439,-1.89024,-9.88904,-0.373623,0.759221,-0.396341,0.0304878,2.04268
14.0458,84.1119,4.46016,0,9.78844,0.883762,0.526904,-0.365854,-0.0609756,-1.85976,-9.8603,-0.361648,0.706531,-0.426829,0.121951,2.22561
14.0559,84.1104,4.44971,0,9.77407,0.895737,0.574805,-0.182927,0.0914634,-1.89024,-9.92736,-0.352068,0.756826,-0.213415,0.0304878,2.31707
14.0661,84.1156,4.43488,0,9.80521,0.862207,0.550855,-0.396341,0.121951,-1.79878,-9.92496,-0.361648,0.744851,-0.243902,0.213415,2.10366
14.0759,84.1167,4.45511,0,9.81479,0.888552,0.570015,-0.396341,0.182927,-1.79878,-9.98963,-0.337698,0.816702,0.457317,-0.335366,1.70732
14.0858,84.1224,4.47087,0,9.82197,0.874182,0.529299,-0.182927,-0.121951,-1.64634,-9.93694,-0.325723,0.804727,0.27439,-0.27439,1.43293
14.0958,84.1273,4.4842,0,9.82197,0.857417,0.56283,-0.243902,-0.365854,-1.85976,-9.86509,-0.268242,0.792751,0.243902,-0.0304878,1.4939
14.1059,84.1361,4.48959,0,9.78605,0.857417,0.522114,-0.182927,-0.304878,-1.58537,-9.89383,-0.380808,0.790356,1.70732,-1.18902,1.34146
14.116,84.1437,4.50967,0,9.77168,0.862207,0.483794,-0.365854,-0.335366,-1.58537,-9.89622,-0.364043,0.811912,0.457317,-0.121951,1.03659
14.1258,84.1574,4.52609,0,9.79323,0.821492,0.481399,-0.182927,-0.396341,-1.61585,-9.97526,-0.368833,0.821492,0.792683,-0.396341,1.0061
14.136,84.1662,4.51147,0,9.74773,0.819097,0.570015,-0.365854,-0.335366,-1.89024,-9.94173,-0.289797,0.759221,0.945122,-0.213415,0.823171
14.1458,84.1804,4.46025,0,9.7597,0.792751,0.541274,-0.396341,-0.518293,-1.79878,-9.84114,-0.244292,0.694556,0.701219,0.0609756,0.914634
14.1558,84.1903,4.48173,0,9.78126,0.785566,0.57241,-0.396341,-0.213415,-2.10366,-9.88904,-0.237107,0.807122,0.97561,-0.0609756,0.518293
14.1659,84.1963,4.46235,0,9.7621,0.807122,0.560435,-0.335366,-0.457317,-2.13415,-9.91059,-0.210762,0.740061,0.792683,0.27439,0.426829
14.1759,84.1979,4.49307,0,9.79323,0.828677,0.538879,-0.396341,-0.823171,-2.22561,-9.87706,-0.258662,0.828677,0.853659,0.27439,0.487805
14.1861,84.2034,4.50888,0,9.79084,0.816702,0.510139,-0.182927,-0.762195,-2.07317,-9.81719,-0.294587,0.797541,0.97561,0.121951,0.609756
14.196,84.2094,4.52178,0,9.81,0.807122,0.488584,-0.0609756,-0.823171,-2.13415,-9.84114,-0.344883,0.797541,1.0061,-0.121951,0.670732
14.2062,84.2155,4.52108,0,9.7621,0.799937,0.490979,-0.182927,-1.18902,-2.16463,-9.88664,-0.328118,0.780776,1.15854,0.152439,0.640244
14.2161,84.2204,4.54376,0,9.78366,0.802332,0.507744,0.243902,-0.97561,-2.22561,-9.87946,-0.328118,0.821492,0.731707,-0.182927,0.853659
14.2259,84.2192,4.53977,0,9.77647,0.799937,0.498164,0.182927,-0.823171,-2.68293,-9.82197,-0.277822,0.773591,0.762195,-0.182927,0.762195
14.2359,84.2152,4.56103,0,9.76928,0.811912,0.565225,0.0609756,-1.03659,-2.77439,-9.88185,-0.296982,0.843047,-0.0609756,-1.12805,1.0061
14.2458,84.2103,4.59327,0,9.78366,0.840652,0.519719,0.426829,-1.03659,-2.56098,-9.88904,-0.380808,0.881367,0.487805,-1.21951,0.945122
14.2559,84.2045,4.63567,0,9.84353,0.855022,0.483794,0.457317,-1.0061,-2.53049,-9.82197,-0.337698,0.912502,-0.0304878,-1.34146,1.06707
14.2659,84.1942,4.64065,0,9.83156,0.905317,0.402363,0.426829,-1.34146,-2.34756,-9.9058,-0.469424,0.816702,0.914634,-1.21951,1.28049
14.2758,84.1814,4.57867,0,9.87227,0.912502,0.493374,0.609756,-1.52439,-2.53049,-9.86748,-0.512534,0.687371,1.4939,-0.243902,0.823171
14.2861,84.1722,4.62204,0,9.8555,0.902922,0.476609,0.396341,-0.97561,-2.34756,-9.93454,-0.373623,0.902922,0.670732,-0.762195,0.701219
14.2958,84.1687,4.62411,0,9.87227,0.871787,0.471819,0.335366,-0.762195,-2.2561,-9.92496,-0.354463,0.807122,-0.365854,-0.97561,0.182927
14.3058,84.1662,4.64344,0,9.86269,0.862207,0.476609,0.213415,-0.548781,-2.28659,-10.0256,-0.385598,0.874182,-0.365854,-1.52439,0.0609756
14.316,84.1597,4.68889,0,9.82677,0.855022,0.505349,-0.0914634,0,-2.65244,-9.92496,-0.354463,0.888552,0.731707,-0.152439,-0.121951
14.3259,84.1555,4.68863,0,9.75491,0.840652,0.455054,0,0.548781,-2.59146,-9.8555,-0.438289,0.807122,0.609756,-0.731707,0.0914634
14.3358,84.1466,4.67284,0,9.73575,0.855022,0.462239,-0.121951,0.335366,-2.80488,-9.83635,-0.390388,0.771196,-0.853659,-0.640244,0.548781
14.3459,84.1389,4.59383,0,9.76928,0.864602,0.419128,0.0609756,0.548781,-2.65244,-9.8603,-0.534089,0.617915,-1.64634,-0.762195,0.762195
14.3559,84.1338,4.58508,0,9.76689,0.862207,0.471819,0.121951,-0.182927,-2.46951,-9.95849,-0.464634,0.773591,-0.243902,-1.15854,0.640244
14.3659,84.1322,4.59106,0,9.78605,0.847837,0.55325,0.152439,-0.609756,-2.37805,-9.96328,-0.387993,0.819097,-0.518293,-2.04268,0.609756
14.3759,84.1298,4.59517,0,9.82437,0.862207,0.471819,0.27439,-0.548781,-2.31707,-9.90341,-0.380808,0.804727,-0.0304878,-0.792683,0.579268
14.3861,84.1263,4.60895,0,9.82677,0.823887,0.522114,0.0304878,-0.27439,-2.80488,-9.92975,-0.373623,0.845442,-1.92073,-1.95122,0.731707
14.3958,84.1313,4.56419,0,9.8124,0.771196,0.505349,0.396341,0.0304878,-2.68293,-9.8076,-0.519719,0.706531,0.701219,0.365854,0.243902
14.4058,84.127,4.6318,0,9.79563,0.802332,0.443079,0.396341,0.792683,-3.07927,-9.80281,-0.306563,0.910107,-2.31707,-0.365854,0.518293
14.416,84.1204,4.57484,0,9.75252,0.804727,0.428708,0.762195,0.823171,-3.23171,-9.71659,-0.474214,0.665815,-3.44512,-0.701219,1.46341
14.4258,84.1068,4.53438,0,9.78844,0.893342,0.457449,0.579268,-0.0609756,-2.89634,-9.87227,-0.486189,0.723296,0.823171,0.0609756,1.43293
14.4358,84.0963,4.55053,0,9.84114,0.883762,0.565225,0.762195,-0.152439,-2.80488,-9.92736,-0.495769,0.831072,-0.731707,-1.03659,1.70732
14.4459,84.0859,4.5278,0,9.82197,0.934058,0.548459,1.03659,-0.152439,-2.22561,-9.87227,-0.56283,0.732876,-0.487805,-0.670732,1.64634
14.4559,84.0793,4.50198,0,9.81479,0.931663,0.517324,0.853659,0.0609756,-1.95122,-9.8076,-0.433499,0.687371,-2.13415,-1.92073,1.70732
14.4659,84.0764,4.50824,0,9.73575,0.902922,0.526904,1.15854,0.0609756,-1.95122,-9.82437,-0.493374,0.783171,0.670732,0,1.70732
14.4759,84.0763,4.54157,0,9.73096,0.883762,0.536484,0.670732,-0.152439,-1.95122,-9.8076,-0.440684,0.847837,-0.426829,-0.701219,1.61585
14.4861,84.0767,4.55075,0,9.72617,0.871787,0.541274,0.762195,-0.304878,-2.04268,-9.81958,-0.474214,0.807122,-1.89024,-1.52439,1.79878
14.4958,84.0789,4.55135,0,9.78605,0.895737,0.522114,0.609756,-0.853659,-1.70732,-9.80281,-0.483794,0.780776,-1.18902,-1.55488,2.10366
14.5058,84.0779,4.58787,0,9.77886,0.919688,0.56283,0.335366,-0.579268,-1.64634,-9.80281,-0.59157,0.883762,-1.31098,-1.28049,2.19512
14.5159,84.0816,4.61674,0,9.78844,0.902922,0.55804,0.365854,-0.518293,-1.52439,-9.82197,-0.598755,0.866997,-0.792683,-1.15854,2.2561
14.526,84.0771,4.64601,0,9.83874,0.943638,0.524509,-0.121951,-0.762195,-1.67683,-9.74533,-0.555645,0.838257,-1.09756,-0.304878,2.40854
14.5358,84.0805,4.66056,0,9.87706,0.926873,0.522114,-0.213415,-0.823171,-1.34146,-9.69983,-0.529299,0.816702,-0.121951,-0.579268,2.46951
14.5458,84.0829,4.70277,0,9.8579,0.936453,0.505349,-0.304878,-0.426829,-1.28049,-9.71899,-0.536484,0.866997,-0.792683,0.335366,2.43902
14.5558,84.0834,4.71349,0,9.80521,0.919688,0.498164,-0.27439,-0.548781,-1.55488,-9.78366,-0.524509,0.826282,-0.182927,0.457317,2.71341
14.5658,84.0881,4.76562,0,9.8076,0.917292,0.481399,-0.365854,-0.396341,-1.31098,-9.81958,-0.56762,0.936453,-0.152439,0.823171,2.56098
14.5758,84.0922,4.82006,0,9.79323,0.881367,0.519719,-0.731707,-0.426829,-1.70732,-9.87227,-0.58199,0.948428,0.365854,0.640244,2.59146
14.5861,84.09,4.87212,0,9.78844,0.910107,0.481399,-0.701219,-0.335366,-1.82927,-9.80521,-0.56283,0.931663,0.548781,0.457317,3.01829
14.596,84.0901,4.89734,0,9.79803,0.910107,0.445474,-0.945122,-0.396341,-1.67683,-9.84593,-0.550855,0.895737,0.335366,0.609756,2.9878
14.6058,84.0932,4.96615,0,9.74533,0.890947,0.488584,-1.0061,-0.396341,-1.64634,-9.82916,-0.440684,0.958008,-0.884146,0.121951,3.07927
14.616,84.0862,4.99032,0,9.79803,0.926873,0.548459,-1.31098,-0.945122,-2.0122,-9.8579,-0.459844,0.907712,-0.884146,0.487805,3.20122
14.6258,84.0788,5.02497,0,9.79084,0.917292,0.483794,-1.34146,-0.914634,-2.16463,-9.85072,-0.428708,0.941243,-1.09756,0.701219,3.01829
14.6358,84.0728,5.04932,0,9.8124,0.907712,0.498164,-1.25,-0.579268,-2.19512,-9.82916,-0.462239,0.914897,-1.37195,0.487805,3.29268
14.6459,84.0737,5.04131,0,9.86269,0.886157,0.438289,-1.37195,-0.762195,-1.95122,-9.87227,-0.474214,0.857417,-0.731707,0.27439,2.9878
14.6559,84.0754,5.03908,0,9.91538,0.898132,0.440684,-1.34146,-0.426829,-1.79878,-9.80042,-0.356858,0.859812,0.762195,0.914634,2.92683
14.6659,84.0827,4.99469,0,9.91538,0.914897,0.433499,-1.18902,-0.396341,-1.25,-9.85072,-0.431104,0.778381,-0.670732,0.457317,3.04878
14.6759,84.0916,5.00322,0,9.8603,0.907712,0.455054,-0.701219,0.152439,-1.18902,-9.89862,-0.423918,0.881367,-0.487805,0.243902,3.07927
14.686,84.1111,4.97234,0,9.81479,0.859812,0.450264,-0.518293,0.213415,-1.06707,-9.8124,-0.435894,0.811912,1.52439,0,3.2622
14.696,84.147,4.96559,0,9.79323,0.831072,0.421523,-0.670732,0.670732,-0.640244,-9.84114,-0.390388,0.845442,-0.853659,-0.0304878,3.56707
14.7058,84.1767,4.92895,0,9.7621,0.785566,0.404758,-0.640244,0.731707,-1.15854,-9.83635,-0.411943,0.785566,-0.335366,0.335366,3.59756
14.7158,84.2106,4.89284,0,9.77886,0.787961,0.445474,-0.457317,0.670732,-0.945122,-9.86509,-0.423918,0.790356,-0.426829,0.0914634,3.47561
14.7259,84.2461,4.8658,0,9.78844,0.783171,0.455054,-0.579268,0.27439,-0.884146,-9.86748,-0.407153,0.792751,-0.426829,0.335366,3.41463
14.736,84.2772,4.84556,0,9.77168,0.756826,0.411943,-0.243902,0.335366,-1.18902,-9.81719,-0.402363,0.797541,-0.182927,0.365854,3.07927
14.7458,84.3047,4.83125,0,9.81719,0.754431,0.455054,-0.0914634,0.609756,-1.31098,-9.84114,-0.397573,0.809517,-0.27439,0.182927,3.20122
14.7558,84.3235,4.80271,0,9.80281,0.766406,0.419128,0,0.884146,-1.58537,-9.82197,-0.392783,0.785566,-0.548781,-0.0304878,3.2622
14.7659,84.3417,4.79587,0,9.78844,0.787961,0.526904,0.0609756,0.731707,-1.40244,-9.82197,-0.399968,0.811912,-0.579268,0.457317,3.2622
14.7759,84.357,4.75071,0,9.79803,0.771196,0.505349,0.0914634,0.823171,-1.67683,-9.8603,-0.376018,0.742456,-0.335366,0.304878,3.2622
14.7861,84.3674,4.7152,0,9.8076,0.802332,0.455054,0.121951,0.914634,-1.64634,-9.8124,-0.445474,0.706531,0.640244,1.55488,3.17073
14.7958,84.3754,4.70703,0,9.79563,0.799937,0.452659,0.0914634,0.731707,-1.79878,-9.91538,-0.361648,0.802332,-0.762195,0.27439,2.95732
14.8058,84.3841,4.71384,0,9.8124,0.797541,0.459844,0.27439,0.914634,-1.76829,-9.94891,-0.344883,0.835862,-0.457317,0.640244,3.04878
14.8161,84.3867,4.7067,0,9.81,0.811912,0.495769,0.365854,0.97561,-2.0122,-9.89143,-0.390388,0.797541,-0.27439,0.97561,3.14024
14.8258,84.392,4.71847,0,9.78366,0.785566,0.488584,0.243902,0.762195,-2.07317,-9.9058,-0.411943,0.845442,-0.426829,0.792683,3.10976
14.8358,84.3922,4.69691,0,9.77647,0.845442,0.522114,0.426829,0.487805,-1.79878,-9.86509,-0.433499,0.756826,-0.152439,1.06707,2.86585
14.846,84.3874,4.6664,0,9.75491,0.838257,0.471819,0.365854,0.27439,-2.22561,-9.91299,-0.392783,0.742456,-0.457317,0.701219,2.80488
14.8558,84.3889,4.66435,0,9.83395,0.840652,0.550855,0.640244,0.304878,-1.79878,-9.93933,-0.443079,0.807122,-0.304878,0.548781,2.59146
14.8659,84.3918,4.63426,0,9.81719,0.823887,0.548459,0.457317,0.121951,-1.85976,-9.92017,-0.407153,0.754431,-0.548781,0.182927,2.89634
14.8759,84.3921,4.62636,0,9.77168,0.821492,0.474214,0.335366,0.609756,-2.04268,-9.93454,-0.409548,0.790356,-0.213415,0.243902,2.71341
14.8859,84.386,4.61689,0,9.80042,0.871787,0.55325,0.670732,0.731707,-1.98171,-9.93694,-0.402363,0.785566,0.0914634,0.304878,2.86585
14.8959,84.3829,4.61844,0,9.80042,0.833467,0.457449,0.457317,0.518293,-2.19512,-9.92496,-0.383203,0.804727,0.0304878,0.27439,2.77439
14.9059,84.3787,4.60582,0,9.78366,0.859812,0.464634,0.670732,0.548781,-1.98171,-9.94412,-0.445474,0.778381,0.396341,0.304878,2.68293
14.9158,84.3752,4.60899,0,9.78126,0.833467,0.531694,0.579268,0.457317,-2.22561,-9.88664,-0.467029,0.802332,0.0609756,0.182927,2.92683
14.9258,84.3726,4.60297,0,9.78126,0.855022,0.538879,0.182927,0.396341,-1.92073,-9.91538,-0.459844,0.787961,0,0.27439,2.89634
14.9359,84.3711,4.60312,0,9.77886,0.814307,0.517324,0.182927,0.152439,-2.28659,-9.87227,-0.457449,0.795146,-0.365854,0.0914634,2.89634
14.9461,84.3684,4.60726,0,9.80042,0.819097,0.524509,0.335366,0.365854,-2.34756,-9.86269,-0.438289,0.802332,-0.579268,0.335366,2.77439
14.9559,84.3665,4.56925,0,9.82677,0.826282,0.538879,-0.0304878,-0.182927,-2.22561,-9.86748,-0.421523,0.732876,-0.396341,0.0609756,2.77439
14.9659,84.367,4.54678,0,9.80521,0.826282,0.58678,0,0.0609756,-2.04268,-9.87946,-0.433499,0.744851,-0.731707,-0.365854,2.71341
14.9758,84.3696,4.53213,0,9.81719,0.778381,0.543669,0.0609756,-0.121951,-2.37805,-9.84593,-0.423918,0.759221,-0.670732,-0.0609756,2.92683
14.9858,84.3688,4.49992,0,9.78844,0.807122,0.541274,0,0.304878,-2.31707,-9.88185,-0.447869,0.716111,-0.213415,-0.457317,2.68293
14.996,84.371,4.47065,0,9.82197,0.787961,0.459844,-0.0609756,0.396341,-2.31707,-9.86748,-0.445474,0.720901,-0.27439,-0.304878,2.77439
15.0058,84.3734,4.46358,0,9.7597,0.795146,0.517324,0.121951,0.609756,-2.19512,-9.86748,-0.411943,0.756826,0.213415,-0.426829,3.07927
15.0158,84.3724,4.43034,0,9.78126,0.807122,0.502954,0.0609756,0.121951,-2.31707,-9.86269,-0.426313,0.711321,0.152439,-0.182927,2.9878
15.026,84.3713,4.42984,0,9.7621,0.816702,0.56283,0.0304878,-0.0609756,-2.22561,-9.87706,-0.423918,0.764011,0.0609756,-0.335366,3.2622
15.0359,84.3663,4.42574,0,9.78126,0.831072,0.548459,0,-0.0914634,-2.37805,-9.91299,-0.407153,0.759221,0.0609756,-0.396341,3.01829
15.0458,84.3674,4.45264,0,9.80042,0.819097,0.55325,0.152439,-0.335366,-2.07317,-9.97047,-0.409548,0.828677,-0.0914634,-0.396341,2.92683
15.0559,84.3594,4.45135,0,9.83395,0.840652,0.543669,0.27439,-0.518293,-2.56098,-9.96328,-0.450264,0.773591,-0.0304878,-0.0304878,2.95732
15.0658,84.3518,4.44764,0,9.82916,0.871787,0.526904,0.426829,-0.304878,-2.19512,-9.9561,-0.421523,0.768801,-0.0304878,0,2.7439
15.0759,84.3389,4.45056,0,9.81,0.878972,0.517324,0.182927,-0.304878,-2.56098,-9.93933,-0.426313,0.778381,0.335366,-0.182927,2.7439
15.0859,84.3299,4.46267,0,9.80521,0.886157,0.490979,0.0914634,0.0914634,-2.16463,-9.88904,-0.416733,0.792751,-0.0914634,-0.304878,2.9878
15.0959,84.3234,4.46031,0,9.8076,0.862207,0.505349,-0.0304878,-0.182927,-2.2561,-9.90101,-0.433499,0.768801,0.0914634,-0.0304878,3.04878
15.1059,84.3173,4.52447,0,9.8579,0.874182,0.495769,-0.182927,0.152439,-2.13415,-10.0782,-0.543669,0.996328,0.853659,-1.37195,2.95732
15.1159,84.3107,4.47699,0,9.82916,0.898132,0.498164,-0.213415,-0.0609756,-1.89024,-9.74773,-0.246687,0.59636,1.0061,-2.40854,2.86585
15.1258,84.306,4.48253,0,9.79563,0.855022,0.450264,0.182927,0.243902,-2.22561,-9.96807,-0.469424,0.799937,0.945122,-2.5,3.10976
15.1358,84.3043,4.4815,0,9.81,0.857417,0.471819,-0.0304878,0.243902,-1.98171,-9.92257,-0.364043,0.773591,0.27439,-1.34146,3.17073
15.1459,84.3049,4.49622,0,9.78844,0.838257,0.498164,0.0304878,-0.0304878,-2.0122,-9.95849,-0.423918,0.835862,1.70732,-2.53049,3.10976
15.1559,84.2996,4.50008,0,9.77168,0.871787,0.502954,0,-0.182927,-2.07317,-9.94891,-0.500559,0.795146,0.182927,-2.46951,2.95732
15.1658,84.3005,4.51871,0,9.81958,0.864602,0.493374,-0.121951,-0.457317,-1.7378,-9.89383,-0.337698,0.855022,0.243902,-4.42073,2.62195
15.1758,84.3094,4.53401,0,9.83874,0.859812,0.505349,0.0304878,-0.426829,-1.28049,-9.93933,-0.433499,0.847837,-0.335366,-4.48171,2.71341
15.186,84.3143,4.49866,0,9.82916,0.869392,0.486189,0.182927,-0.213415,-1.40244,-9.7597,-0.289797,0.627495,-1.37195,-3.44512,2.68293
15.1958,84.313,4.53716,0,9.8076,0.888552,0.505349,0.121951,0.0914634,-1.58537,-10.0495,-0.447869,0.955613,-0.426829,-4.42073,2.89634
15.206,84.321,4.52017,0,9.80042,0.852627,0.524509,0.182927,0.152439,-1.37195,-9.7621,-0.282612,0.706531,-2.07317,-2.83537,2.80488
15.2158,84.3264,4.44915,0,9.80042,0.857417,0.529299,0.0914634,0.335366,-1.46341,-9.80521,-0.402363,0.512534,-2.37805,2.46951,3.35366
15.2258,84.3414,4.09858,0,9.76449,0.850232,0.500559,0.304878,0,-0.97561,-8.87355,-0.795146,-0.63947,-0.914634,56.9512,4.29878
15.2359,84.3588,4.31144,0,9.79803,0.843047,0.455054,0.0914634,0.0304878,-0.914634,-10.7991,-0.141306,1.81782,-2.34756,16.4024,3.2622
15.2459,84.3722,4.24222,0,9.79563,0.847837,0.507744,0.182927,-0.213415,-1.03659,-9.87946,-0.387993,0.467029,-0.853659,28.9024,3.65854
15.2561,84.3903,4.18694,0,9.8124,0.828677,0.500559,0.152439,-0.152439,-0.97561,-9.89383,-0.423918,0.514929,-1.52439,26.8598,3.35366
15.2658,84.413,4.17752,0,9.8124,0.802332,0.538879,0.487805,-0.304878,-0.97561,-10.1477,-0.342488,0.718506,-1.70732,20.3963,3.56707
15.2758,84.434,4.6493,0,9.87227,0.821492,0.510139,0.27439,-0.213415,-0.853659,-13.3882,-0.60115,3.82485,0.121951,-29.6951,3.38415
15.2859,84.456,4.53395,0,9.85311,0.816702,0.488584,0.457317,-0.27439,-0.823171,-9.55373,-0.423918,0.285007,0.0609756,-6.98171,3.2622
15.2958,84.4812,4.50758,0,9.85072,0.831072,0.455054,0.426829,-0.0609756,-0.518293,-10.1285,-0.304167,0.675395,0.640244,-10.7317,3.04878
15.3058,84.499,4.46118,0,9.81,0.823887,0.490979,0.579268,0.304878,-0.853659,-10.0303,-0.469424,0.574805,0.701219,-11.311,3.04878
15.3158,84.5284,4.40997,0,9.77407,0.773591,0.490979,0.213415,0.548781,-0.792683,-10.0016,-0.344883,0.543669,-2.59146,-11.4329,2.83537
15.3259,84.5531,4.38159,0,9.78844,0.768801,0.495769,0.335366,0.518293,-0.97561,-10.0711,-0.390388,0.63947,-0.579268,-12.1646,3.35366
15.3361,84.5834,4.33449,0,9.7597,0.720901,0.510139,0.213415,0.396341,-1.09756,-9.94652,-0.313748,0.589175,-3.10976,-2.07317,2.92683
15.3458,84.6078,4.27889,0,9.69743,0.692161,0.546064,0.518293,0.426829,-1.52439,-9.94412,-0.383203,0.574805,-1.95122,-1.4939,3.41463
15.3558,84.6244,4.23536,0,9.72617,0.665815,0.524509,0.609756,0.0914634,-2.10366,-9.97286,-0.292192,0.550855,-1.43293,-5.36585,3.56707
15.3659,84.6273,4.24243,0,9.74294,0.704136,0.493374,0.518293,-0.121951,-2.62195,-10.2962,-0.347278,0.787961,-2.28659,-7.59146,3.71951
15.3759,84.6319,4.23986,0,9.77647,0.699346,0.507744,0.792683,-0.487805,-2.56098,-10.2267,-0.548459,0.737666,0.0914634,-10.4878,4.02439
15.3858,84.6279,4.2377,0,9.85311,0.754431,0.481399,0.640244,-0.304878,-2.68293,-10.1645,-0.546064,0.728086,0.457317,-17.8049,3.84146
15.3959,84.6168,4.25432,0,9.90101,0.799937,0.486189,0.487805,-0.548781,-2.83537,-10.277,-0.711321,0.807122,3.47561,-33.7195,3.59756
15.4061,84.6057,4.01113,0,9.88664,0.816702,0.510139,0.487805,-0.152439,-2.65244,-8.72506,-0.196392,-0.268242,-12.8963,25.4878,3.04878
15.4158,84.5963,4.36319,0,9.88664,0.814307,0.471819,0.518293,0.0304878,-2.56098,-14.5258,-3.11592,3.25244,17.378,-56.7378,4.32927
15.4259,84.5914,4.40699,0,9.89862,0.790356,0.510139,0.304878,0.0304878,-2.46951,-9.88185,1.18553,0.907712,1.25,-44.6341,2.89634
15.4358,84.5917,4.3605,0,9.82437,0.754431,0.505349,0.335366,0.457317,-2.40854,-9.84353,-0.431104,0.546064,-10.9451,-11.7073,2.71341
15.4459,84.5933,4.37236,0,9.80042,0.749641,0.483794,0.0304878,0.487805,-2.34756,-10.2483,-0.555645,0.852627,-1.89024,19.3902,3.17073
15.4559,84.5945,4.19779,0,9.79323,0.694556,0.464634,0.457317,0.792683,-2.92683,-8.94061,-1.20948,-0.0167651,14.3598,-14.4512,4.69512
15.4659,84.5941,4.16028,0,9.68785,0.675395,0.459844,0.213415,0.579268,-3.20122,-9.72138,-0.342488,0.536484,-2.5,-18.5366,3.96341
15.4759,84.5858,4.1066,0,9.71659,0.716111,0.486189,0.426829,0.609756,-3.44512,-9.49386,-0.277822,0.455054,-5.33537,-12.2561,3.84146
15.4859,84.5711,4.2174,0,9.74773,0.754431,0.483794,0.792683,0.487805,-3.62805,-10.5333,-0.538879,1.08734,-2.10366,-0.457317,4.11585
15.4958,84.5546,4.34227,0,9.74773,0.768801,0.488584,1.03659,0.609756,-3.65854,-11.6398,-1.7316,1.47054,15.7927,-34.3598,5.30488
15.5059,84.5333,4.36198,0,9.77647,0.771196,0.455054,0.792683,0.396341,-4.14634,-9.92736,0.0934058,0.823887,-4.54268,-19.3902,3.9939
15.5158,84.5139,4.32613,0,9.81958,0.804727,0.490979,0.762195,-0.487805,-3.65854,-9.7118,-0.522114,0.5772,-1.0061,-11.189,4.02439
15.526,84.4927,4.46186,0,9.89143,0.828677,0.505349,0.97561,-0.762195,-3.65854,-10.4495,-0.419128,1.22146,-2.31707,-0.731707,3.90244
15.5359,84.4708,4.51586,0,9.87706,0.833467,0.488584,0.914634,-0.426829,-3.68902,-10.1214,-0.328118,1.01549,0.0914634,-19.4207,4.26829
15.5459,84.4525,4.54451,0,9.88664,0.795146,0.510139,1.03659,-0.792683,-3.84146,-10.004,-0.397573,0.898132,0.640244,-22.0427,4.81707
15.5559,84.4319,4.52456,0,9.8603,0.778381,0.483794,0.823171,-0.304878,-4.26829,-9.82916,-0.376018,0.682581,-2.68293,-13.811,4.60366
15.5658,84.4128,4.58074,0,9.84593,0.749641,0.517324,0.792683,0.365854,-4.48171,-10.1956,-0.419128,1.04902,-0.823171,-13.9024,5
15.5759,84.3896,4.64449,0,9.79323,0.754431,0.474214,0.518293,0.609756,-4.81707,-10.2507,-0.376018,1.09213,-0.182927,-22.0427,5.51829
15.5859,84.3638,4.68682,0,9.81958,0.787961,0.440684,0.762195,0.365854,-4.7561,-10.1237,-0.373623,0.991538,1.25,-24.1768,5.42683
15.5959,84.3344,4.74457,0,9.80521,0.787961,0.450264,0.701219,0.27439,-5.15244,-10.0327,-0.292192,1.0586,1.18902,-24.6037,5.4878
15.6059,84.2991,4.8141,0,9.81479,0.864602,0.426313,1.03659,0.609756,-4.90854,-9.9561,-0.177231,1.11129,1.0061,-26.5854,5.4878
15.6161,84.2653,4.8928,0,9.8124,0.876577,0.414338,1.28049,0.762195,-4.69512,-9.94891,-0.268242,1.16398,0.457317,-25.9451,5.36585
15.6259,84.2301,4.98221,0,9.78366,0.893342,0.438289,1.15854,0.640244,-4.66463,-9.89862,-0.277822,1.22146,0.213415,-23.4451,5.27439
15.6358,84.1951,5.07785,0,9.73815,0.878972,0.505349,1.18902,0.640244,-4.84756,-9.95131,-0.316143,1.27176,-0.548781,-23.1402,4.81707
15.6459,84.1673,5.17237,0,9.73575,0.831072,0.502954,0.884146,0.365854,-4.7561,-9.89862,-0.366438,1.27655,-1.70732,-23.5061,4.5122
15.6558,84.1409,5.25194,0,9.74054,0.780776,0.529299,0.731707,0.396341,-5.27439,-9.82916,-0.376018,1.21906,-1.70732,-22.561,3.84146
15.6659,84.1182,5.35524,0,9.75012,0.728086,0.526904,0.182927,0.518293,-5.57927,-9.81719,-0.378413,1.33642,-2.04268,-21.8902,3.32317
15.6759,84.0926,5.44703,0,9.76689,0.704136,0.500559,0.152439,1.0061,-6.21951,-9.81479,-0.380808,1.30289,-2.71341,-22.5305,3.29268
15.6862,84.0683,5.55295,0,9.79323,0.677791,0.459844,0.304878,1.06707,-6.46341,-9.77168,-0.376018,1.37474,-3.04878,-22.9878,3.32317
15.6959,84.0305,5.65561,0,9.79803,0.752036,0.464634,0.487805,1.09756,-7.0122,-9.72617,-0.366438,1.37235,-3.20122,-23.0183,3.47561
15.7058,83.9885,5.78481,0,9.86748,0.792751,0.467029,0.396341,0.823171,-7.10366,-9.61361,-0.289797,1.4897,-3.78049,-22.2256,3.59756
15.7158,83.942,5.93401,0,9.90341,0.862207,0.459844,1.18902,0.487805,-6.85976,-9.57289,-0.261057,1.59029,-3.96341,-24.2988,4.2378
15.7258,83.8928,6.07576,0,9.87946,0.907712,0.517324,1.06707,1.25,-6.67683,-9.49146,-0.287402,1.57113,-3.38415,-23.1707,4.81707
15.7358,83.8434,6.21702,0,9.78366,0.893342,0.565225,1.21951,1.46341,-6.85976,-9.55134,-0.280217,1.60227,-3.23171,-24.2378,4.93902
15.7459,83.7971,6.32317,0,9.70941,0.840652,0.565225,1.37195,1.82927,-7.19512,-9.66151,-0.275427,1.4921,-2.7439,-23.9024,5.21341
15.7558,83.7478,6.44332,0,9.65911,0.831072,0.608335,1.55488,1.98171,-7.65244,-9.83156,-0.258662,1.59748,-2.04268,-25.9146,4.90854
15.7661,83.6985,6.58709,0,9.59445,0.816702,0.517324,1.40244,2.53049,-7.86585,-9.8076,-0.179626,1.72202,-2.16463,-23.2927,4.39024
15.7758,83.6374,6.73167,0,9.56331,0.886157,0.488584,1.25,2.68293,-8.29268,-9.99681,-0.220342,1.78429,-2.59146,-23.9024,3.41463
15.786,83.5637,6.87907,0,9.60163,0.996328,0.490979,1.12805,2.92683,-8.41463,-9.96568,-0.234712,1.81542,-2.34756,-26.189,2.9878
15.796,83.4854,7.047,0,9.60882,1.05141,0.534089,1.31098,2.53049,-8.38415,-9.98005,-0.208367,1.93757,-2.95732,-26.8293,2.16463
15.806,83.4082,7.23951,0,9.63037,1.07776,0.519719,1.18902,1.4939,-8.14024,-9.92736,-0.237107,2.0693,-3.29268,-27.0427,2.10366
15.8159,83.3334,7.41734,0,9.6639,1.05381,0.60594,1.12805,0.548781,-8.38415,-9.79803,-0.311353,2.01182,-3.01829,-25.6707,2.31707
15.8259,83.2562,7.61249,0,9.75012,1.06578,0.593965,1.09756,-0.243902,-8.75,-9.70462,-0.344883,2.10043,-3.23171,-26.8293,2.56098
15.8358,83.1824,7.80227,0,9.75731,1.02507,0.641865,1.46341,-0.335366,-9.05488,-9.53457,-0.349673,2.07409,-2.68293,-26.7683,2.59146
15.8459,83.1138,7.97893,0,9.81,0.969983,0.483794,1.52439,-0.152439,-9.39024,-9.44835,-0.364043,2.03098,-2.86585,-26.6463,2.7439
15.8559,83.0439,8.17366,0,9.81,1.0083,0.579595,1.34146,-0.121951,-9.20732,-9.41961,-0.399968,2.13396,-2.77439,-26.6159,2.71341
15.8661,82.9667,8.36541,0,9.84353,1.05141,0.574805,0.945122,0.0914634,-9.63415,-9.43638,-0.376018,2.15791,-2.92683,-27.2561,2.59146
15.8758,82.8918,8.55926,0,9.89862,1.08494,0.56762,1.06707,0.396341,-9.2378,-9.44117,-0.380808,2.20102,-2.34756,-27.8049,2.56098
15.8859,82.8237,8.76261,0,9.92736,1.1065,0.56283,0.487805,0.548781,-8.47561,-9.45793,-0.263452,2.28006,-3.01829,-28.3841,2.59146
15.8959,82.7661,8.93867,0,9.94173,1.1065,0.560435,0.27439,0.396341,-7.56098,-9.57529,-0.313748,2.22497,-1.92073,-25.7012,2.46951
15.9058,82.7061,9.13792,0,9.84593,1.1065,0.584385,0.365854,0,-7.80488,-9.65193,-0.234712,2.37825,-1.55488,-25.8841,1.79878
15.9159,82.6378,9.36601,0,9.81958,1.12566,0.603545,0.243902,0.609756,-8.5061,-9.68306,-0.170046,2.5507,-0.701219,-28.3537,2.13415
15.9259,82.5651,9.60347,0,9.68546,1.11608,0.622705,-0.243902,0.731707,-9.02439,-9.68785,-0.201182,2.63452,-1.43293,-30.122,1.95122
15.9359,82.488,9.84418,0,9.6184,1.11847,0.529299,0.518293,0.396341,-9.5122,-9.58247,-0.229922,2.66326,-1.52439,-30.3049,2.0122
15.9458,82.4106,10.0934,0,9.64474,1.11847,0.608335,0.792683,-0.121951,-9.72561,-9.46033,-0.244292,2.71116,-1.58537,-29.4512,1.79878
15.9559,82.3115,10.3401,0,9.64474,1.27894,0.490979,1.43293,-1.21951,-10.1829,-9.3789,-0.313748,2.72074,-1.98171,-29.3902,1.61585
15.9659,82.2095,10.5696,0,9.70701,1.32205,0.526904,1.76829,-1.21951,-10.2744,-9.2831,-0.371228,2.66087,-1.92073,-28.9024,1.82927
15.9759,82.1103,10.8194,0,9.77886,1.31487,0.519719,1.89024,-1.52439,-10.3963,-9.30226,-0.385598,2.79738,-1.89024,-28.0183,1.64634
15.986,82.0201,11.0513,0,9.82916,1.29092,0.486189,1.61585,-1.70732,-10.0305,-9.35495,-0.443079,2.77822,-1.61585,-27.561,1.82927
15.996,81.9421,11.2813,0,9.85311,1.24302,0.483794,1.15854,-1.55488,-9.57317,-9.48667,-0.445474,2.85007,-0.701219,-27.7744,1.79878
16.0058,81.8682,11.5114,0,9.88664,1.24302,0.445474,1.64634,-1.21951,-9.35976,-9.58726,-0.380808,2.92192,0.182927,-28.7805,2.07317
16.0158,81.7945,11.7347,0,9.93933,1.29571,0.493374,1.98171,-1.15854,-8.96341,-9.54894,-0.316143,2.91953,0.518293,-30.2134,1.95122
16.0259,81.7156,11.9876,0,10.0519,1.37714,0.512534,2.0122,-0.97561,-8.87195,-9.43877,-0.239502,3.06083,1.28049,-30.8537,2.43902
16.0359,81.6318,12.2574,0,10.016,1.42504,0.60115,1.95122,-0.243902,-8.93293,-9.39566,-0.220342,3.17101,0.213415,-30.8841,2.71341
16.0459,81.5529,12.5242,0,9.90341,1.36995,0.622705,1.64634,0.335366,-9.05488,-9.3286,-0.186812,3.18298,0,-31.0061,2.19512
16.0559,81.4716,12.7798,0,9.7621,1.37714,0.5772,1.76829,0.701219,-9.14634,-9.33579,-0.256267,3.18298,-0.853659,-31.189,1.89024
16.0659,81.4028,13.0467,0,9.73336,1.33642,0.584385,1.09756,1.31098,-8.47561,-9.24717,-0.299377,3.25004,-1.28049,-31.2195,1.4939
16.0759,81.3243,13.2949,0,9.62319,1.41067,0.598755,0.97561,0.152439,-8.53659,-9.21603,-0.354463,3.20214,-1.31098,-30.9756,1.28049
16.086,81.2504,13.5364,0,9.64953,1.36995,0.608335,0.548781,-0.213415,-8.75,-9.10347,-0.376018,3.17819,-1.58537,-30.1524,1.09756
16.096,81.1791,13.7797,0,9.68785,1.35079,0.608335,0.548781,-0.609756,-8.93293,-9.03641,-0.438289,3.20693,-1.70732,-28.6585,0.823171
16.1058,81.1147,14.0671,0,9.67109,1.28613,0.598755,0.152439,-1.03659,-9.11585,-9.03401,-0.517324,3.44883,-1.64634,-28.4451,0.731707
16.1159,81.054,14.334,0,9.69025,1.31726,0.632285,-0.304878,-0.335366,-8.53659,-9.02204,-0.522114,3.40332,-1.67683,-28.1402,0.792683
16.1259,80.9969,14.5651,0,9.6663,1.2981,0.64905,-0.762195,-0.762195,-8.47561,-8.97174,-0.493374,3.2716,-1.0061,-27.622,0.914634
16.1358,80.9537,14.8025,0,9.69743,1.19751,0.59157,-0.823171,-1.03659,-8.41463,-8.8496,-0.428708,3.29555,-0.335366,-26.9817,0.701219
16.1459,80.8774,15.0489,0,9.58726,1.38911,0.58678,-0.914634,-2.13415,-9.42073,-8.8017,-0.409548,3.36021,0.0304878,-26.4024,0.823171
16.1559,80.7974,15.3353,0,9.66869,1.41546,0.550855,-0.914634,-1.92073,-9.78659,-8.8472,-0.426313,3.60211,0.670732,-25.3963,0.670732
16.1659,80.7087,15.6248,0,9.75491,1.53521,0.56762,-1.0061,-1.76829,-9.57317,-8.94061,-0.409548,3.70749,0.396341,-25.1829,-0.304878
16.1759,80.6265,15.8707,0,9.86748,1.5855,0.517324,-1.70732,-1.34146,-8.71951,-8.9909,-0.450264,3.58055,1.28049,-24.2988,-1.09756
16.1862,80.5543,16.1339,0,9.79803,1.53281,0.524509,-1.46341,-1.06707,-8.35366,-8.91426,-0.390388,3.67396,1.12805,-23.9634,-1.34146
16.196,80.4839,16.3963,0,9.78844,1.52563,0.574805,-1.25,-1.09756,-8.38415,-8.85918,-0.385598,3.69552,1.46341,-23.4451,-1.25
16.2059,80.4231,16.6439,0,9.71659,1.4897,0.58199,-1.4939,-1.31098,-7.83537,-8.89989,-0.474214,3.69312,2.13415,-22.9573,-1.06707
16.2159,80.3478,16.9131,0,9.63995,1.55437,0.495769,-1.03659,-1.61585,-8.53659,-8.90229,-0.445474,3.83922,1.98171,-22.8659,-1.03659
16.2259,80.2657,17.1768,0,9.53697,1.5855,0.55804,-0.518293,-1.82927,-8.81098,-8.94779,-0.467029,3.88233,1.43293,-23.4451,-1.06707
16.236,80.1783,17.4214,0,9.58008,1.65256,0.512534,-0.426829,-3.04878,-8.81098,-8.95977,-0.445474,3.8464,1.92073,-24.0854,-0.365854
16.2459,80.091,17.6865,0,9.59924,1.69088,0.505349,-0.0914634,-3.93293,-8.56707,-8.96935,-0.467029,3.9925,2.04268,-24.4817,-0.0609756
16.2558,80.0112,17.9611,0,9.63995,1.67651,0.59157,-0.609756,-4.84756,-8.23171,-8.91905,-0.467029,4.06435,2.59146,-24.8476,0.487805
16.2659,79.9314,18.2632,0,9.6639,1.65256,0.574805,-0.762195,-4.54268,-8.71951,-8.96216,-0.392783,4.26792,2.92683,-25.2439,0.609756
16.2759,79.8546,18.5291,0,9.69743,1.65496,0.543669,-1.03659,-4.72561,-8.62805,-8.97653,-0.340093,4.15775,3.47561,-25.1829,0.640244
16.2859,79.7839,18.7999,0,9.74533,1.64059,0.524509,-1.12805,-4.14634,-8.41463,-8.86876,-0.294587,4.1817,3.44512,-24.878,0.518293
16.2958,79.7133,19.0767,0,9.7142,1.65735,0.488584,-1.09756,-3.32317,-8.29268,-8.8017,-0.364043,4.2296,3.01829,-24.9695,0.0914634
16.3058,79.6418,19.3216,0,9.77407,1.69567,0.431104,-1.82927,-2.83537,-8.20122,-8.71787,-0.407153,4.09069,2.43902,-25.0915,0.0304878
16.3158,79.572,19.5705,0,9.81719,1.74118,0.443079,-1.95122,-2.0122,-7.7439,-8.65321,-0.447869,4.12422,1.82927,-25.2134,-0.27439
16.326,79.5053,19.8347,0,9.78366,1.77471,0.416733,-2.07317,-2.2561,-7.10366,-8.59333,-0.481399,4.21284,1.46341,-25.4268,-0.579268
16.3358,79.4524,20.1148,0,9.7597,1.67172,0.402363,-2.28659,-2.5,-6.98171,-8.64602,-0.481399,4.36373,0.823171,-25.3354,-0.548781
16.3458,79.4027,20.3904,0,9.69504,1.59269,0.438289,-2.59146,-2.68293,-7.56098,-8.66279,-0.450264,4.40444,0.792683,-25.3354,-0.792683
16.3559,79.3597,20.6527,0,9.55852,1.46815,0.495769,-3.29268,-2.89634,-8.20122,-8.6556,-0.476609,4.39007,0.731707,-24.4817,-1.28049
16.3659,79.309,20.9102,0,9.53218,1.43941,0.313748,-3.2622,-2.86585,-9.35976,-8.6077,-0.502954,4.39247,1.18902,-23.9329,-1.25
16.3759,79.2538,21.1693,0,9.48188,1.41306,0.330513,-2.68293,-3.81098,-10.1524,-8.5095,-0.474214,4.39965,1.46341,-23.1402,-0.97561
16.386,79.1837,21.4122,0,9.59924,1.57592,0.318538,-1.7378,-4.39024,-10.061,-8.38736,-0.490979,4.30864,1.79878,-22.7439,-0.731707
16.396,79.1045,21.681,0,9.79323,1.78429,0.227527,-1.15854,-4.57317,-9.08537,-8.29156,-0.514929,4.426,1.82927,-21.7988,-0.609756
16.4058,79.0389,21.9457,0,9.99921,1.79866,0.225132,-0.518293,-4.32927,-8.10976,-8.30114,-0.428708,4.46192,1.76829,-21.3415,-0.426829
16.4158,78.9898,22.2168,0,9.98005,1.69807,0.301772,-0.335366,-3.56707,-7.68293,-8.36341,-0.368833,4.57688,2.13415,-20.5793,-0.579268
16.4258,78.9474,22.5047,0,9.94173,1.62622,0.392783,0,-2.46951,-7.83537,-8.47597,-0.352068,4.77327,2.19512,-20.2439,-0.579268
16.4359,78.8981,22.7704,0,9.86269,1.69567,0.301772,0.640244,-1.18902,-7.68293,-8.47118,-0.359253,4.71819,1.52439,-19.7256,-0.670732
16.4459,78.9104,23.0436,0,10.2028,1.40827,0.232317,-0.182927,1.58537,-5.39634,-8.45681,-0.359253,4.79962,0.97561,-18.9329,-0.884146
16.4561,78.8425,23.2986,0,9.74773,1.90644,0.263452,-1.43293,-1.18902,-6.98171,-8.35143,-0.464634,4.70382,0.121951,-18.8415,-0.701219
16.4658,78.7772,23.5697,0,9.77407,1.91602,0.261057,-2.07317,0.97561,-6.79878,-8.26282,-0.493374,4.78046,-0.27439,-18.628,-0.426829
16.4758,78.7148,23.8609,0,9.70222,1.93518,0.347278,-1.95122,1.21951,-6.25,-8.18857,-0.493374,4.88824,0.0304878,-18.1402,-0.213415
16.486,78.6599,24.1106,0,9.59924,1.89446,0.356858,-1.76829,0.701219,-5.85366,-8.14546,-0.476609,4.71819,0.335366,-17.1951,-0.182927
16.4959,78.6182,24.3345,0,9.64235,1.87051,0.330513,-0.97561,0.609756,-5,-8.22689,-0.474214,4.68945,0.853659,-15.9756,-0.27439
16.5058,78.5948,24.5692,0,9.65672,1.78189,0.387993,-0.853659,0.152439,-4.32927,-8.26761,-0.488584,4.8092,0.853659,-15.4878,-1.0061
16.5159,78.581,24.8003,0,9.69743,1.75315,0.435894,-1.15854,-0.0609756,-3.87195,-8.36341,-0.493374,4.89302,0.731707,-15,-1.34146
16.5258,78.5622,25.0609,0,9.73575,1.7795,0.335303,-0.853659,0.823171,-4.14634,-8.38017,-0.488584,5.0966,0.0609756,-15.2744,-1.95122
16.5358,78.5416,25.3359,0,9.69264,1.79626,0.462239,-1.79878,1.28049,-4.08537,-8.34904,-0.529299,5.20198,-0.762195,-15.9451,-2.16463
16.5458,78.5267,25.5654,0,9.67109,1.7771,0.402363,-1.7378,1.98171,-3.75,-8.28198,-0.514929,4.98643,-0.670732,-16.0366,-2.13415
16.5559,78.4835,25.8073,0,9.52978,1.9256,0.352068,-1.70732,2.0122,-4.5122,-8.16941,-0.452659,5.02475,-0.914634,-15.9451,-1.82927
16.5658,78.4368,26.0478,0,9.62798,1.9711,0.299377,-1.34146,3.07927,-4.66463,-8.1263,-0.447869,5.03912,-0.762195,-16.0671,-1.43293
16.5759,78.3961,26.2591,0,9.57289,1.9256,0.313748,-0.853659,2.7439,-4.54268,-8.13588,-0.481399,4.94811,-1.15854,-15.4573,-1.34146
16.586,78.3705,26.4726,0,9.54894,1.79866,0.395178,-0.945122,1.55488,-4.57317,-8.14786,-0.519719,5.00799,-1.03659,-14.9695,-1.46341
16.596,78.3452,26.6812,0,9.54176,1.76752,0.421523,-1.12805,0.670732,-4.93902,-8.21252,-0.526904,5.06547,-0.914634,-14.939,-1.34146
16.6062,78.3314,26.9063,0,9.61361,1.70525,0.433499,-1.15854,0.487805,-4.72561,-8.21731,-0.565225,5.1924,-1.12805,-15.3354,-1.25
16.6162,78.3211,27.1366,0,9.60163,1.64059,0.476609,-0.731707,0.426829,-5.12195,-8.10475,-0.584385,5.1924,-0.762195,-15.3354,-1.12805
16.6262,78.3136,27.3259,0,9.63756,1.60945,0.320933,-0.548781,0.97561,-5.30488,-8.05924,-0.574805,5.00559,-1.03659,-14.5427,-0.701219
16.6363,78.305,27.4957,0,9.63995,1.65735,0.342488,-0.243902,1.76829,-4.87805,-8.01613,-0.617915,4.92177,-1.28049,-13.1402,-0.670732
16.6459,78.2887,27.6721,0,9.73575,1.76034,0.285007,0.213415,1.55488,-4.66463,-8.02092,-0.6251,4.99122,-0.731707,-11.7073,-0.792683
16.6559,78.2678,27.8547,0,9.80281,1.8753,0.344883,0.213415,0.548781,-3.9939,-8.14546,-0.603545,5.13492,-0.518293,-11.0366,-1.09756
16.6658,78.2535,28.0271,0,9.78366,1.82979,0.328118,-0.243902,0.548781,-3.87195,-8.21492,-0.531694,5.16366,0.518293,-11.4634,-0.670732
16.6758,78.242,28.2077,0,9.73336,1.7795,0.380808,0.0304878,1.28049,-4.08537,-8.15265,-0.426313,5.19959,0.884146,-11.8902,-0.518293
16.6861,78.2342,28.369,0,9.6663,1.73399,0.462239,0.640244,1.52439,-4.14634,-8.09038,-0.344883,5.099,0.518293,-11.9817,-0.243902
16.6959,78.2254,28.5307,0,9.64235,1.73639,0.433499,1.21951,1.67683,-4.17683,-8.05924,-0.399968,5.11337,-0.121951,-11.7073,0.0304878
16.7061,78.2163,28.711,0,9.65672,1.7316,0.414338,2.5,0.884146,-4.29878,-8.03529,-0.529299,5.22354,-1.0061,-11.4329,0.487805
16.716,78.1998,28.8764,0,9.65911,1.79387,0.371228,2.92683,0.365854,-4.32927,-8.09517,-0.58199,5.22354,-1.67683,-10.9756,0.213415
16.7262,78.1805,29.0453,0,9.69025,1.77471,0.395178,2.68293,0.426829,-4.90854,-8.13109,-0.637075,5.29778,-1.76829,-11.3415,0.365854
16.7361,78.1662,29.234,0,9.65911,1.69328,0.479004,3.01829,0.609756,-5.33537,-8.09277,-0.646655,5.40795,-1.64634,-11.5854,0.609756
16.7458,78.143,29.3971,0,9.63277,1.72202,0.440684,3.32317,0.579268,-5.85366,-8.0808,-0.598755,5.30736,-1.28049,-11.4634,1.21951
16.7558,78.1197,29.5314,0,9.6663,1.76992,0.445474,3.29268,0.914634,-5.42683,-8.02811,-0.579595,5.16127,-0.823171,-10.4573,1.18902
16.7658,78.1076,29.6899,0,9.75731,1.81542,0.383203,3.07927,1.79878,-4.05488,-7.89638,-0.570015,5.22354,-0.97561,-9.35976,1.09756
16.7758,78.0754,29.8314,0,9.73575,1.98068,0.323328,3.65854,0.731707,-4.11585,-7.94428,-0.637075,5.20198,-0.884146,-8.9939,1.15854
16.7861,78.0452,29.99,0,9.7621,1.94955,0.378413,3.5061,2.04268,-4.39024,-7.95865,-0.696951,5.32652,-1.43293,-8.59756,0.792683
16.7958,78.0163,30.151,0,9.63756,1.90165,0.469424,2.65244,1.34146,-4.60366,-8.03529,-0.749641,5.42232,-1.89024,-8.38415,0.213415
16.8058,77.9872,30.286,0,9.58008,1.89446,0.397573,2.56098,1.09756,-4.63415,-8.06403,-0.754431,5.34089,-1.85976,-8.53659,0.243902
16.816,77.9582,30.4164,0,9.58487,1.89686,0.368833,2.43902,0.97561,-4.66463,-8.01853,-0.795146,5.31455,-1.67683,-8.23171,0.396341
16.8258,77.9321,30.5556,0,9.5705,1.91123,0.416733,2.59146,0.823171,-4.2378,-7.99458,-0.771196,5.36963,-1.46341,-8.62805,0.731707
16.8359,77.9072,30.7149,0,9.64953,1.89207,0.414338,2.56098,0.213415,-4.57317,-7.94907,-0.797541,5.47022,-1.25,-8.53659,1.12805
16.8458,77.8873,30.8601,0,9.63037,1.86812,0.426313,2.40854,-0.0609756,-4.35976,-7.87482,-0.804727,5.37921,-1.03659,-8.44512,1.12805
16.8558,77.877,30.998,0,9.60882,1.80345,0.488584,2.0122,0.27439,-4.17683,-7.81495,-0.759221,5.33131,-0.731707,-7.31707,1.15854
16.8659,77.84,31.1318,0,9.64474,1.97589,0.510139,2.22561,0.0609756,-4.90854,-7.85806,-0.764011,5.36724,-0.426829,-6.89024,1.21951
16.8759,77.8106,31.2705,0,9.69743,1.91602,0.507744,2.16463,1.55488,-5.03049,-7.90835,-0.718506,5.45346,-0.579268,-6.55488,1.31098
16.8859,77.7742,31.413,0,9.76928,1.97829,0.414338,1.64634,0.640244,-5.2439,-7.91554,-0.689766,5.50615,-0.823171,-6.46341,1.28049
16.8959,77.7388,31.5422,0,9.75731,2.02619,0.414338,1.70732,-0.121951,-4.63415,-7.90596,-0.641865,5.46064,-0.731707,-6.40244,1.12805
16.9058,77.7066,31.6764,0,9.74533,2.04295,0.462239,0.792683,0.365854,-4.17683,-7.85327,-0.627495,5.47501,-0.853659,-6.12805,1.37195
16.9159,77.6759,31.8034,0,9.67348,2.00942,0.488584,0.182927,0,-4.29878,-7.8365,-0.740061,5.45346,-1.58537,-6.15854,1.58537
16.9258,77.6514,31.9322,0,9.63516,1.94955,0.404758,0.243902,1.0061,-4.35976,-7.77902,-0.802332,5.44867,-1.25,-6.25,1.31098
16.9359,77.6301,32.0585,0,9.62079,1.92799,0.440684,0.182927,2.28659,-4.29878,-7.77902,-0.831072,5.46064,-0.945122,-5.7622,1.34146
16.9458,77.5969,32.1763,0,9.64235,2.05972,0.356858,-0.0304878,2.7439,-4.05488,-7.80058,-0.843047,5.45585,-0.365854,-5.2439,1.55488
16.9558,77.5712,32.2957,0,9.61121,2.0214,0.335303,-0.0609756,3.04878,-3.75,-7.89159,-0.840652,5.55166,-0.152439,-5.15244,1.52439
16.9659,77.551,32.4254,0,9.64474,1.97829,0.421523,-0.121951,2.86585,-3.84146,-7.9347,-0.843047,5.66183,0.304878,-5.2439,1.67683
16.9763,77.5359,32.5373,0,9.63756,1.88249,0.435894,0.609756,2.34756,-4.45122,-7.88919,-0.816702,5.56363,0.823171,-5.21341,2.0122
16.986,77.5185,32.6585,0,9.65432,1.84417,0.455054,0.609756,1.76829,-5.18293,-7.81974,-0.775986,5.57561,1.25,-4.39024,2.16463
16.9959,77.4982,32.778,0,9.72138,1.88249,0.435894,0.762195,1.03659,-5.21341,-7.77663,-0.723296,5.54687,1.34146,-3.81098,2.04268
17.0059,77.5026,32.8972,0,9.79323,1.83698,0.5772,0.121951,-0.243902,-3.56707,-7.8389,-0.720901,5.59716,0.914634,-3.2622,2.19512
17.0159,77.4909,33.0113,0,9.57768,1.99505,0.656235,0.121951,-2.28659,-2.86585,-7.85566,-0.704136,5.56842,0.762195,-2.56098,2.0122
17.0259,77.447,33.1265,0,9.38608,2.14354,0.682581,-0.0304878,0.304878,-3.71951,-7.90835,-0.64426,5.63548,0.640244,-2.5,2.07317
17.0359,77.4054,33.2189,0,9.56331,2.16749,0.673001,-0.640244,1.15854,-3.78049,-7.94188,-0.632285,5.58519,0.365854,-2.56098,2.16463
17.0459,77.3649,33.3208,0,9.48667,2.15073,0.57241,-1.15854,2.22561,-3.75,-7.87482,-0.682581,5.62111,0.609756,-2.9878,2.62195
17.0558,77.3317,33.4186,0,9.47709,2.09564,0.510139,-1.43293,1.18902,-3.75,-7.78381,-0.682581,5.56363,0.182927,-3.23171,2.43902
17.0659,77.3068,33.5161,0,9.46751,2.02619,0.58199,-1.0061,-0.152439,-3.81098,-7.74549,-0.708926,5.55166,0.213415,-3.20122,2.65244
17.0759,77.2794,33.6251,0,9.50104,2.03098,0.574805,-1.34146,-0.823171,-4.11585,-7.72633,-0.696951,5.61632,0.121951,-3.2622,2.56098
17.0859,77.2565,33.7312,0,9.5681,2.02858,0.529299,-0.853659,-0.945122,-3.93293,-7.75507,-0.732876,5.64985,0.152439,-3.32317,2.43902
17.0959,77.2341,33.8186,0,9.69025,2.08846,0.548459,-0.853659,-1.37195,-3.53659,-7.75986,-0.747246,5.58279,0.335366,-3.2622,2.0122
17.1058,77.2134,33.8951,0,9.73336,2.14594,0.60594,-1.03659,-0.792683,-2.86585,-7.77184,-0.677791,5.56124,0.396341,-3.41463,1.82927
17.1159,77.1949,33.9823,0,9.75491,2.18426,0.603545,-1.09756,-0.213415,-2.28659,-7.76226,-0.65384,5.62351,0.426829,-3.44512,2.0122
17.126,77.1875,34.0742,0,9.78605,2.1627,0.56762,-1.4939,0.579268,-1.67683,-7.80297,-0.58678,5.70015,0.27439,-3.56707,2.10366
17.1359,77.1981,34.1647,0,9.72617,2.03816,0.467029,-2.37805,1.34146,-1.61585,-7.85327,-0.593965,5.75044,0.152439,-3.56707,2.0122
17.1458,77.2184,34.2343,0,9.61121,1.91123,0.455054,-2.40854,1.89024,-1.98171,-7.82932,-0.570015,5.63788,-0.579268,-3.20122,1.92073
17.156,77.2285,34.3132,0,9.50104,1.87291,0.409548,-2.62195,1.25,-2.77439,-7.8365,-0.613125,5.69536,-0.97561,-2.95732,1.52439
17.1658,77.2339,34.3916,0,9.4723,1.92081,0.318538,-2.28659,0.97561,-2.59146,-7.77423,-0.665815,5.65225,-1.43293,-2.7439,1.52439
17.1758,77.235,34.4541,0,9.50583,1.95673,0.385598,-1.58537,0.487805,-2.59146,-7.82213,-0.740061,5.62351,-1.4939,-2.53049,1.37195
17.1861,77.2354,34.5026,0,9.53457,1.97589,0.404758,-1.06707,0.97561,-2.5,-7.87243,-0.764011,5.61393,-1.67683,-2.59146,0.853659
17.1959,77.2419,34.5549,0,9.66869,1.96392,0.368833,-0.762195,0.426829,-2.40854,-7.87482,-0.723296,5.65464,-1.40244,-3.01829,1.40244
17.2058,77.2543,34.5873,0,9.70701,1.92799,0.433499,-0.152439,0.335366,-2.37805,-7.85806,-0.699346,5.55884,-0.97561,-3.01829,1.43293
17.2158,77.2664,34.6286,0,9.79563,1.94236,0.447869,0.0609756,0.548781,-2.37805,-7.88919,-0.632285,5.63069,-0.762195,-3.04878,1.70732
17.2259,77.2739,34.6574,0,9.76928,1.95434,0.340093,0.457317,0.762195,-2.53049,-7.97062,-0.570015,5.64267,-0.731707,-3.47561,1.55488
17.2359,77.2702,34.6899,0,9.69743,1.99745,0.426313,0.152439,1.46341,-2.83537,-7.94428,-0.593965,5.64985,-0.945122,-3.71951,1.76829
17.2459,77.2639,34.7274,0,9.70941,2.04774,0.364043,0.884146,2.56098,-2.56098,-7.98739,-0.58678,5.71452,-1.52439,-3.87195,1.67683
17.2559,77.2582,34.7576,0,9.69983,2.08127,0.268242,1.09756,2.28659,-2.13415,-8.10475,-0.622705,5.772,-2.37805,-4.78659,1.52439
17.2658,77.2544,34.7864,0,9.70941,2.12199,0.402363,1.34146,1.70732,-1.55488,-8.06643,-0.63468,5.74326,-2.59146,-5.60976,1.4939
17.2759,77.2545,34.8139,0,9.75012,2.10522,0.404758,0.884146,1.85976,-1.55488,-7.98979,-0.62989,5.68817,-2.37805,-6.40244,1.95122
17.2859,77.2485,34.8293,0,9.73096,2.15312,0.299377,-0.152439,2.9878,-1.40244,-7.99218,-0.665815,5.63069,-1.89024,-7.28659,2.19512
17.2959,77.2542,34.8287,0,9.66151,2.04535,0.433499,-0.548781,2.80488,-1.64634,-8.0329,-0.696951,5.578,-1.61585,-7.56098,1.58537
17.3059,77.262,34.8178,0,9.54655,1.93039,0.392783,0.213415,1.89024,-2.40854,-8.12151,-0.740061,5.58519,-1.76829,-7.5,1.06707
17.3159,77.2606,34.8139,0,9.33339,1.89207,0.376018,0.121951,0.731707,-3.07927,-8.16223,-0.790356,5.64746,-1.64634,-8.47561,0.579268
17.3258,77.2546,34.8075,0,9.22801,1.81063,0.356858,0.548781,0.548781,-4.11585,-8.20294,-0.874182,5.65943,-1.79878,-9.87805,0.426829
17.3359,77.246,34.7954,0,9.38369,1.79147,0.376018,1.0061,1.70732,-4.90854,-8.19097,-0.895737,5.61872,-1.43293,-10.7927,0.152439
17.3459,77.237,34.7946,0,9.51541,1.74357,0.541274,0.518293,1.85976,-5.79268,-8.05685,-0.857417,5.58279,-1.40244,-11.4329,0.213415
17.3559,77.2241,34.7979,0,9.73815,1.73399,0.570015,1.40244,0.853659,-6.76829,-8.02332,-0.804727,5.5804,-1.18902,-11.5549,0.121951
17.3659,77.2054,34.7913,0,9.79323,1.76273,0.665815,1.64634,-0.914634,-7.16463,-8.04966,-0.730481,5.54687,-0.914634,-12.2256,0.27439
17.3759,77.1819,34.7852,0,9.71899,1.75555,0.579595,2.59146,-2.28659,-7.62195,-8.0329,-0.64426,5.53729,-0.609756,-12.1037,0.121951
17.3859,77.1503,34.7773,0,9.58487,1.78668,0.534089,2.37805,-1.46341,-7.83537,-8.04727,-0.589175,5.53489,-1.06707,-12.8659,0.0609756
17.396,77.11,34.7876,0,9.58966,1.86093,0.486189,1.28049,-1.0061,-7.92683,-8.00895,-0.598755,5.60195,-1.43293,-13.2927,0.27439
17.406,77.0753,34.7931,0,9.69983,1.86093,0.409548,1.58537,-0.97561,-7.68293,-8.01134,-0.675395,5.5804,-2.2561,-13.628,0.548781
17.4158,77.0397,34.7953,0,9.62079,1.83698,0.59636,1.58537,-1.70732,-7.95732,-8.00416,-0.771196,5.55884,-2.2561,-14.0854,0.121951
17.4259,76.9939,34.8043,0,9.4747,1.86572,0.524509,1.15854,-2.0122,-8.38415,-7.97062,-0.735271,5.57082,-2.07317,-14.6037,0.121951
17.4359,76.9447,34.8092,0,9.49625,1.85135,0.340093,2.68293,-2.22561,-9.05488,-7.9826,-0.749641,5.55884,-1.89024,-15.061,0.0914634
17.4458,76.881,34.8047,0,9.51062,1.99026,0.479004,2.2561,-2.86585,-9.02439,-8.0305,-0.797541,5.54447,-1.61585,-15.1829,0.243902
17.4558,76.8119,34.8168,0,9.59205,2.05732,0.421523,1.0061,-2.5,-9.11585,-8.01134,-0.797541,5.61632,-1.21951,-15.5793,0.213415
17.4658,76.7478,34.8531,0,9.66151,2.03577,0.435894,1.46341,-2.34756,-9.17683,-8.04008,-0.840652,5.76721,-0.579268,-16.4634,-0.0304878
17.4759,76.6909,34.8979,0,9.73575,1.99026,0.713716,1.70732,-2.10366,-9.26829,-8.07361,-0.886157,5.84385,-0.579268,-17.622,-0.0304878
17.4858,76.6225,34.9508,0,9.76928,2.03816,0.467029,0.396341,-1.31098,-10.0915,-8.06403,-0.883762,5.88935,0,-18.3232,-0.0609756
17.496,76.5553,34.9952,0,9.73575,2.00942,0.332908,0.884146,-0.304878,-10.3659,-8.04966,-0.919688,5.84385,-0.152439,-19.0549,-0.0914634
17.5059,76.4788,35.0468,0,9.68546,2.05014,0.483794,1.4939,-0.335366,-10.8537,-7.99458,-0.902922,5.85103,0.487805,-19.7256,0.182927
17.5159,76.3843,35.1117,0,9.69743,2.11959,0.316143,2.71341,-2.28659,-12.0732,-7.98021,-0.934058,5.92288,1.28049,-21.128,0.518293
17.5259,76.284,35.1831,0,9.73575,2.14594,0.519719,3.2622,-3.07927,-12.6524,-7.94428,-0.946033,5.94444,1.64634,-21.6463,0.762195
17.5359,76.1716,35.267,0,9.60642,2.16031,0.661025,4.45122,-3.71951,-13.5976,-7.91314,-0.969983,6.00431,2.34756,-22.7134,0.792683
17.5458,76.0571,35.3598,0,9.55852,2.17707,0.728086,3.41463,-2.83537,-13.7195,-7.85806,-0.926873,6.02826,2.95732,-23.5671,0.914634
17.5558,75.9592,35.4785,0,9.55373,2.13396,0.373623,2.5,-4.57317,-12.7439,-7.86045,-0.871787,6.19352,2.95732,-24.5122,0.396341
17.5659,75.8379,35.6001,0,9.65193,2.32317,0.136516,4.29878,-5.21341,-13.4146,-7.88919,-0.862207,6.25819,2.22561,-25.5793,0.27439
17.576,75.7082,35.7542,0,9.53936,2.3543,0.457449,4.42073,-4.48171,-13.8415,-7.8868,-0.965193,6.46895,2.07317,-26.4329,0.426829
17.5858,75.5879,35.9232,0,9.54894,2.213,0.0910107,4.29878,-7.34756,-14.8171,-7.88201,-1.04662,6.5863,1.7378,-28.2927,0.518293
17.5959,75.5213,36.0836,0,9.70701,1.88249,0.275427,5.60976,-11.0671,-13.811,-7.67125,-0.989143,6.3971,2.34756,-29.878,0.853659
17.6059,75.3816,36.2406,0,9.60642,2.32796,0.589175,6.98171,-12.6524,-16.0061,-7.47007,-0.840652,6.24621,3.44512,-30.061,1.46341
17.6158,75.2633,36.4294,0,9.70701,2.15073,0.268242,5.33537,-7.0122,-16.4024,-7.32397,-0.713716,6.33483,3.68902,-30.061,1.58537
17.6259,75.1789,36.6131,0,9.73096,1.93278,0.0143701,6.31098,-5.54878,-15.7622,-7.21619,-0.66342,6.25579,3.44512,-29.3902,2.0122
17.6358,75.0294,36.8053,0,9.59684,2.4022,0.308958,8.2622,-9.45122,-16.8293,-7.16829,-0.579595,6.30369,3.10976,-28.1707,1.52439
17.6459,74.8884,37.0038,0,9.8555,2.51956,0.277822,5.45732,-7.04268,-15.6707,-7.33355,-0.543669,6.52882,2.13415,-28.1707,1.37195
17.6559,74.796,37.2028,0,9.89143,2.26569,0.105381,7.31707,-4.69512,-13.9329,-7.43414,-0.713716,6.66773,0.670732,-28.5366,1.06707
17.6659,74.6783,37.3893,0,9.5705,2.35909,0.131726,9.66463,-5.67073,-14.7866,-7.42935,-0.797541,6.6342,-0.0914634,-30.122,0.518293
17.6759,74.5392,37.5694,0,9.36213,2.40939,0.0239502,8.38415,-3.32317,-16.0061,-7.34792,-0.831072,6.56475,-0.0304878,-31.8598,0.792683
17.686,74.4102,37.7957,0,9.41243,2.27766,-0.213157,9.78659,-0.823171,-16.9512,-7.12518,-0.814307,6.67252,0.121951,-32.8659,1.03659
17.6959,74.2932,38.0459,0,9.57529,2.26569,-0.0814307,10.8537,-4.7561,-16.5854,-7.01022,-0.871787,6.75875,-0.853659,-32.622,0.884146
17.706,74.1572,38.2993,0,9.81719,2.4549,-0.0886157,11.6768,-5.85366,-17.2866,-6.9264,-1.02267,6.75635,-0.701219,-31.6463,0.304878
17.7159,74.0227,38.5521,0,9.9561,2.48603,0.474214,11.6463,-4.39024,-17.439,-6.94556,-1.1065,6.83299,-0.609756,-30.2744,-0.213415
17.7258,73.8779,38.8129,0,9.99921,2.62973,0.213157,9.72561,-2.2561,-17.3171,-6.88808,-1.07776,6.88568,0.914634,-30.061,-0.304878
17.7358,73.7395,39.0565,0,9.79563,2.54112,0.141306,8.38415,1.64634,-17.3476,-6.80186,-0.977168,6.75875,2.31707,-29.6037,0.243902
17.7459,73.6126,39.3122,0,9.51062,2.39981,0.378413,7.9878,-0.518293,-17.2256,-6.72042,-0.833467,6.80904,3.32317,-28.1402,0.518293
17.7559,73.4543,39.6038,0,9.71899,2.66087,0.126936,8.78049,-1.64634,-18.3537,-6.72282,-0.802332,7.09405,3.29268,-27.622,1.0061
17.7659,73.2581,39.8673,0,9.48188,2.90995,0.428708,7.22561,1.98171,-18.9634,-6.78988,-0.886157,7.06052,2.83537,-27.8049,1.12805
17.7759,73.0722,40.1366,0,9.5226,2.88121,0.241897,7.2561,1.58537,-18.7805,-6.84976,-0.905317,7.22577,2.28659,-27.9268,0.701219
17.7859,72.8869,40.4241,0,9.44835,2.80936,0.371228,7.07317,1.4939,-19.6646,-6.80186,-0.962798,7.3599,1.58537,-28.3841,0.731707
17.796,72.6662,40.6872,0,9.49865,3.07042,0.59636,6.95122,1.98171,-20.8841,-6.76593,-1.00351,7.23775,1.06707,-27.8354,0.609756
17.8064,72.4607,40.9264,0,9.59684,3.08,0.519719,5.7622,5.06098,-20.0305,-6.69408,-1.02986,7.07728,0.853659,-26.8598,0.182927
17.8159,72.3133,41.1604,0,9.48907,2.66326,0.253872,6.21951,2.68293,-18.8415,-6.71324,-1.01309,7.12518,1.37195,-26.5549,0.457317
17.8258,72.1051,41.4909,0,9.41482,3.01772,0.416733,4.87805,-2.16463,-21.0671,-6.51445,-0.979563,7.59221,1.89024,-27.7439,0.914634
17.8358,71.8973,41.8111,0,9.84593,3.08239,0.328118,4.45122,0.0914634,-22.2561,-6.36836,-0.792751,7.43893,1.55488,-28.7195,0.762195
17.8459,71.6796,42.1225,0,9.6663,3.16143,0.61552,4.39024,0.823171,-22.1951,-6.28214,-0.675395,7.36469,1.58537,-27.9878,1.31098
17.8559,71.4622,42.447,0,9.18969,3.08958,0.426313,4.29878,0.121951,-21.6463,-6.24142,-0.670605,7.48683,0.487805,-27.378,1.98171
17.866,71.2238,42.7568,0,9.33339,3.25483,0.438289,4.84756,-1.55488,-22.9268,-6.30848,-0.855022,7.55389,0.0914634,-27.2866,2.28659
17.8758,70.9788,43.0294,0,9.25915,3.30992,0.452659,2.9878,1.34146,-23.1707,-6.40907,-1.07776,7.50599,0.304878,-26.8293,2.53049
17.8859,70.7637,43.3077,0,9.01006,3.08,0.265847,3.68902,-0.853659,-22.2561,-6.30848,-1.09452,7.49881,0.762195,-26.5244,2.40854
17.896,70.5534,43.6026,0,9.65911,3.2237,0.373623,4.57317,-0.823171,-23.0488,-6.14562,-0.993933,7.48923,1.70732,-25.7927,2.2561
17.9058,70.3337,43.9113,0,9.4268,3.23567,0.222737,4.17683,-2.37805,-23.4451,-6.08814,-0.881367,7.59221,2.34756,-24.9085,2.71341
17.916,70.1343,44.2365,0,9.65911,3.11353,0.459844,5.12195,-1.34146,-24.0244,-5.97557,-0.819097,7.64969,2.28659,-23.872,2.86585
17.9258,69.9273,44.5515,0,9.56092,3.19975,0.318538,5.15244,-3.23171,-23.9024,-5.9636,-0.804727,7.65448,2.43902,-22.6524,3.17073
17.9358,69.7194,44.8535,0,9.58726,3.3195,0.289797,3.84146,-0.579268,-23.2012,-5.97797,-0.850232,7.67125,1.89024,-21.6768,3.20122
17.9459,69.5,45.1367,0,9.21843,3.35782,0.385598,3.41463,-2.07317,-22.9268,-5.99952,-0.895737,7.65209,1.55488,-20.5183,3.35366
17.9559,69.2716,45.4273,0,9.22083,3.50391,0.170046,3.35366,-1.15854,-22.6829,-5.95162,-0.886157,7.72154,1.40244,-20.3963,3.78049
17.9658,69.0383,45.7274,0,9.2328,3.5566,-0.0886157,4.32927,-2.16463,-23.1098,-5.85343,-0.780776,7.7407,1.70732,-20.5183,4.66463
17.9761,68.7993,46.0087,0,9.12023,3.57097,0.490979,4.69512,-6.43293,-23.5366,-5.79834,-0.787961,7.62095,1.61585,-19.3902,4.90854
17.9858,68.5731,46.2845,0,9.05796,3.47517,0.155676,4.26829,-7.2561,-23.5061,-5.77439,-0.816702,7.63053,1.89024,-17.9878,5.06098
17.9959,68.3328,46.5847,0,9.21125,3.74102,0.143701,3.90244,-7.43902,-23.1402,-5.81032,-0.747246,7.9323,2.04268,-17.8659,4.90854
18.0059,68.1065,46.873,0,9.37411,3.78174,0.0790356,4.57317,-7.40854,-22.4695,-5.95881,-0.689766,8.13349,1.40244,-18.7195,4.87805
18.0159,67.8624,47.1345,0,9.331,3.90628,-0.129331,3.35366,-6.52439,-23.2317,-6.02108,-0.661025,8.10235,0.426829,-18.75,4.5122
18.0258,67.6128,47.4116,0,9.50104,4.03561,0.148491,3.93293,-5.60976,-23.689,-5.93486,-0.701741,8.18139,-0.304878,-18.4146,4.5122
18.0359,67.3489,47.6985,0,9.51062,4.14338,-0.0455054,3.01829,-6.64634,-24.5732,-5.8678,-0.797541,8.24605,-1.0061,-18.5366,3.9939
18.0459,67.1004,47.9427,0,9.39327,3.98771,-0.148491,3.47561,-4.63415,-24.6341,-5.83187,-0.919688,7.96104,-0.152439,-18.1707,3.71951
18.0559,66.8428,48.2052,0,9.38129,4.09069,-0.210762,3.47561,-5.67073,-24.939,-5.79834,-0.981958,8.12391,0.609756,-17.561,3.07927
18.0659,66.5798,48.5043,0,9.3286,4.10985,-0.261057,2.7439,-3.41463,-25.5793,-5.79834,-0.984353,8.49034,1.09756,-18.1098,2.46951
18.0759,66.312,48.7735,0,9.26633,4.09788,-0.134121,2.62195,-2.53049,-26.4329,-5.91091,-1.01549,8.50711,1.12805,-18.9634,2.04268
18.0861,66.0216,49.0373,0,9.05557,4.14817,-0.00239502,2.9878,-5.57927,-27.7439,-5.95641,-1.04423,8.61489,0.792683,-19.1463,1.15854
18.0958,65.7095,49.2866,0,8.90708,4.21044,0.0742456,4.02439,-7.65244,-29.1463,-6.0115,-0.981958,8.66279,1.28049,-18.689,1.37195
18.1059,65.3801,49.5142,0,9.06036,4.45474,-0.234712,3.96341,-7.28659,-29.7561,-6.04024,-0.862207,8.6077,2.22561,-18.6585,1.34146
18.1158,65.0573,49.7252,0,9.31663,4.44516,-0.153281,4.5122,-8.62805,-31.128,-6.04263,-0.687371,8.55022,2.28659,-18.689,1.92073
18.1259,64.7285,49.9479,0,9.41243,4.45713,-0.270637,4.35976,-6.28049,-32.7439,-6.01629,-0.56283,8.67476,1.89024,-18.3841,2.19512
18.1359,64.3928,50.1719,0,9.44835,4.49785,-0.0766406,2.28659,-4.32927,-33.872,-5.98994,-0.536484,8.72027,0.701219,-18.0488,2.04268
18.1459,64.0676,50.4191,0,9.39566,4.28948,-0.100591,2.22561,-6.15854,-35.3659,-5.90612,-0.584385,8.86397,-0.609756,-18.2012,1.79878
18.1559,63.7166,50.6556,0,9.34537,4.48348,0.0167651,2.0122,-6.92073,-36.4329,-5.92528,-0.696951,8.88552,-1.85976,-18.2012,1.61585
18.1659,63.3758,50.8743,0,9.58966,4.711,-0.0119751,4.48171,-5.39634,-35.0305,-5.94923,-0.874182,8.8496,-2.71341,-17.9573,1.40244
18.1758,63.0376,51.0857,0,9.44835,4.65592,-0.273032,4.20732,-4.39024,-35.3049,-5.87019,-0.960403,8.74422,-2.31707,-17.3171,1.46341
18.1862,62.692,51.3006,0,9.31184,4.67508,-0.364043,7.10366,-2.80488,-35.8841,-5.77679,-0.888552,8.7035,-1.31098,-17.7134,1.58537
18.1958,62.3022,51.514,0,8.97893,4.92656,-0.126936,6.89024,-4.42073,-36.8293,-5.73368,-0.831072,8.69632,-0.640244,-17.2561,1.4939
18.2061,61.8889,51.7318,0,8.82804,5.09421,0.112566,5.06098,-5.70122,-37.5,-5.73368,-0.835862,8.80649,-0.457317,-16.7073,1.46341
18.2158,61.453,51.971,0,8.77296,5.14929,0.165256,2.22561,-7.5,-39.7866,-5.74086,-0.855022,9.07712,-1.28049,-16.8293,0.914634
18.2259,61.0458,52.2113,0,9.15376,5.01996,-0.196392,2.7439,-7.62195,-41.1585,-5.76002,-0.912502,9.20166,-1.61585,-17.1951,0.365854
18.2359,60.6234,52.4377,0,9.11784,5.099,0.0646655,3.07927,-8.10976,-42.561,-5.78158,-1.01788,9.19687,-2.13415,-16.9512,0.609756
18.2459,60.1972,52.6779,0,9.30226,5.20677,-0.536484,3.2622,-7.92683,-43.7805,-5.72889,-0.981958,9.31902,-1.7378,-16.8293,1.12805
18.2559,59.7534,52.8749,0,9.23999,5.32173,-0.421523,2.89634,-6.76829,-45,-5.62351,-0.977168,8.85439,-1.18902,-14.7256,1.85976
18.2659,59.3051,53.0655,0,9.00767,5.29539,-0.0502954,4.08537,-6.34146,-45.3354,-5.59237,-1.04662,8.82086,-1.25,-12.6829,2.9878
18.2758,58.8339,53.2556,0,8.86636,5.41753,-0.529299,2.9878,-8.29268,-46.5854,-5.72649,-1.1544,9.09628,-0.97561,-12.0122,3.01829
18.2858,58.3368,53.4246,0,8.76338,5.50136,-0.464634,3.38415,-6.79878,-48.7805,-5.79595,-1.152,9.08431,0.121951,-12.2561,3.41463
18.296,57.8221,53.602,0,8.92863,5.67141,-0.440684,2.65244,-9.66463,-50.9756,-5.7217,-1.04183,9.10107,0.487805,-12.3476,3.47561
18.3059,57.3052,53.8069,0,9.08191,5.68099,-0.433499,3.20122,-6.58537,-53.0488,-5.60674,-0.984353,9.22801,0.152439,-11.7378,3.75
18.3159,56.7628,54.0068,0,8.93821,5.84385,-0.237107,3.04878,-2.86585,-54.3598,-5.64506,-0.943638,9.32142,0.0609756,-11.2195,3.78049
18.3259,56.2411,54.1766,0,9.12742,5.86061,-0.469424,3.38415,-5.27439,-54.3293,-5.55405,-0.814307,8.97414,-0.670732,-9.60366,3.10976
18.3359,55.6844,54.3281,0,8.52866,6.0115,-0.129331,4.69512,-6.64634,-53.9024,-5.53729,-0.811912,8.8472,0.0304878,-8.78049,3.01829
18.3458,55.0788,54.4825,0,8.20294,6.32764,-0.0215552,2.89634,-4.54268,-55,-5.38879,-0.684976,8.68674,0.457317,-6.52439,2.2561
18.3559,54.4907,54.6313,0,8.11672,5.98515,-0.325723,1.76829,-8.17073,-56.9817,-5.24749,-0.55804,8.42807,0.884146,-3.90244,2.22561
18.3659,53.9046,54.8637,0,8.04248,5.87498,-0.0335303,-0.457317,-5.60976,-58.5061,-5.16366,-0.598755,8.8472,-0.182927,-2.13415,3.44512
18.3758,53.3057,55.1415,0,7.82453,5.85103,-0.174836,-0.0914634,-6.98171,-59.6951,-5.19959,-0.747246,8.9454,-1.64634,-1.0061,3.44512
18.386,52.7307,55.5131,0,8.04008,5.87738,-0.208367,1.89024,-8.01829,-59.7561,-5.19719,-0.845442,8.81607,-3.23171,0.0609756,3.44512
18.3958,52.1526,55.6662,0,8.09756,5.99952,-0.285007,2.68293,-11.5549,-60.4878,-5.12534,-0.893342,8.52627,-4.57317,2.65244,3.47561
18.4058,51.6065,55.8326,0,8.21252,5.73847,-0.440684,4.17683,-10.4878,-61.6463,-4.94811,-0.878972,8.44244,-4.90854,3.38415,3.78049
18.4158,51.0577,56.0038,0,8.1287,5.60674,-0.735271,0.0609756,-8.32317,-63.75,-4.81399,-0.826282,8.30593,-5,3.56707,4.14634
18.4261,50.5238,56.1484,0,8.11433,5.45106,-0.797541,1.58537,-4.08537,-64.7866,-4.63676,-0.735271,7.92272,-4.35976,6.34146,4.7561
18.4359,49.921,56.257,0,7.4557,5.72649,-0.296982,-1.37195,-3.87195,-65.4878,-4.58167,-0.689766,7.60898,-3.47561,10.9146,4.63415
18.4458,49.3437,56.3403,0,7.76944,5.8175,-0.265847,-3.29268,-7.71341,-65.5488,-4.61041,-0.775986,7.5036,-3.53659,14.7256,4.17683
18.4559,48.7808,56.4271,0,7.80297,6.057,-0.675395,-0.579268,-4.14634,-63.2317,-4.86428,-1.01309,7.96344,-3.01829,10.2134,3.68902
18.4659,48.1949,56.5331,0,7.41738,6.23184,-0.210762,1.0061,-6.28049,-62.1951,-4.69663,-1.06818,7.8844,-5.97561,23.2317,3.14024
18.476,47.6092,56.6181,0,7.47486,6.42344,-0.354463,-2.86585,-12.3171,-62.0732,-4.74214,-0.981958,7.82932,-6.67683,23.3841,2.62195
18.486,47.0041,56.6806,0,6.99585,6.24142,-0.455054,-0.518293,-11.4329,-63.0793,-4.69424,-1.12326,7.60898,-5.67073,26.7378,2.92683
18.4959,46.3929,56.7414,0,6.82102,6.17197,-0.311353,1.52439,-15.6707,-64.1159,-4.60802,-1.08015,7.47965,-5.4878,29.6646,3.20122
18.5058,45.7852,56.7676,0,6.73719,6.08335,-0.546064,1.03659,-19.0854,-65.1219,-4.62239,-0.986748,7.27128,-5.51829,30.8841,3.44512
18.5159,45.2177,56.7837,0,6.90005,6.00671,-0.261057,2.10366,-19.7866,-64.3902,-4.56491,-0.914897,7.118,-3.62805,30.8537,3.81098
18.5259,44.6711,56.7735,0,7.04375,6.29411,0.00479004,1.18902,-16.0061,-61.8902,-4.41402,-0.651445,6.72282,-3.04878,38.0183,4.54268
18.5359,44.1699,56.7176,0,7.37906,6.49769,-0.407153,0.27439,-14.4817,-59.2378,-4.49545,-0.720901,6.55756,-2.04268,41.2805,5.60976
18.5458,43.6694,56.6597,0,7.13955,6.56954,-0.150886,-2.19512,-12.6524,-57.622,-4.63197,-0.914897,6.7348,-1.31098,45.8537,6.37195
18.5559,43.1902,56.5904,0,7.08686,6.53601,-0.342488,-0.884146,-16.6463,-56.3415,-4.86907,-1.03704,6.99346,-1.82927,48.9939,6.76829
18.5659,42.6729,56.4755,0,6.50487,6.5887,-0.191602,-3.78049,-17.6524,-55.7317,-5.01517,-1.12326,6.88808,-1.79878,50.9451,6.55488
18.5758,42.182,56.3279,0,6.6342,6.47613,-0.65863,-1.89024,-18.9024,-56.25,-5.12534,-1.14242,6.80425,-2.46951,53.1402,6.21951
18.5859,41.6903,56.137,0,6.6845,6.67492,-0.227527,-1.79878,-19.8476,-56.0061,-5.18282,-1.14721,6.58151,-2.5,55.5183,5.79268
18.596,41.2006,55.9237,0,6.70845,6.8306,-0.376018,-2.95732,-21.9817,-55.6707,-5.23072,-1.07776,6.46895,-1.67683,58.3232,5.57927
18.6058,40.698,55.7101,0,6.5887,6.95753,-0.328118,-4.11585,-24.0854,-55.8537,-5.25707,-0.922083,6.45218,-0.701219,60.3049,5.82317
18.6159,40.1963,55.4434,0,6.55277,7.07968,-0.141306,-5.21341,-23.1707,-55.4573,-5.3864,-0.821492,6.25819,1.28049,62.0122,6.82927
18.6259,39.7297,55.1264,0,6.66534,7.07489,-0.100591,-8.38415,-22.4695,-53.9329,-5.38879,-0.819097,5.93725,2.10366,67.6219,8.20122
18.6359,39.2948,54.8349,0,6.78509,6.95035,-0.58678,-11.311,-15.7012,-53.7195,-5.54447,-0.809517,6.18394,1.61585,71.5244,8.90244
18.6458,38.8503,54.5453,0,6.5408,6.95514,-1.32924,-13.7805,-2.77439,-53.4146,-5.60435,-0.900527,6.20071,1.28049,75.0915,10.2134
18.6559,38.3828,54.2739,0,6.28932,7.18027,-0.275427,-11.9512,-6.40244,-52.5305,-5.7696,-0.941243,6.42105,1.34146,74.0549,10.4878
18.6658,37.8735,54.0014,0,5.9636,7.41977,-0.617915,-11.0061,-11.2195,-52.8049,-5.7241,-0.967588,6.30369,1.79878,73.8719,11.0976
18.6759,37.3451,53.6346,0,5.73607,7.39343,-0.505349,-10.6098,-16.0976,-53.7805,-5.77679,-1.04423,5.79834,2.89634,74.3598,11.372
18.686,36.826,53.2758,0,5.77679,7.36229,-0.383203,-10.8232,-21.0976,-54.5427,-5.93725,-0.950823,5.92528,3.32317,74.3902,10.7927
18.6959,36.357,52.8967,0,6.08335,7.3096,-0.63947,-8.17073,-27.8963,-53.872,-6.05461,-0.819097,5.86061,1.70732,73.811,10.0305
18.7058,35.8908,52.4893,0,5.86061,7.41019,-0.768801,-10.3354,-24.9085,-51.6159,-6.22226,-0.708926,5.79834,2.5,75.2134,8.84146
18.7159,35.4327,52.0407,0,5.74086,7.48923,-1.42264,-12.2561,-11.7378,-49.9695,-6.38991,-0.627495,5.66183,3.14024,76.7683,8.20122
18.7259,34.9764,51.5406,0,5.54687,7.51078,-1.24062,-13.1402,-6.76829,-48.628,-6.54319,-0.673001,5.44867,4.17683,75.4573,7.28659
18.736,34.5297,50.973,0,5.61153,7.67125,-1.10171,-12.2866,-8.2622,-48.0488,-6.7803,-0.675395,5.21875,4.84756,76.3719,6.95122
18.7458,34.084,50.4469,0,5.578,7.8365,-1.19751,-12.5915,-8.96341,-47.3476,-6.96951,-0.732876,5.45825,6.0061,76.7683,6.92073
18.7558,33.6299,49.913,0,5.48459,7.84608,-1.14721,-12.3171,-7.37805,-48.1098,-7.19943,-0.740061,5.49178,5.36585,75.0305,7.04268
18.7659,33.1602,49.3385,0,5.27623,7.77423,-0.890947,-10.4878,-9.08537,-49.0244,-7.36229,-0.783171,5.30497,5.12195,74.5122,6.61585
18.7759,32.7017,48.7894,0,5.1948,7.33594,-0.792751,-10.3963,-11.4329,-51.1585,-7.45809,-0.819097,5.3864,4.81707,73.7805,6.0061
18.7859,32.2219,48.2238,0,4.99122,7.15871,-0.723296,-6.67683,-11.7378,-53.4146,-7.53473,-0.744851,5.25228,4.54268,75.2439,4.78659
18.7961,31.6904,47.6111,0,4.74932,7.46528,-0.883762,-7.68293,-12.1951,-54.7256,-7.60179,-0.725691,4.96009,5.27439,75.6402,3.47561
18.8058,31.1275,47.0528,0,4.74932,8.16702,-1.17835,-9.42073,-10.5488,-54.3598,-7.63532,-0.59636,5.12774,5.27439,74.8476,2.34756
18.816,30.5457,46.5273,0,4.68226,8.74422,-1.19272,-10.122,-9.35976,-53.3232,-7.69759,-0.486189,5.22114,4.96951,74.1159,1.52439
18.8259,29.9988,45.9929,0,4.8068,8.95498,-0.862207,-7.80488,-11.4634,-51.0671,-7.78621,-0.385598,5.13253,4.66463,72.439,1.28049
18.8359,29.5258,45.4601,0,5.37203,8.6077,-0.979563,-14.9085,-11.0671,-52.2866,-7.80058,-0.316143,5.04391,3.14024,70.7622,0.884146
18.8458,29.0938,44.8882,0,5.25467,8.54543,-1.06578,-6.89024,-7.80488,-48.2927,-7.75986,-0.368833,4.73256,2.2561,72.3171,0.548781
18.8558,28.6597,44.3115,0,4.83794,8.18857,-0.890947,-5.06098,-8.81098,-47.3171,-7.73112,-0.399968,4.58646,1.95122,71.6768,0.945122
18.8659,28.2181,43.7562,0,4.60802,8.14546,-0.917292,-3.44512,-9.29878,-46.7683,-7.70717,-0.366438,4.56491,2.71341,70.4268,1.31098
18.8758,27.7572,43.1793,0,4.33499,8.21492,-0.646655,-4.39024,-9.2378,-46.2195,-7.72873,-0.316143,4.3781,3.01829,69.4207,2.2561
18.8861,27.2985,42.6478,0,4.33259,8.31311,-0.58199,-4.2378,-10.7317,-46.3415,-7.87243,-0.349673,4.56251,2.0122,67.9878,3.14024
18.8961,26.8469,42.1306,0,4.426,8.34664,-0.58678,-4.96951,-9.14634,-47.378,-8.01134,-0.402363,4.61041,0.823171,67.3476,3.56707
18.9058,26.3907,41.5736,0,4.34457,8.43526,-0.756826,-6.12805,-7.62195,-47.378,-8.10714,-0.474214,4.38289,0.579268,66.6768,4.05488
18.9159,25.9415,41.0169,0,4.43558,8.51908,-0.862207,-4.17683,-10.1524,-48.1098,-8.13588,-0.419128,4.29667,0.396341,65.3963,4.11585
18.9258,25.5125,40.4073,0,4.57449,8.50471,-0.986748,-2.80488,-7.9878,-48.5366,-8.15744,-0.438289,3.96855,1.61585,64.4817,4.87805
18.9359,25.0901,39.7933,0,4.59844,8.61249,-0.866997,-1.79878,-4.2378,-48.3841,-8.18378,-0.443079,3.85359,1.28049,63.4451,4.78659
18.9458,24.6569,39.2517,0,4.40205,8.83044,-0.584385,-2.40854,-1.0061,-47.0732,-8.24605,-0.433499,4.09788,0.731707,62.439,4.72561
18.9558,24.2114,38.6943,0,4.05237,8.86397,-0.543669,-4.5122,-1.18902,-45.2744,-8.3179,-0.301772,3.96376,-0.914634,61.2805,5.21341
18.9659,23.7595,38.139,0,3.80808,8.85199,-0.423918,-4.87805,-3.44512,-44.2073,-8.26282,-0.244292,3.8488,-1.4939,61.5549,5.79268
18.9761,23.3234,37.5978,0,3.79132,8.62926,-0.613125,-4.26829,-4.96951,-44.4207,-8.29156,-0.148491,3.82724,-2.53049,61.6159,6.52439
18.9858,22.924,37.0206,0,3.90628,8.34904,-0.57241,-3.32317,-9.66463,-44.3293,-8.35622,-0.141306,3.6045,-3.04878,62.5305,6.98171
18.9964,22.5796,36.4728,0,4.17452,8.3179,-0.689766,-2.2561,-8.17073,-42.7439,-8.43047,-0.182021,3.66438,-4.39024,61.7988,6.46341
19.0061,22.2355,35.8658,0,4.13859,8.53345,-0.61552,-2.04268,-3.96341,-41.8293,-8.52148,-0.201182,3.34824,-5.67073,62.0732,6.28049
19.0159,21.8879,35.314,0,4.00208,8.65081,-0.895737,-2.43902,-2.68293,-40.7622,-8.6053,-0.251477,3.51828,-4.87805,61.6159,5.54878
19.0258,21.5365,34.7782,0,3.86796,8.81367,-1.07057,-1.4939,-2.7439,-39.5427,-8.63644,-0.265847,3.50391,-5.4878,60.7012,5.21341
19.0358,21.1446,34.1829,0,3.54223,8.91905,-0.536484,-2.83537,-8.14024,-40.2439,-8.63165,-0.301772,3.14945,-5.70122,60.5488,5.12195
19.0459,20.8202,33.5696,0,3.90149,8.67716,-0.876577,-1.82927,-1.76829,-39.3598,-8.70829,-0.294587,2.99856,-7.28659,61.4939,4.78659
19.0559,20.5256,32.9896,0,3.99968,8.71787,-0.883762,-0.121951,1.15854,-37.8659,-8.78733,-0.258662,3.06562,-7.5,62.439,4.93902
19.0658,20.2404,32.3957,0,3.95657,8.81846,-0.936453,-0.853659,2.77439,-36.5244,-8.86876,-0.342488,2.9315,-8.32317,60.4268,4.7561
19.0759,19.9382,31.8227,0,3.7051,8.88552,-0.946033,-1.79878,4.5122,-35.7317,-8.93821,-0.383203,2.94108,-8.35366,58.1707,4.5122
19.0859,19.592,31.2696,0,3.29555,8.93582,-0.924478,-2.13415,6.28049,-35.9451,-8.88552,-0.280217,2.90995,-9.17683,55.9451,5.18293
19.096,19.2467,30.6829,0,3.23807,8.88313,-0.737666,-0.426829,3.44512,-36.128,-8.83762,-0.246687,2.65608,-9.66463,55.2134,5.54878
19.1058,18.9103,30.0654,0,3.1279,8.72266,-0.277822,2.0122,1.70732,-35.3049,-8.79451,-0.244292,2.41657,-9.08537,55.6402,6.34146
19.1159,18.6001,29.5041,0,3.17819,8.81128,-0.481399,1.55488,5.67073,-33.5366,-8.88552,-0.318538,2.57465,-9.57317,54.4512,7.0122
19.1261,18.2801,28.9573,0,3.13029,9.05796,-0.479004,-0.304878,2.5,-33.5976,-9.01246,-0.402363,2.57704,-10.1524,52.9268,6.79878
19.1358,17.9876,28.3501,0,3.34584,9.14897,-0.816702,-0.914634,2.62195,-33.5366,-9.04599,-0.469424,2.23695,-10.5793,53.3232,6.7378
19.1459,17.6817,27.7447,0,3.12311,9.12981,-0.723296,-0.0914634,-0.243902,-33.0488,-9.15137,-0.56762,2.16749,-10.1829,53.4146,6.58537
19.1558,17.3743,27.1693,0,2.99617,9.10826,-0.661025,1.12805,2.7439,-32.439,-9.32142,-0.570015,2.23455,-10.3354,53.4451,6.18902
19.1658,17.0729,26.5802,0,2.95785,9.17532,-0.364043,2.46951,0.823171,-31.7683,-9.43159,-0.646655,2.10043,-9.84756,53.1098,6.18902
19.1759,16.7479,25.999,0,2.66566,9.32142,-0.356858,2.34756,2.40854,-30.8841,-9.50344,-0.6251,2.04774,-9.39024,51.7988,5.57927
19.186,16.4541,25.4162,0,2.78541,9.2352,-0.65384,1.28049,5.64024,-30.061,-9.57529,-0.526904,1.95434,-9.08537,51.0976,5.85366
19.1958,16.1166,24.8435,0,2.37107,9.35495,-0.64905,1.12805,4.39024,-29.878,-9.65193,-0.457449,1.91123,-8.93293,50.0305,6.06707
19.206,15.7809,24.2869,0,2.42376,9.53936,-0.775986,0.365854,4.81707,-30.4573,-9.67109,-0.411943,1.88488,-8.47561,48.75,6.25
19.2158,15.4204,23.7282,0,2.20821,9.60403,-0.536484,0.335366,2.28659,-31.0061,-9.68067,-0.428708,1.7795,-8.75,47.9878,6.46341
19.2258,15.0833,23.1829,0,2.31359,9.49386,-0.61552,0.823171,1.15854,-30.8841,-9.69743,-0.455054,1.74357,-8.29268,47.0732,6.70732
19.2359,14.7718,22.6139,0,2.55309,9.60642,-0.627495,2.10366,-2.04268,-31.372,-9.73336,-0.522114,1.54958,-7.80488,46.7988,6.7378
19.246,14.4995,22.0151,0,2.79499,9.48188,-0.66821,3.07927,0.27439,-31.1585,-9.62079,-0.6251,1.30529,-6.28049,47.5,6.7378
19.2558,14.2484,21.4456,0,2.78301,9.39806,-0.447869,3.07927,2.07317,-29.6951,-9.58726,-0.608335,1.32445,-5.67073,46.7073,6.92073
19.2658,14.0027,20.902,0,2.62734,9.43638,-0.356858,2.77439,3.9939,-27.7439,-9.61121,-0.646655,1.34121,-5.4878,45.6098,6.52439
19.2758,13.7524,20.3842,0,2.44771,9.36453,-0.452659,0.762195,2.68293,-26.8598,-9.61121,-0.622705,1.35798,-5.73171,43.7195,6.79878
19.2859,13.4855,19.8851,0,2.23934,9.35495,-0.857417,-0.121951,9.05488,-26.6463,-9.72857,-0.589175,1.36516,-5.36585,41.9512,7.22561
19.296,13.1858,19.3356,0,2.01182,9.42201,-0.416733,1.12805,5.06098,-27.6524,-9.72378,-0.536484,1.0586,-4.29878,41.2195,7.16463
19.3058,12.8815,18.8042,0,1.95434,9.41482,-0.368833,0.457317,3.96341,-28.0793,-9.71899,-0.488584,1.04183,-3.32317,40.8841,7.86585
19.3158,12.5968,18.2859,0,2.06211,9.35016,-0.486189,1.46341,2.83537,-28.1402,-9.75491,-0.443079,1.0107,-3.23171,39.939,8.01829
19.3259,12.3387,17.7787,0,2.26808,9.57289,-0.59157,1.85976,5.39634,-27.8354,-9.78844,-0.428708,0.972378,-2.89634,39.6646,7.89634
19.3361,12.096,17.2944,0,2.32077,9.54655,-0.694556,0.762195,8.44512,-27.4695,-9.83395,-0.464634,0.989143,-3.2622,39.3293,7.34756
19.3458,11.8586,16.7875,0,2.22258,9.58247,-0.687371,0.762195,1.76829,-26.189,-9.78366,-0.517324,0.802332,-3.23171,39.0549,7.10366
19.3559,11.6306,16.269,0,2.17947,9.616,-0.498164,1.15854,-1.7378,-25.122,-9.73336,-0.421523,0.661025,-2.46951,38.9329,6.70732
19.3658,11.4045,15.766,0,2.01661,9.50344,-0.833467,0.335366,-1.98171,-23.7805,-9.69504,-0.385598,0.637075,-2.9878,38.8415,6.7378
19.3758,11.1534,15.2668,0,1.74836,9.42201,-0.859812,1.67683,-1.4939,-23.811,-9.69264,-0.308958,0.56762,-2.71341,38.628,7.43902
19.3859,10.8995,14.8039,0,1.83458,9.64474,-0.771196,3.20122,0.731707,-25.122,-9.75731,-0.308958,0.641865,-2.80488,37.7134,7.59146
19.3961,10.636,14.3255,0,1.86093,9.70222,-0.696951,1.58537,-4.20732,-26.7988,-9.80521,-0.251477,0.498164,-3.68902,37.378,7.9878
19.4062,10.4219,13.8334,0,2.32077,9.66151,-0.866997,3.29268,-2.68293,-27.7134,-9.87706,-0.280217,0.359253,-3.78049,37.1951,7.92683
19.4163,10.2105,13.3318,0,2.2609,9.67827,-0.886157,2.71341,2.5,-27.1341,-9.95131,-0.332908,0.234712,-4.02439,37.439,8.32317
19.4264,10.0527,12.8508,0,2.4501,9.38369,-1.04183,3.07927,7.19512,-25.122,-10.0136,-0.368833,0.239502,-4.14634,37.1646,8.44512
19.4361,9.88661,12.3444,0,2.27766,9.29268,-0.876577,3.81098,10.3963,-24.5427,-9.99442,-0.421523,0.0431104,-4.14634,37.1951,8.56707
19.4462,9.71508,11.8664,0,2.2106,9.44596,-0.809517,2.83537,15.7622,-24.2073,-9.96328,-0.407153,0.0790356,-4.45122,36.6159,8.38415
19.4561,9.49849,11.4019,0,1.76513,9.65672,-0.59636,2.80488,13.1098,-23.4146,-9.91538,-0.419128,0.0550855,-4.69512,36.6159,7.9878
19.4661,9.25597,10.9283,0,1.57353,9.74294,-0.711321,2.10366,9.84756,-24.0854,-9.86509,-0.366438,-0.0646655,-4.20732,37.0427,7.77439
19.4762,9.00574,10.4628,0,1.53281,9.71659,-0.790356,1.52439,9.7561,-24.939,-9.8603,-0.340093,-0.110171,-4.42073,37.5305,7.13415
19.4858,8.72678,10.0264,0,1.29092,9.70462,-0.632285,2.07317,6.89024,-25.5488,-9.91778,-0.306563,-0.0646655,-4.42073,36.9512,7.07317
19.4961,8.48344,9.59391,0,1.65256,9.73815,-0.855022,2.07317,6.79878,-26.6768,-9.97526,-0.325723,-0.124541,-4.78659,36.4939,6.85976
19.506,8.28516,9.17906,0,1.94236,9.39087,-0.953218,3.04878,7.89634,-26.7683,-10.095,-0.311353,-0.124541,-4.93902,35.4268,6.58537
19.5161,8.12214,8.81056,0,2.15073,9.14418,-0.907712,4.93902,14.2073,-26.7378,-10.1214,-0.376018,0.00718506,-5.06098,33.7805,5.82317
19.526,7.98057,8.45117,0,2.17468,9.41243,-0.910107,5.67073,19.0854,-24.4207,-10.1022,-0.404758,-0.0191602,-5.12195,31.5854,4.87805
19.5359,7.86743,8.06146,0,2.17468,9.39327,-0.929268,5.09146,26.5244,-21.8598,-9.86269,-0.378413,-0.213157,-4.39024,30.6707,4.63415
19.546,7.6895,7.61851,0,1.39869,9.61361,-0.843047,1.92073,26.0061,-18.9939,-9.57289,-0.146096,-0.495769,-3.9939,32.2561,5.70122
19.5558,7.45652,7.13634,0,0.821492,9.46751,-0.673001,1.31098,17.3171,-18.2012,-9.57289,-0.107776,-0.735271,-3.81098,33.4146,6.92073
19.5658,7.18944,6.67656,0,0.584385,9.43638,-0.471819,1.40244,7.71341,-19.2683,-9.78844,-0.191602,-0.737666,-3.87195,33.2317,7.9878
19.5758,6.90581,6.25801,0,0.510139,9.72617,-0.249082,2.68293,1.21951,-20.3963,-10.0232,-0.306563,-0.65384,-4.45122,32.439,7.59146
19.5859,6.61722,5.90038,0,0.543669,9.94891,-0.349673,2.13415,-7.07317,-21.7378,-10.1573,-0.332908,-0.464634,-4.48171,31.0976,6.64634
19.5961,6.3869,5.60235,0,0.938848,10.083,-0.718506,1.61585,-7.80488,-20.8537,-10.2124,-0.287402,-0.263452,-5.15244,29.878,5.67073
19.6058,6.21468,5.28406,0,1.33642,9.94891,-0.821492,2.5,-5.33537,-20.1524,-10.0543,-0.328118,-0.402363,-5.42683,29.0244,4.7561
19.6159,6.12925,4.93869,0,1.82021,9.73336,-0.922083,2.2561,0.243902,-17.6524,-9.94652,-0.414338,-0.57241,-5.60976,29.0244,3.81098
19.6259,6.10093,4.56071,0,2.01661,9.34058,-0.787961,4.08537,9.60366,-15.2439,-9.91299,-0.579595,-0.773591,-4.78659,29.1159,3.29268
19.6359,6.06442,4.17538,0,1.80584,9.41003,-0.617915,2.62195,13.872,-13.4451,-9.92975,-0.670605,-0.874182,-3.35366,28.0183,2.22561
19.6458,6.01042,3.80089,0,1.59508,9.36213,-0.950823,2.13415,18.872,-12.8659,-9.81479,-0.574805,-0.883762,-1.43293,27.5,2.07317
19.656,5.9132,3.41223,0,1.21906,9.5705,-1.02746,1.79878,20.4268,-12.4695,-9.70222,-0.423918,-0.998723,-0.0914634,27.5915,2.34756
19.6658,5.74305,3.01544,0,0.692161,9.58966,-1.08734,1.89024,18.5671,-13.7195,-9.71659,-0.323328,-1.10171,0.121951,28.0488,3.38415
19.6758,5.47542,2.6587,0,0.0431104,9.89862,-0.833467,1.95122,12.3476,-16.0976,-9.99681,-0.342488,-1.02507,-0.0609756,27.9878,4.08537
19.6859,5.16909,2.3358,0,-0.126936,10.1956,-0.828677,2.9878,7.37805,-18.628,-10.2076,-0.285007,-0.958008,-0.853659,27.0122,4.45122
19.696,4.83342,2.05379,0,-0.239502,10.4998,-0.651445,2.40854,0.884146,-21.0366,-10.2363,-0.213157,-0.833467,-2.07317,26.4634,4.5122
19.706,4.54822,1.7847,0,0.273032,10.3632,-0.764011,2.65244,1.61585,-22.3171,-10.2603,-0.162861,-0.828677,-2.56098,25,5.33537
19.7158,4.30041,1.51881,0,0.55804,10.1309,-0.670605,1.7378,2.59146,-22.439,-10.2483,-0.0526904,-0.862207,-4.05488,24.3598,5.39634
19.7258,4.08699,1.24397,0,0.773591,9.88425,-0.725691,1.92073,6.0061,-22.1341,-10.1884,-0.0335303,-0.946033,-4.5122,23.5976,5.79268
19.7359,3.90929,0.982829,0,0.993933,9.69504,-1.04423,1.55488,11.0976,-21.7378,-10.1357,-0.0718506,-0.929268,-4.63415,22.6524,6.7378
19.7458,3.74226,0.691977,0,0.948428,9.60163,-0.783171,2.10366,12.5305,-20.5793,-10.1597,-0.174836,-1.11368,-4.57317,21.4634,6.7378
19.756,3.58992,0.376444,0,0.926873,9.40764,-0.831072,2.16463,13.811,-19.3902,-10.0495,-0.261057,-1.26457,-4.08537,21.0061,6.37195
19.7658,3.41672,0.0301301,0,0.677791,9.45075,-0.711321,2.2561,13.9634,-18.7195,-9.9082,-0.320933,-1.43941,-2.95732,20.8232,6.37195
19.7758,3.20617,-0.311885,0,0.342488,9.44356,-0.752036,2.10366,10.0915,-18.75,-9.83156,-0.292192,-1.47054,-1.7378,20.1524,6.4939
19.7859,2.99919,-0.631938,0,0.323328,9.84832,-0.656235,2.37805,4.69512,-18.4146,-9.71899,-0.263452,-1.41785,-0.762195,18.9939,7.10366
19.796,2.8152,-0.933306,0,0.464634,9.84114,-0.742456,2.19512,2.65244,-18.1707,-9.78366,-0.392783,-1.40109,0.0609756,18.689,7.62195
19.8058,2.67454,-1.20797,0,0.64905,9.9561,-0.821492,0.792683,3.10976,-16.2195,-9.92017,-0.502954,-1.35558,0.182927,17.7744,7.16463
19.816,2.53036,-1.47126,0,0.55804,10.016,-0.687371,2.13415,2.04268,-15.7622,-9.93215,-0.55804,-1.35558,0.762195,17.1341,6.70732
19.8258,2.36157,-1.71923,0,0.404758,9.98005,-0.888552,1.09756,2.34756,-16.7988,-9.92975,-0.392783,-1.33403,1.82927,16.4634,6.40244
19.8359,2.18886,-1.99455,0,0.325723,9.83156,-0.986748,1.03659,3.23171,-16.6768,-9.89383,-0.203577,-1.49449,2.37805,16.5854,7.46951
19.8459,1.99795,-2.26275,0,0.162861,9.67348,-0.905317,0.884146,2.13415,-16.9817,-9.95849,-0.0670605,-1.52084,2.46951,17.0122,8.2622
19.8559,1.79457,-2.53695,0,0.0455054,9.68785,-0.965193,1.21951,0.335366,-17.2256,-10.107,-0.0694556,-1.61903,2.71341,17.378,8.68902
19.8658,1.59112,-2.79041,0,0.0383203,9.65672,-0.874182,0.97561,-3.23171,-17.561,-10.2555,-0.182021,-1.59748,2.2561,16.9512,8.41463
19.8759,1.41388,-3.03216,0,0.186812,9.91059,-0.962798,1.58537,-3.75,-17.0427,-10.301,-0.229922,-1.59748,2.07317,16.128,7.68293
19.8858,1.24223,-3.26865,0,0.201182,9.87467,-1.14003,1.79878,-5.42683,-17.0122,-10.3201,-0.258662,-1.62143,2.07317,15.2134,6.89024
19.8961,1.11515,-3.51982,0,0.455054,9.91778,-1.08973,1.82927,-3.93293,-15.7927,-10.2076,-0.258662,-1.71483,1.89024,15.1524,5.7622
19.9058,0.990084,-3.76372,0,0.344883,9.79084,-0.984353,0.243902,-5.30488,-14.6037,-10.1621,-0.335303,-1.71962,2.5,15,5.09146
19.9158,0.866109,-4.02493,0,0.251477,9.70701,-0.972378,0.365854,-6.34146,-13.6585,-10.0423,-0.342488,-1.82261,3.10976,14.7561,5.06098
19.9259,0.746703,-4.30452,0,0.268242,9.58247,-1.00112,0.487805,-7.62195,-13.689,-10.016,-0.373623,-1.94955,3.87195,14.3293,4.69512
19.9359,0.624465,-4.56961,0,0.246687,9.5681,-1.08973,0.426829,-5.27439,-13.9634,-9.97047,-0.435894,-1.9256,4.60366,13.6585,4.08537
19.9459,0.505724,-4.78893,0,0.282612,9.64235,-1.14003,0.548781,-6.06707,-14.2683,-9.96328,-0.411943,-1.76513,5.30488,12.439,3.65854
19.9558,0.42465,-5.00365,0,0.593965,9.70222,-1.12326,1.31098,-5.12195,-14.3902,-9.92017,-0.423918,-1.7771,5.94512,11.0671,3.07927
19.9658,0.395506,-5.22832,0,0.878972,9.6639,-1.17595,1.55488,-2.2561,-12.7134,-9.91778,-0.421523,-1.86093,7.56098,10,2.92683
19.976,0.385325,-5.48275,0,0.821492,9.45554,-1.01549,0.609756,0.365854,-10.3659,-9.86748,-0.313748,-2.02619,8.59756,9.90854,3.68902
19.9859,0.351255,-5.71825,0,0.459844,9.39087,-0.732876,-0.640244,-0.884146,-8.41463,-9.84114,-0.249082,-1.98068,9.5122,10.061,4.87805
19.9959,0.30455,-5.96168,0,0.205972,9.5202,-0.61073,-0.487805,-4.48171,-6.58537,-9.8124,-0.234712,-2.05253,9.2378,10.1524,5.82317
20.0058,0.233792,-6.172,0,-0.0287402,9.73336,-0.502954,1.06707,-6.95122,-6.25,-9.88664,-0.299377,-1.96152,8.81098,10.2439,5.97561
20.0158,0.122129,-6.34427,0,-0.390388,10.0016,-0.759221,0.487805,-9.45122,-6.34146,-9.88425,-0.249082,-1.8274,7.77439,9.57317,5.4878
20.0258,-0.0121807,-6.49522,0,-0.481399,10.0136,-1.04423,0.792683,-10.3659,-7.83537,-9.83156,-0.119751,-1.75315,7.13415,9.02439,4.66463
20.0358,-0.126305,-6.65051,0,-0.165256,10.095,-0.972378,1.12805,-10,-9.7561,-9.78605,-0.00718506,-1.79147,6.7378,8.2622,3.93293
20.0458,-0.205182,-6.82002,0,0.215552,10.0136,-1.03465,1.03659,-8.59756,-10.8232,-9.79803,0.0742456,-1.88488,6.58537,7.95732,3.93293
20.0558,-0.283174,-6.99446,0,0.261057,9.98723,-1.02267,0.823171,-5,-11.4329,-9.83635,0.0646655,-1.94476,6.25,7.80488,4.11585
20.0661,-0.35616,-7.16562,0,0.280217,9.97047,-1.02267,0.518293,-2.07317,-11.311,-9.86269,0.0335303,-1.96631,5.64024,7.86585,4.17683
20.0758,-0.440129,-7.33911,0,0.213157,9.83395,-1.00351,1.12805,1.58537,-11.8293,-9.94173,-0.102986,-2.02379,4.96951,7.40854,3.84146
20.0858,-0.527016,-7.49931,0,0.196392,9.81479,-0.843047,0.762195,3.96341,-12.1037,-10.004,-0.270637,-2.00703,5.09146,7.62195,3.56707
20.096,-0.617798,-7.64352,0,0.143701,9.86269,-0.826282,0.731707,4.81707,-12.0427,-10.0088,-0.323328,-1.96392,5,7.37805,2.92683
20.1058,-0.722768,-7.78511,0,-0.0431104,9.91059,-0.850232,-0.335366,4.66463,-11.4634,-9.88904,-0.150886,-1.95434,5.36585,7.31707,3.01829
20.1159,-0.811896,-7.92871,0,0.0263452,9.80042,-1.13284,-0.914634,6.37195,-10.8841,-9.83635,-0.0718506,-1.97829,5.67073,6.98171,4.42073
20.1258,-0.950405,-8.06024,0,-0.476609,9.77168,-0.593965,-1.25,-0.27439,-10.0915,-9.71659,-0.0622705,-1.9256,4.93902,7.56098,5.09146
20.1359,-1.07715,-8.18969,0,-0.457449,9.75012,-0.773591,-2.0122,-4.45122,-9.39024,-9.76689,-0.110171,-1.94955,4.63415,7.86585,5.54878
20.1458,-1.1865,-8.31152,0,-0.371228,9.67588,-0.847837,-1.95122,-9.60366,-8.87195,-9.78605,-0.122146,-1.94236,4.26829,7.46951,5.4878
20.1559,-1.2578,-8.41982,0,-0.146096,9.64714,-0.814307,-1.95122,-13.1707,-7.92683,-9.77647,-0.131726,-1.90165,4.35976,7.0122,5.2439
20.1659,-1.28363,-8.52702,0,0.146096,9.49625,-0.869392,-1.43293,-13.9329,-7.0122,-9.76449,-0.134121,-1.91362,4.72561,6.7378,4.93902
20.1759,-1.27043,-8.64126,0,0.313748,9.66151,-0.871787,-1.4939,-12.439,-5.15244,-9.74054,-0.100591,-1.95913,4.7561,6.4939,4.42073
20.1858,-1.25745,-8.7535,0,0.170046,9.77407,-0.859812,-1.28049,-12.8049,-3.56707,-9.79084,-0.148491,-1.98068,4.96951,6.98171,3.71951
20.196,-1.25796,-8.8585,0,0.0239502,9.81958,-1.00591,-0.609756,-13.7195,-3.14024,-9.81719,-0.136516,-1.9735,4.84756,7.07317,3.29268
20.2058,-1.25908,-8.98002,0,0.0574805,9.85072,-1.17595,-0.792683,-13.5976,-3.53659,-9.79563,-0.100591,-2.06211,4.81707,7.0122,2.86585
20.216,-1.2864,-9.07357,0,-0.0766406,9.81,-1.14721,0.457317,-11.311,-4.48171,-9.78844,0.0119751,-1.95673,4.29878,6.58537,2.95732
20.2258,-1.31924,-9.17238,0,-0.0479004,9.91299,-1.13524,0.0914634,-9.05488,-5.42683,-9.82677,0.0383203,-2.00463,3.78049,6.15854,3.38415
20.2359,-1.3533,-9.27507,0,-0.0455054,9.8076,-1.08734,-0.121951,-7.53049,-5.64024,-9.92257,-0.00479004,-2.05972,2.9878,6.09756,3.47561
20.2459,-1.3816,-9.35943,0,0.0335303,9.75012,-1.02028,-1.09756,-5.27439,-6.06707,-9.97047,0.0598755,-2.00463,2.16463,5.88415,3.38415
20.2559,-1.39897,-9.44924,0,0.0958008,9.78844,-0.864602,-0.640244,-4.26829,-5.7622,-9.91778,0.124541,-2.03337,0.884146,5.45732,3.68902
20.2658,-1.40855,-9.55446,0,0.102986,9.73096,-0.771196,-1.34146,-2.37805,-5.12195,-9.83156,0.198787,-2.10043,-0.97561,5.27439,3.62805
20.2759,-1.43677,-9.66762,0,-0.0526904,9.78605,-0.57241,-0.823171,-3.01829,-5.15244,-9.82677,0.217947,-2.15312,-2.43902,5.03049,3.62805
20.2859,-1.46669,-9.76891,0,-0.0622705,9.97286,-0.747246,-1.15854,-4.54268,-5.27439,-9.77647,0.249082,-2.10762,-4.08537,4.72561,3.56707
20.296,-1.4841,-9.8599,0,0.0862207,9.79563,-1.02507,-1.43293,-5.39634,-5.82317,-9.77647,0.174836,-2.07888,-5.2439,4.54268,3.17073
20.3058,-1.51424,-9.95816,0,0.0502954,9.45314,-1.20709,-0.27439,-4.48171,-6.7378,-9.78605,0.134121,-2.11959,-6.4939,3.62805,2.56098
20.3158,-1.54452,-10.0529,0,0.0550855,9.61121,-1.14242,0.121951,-2.53049,-6.85976,-9.75252,0.191602,-2.10762,-6.95122,3.29268,2.37805
20.326,-1.57624,-10.1389,0,0.0502954,9.55613,-1.14003,-0.0914634,-1.12805,-7.0122,-9.76449,0.256267,-2.07169,-7.7439,2.62195,2.46951
20.3359,-1.59803,-10.2057,0,0.122146,9.52739,-1.08973,0.609756,0.121951,-6.95122,-9.79803,0.289797,-1.99026,-8.35366,1.89024,2.43902
20.3458,-1.60746,-10.2769,0,0.222737,9.49146,-1.0562,0.365854,3.78049,-6.98171,-9.79803,0.237107,-1.99026,-9.14634,1.40244,2.31707
20.3559,-1.60482,-10.3633,0,0.296982,9.52978,-0.881367,0.97561,6.03659,-6.67683,-9.8124,0.136516,-2.01182,-10.4573,0.884146,1.7378
20.3659,-1.60615,-10.4742,0,0.246687,9.6184,-0.890947,0.335366,9.32927,-6.43293,-9.75731,0.107776,-2.01661,-11.1585,0.396341,0.853659
20.3759,-1.61361,-10.5766,0,0.205972,9.53218,-1.04183,0.609756,11.5549,-6.58537,-9.75731,0.0981958,-2.00463,-11.6159,0.27439,0.27439
20.3859,-1.63039,-10.7534,0,0.153281,9.43159,-1.06099,-0.0914634,14.2988,-6.92073,-9.72138,0.136516,-2.11959,-12.1646,-0.0609756,-0.304878
20.3961,-1.62431,-10.8602,0,0.182021,9.63756,-1.05141,-1.28049,17.3171,-5,-9.79084,0.126936,-2.1172,-12.9878,-0.609756,-0.0914634
20.4058,-1.63789,-10.9546,0,0.134121,9.6663,-1.13284,0.640244,16.7378,-6.34146,-9.81719,0.00958008,-2.13396,-12.9573,-0.792683,-0.487805
20.4158,-1.67237,-11.0475,0,0.00958008,9.81719,-1.12326,1.25,19.6037,-6.98171,-9.82437,-0.0910107,-2.17468,-12.7439,-1.03659,-0.0914634
20.4259,-1.7281,-11.1321,0,-0.167651,9.8076,-1.18793,1.37195,21.189,-7.10366,-9.78126,-0.131726,-2.18665,-12.378,-1.43293,-0.121951
20.4359,-1.78621,-11.2133,0,-0.136516,9.83874,-1.11608,1.70732,23.5366,-7.83537,-9.78844,-0.232317,-2.22018,-11.4634,-1.82927,0.243902
20.4459,-1.83609,-11.2871,0,-0.0838257,9.86988,-1.12566,2.0122,25.1829,-7.7439,-9.78126,-0.304167,-2.23695,-11.189,-2.53049,0.365854
20.4559,-1.88929,-11.3738,0,-0.100591,9.88904,-1.14242,2.40854,26.4329,-7.9878,-9.75252,-0.354463,-2.3088,-9.35976,-2.92683,0.823171
20.4659,-1.94068,-11.4655,0,-0.0958008,9.78844,-1.04662,2.0122,28.4146,-7.95732,-9.82916,-0.399968,-2.36628,-8.01829,-2.92683,0.97561
20.4759,-2.01688,-11.5727,0,-0.308958,9.7118,-1.01309,2.62195,29.5122,-8.01829,-9.88664,-0.364043,-2.45969,-6.43293,-2.7439,1.7378
20.4858,-2.11871,-11.7046,0,-0.560435,9.81479,-0.883762,2.89634,29.9695,-7.83537,-9.94652,-0.316143,-2.57225,-4.66463,-2.16463,2.22561
20.4961,-2.24563,-11.8597,0,-0.742456,9.88425,-0.775986,2.46951,28.1707,-8.5061,-9.96089,-0.337698,-2.61536,-3.32317,-1.37195,2.31707
20.5058,-2.38919,-12.0077,0,-0.890947,10.0303,-0.60594,1.95122,25.2134,-8.87195,-9.97286,-0.347278,-2.55788,-2.65244,-0.914634,2.04268
20.5158,-2.53689,-12.1532,0,-0.969983,10.0998,-0.720901,1.09756,22.6829,-8.75,-9.93694,-0.344883,-2.5483,-1.95122,-0.823171,1.52439
20.5259,-2.67629,-12.286,0,-0.886157,9.92975,-0.716111,-0.0304878,18.9634,-8.9939,-9.92017,-0.287402,-2.56028,-1.46341,-1.03659,1.0061
20.536,-2.80066,-12.3893,0,-0.783171,9.78366,-0.716111,-0.335366,15.5488,-8.81098,-9.88185,-0.217947,-2.52914,-1.03659,-1.61585,1.21951
20.5459,-2.90026,-12.4423,0,-0.656235,9.67348,-0.730481,-0.731707,12.4695,-7.95732,-9.9082,-0.174836,-2.38065,-0.457317,-1.89024,1.43293
20.5558,-2.97865,-12.4771,0,-0.613125,9.57289,-0.718506,-0.823171,9.48171,-6.43293,-9.93215,-0.172441,-2.34233,0.0609756,-2.80488,2.2561
20.5659,-3.02558,-12.5015,0,-0.445474,9.66151,-0.728086,-0.487805,6.25,-5.4878,-9.9561,-0.261057,-2.31598,0.670732,-3.81098,2.92683
20.5758,-3.05359,-12.516,0,-0.428708,9.73815,-0.821492,-0.823171,4.42073,-3.93293,-9.9561,-0.222737,-2.27766,1.37195,-4.7561,2.83537
20.5859,-3.05873,-12.5172,0,-0.332908,9.86748,-0.993933,-1.09756,2.59146,-3.01829,-9.93215,-0.208367,-2.21539,2.28659,-5.42683,3.07927
20.5959,-3.03474,-12.5367,0,-0.205972,9.81719,-1.06099,-0.823171,0.579268,-2.16463,-9.88664,-0.146096,-2.28964,3.14024,-6.40244,2.95732
20.6059,-2.99022,-12.5476,0,-0.150886,9.85311,-1.04902,-1.58537,-0.152439,-1.55488,-9.82197,-0.0934058,-2.23934,3.59756,-6.40244,2.71341
20.6159,-2.94182,-12.5585,0,-0.239502,9.80281,-0.991538,-0.518293,-1.34146,-0.884146,-9.75252,0.0119751,-2.22497,3.20122,-6.03659,2.62195
20.626,-2.89845,-12.5557,0,-0.239502,9.83156,-0.886157,-1.09756,-2.10366,-0.97561,-9.73336,0.0143701,-2.16031,2.62195,-5.4878,1.98171
20.6359,-2.86341,-12.5726,0,-0.280217,9.79563,-0.914897,-1.21951,-2.37805,-0.945122,-9.66869,0.0167651,-2.23216,1.76829,-4.7561,1.82927
20.6459,-2.83865,-12.5822,0,-0.268242,9.77647,-0.929268,-1.31098,-2.65244,-1.40244,-9.68546,0.0790356,-2.20581,0.792683,-4.20732,1.37195
20.6559,-2.80629,-12.6009,0,-0.0622705,9.72617,-0.931663,-1.52439,-2.9878,-2.56098,-9.71659,0.136516,-2.25371,-0.487805,-3.84146,1.70732
20.6659,-2.76178,-12.6272,0,0.0766406,9.69983,-0.977168,-1.37195,-1.82927,-2.89634,-9.68785,0.134121,-2.28245,-1.79878,-3.78049,1.76829
20.676,-2.70624,-12.6577,0,0.196392,9.68546,-1.04423,-1.21951,0.823171,-3.10976,-9.72857,0.117356,-2.31598,-2.80488,-3.81098,2.13415
20.6859,-2.64076,-12.6965,0,0.273032,9.67588,-1.02267,-0.945122,2.86585,-3.04878,-9.77647,-0.00718506,-2.36628,-3.59756,-3.41463,1.85976
20.6959,-2.55444,-12.7322,0,0.304167,9.70222,-0.989143,-0.518293,5.70122,-2.2561,-9.80521,-0.0598755,-2.36388,-3.35366,-3.07927,1.98171
20.7059,-2.48666,-12.7602,0,0.208367,9.75491,-1.05141,-0.731707,8.35366,-2.31707,-9.7621,0.0311353,-2.32317,-3.23171,-2.71341,2.13415
20.7159,-2.43233,-12.7837,0,0.0407153,9.75731,-0.948428,-0.152439,9.84756,-1.82927,-9.79803,0.0167651,-2.31598,-2.89634,-2.46951,2.13415
20.7259,-2.40283,-12.7963,0,-0.119751,9.79803,-0.946033,-0.304878,9.32927,-1.7378,-9.83635,0.0407153,-2.28245,-2.43902,-2.10366,2.04268
20.7359,-2.39965,-12.8035,0,-0.268242,9.79563,-0.869392,-0.121951,8.29268,-1.89024,-9.79084,0.0383203,-2.25371,-2.9878,-2.28659,1.98171
20.7458,-2.41438,-12.7847,0,-0.342488,9.84353,-0.991538,-0.426829,7.2561,-2.46951,-9.78366,0.0287402,-2.15552,-3.47561,-1.98171,1.52439
20.7558,-2.43153,-12.772,0,-0.318538,9.78126,-0.917292,-0.213415,5.21341,-2.9878,-9.79084,0.0718506,-2.17468,-3.93293,-2.19512,1.12805
20.7659,-2.4414,-12.7702,0,-0.239502,9.72378,-0.890947,-0.0609756,3.5061,-3.2622,-9.79563,0.0646655,-2.21539,-4.84756,-2.10366,0.609756
20.7759,-2.43983,-12.7595,0,-0.160466,9.68067,-0.792751,-0.487805,3.32317,-3.17073,-9.81,0.0502954,-2.18426,-5.03049,-2.13415,0.457317
20.786,-2.42017,-12.7586,0,-0.134121,9.74773,-0.890947,-1.40244,3.29268,-2.16463,-9.85311,0.100591,-2.22976,-5.64024,-2.10366,0.731707
20.7959,-2.38628,-12.766,0,-0.117356,9.79084,-0.886157,-1.37195,3.96341,-1.55488,-9.79084,0.0455054,-2.24413,-5.67073,-1.64634,0.762195
20.8058,-2.35203,-12.7669,0,-0.119751,9.76928,-0.922083,-1.37195,3.17073,-1.4939,-9.78844,0.0335303,-2.22258,-5.51829,-1.70732,0.884146
20.8159,-2.32158,-12.7739,0,-0.117356,9.80521,-0.838257,-1.28049,3.35366,-1.61585,-9.79803,0.00718506,-2.24653,-5.30488,-1.7378,0.945122
20.826,-2.29276,-12.7771,0,-0.160466,9.79563,-0.811912,-0.365854,4.26829,-1.34146,-9.77168,-0.0167651,-2.22737,-4.81707,-1.43293,0.670732
20.8358,-2.27998,-12.7885,0,-0.241897,9.84114,-0.787961,-0.518293,5.42683,-1.37195,-9.74773,-0.0407153,-2.25132,-4.84756,-1.64634,0.884146
20.8458,-2.28368,-12.7934,0,-0.311353,9.82437,-0.730481,-0.396341,5.33537,-1.67683,-9.72617,-0.0574805,-2.22497,-4.54268,-1.52439,0.884146
20.8558,-2.28887,-12.7881,0,-0.268242,9.79803,-0.883762,-0.457317,4.72561,-2.28659,-9.72378,0,-2.19144,-4.7561,-1.70732,1.21951
20.8658,-2.29406,-12.7659,0,-0.215552,9.77407,-0.886157,-0.762195,4.63415,-2.86585,-9.72378,-0.0287402,-2.13157,-5,-1.7378,1.46341
20.8759,-2.30159,-12.7712,0,-0.237107,9.74533,-0.799937,-0.579268,4.66463,-2.83537,-9.70701,-0.0167651,-2.22018,-5.12195,-1.89024,1.4939
20.886,-2.31676,-12.7747,0,-0.275427,9.74533,-0.761616,-0.579268,4.26829,-3.07927,-9.69264,-0.0167651,-2.2106,-5.39634,-1.7378,1.95122
20.8959,-2.33957,-12.7975,0,-0.330513,9.76689,-0.752036,-0.396341,3.59756,-3.17073,-9.6639,0.0287402,-2.27048,-5.45732,-1.7378,2.68293
20.9058,-2.35847,-12.8197,0,-0.282612,9.75731,-0.792751,-1.21951,3.75,-3.41463,-9.66869,0.0263452,-2.27527,-5.67073,-1.79878,2.62195
20.9158,-2.37313,-12.8333,0,-0.227527,9.73575,-0.862207,-0.914634,3.5061,-3.68902,-9.68306,-0.0167651,-2.25371,-5.36585,-1.89024,2.77439
20.9259,-2.37509,-12.8421,0,-0.124541,9.74294,-0.855022,-0.670732,2.92683,-3.71951,-9.77407,-0.0670605,-2.2609,-5,-1.98171,3.07927
20.9359,-2.36344,-12.8692,0,-0.0670605,9.72617,-0.874182,-0.701219,3.44512,-3.20122,-9.81958,-0.0766406,-2.32796,-4.2378,-1.31098,3.01829
20.9458,-2.34001,-12.8888,0,-0.0479004,9.70701,-0.907712,-0.121951,4.08537,-2.56098,-9.79803,-0.0838257,-2.30401,-3.56707,-1.37195,3.04878
20.9559,-2.32186,-12.9127,0,-0.124541,9.75252,-0.701741,-0.0609756,4.57317,-2.19512,-9.79803,-0.0574805,-2.31359,-2.95732,-1.03659,3.38415
20.9659,-2.32317,-12.9133,0,-0.244292,9.77647,-0.811912,-0.213415,3.59756,-2.31707,-9.77647,-0.0263452,-2.24413,-2.46951,-1.09756,3.41463
20.976,-2.32794,-12.9236,0,-0.246687,9.79563,-0.898132,-0.426829,2.28659,-2.56098,-9.79084,-0.0526904,-2.28006,-2.46951,-1.40244,3.5061
20.9859,-2.33749,-12.9213,0,-0.227527,9.72138,-0.979563,-0.670732,1.95122,-3.17073,-9.78605,-0.0574805,-2.23934,-2.62195,-1.37195,3.47561
20.9959,-2.34659,-12.9137,0,-0.237107,9.75731,-0.902922,-0.396341,2.04268,-3.04878,-9.86509,-0.0910107,-2.23934,-2.53049,-1.31098,3.29268
21.006,-2.35583,-12.9256,0,-0.217947,9.79563,-0.886157,-0.365854,1.37195,-3.29268,-9.9058,-0.0598755,-2.31598,-2.5,-1.64634,3.47561
21.0158,-2.36043,-12.9455,0,-0.193997,9.85072,-1.06818,-0.884146,0.579268,-3.17073,-9.92257,-0.0335303,-2.34712,-2.10366,-1.37195,3.23171
21.0258,-2.34628,-12.953,0,-0.0790356,9.79563,-0.893342,-0.701219,0.670732,-2.86585,-9.8555,-0.0311353,-2.29203,-2.43902,-1.43293,3.53659
21.0359,-2.30455,-12.9506,0,0.0479004,9.69504,-0.941243,-0.640244,1.34146,-2.28659,-9.8076,-0.0431104,-2.24892,-2.0122,-1.64634,4.02439
21.0459,-2.25553,-12.9473,0,0.0287402,9.69264,-0.771196,-0.609756,1.06707,-1.82927,-9.81479,-0.0550855,-2.24653,-2.04268,-1.7378,3.96341
21.0558,-2.20806,-12.9598,0,-0.0622705,9.72138,-0.850232,-0.731707,2.10366,-1.28049,-9.81719,-0.146096,-2.29922,-1.61585,-1.34146,4.05488
21.0658,-2.17709,-12.9731,0,-0.158071,9.72857,-0.926873,-0.579268,2.43902,-1.15854,-9.75731,-0.174836,-2.28724,-0.853659,-1.18902,3.47561
21.0759,-2.17557,-13.0047,0,-0.289797,9.79323,-0.907712,-0.0914634,1.06707,-1.34146,-9.72138,-0.136516,-2.32556,-0.121951,-0.884146,3.47561
21.0858,-2.18302,-13.0116,0,-0.294587,9.80521,-0.948428,-0.182927,-0.426829,-1.95122,-9.74773,-0.105381,-2.26569,0.487805,-0.27439,2.95732
21.0961,-2.17743,-13.0083,0,-0.167651,9.79323,-0.950823,-0.213415,-1.52439,-2.34756,-9.75012,-0.0694556,-2.24653,0.640244,-0.304878,3.20122
21.1058,-2.15796,-12.9729,0,-0.102986,9.79563,-0.984353,-0.0914634,-1.12805,-2.04268,-9.77168,-0.0359253,-2.17228,1.0061,-0.609756,3.44512
21.1158,-2.12825,-12.929,0,-0.0455054,9.75012,-0.936453,-0.396341,-0.792683,-1.95122,-9.82437,-0.0407153,-2.17228,0.609756,-0.243902,3.14024
21.1261,-2.09898,-12.8857,0,-0.0407153,9.73336,-0.869392,-0.396341,-0.548781,-1.98171,-9.82916,-0.0670605,-2.14354,0.487805,-0.731707,3.23171
21.1363,-2.06946,-12.8652,0,-0.110171,9.72378,-0.934058,-0.182927,0.701219,-1.43293,-9.81719,-0.0311353,-2.19623,0.731707,-0.579268,2.80488
21.1458,-2.05227,-12.8268,0,-0.184417,9.74773,-0.917292,-0.365854,1.4939,-1.34146,-9.75491,0.0239502,-2.12678,0.518293,-0.853659,3.35366
21.1559,-2.05191,-12.795,0,-0.229922,9.74773,-0.910107,-0.548781,0.213415,-1.85976,-9.73096,0.0455054,-2.12917,0.335366,-0.97561,3.53659
21.1658,-2.06474,-12.7805,0,-0.294587,9.75731,-0.936453,-0.426829,-0.396341,-2.13415,-9.72617,0.00718506,-2.17228,0.335366,-0.792683,3.53659
21.1758,-2.08773,-12.7618,0,-0.316143,9.77407,-0.969983,-0.396341,-0.792683,-2.83537,-9.80281,0.0215552,-2.17947,0.121951,-0.548781,3.29268
21.1861,-2.11116,-12.761,0,-0.289797,9.81,-0.924478,-0.579268,-1.64634,-3.2622,-9.87227,0.0119751,-2.23455,0.0609756,-0.914634,3.01829
21.1958,-2.12065,-12.7489,0,-0.160466,9.8124,-0.900527,-0.365854,-1.95122,-3.5061,-9.89622,-0.0167651,-2.20821,0.426829,-0.792683,3.10976
21.2058,-2.11178,-12.7492,0,-0.0790356,9.78844,-0.816702,0.0914634,-1.09756,-2.86585,-9.90101,-0.0335303,-2.24174,0.0304878,-0.762195,3.2622
21.2159,-2.10245,-12.7677,0,-0.107776,9.86269,-0.799937,-0.609756,0.853659,-2.53049,-9.8555,-0.0886157,-2.27766,0.27439,-0.609756,3.14024
21.2259,-2.09617,-12.7785,0,-0.126936,9.80042,-0.833467,-1.12805,1.52439,-2.56098,-9.81479,-0.0646655,-2.25132,0.426829,-0.579268,3.17073
21.2359,-2.10392,-12.7743,0,-0.160466,9.73096,-0.828677,-1.15854,1.06707,-3.32317,-9.80042,-0.00479004,-2.213,0.396341,-0.579268,3.17073
21.246,-2.11946,-12.7722,0,-0.193997,9.74294,-0.943638,-0.823171,0.701219,-3.65854,-9.7621,-0.0119751,-2.20821,0.365854,-0.914634,3.35366
21.2558,-2.14511,-12.754,0,-0.277822,9.82677,-0.943638,-0.97561,0.213415,-3.68902,-9.79803,0.0742456,-2.16749,0.182927,-1.12805,3.35366
21.2659,-2.17514,-12.7226,0,-0.285007,9.82677,-0.840652,-0.914634,-0.243902,-4.08537,-9.84353,0.0598755,-2.12199,0.243902,-1.52439,3.56707
21.2759,-2.21038,-12.7065,0,-0.335303,9.87946,-0.843047,-1.28049,-0.121951,-4.08537,-9.88904,0.0119751,-2.17947,-0.121951,-1.40244,3.62805
21.2859,-2.25586,-12.6789,0,-0.397573,9.82677,-0.831072,-1.98171,-0.701219,-4.42073,-9.91059,0.0119751,-2.14594,-0.304878,-1.25,3.5061
21.2961,-2.28878,-12.6865,0,-0.261057,9.7142,-0.735271,-1.67683,-1.28049,-4.84756,-9.87227,-0.0359253,-2.24892,-0.426829,-1.52439,3.53659
21.3058,-2.31732,-12.6815,0,-0.225132,9.72378,-0.728086,-2.43902,-1.79878,-4.90854,-9.87227,-0.0766406,-2.20581,-0.213415,-1.64634,3.47561
21.3158,-2.35219,-12.6912,0,-0.256267,9.78366,-0.840652,-2.65244,-0.853659,-5.2439,-9.84353,-0.112566,-2.25371,0.0914634,-1.98171,3.71951
21.3259,-2.39082,-12.6942,0,-0.268242,9.77886,-0.869392,-3.10976,0.0609756,-5.54878,-9.87706,-0.136516,-2.23934,0.945122,-2.77439,3.44512
21.3359,-2.44268,-12.687,0,-0.320933,9.70941,-0.883762,-3.14024,0.640244,-6.31098,-9.88664,-0.186812,-2.19863,1.18902,-3.32317,3.59756
21.3461,-2.49789,-12.6725,0,-0.270637,9.66151,-0.895737,-3.23171,-0.182927,-7.34756,-9.89383,-0.196392,-2.16749,1.09756,-3.20122,3.71951
21.3559,-2.54352,-12.6457,0,-0.172441,9.72138,-0.965193,-3.5061,0.548781,-7.68293,-9.92496,-0.205972,-2.1148,0.97561,-4.29878,3.81098
21.3658,-2.58755,-12.624,0,-0.165256,9.79563,-0.917292,-3.84146,2.5,-7.71341,-9.94173,-0.198787,-2.13636,1.06707,-4.60366,4.17683
21.3759,-2.64542,-12.6102,0,-0.318538,9.85072,-0.898132,-4.78659,4.48171,-7.40854,-9.93694,-0.258662,-2.16749,1.0061,-4.93902,4.63415
21.3859,-2.72352,-12.6054,0,-0.490979,9.77647,-0.984353,-5.06098,4.20732,-7.5,-9.85072,-0.316143,-2.18665,0.884146,-5.36585,4.60366
21.3961,-2.82674,-12.5925,0,-0.62989,9.62079,-1.02746,-5.4878,1.92073,-8.44512,-9.83395,-0.349673,-2.14594,1.67683,-5.88415,4.90854
21.4058,-2.9304,-12.5831,0,-0.593965,9.51302,-1.07536,-5.03049,-0.670732,-9.05488,-9.80281,-0.323328,-2.15312,1.58537,-6.61585,4.32927
21.4162,-3.02361,-12.5542,0,-0.514929,9.6663,-1.16637,-4.81707,-2.28659,-9.26829,-9.87227,-0.294587,-2.07888,1.28049,-7.53049,4.48171
21.4258,-3.10206,-12.5204,0,-0.431104,9.83635,-1.18314,-4.90854,-2.89634,-9.05488,-9.89862,-0.325723,-2.05732,1.52439,-8.17073,4.32927
21.4359,-3.16584,-12.5023,0,-0.349673,9.92017,-1.14961,-5.21341,-3.38415,-8.71951,-9.8603,-0.296982,-2.1148,0.853659,-8.5061,4.08537
21.4459,-3.21404,-12.4872,0,-0.311353,10.004,-1.02267,-5.91463,-4.78659,-7.7439,-9.84353,-0.320933,-2.12199,1.25,-8.62805,4.7561
21.4561,-3.24952,-12.4876,0,-0.268242,9.98244,-0.965193,-6.21951,-6.55488,-7.04268,-9.78844,-0.366438,-2.17707,1.0061,-8.29268,5.27439
21.4658,-3.28529,-12.4866,0,-0.261057,9.86988,-0.996328,-6.18902,-7.34756,-7.19512,-9.75491,-0.445474,-2.1627,0.884146,-8.01829,5.2439
21.4758,-3.31118,-12.4997,0,-0.213157,9.86988,-1.02028,-6.58537,-8.59756,-6.82927,-9.81,-0.593965,-2.23934,1.09756,-8.2622,5.4878
21.4859,-3.32625,-12.5001,0,-0.172441,9.76928,-1.15679,-6.79878,-9.42073,-6.25,-9.88904,-0.66342,-2.20102,1.55488,-7.9878,5.4878
21.4961,-3.31878,-12.5064,0,-0.0359253,9.66869,-1.19272,-6.28049,-10.4268,-5.64024,-9.89383,-0.61552,-2.22976,1.98171,-8.35366,5.42683
21.5058,-3.28389,-12.4915,0,0.141306,9.58966,-1.29571,-6.28049,-11.1585,-5.06098,-9.92496,-0.493374,-2.14115,2.7439,-8.87195,5.82317
21.516,-3.2041,-12.4715,0,0.335303,9.58247,-1.27176,-6.15854,-11.2805,-3.44512,-9.89862,-0.428708,-2.11001,2.53049,-9.29878,6.18902
21.5259,-3.06569,-12.4489,0,0.512534,9.60882,-1.29571,-6.43293,-10.7317,-2.10366,-9.86748,-0.407153,-2.08846,2.13415,-9.90854,5.94512
21.5358,-2.67195,-12.4074,0,0.699346,9.64714,-1.34361,-6.55488,-10.6402,-0.182927,-9.92975,-0.411943,-2.01182,2.40854,-10.5793,5.82317
21.5458,-2.46076,-12.3566,0,0.838257,9.62558,-1.49928,-7.65244,-12.4085,2.13415,-9.8603,-0.402363,-1.94955,2.40854,-11.9207,5.82317
21.5559,-2.20891,-12.2708,0,1.22864,9.3765,-1.62861,-6.85976,-16.0976,5.15244,-9.86269,-0.399968,-1.78429,3.23171,-12.9878,6.43293
21.5658,-1.84591,-12.1795,0,1.79626,9.09389,-1.48012,-5.36585,-18.3537,9.72561,-9.82677,-0.445474,-1.73878,3.96341,-14.0244,6.52439
21.5759,-1.35803,-12.0812,0,2.26329,8.88792,-1.12566,-4.69512,-18.1402,16.8598,-9.7621,-0.505349,-1.6813,4.5122,-15.2439,6.46341
21.5859,-0.75787,-11.955,0,2.55549,8.64123,-0.797541,-3.65854,-18.0793,24.8476,-9.73575,-0.574805,-1.5376,5.33537,-16.2195,6.55488
21.5961,-0.0754397,-11.8165,0,2.77104,8.91905,-0.790356,-4.20732,-20.6707,32.8659,-9.67588,-0.598755,-1.45378,6.34146,-17.439,6.7378
21.6059,0.665037,-11.6703,0,2.85486,9.2831,-0.754431,-4.90854,-23.5061,40.5183,-9.65672,-0.632285,-1.3939,6.46341,-18.3232,5.51829
21.6158,1.46711,-11.5199,0,3.08718,9.61121,-0.780776,-6.46341,-24.8171,46.8598,-9.73815,-0.651445,-1.36277,6.89024,-18.9329,4.42073
21.6258,2.34943,-11.384,0,3.38895,9.6663,-0.682581,-7.22561,-24.4207,53.5976,-9.8579,-0.725691,-1.41785,8.2622,-19.6037,2.95732
21.636,3.29632,-11.2688,0,3.61169,9.70462,-0.380808,-6.70732,-20.6402,59.7561,-9.92736,-0.759221,-1.49689,9.66463,-20.1829,1.34146
21.6458,4.35301,-11.1643,0,4.26313,9.67827,-0.313748,-6.64634,-12.5915,66.0366,-9.98963,-0.641865,-1.53521,12.1951,-21.2805,0.518293
21.6558,5.42522,-11.078,0,4.09309,9.84593,0.189207,-4.57317,-5.39634,72.2256,-10.0088,-0.546064,-1.60227,14.6341,-22.5,0.121951
21.6658,6.61629,-10.9666,0,5.17803,10.2866,0.0910107,-3.04878,5.67073,78.0793,-10.0591,-0.483794,-1.48252,18.0793,-24.1159,0.945122
21.6759,7.90058,-10.8588,0,5.9612,10.9548,0.0526904,-4.35976,9.08537,86.2805,-10.1716,-0.498164,-1.49689,20.7622,-25.3963,1.79878
21.6859,9.29786,-10.752,0,6.52643,11.3979,-0.514929,-6.95122,18.5976,97.8963,-10.1597,-0.589175,-1.48012,23.4451,-25.7317,2.2561
21.6961,10.7915,-10.6745,0,6.30848,11.635,-0.543669,-8.78049,33.5976,113.293,-9.90101,-0.6251,-1.55437,25.3659,-25.5793,2.2561
21.7059,12.3123,-10.6078,0,5.68099,12.3104,-0.00239502,-12.2866,46.2195,126.646,-9.63277,-0.469424,-1.54479,27.8049,-24.7866,1.7378
21.7158,13.8511,-10.5714,0,5.24988,12.8493,0.251477,-17.378,57.8049,136.799,-9.35255,-0.174836,-1.61664,29.5732,-23.75,2.07317
21.7258,15.3794,-10.543,0,4.59844,12.9211,0.162861,-20.7927,64.6951,144.238,-9.30944,0.150886,-1.6358,30.4573,-22.5305,1.18902
21.736,16.8615,-10.5694,0,3.753,12.5906,-0.320933,-19.0549,73.2317,148.75,-9.24238,0.680186,-1.84896,30.7317,-20.6098,0.97561
21.7458,18.1997,-10.6128,0,2.17707,12.1595,-0.66821,-16.189,72.1341,150.244,-9.21843,1.24781,-1.91841,29.1768,-18.689,1.4939
21.756,19.3493,-10.6913,0,0.871787,11.8434,-0.869392,-13.3841,65.2439,145.854,-9.32142,1.69807,-2.09564,26.25,-15.0915,1.79878
21.7658,20.2959,-10.7143,0,0.0479004,11.8194,-0.464634,-8.10976,55.1524,135.61,-9.56571,0.797541,-1.91841,20.1829,-13.5061,3.2622
21.7758,20.9758,-10.7744,0,-1.18074,11.8769,-0.263452,-3.62805,45,122.378,-9.9537,2.36628,-2.1651,17.2561,-8.32317,3.84146
21.7858,21.4207,-10.8173,0,-2.1627,11.6566,-0.203577,-2.86585,29.1159,109.665,-10.5668,2.0693,-2.22737,10.2134,-8.96341,4.72561
21.796,21.689,-10.849,0,-2.57225,10.9692,-0.831072,-2.40854,8.14024,98.0183,-11.0578,1.76273,-2.28245,4.02439,-9.08537,5.42683
21.8059,21.88,-10.9099,0,-1.99745,10.6219,-1.61424,-4.42073,-4.54268,85.4878,-11.2734,1.36995,-2.48364,-0.365854,-7.71341,6.79878
21.816,22.0506,-10.9724,0,-0.938848,10.1645,-1.4897,-5.2439,-12.6524,72.8354,-11.2255,0.993933,-2.49322,-2.92683,-7.16463,8.68902
21.8258,22.3256,-11.0474,0,0.728086,9.52739,-0.912502,-4.02439,-21.4024,64.1463,-10.8518,0.785566,-2.48603,-4.54268,-7.34756,10.9146
21.8358,22.7633,-11.1054,0,2.37107,8.89271,-0.457449,-3.59756,-26.6463,59.7561,-10.2052,0.622705,-2.27287,-4.5122,-9.08537,13.0488
21.8459,23.3373,-11.1432,0,3.59492,8.54782,-0.373623,-3.17073,-26.25,58.4756,-9.76449,0.529299,-2.09564,-3.84146,-10.8537,14.1159
21.8559,23.9742,-11.1415,0,4.21284,8.23887,-0.409548,-0.121951,-22.3171,57.3476,-9.56331,0.445474,-1.88728,-2.2561,-12.439,14.2683
21.8659,24.5987,-11.127,0,4.38049,8.18857,-0.392783,1.40244,-12.8354,55.2134,-9.48188,0.330513,-1.81542,-1.0061,-12.8354,13.5976
21.8759,25.1973,-11.0877,0,4.44516,8.10954,-0.378413,1.31098,2.22561,52.6524,-9.55852,0.258662,-1.71962,-0.182927,-12.9878,12.378
21.8859,25.7382,-11.0205,0,4.20326,7.79818,-0.193997,3.14024,20.3659,48.811,-9.49625,0.328118,-1.58071,0.548781,-12.1341,11.0061
21.8959,26.2089,-10.9594,0,3.93981,7.66406,0.134121,5.12195,35.9451,45.0305,-9.39327,0.325723,-1.57832,0.487805,-12.5,10.0305
21.9059,26.5307,-10.8873,0,3.25244,7.85566,0.404758,4.5122,44.8171,40.4268,-9.3765,0.435894,-1.52084,0.853659,-14.5427,9.5122
21.9159,26.8322,-10.798,0,3.37698,7.79339,0.5772,4.78659,50.6402,37.1037,-9.30944,0.613125,-1.42504,0.640244,-14.6037,9.48171
21.9261,27.1101,-10.7087,0,3.47517,7.76944,0.766406,4.35976,51.9512,33.9329,-9.34297,0.718506,-1.41546,-1.43293,-14.6037,8.71951
21.9358,27.369,-10.5909,0,3.58055,7.69999,0.768801,3.01829,51.4939,30.8537,-9.46991,0.821492,-1.2981,-2.68293,-14.1159,8.29268
21.9458,27.6007,-10.4999,0,3.61648,7.58024,0.807122,1.43293,48.2622,27.439,-9.49625,0.965193,-1.3939,-4.45122,-11.9207,7.16463
21.9559,27.8111,-10.4212,0,3.59013,7.40301,0.684976,-0.792683,41.3415,25,-9.52978,1.13763,-1.43462,-5.54878,-9.7561,6.18902
21.966,27.9949,-10.389,0,3.51589,7.23535,0.63468,1.34146,31.7683,22.622,-9.58726,1.27655,-1.63101,-7.43902,-9.20732,4.93902
21.9761,28.1705,-10.3605,0,3.68833,7.29283,0.706531,4.60366,22.561,20.3049,-9.60163,1.30529,-1.64298,-9.5122,-8.44512,3.90244
21.9861,28.316,-10.345,0,3.73384,7.3551,0.759221,6.61585,13.1098,17.4085,-9.63516,1.26697,-1.70046,-11.4329,-7.5,2.62195
21.9958,28.4362,-10.3631,0,3.82485,7.38145,0.61073,4.08537,6.15854,14.1463,-9.60163,1.15679,-1.83698,-12.8049,-6.18902,1.43293
22.0058,28.5438,-10.383,0,4.00208,7.3575,0.349673,3.62805,-1.03659,10.7622,-9.58726,1.05141,-1.84177,-15.0305,-4.45122,0
22.0158,28.6323,-10.4407,0,4.06914,7.28086,0.0359253,6.03659,-7.34756,7.68293,-9.50823,0.953218,-1.9735,-16.7683,-3.04878,-1.03659
22.0259,28.7046,-10.4927,0,4.14338,7.33834,0.0311353,7.92683,-9.72561,5.67073,-9.57768,0.819097,-1.96392,-18.3537,-2.53049,-1.92073
22.0359,28.7953,-10.5473,0,4.3757,7.30241,0.143701,9.05488,-10.8537,4.2378,-9.69983,0.730481,-1.97589,-19.2683,-1.58537,-2.65244
22.0458,28.8784,-10.6075,0,4.50743,7.53952,0.0958008,7.5,-15.7317,3.62805,-9.80042,0.692161,-2.02379,-20.5488,-1.46341,-2.40854
22.056,28.9929,-10.666,0,4.67268,7.39343,-0.00718506,10.0915,-17.6524,3.47561,-9.82677,0.665815,-1.9735,-20.9756,-0.457317,-2.22561
22.0659,29.0867,-10.72,0,4.5697,7.52994,0.131726,10.8232,-20.3963,2.19512,-9.81,0.589175,-2.03098,-21.6463,-1.55488,-2.0122
22.0758,29.2862,-10.8039,0,4.65352,7.55389,0.450264,10.7317,-25.7622,-0.518293,-9.71659,0.546064,-2.13157,-21.189,-1.76829,-2.53049
22.0859,29.3443,-10.8765,0,5.23312,7.73831,0.313748,10.9146,-29.6646,-4.26829,-9.67827,0.598755,-2.07888,-21.311,-1.4939,-2.80488
22.0961,29.3678,-10.9506,0,5.51094,8.11193,0.210762,7.10366,-32.2256,-7.5,-9.67588,0.64426,-2.11001,-21.7683,-1.70732,-3.20122
22.1058,29.4096,-10.9992,0,5.90851,8.10235,0.387993,3.17073,-31.4634,-9.48171,-9.69743,0.61073,-2.01661,-21.9207,-1.15854,-3.75
22.1158,29.4813,-11.0316,0,6.26058,7.97542,0.208367,1.43293,-25.7317,-10.4878,-9.75252,0.63947,-2.00224,-21.8293,-1.4939,-4.29878
22.1258,29.5787,-11.0299,0,6.44979,7.70238,0.253872,1.03659,-17.2866,-11.4024,-9.78844,0.670605,-1.90404,-21.6159,-2.43902,-4.96951
22.136,29.6949,-11.0217,0,6.68929,7.62095,-0.0239502,2.5,-7.2561,-12.0122,-9.78366,0.696951,-1.8753,-20.9146,-3.07927,-4.93902
22.1458,29.8369,-11.0365,0,7.05812,7.6952,-0.268242,0.914634,4.63415,-11.7073,-9.77886,0.677791,-1.9711,-20.3963,-3.53659,-4.93902
22.1558,29.9665,-11.0742,0,6.95993,7.77184,-0.287402,-1.25,16.189,-11.2805,-9.83635,0.459844,-2.08606,-19.2073,-3.71951,-5.70122
22.1659,30.0938,-11.1235,0,6.81383,7.75507,-0.261057,-0.487805,23.0488,-10.1524,-9.78844,0.364043,-2.12917,-18.4451,-3.38415,-6.03659
22.1758,30.1852,-11.1782,0,6.51206,8.06403,0.165256,-0.426829,24.7561,-8.68902,-9.75252,0.306563,-2.14115,-17.2561,-2.71341,-6.40244
22.1861,30.2019,-11.241,0,6.03545,8.60291,0.201182,0,26.1585,-8.23171,-9.76928,0.253872,-2.17707,-16.0061,-2.34756,-5.97561
22.1959,30.1381,-11.323,0,5.34568,8.72027,0.263452,2.34756,28.4451,-9.17683,-9.77407,0.225132,-2.22258,-15.4878,-1.58537,-5.42683
22.2058,29.9966,-11.4243,0,4.59365,8.39694,0.531694,2.77439,27.7439,-11.4634,-9.74294,0.265847,-2.23695,-15.061,-1.0061,-4.87805
22.2158,29.8086,-11.5455,0,4.11943,7.88919,0.5772,0.27439,26.0061,-14.2378,-9.78126,0.330513,-2.30401,-14.5732,-0.823171,-4.26829
22.2259,29.5699,-11.6539,0,3.82006,7.50599,0.277822,1.0061,22.378,-18.5671,-9.83156,0.423918,-2.34472,-13.689,-1.12805,-3.04878
22.236,29.2968,-11.7324,0,3.74821,7.23056,0.179626,3.75,15.0915,-23.4451,-9.89862,0.55325,-2.33993,-12.5915,-1.85976,-1.70732
22.2458,29.0132,-11.7894,0,3.93981,7.17069,0.0167651,6.37195,9.60366,-27.8963,-9.99202,0.579595,-2.32796,-10.8537,-3.14024,0
22.256,28.7337,-11.8269,0,4.25355,7.22098,0.0622705,9.78659,4.69512,-31.5549,-10.1237,0.637075,-2.28724,-9.69512,-3.78049,1.12805
22.2659,28.4188,-11.8587,0,4.45713,7.65448,0.0526904,12.8963,-1.70732,-35.1524,-10.1237,0.696951,-2.27048,-8.9939,-4.42073,2.2561
22.2759,28.0792,-11.8985,0,4.92656,8.14786,-0.0694556,18.4146,-12.0732,-40.2439,-10.0926,0.804727,-2.30161,-9.57317,-3.44512,2.7439
22.286,27.7497,-11.9656,0,5.21156,8.21252,0.246687,19.939,-18.2012,-42.439,-10.0375,0.807122,-2.37825,-10.6098,-1.79878,2.37805
22.2958,27.4557,-12.0703,0,4.89302,7.52276,-0.0479004,18.9024,-15.9146,-40.7927,-10.0735,0.859812,-2.41657,-12.2561,-0.396341,1.21951
22.3058,27.0854,-12.1126,0,4.09788,7.34313,-0.273032,20.8232,-8.44512,-41.2805,-10.3393,0.922083,-2.33514,-13.2927,-0.304878,0.243902
22.3158,26.501,-12.1179,0,3.03688,7.55868,-0.289797,26.0976,-2.22561,-49.0244,-10.6602,0.986748,-2.3088,-14.0244,-0.792683,-0.365854
22.3259,25.6779,-12.0947,0,2.56028,8.67955,0.0981958,28.3841,-4.08537,-63.4451,-10.8327,0.981958,-2.21779,-14.3293,-2.43902,0.365854
22.3359,24.7226,-12.0503,0,2.74709,9.86509,0.514929,21.8902,-17.622,-76.8293,-10.8542,0.807122,-2.11241,-14.1159,-3.32317,2.07317
22.346,23.8731,-12.0505,0,4.12422,10.4902,0.488584,14.3293,-33.5976,-80.0305,-10.7632,0.376018,-2.30161,-12.5915,-3.35366,3.78049
22.3558,23.3101,-12.0231,0,6.28453,10.5932,0.387993,8.10976,-53.9939,-71.3415,-10.6602,-0.0646655,-2.15073,-10.8232,-2.56098,4.35976
22.3658,23.0897,-11.8952,0,9.26873,10.6507,-0.258662,9.78659,-60.0305,-58.6585,-10.7441,-0.452659,-1.69807,-7.95732,-2.46951,4.05488
22.3758,23.0808,-11.6912,0,11.5967,11.4961,-0.459844,18.9024,-50.4878,-46.128,-11.1416,-0.780776,-1.34361,-3.96341,-2.9878,2.83537
22.3859,23.0903,-11.5381,0,11.9488,13.5151,0.646655,19.2073,-27.439,-36.5854,-11.2135,-1.41546,-1.57592,0.396341,-2.19512,1.76829
22.396,23.0422,-11.4206,0,10.174,15.0168,1.82021,6.64634,-4.2378,-27.4085,-11.9128,-1.75315,-1.80584,6.34146,-2.7439,0.335366
22.4059,22.9278,-11.3785,0,6.85455,14.5114,2.22976,-6.31098,8.68902,-16.25,-11.544,-2.03816,-2.11241,11.311,2.37805,0.335366
22.4158,22.8104,-11.3355,0,4.41163,12.2505,1.68849,-16.9817,5.2439,-5.60976,-11.6494,-1.80105,-2.11001,14.2378,5.30488,-0.0609756
22.4258,22.6546,-11.3477,0,2.73751,9.97765,0.613125,-19.4512,-1.18902,1.92073,-10.689,-1.67891,-2.19144,17.2866,11.6463,1.12805
22.4359,22.0452,-11.3183,0,1.08255,8.43526,-0.158071,-16.25,-10.5793,1.95122,-10.6363,-0.723296,-1.97829,18.2622,13.9024,2.71341
22.4459,21.4879,-11.2534,0,-0.232317,7.28565,-0.431104,-11.2195,-21.5854,-6.7378,-10.3034,0.0742456,-1.74357,18.811,15.122,4.87805
22.4558,20.652,-11.0759,0,-1.18074,6.99346,-0.378413,-6.55488,-37.3171,-21.8902,-10.3656,1.08255,-1.21667,17.2256,15.3659,6.79878
22.4659,19.5498,-10.7673,0,-2.04295,7.14913,-0.718506,-2.83537,-54.6037,-37.7744,-10.6123,1.80345,-0.59636,14.3902,13.8415,7.59146
22.4759,18.3102,-10.2204,0,-2.33514,7.92512,-1.54479,-0.548781,-76.9512,-53.0793,-11.1584,0.869392,0.60115,8.10976,8.20122,7.19512
22.4859,17.071,-9.70898,0,-1.84896,8.78014,-2.77343,3.78049,-95.9756,-64.8171,-11.2279,2.27048,0.534089,7.0122,6.98171,6.34146
22.4958,15.9979,-9.15159,0,-0.443079,9.33818,-4.07153,9.7561,-100.396,-69.1159,-10.9333,1.96871,0.802332,3.07927,3.65854,4.72561
22.5059,15.1856,-8.44403,0,1.4442,9.83395,-4.57209,16.5854,-83.1707,-67.2866,-10.6722,1.50647,1.21188,-1.40244,1.58537,2.62195
22.5158,14.6415,-7.419,0,3.28836,10.2986,-3.78653,21.5549,-51.25,-60.6707,-10.2962,1.04183,1.50886,-6.18902,0.640244,0.548781
22.5259,14.2199,-6.37058,0,4.29906,11.1368,-2.01421,20.2134,-21.8902,-56.2195,-9.95131,0.546064,1.77231,-10.0305,-1.03659,-0.823171
22.5359,13.8878,-5.65126,0,4.64394,10.9021,-0.799937,15.122,2.37805,-51.9512,-9.67348,0.0670605,1.79866,-13.4146,-3.2622,-1.82927
