time,angle1,angle2,intgangle,accX1,accY1,accZ1,gyroX1,gyroY1,gyroZ1,accX2,accY2,accZ2,gyroX2,gyroY2,gyroZ2
6841.61,88.5254,-3.06561,0,9.8579,0.174836,-0.0191602,-0.457317,0.823171,-1.09756,-9.93454,0.0550855,-0.510139,0.213415,0.213415,5.97561
6841.62,88.536,-3.02099,0,9.8124,0.146096,0.00958008,-0.365854,0.579268,-1.06707,-9.97526,0.0526904,-0.445474,0.0304878,-0.304878,5.82317
6841.63,88.5382,-2.97259,0,9.81719,0.172441,-0.0766406,0.182927,0.152439,-1.25,-9.97765,0.0287402,-0.423918,-0.365854,-0.426829,5.91463
6841.64,88.532,-2.96018,0,9.79323,0.203577,-0.0215552,-0.0304878,-0.426829,-1.46341,-9.99202,0.0143701,-0.490979,-0.396341,-0.548781,6.03659
6841.65,88.5296,-2.95402,0,9.81479,0.191602,0.0574805,-0.121951,-0.304878,-1.34146,-9.9561,0.0479004,-0.502954,-0.182927,-0.304878,6.52439
6841.66,88.5204,-2.94679,0,9.84353,0.222737,0.0550855,-0.0914634,-0.182927,-1.46341,-9.88904,0.0766406,-0.498164,-0.365854,0.0914634,6.61585
6841.67,88.5175,-2.99509,0,9.8555,0.170046,0.00718506,-0.27439,-0.0609756,-1.67683,-9.87467,0.0407153,-0.598755,-0.396341,0.304878,6.70732
6841.68,88.5193,-3.01674,0,9.84114,0.167651,0.0335303,-0.640244,0.365854,-1.37195,-9.84114,0.00958008,-0.560435,-0.396341,0.579268,6.95122
6841.69,88.5219,-2.99857,0,9.85311,0.172441,-0.0167651,-0.182927,0.670732,-1.25,-9.89862,-0.00718506,-0.483794,-0.548781,0.457317,6.64634
6841.7,88.5223,-2.96362,0,9.89143,0.193997,-0.0335303,-0.152439,0.304878,-1.12805,-9.98963,0.0359253,-0.452659,-0.365854,0.304878,6.4939
6841.71,88.5198,-2.96246,0,9.88664,0.217947,-0.0311353,0.27439,0.304878,-1.0061,-9.99921,0.0526904,-0.514929,-0.335366,0.365854,6.79878
6841.72,88.5138,-2.96724,0,9.84593,0.222737,-0.0718506,0.243902,-0.0609756,-1.21951,-9.99681,0.0335303,-0.526904,-0.335366,0.335366,6.43293
6841.73,88.5119,-2.91769,0,9.80521,0.201182,-0.0670605,0.0609756,-0.518293,-1.21951,-9.97765,0.0335303,-0.431104,-0.365854,-0.0609756,6.58537
6841.74,88.5027,-2.88069,0,9.81479,0.225132,-0.0287402,0.27439,-0.365854,-1.46341,-9.95849,0.0407153,-0.440684,-0.518293,-0.152439,6.61585
6841.75,88.4958,-2.85355,0,9.83156,0.220342,-0.0383203,-0.0914634,-0.304878,-1.37195,-9.95131,-0.0191602,-0.450264,-0.914634,-0.213415,6.37195
6841.76,88.4921,-2.88375,0,9.85072,0.196392,0.0143701,-0.487805,-0.0914634,-1.46341,-9.88664,-0.0646655,-0.541274,-0.487805,0.0304878,6.95122
6841.77,88.4957,-2.92602,0,9.87706,0.184417,0.107776,-0.518293,0,-1.09756,-9.88664,-0.0574805,-0.57241,-0.457317,0.182927,6.79878
6841.78,88.499,-2.94288,0,9.90101,0.174836,0.0383203,-0.762195,-0.0609756,-1.21951,-9.91778,-0.0790356,-0.546064,-0.27439,0.701219,7.04268
6841.79,88.5036,-2.96798,0,9.91299,0.174836,0.0143701,-0.365854,-0.152439,-1.12805,-9.9082,-0.0526904,-0.56762,0.0609756,0.701219,6.85976
6841.8,88.5095,-2.97024,0,9.86988,0.165256,-0.00479004,-0.426829,0.152439,-1.15854,-9.93933,-0.0119751,-0.519719,0.0609756,0.457317,6.89024
6841.81,88.5199,-2.97161,0,9.8579,0.167651,-0.00479004,-0.27439,-0.152439,-0.853659,-9.96568,0.0455054,-0.519719,-0.0609756,0.579268,6.95122
6841.82,88.5251,-2.98247,0,9.82437,0.184417,-0.0263452,-0.152439,-0.121951,-0.945122,-9.94891,0.0335303,-0.538879,-0.213415,0.426829,6.95122
6841.83,88.5282,-3.00059,0,9.80521,0.191602,-0.0215552,-0.365854,-0.213415,-0.97561,-9.98723,0.0670605,-0.55325,-0.0914634,0.121951,6.95122
6841.84,88.5258,-2.99324,0,9.79084,0.203577,-0.0119751,-0.0304878,-0.304878,-1.18902,-9.94891,-0.00718506,-0.507744,0.152439,-0.243902,6.85976
6841.85,88.5177,-2.98612,0,9.80281,0.222737,0.0455054,-0.27439,-0.27439,-1.37195,-9.94173,-0.0550855,-0.505349,0.182927,-0.426829,7.0122
6841.86,88.5149,-3.02411,0,9.82916,0.198787,0.00718506,-0.640244,-0.487805,-1.31098,-9.93454,-0.0622705,-0.593965,0.823171,-0.335366,6.70732
6841.87,88.5186,-3.09056,0,9.89143,0.184417,-0.0143701,-0.396341,-0.335366,-1.03659,-9.91299,-0.0598755,-0.65384,1.0061,0.335366,6.76829
6841.88,88.5185,-3.10564,0,9.88904,0.205972,-0.00718506,-0.670732,-0.0304878,-1.0061,-9.94891,-0.0550855,-0.565225,1.0061,0.213415,6.76829
6841.89,88.5255,-3.12283,0,9.89862,0.210762,-0.0167651,-0.670732,-0.396341,-0.457317,-10.0232,-0.0383203,-0.579595,1.12805,0.335366,6.25
6841.9,88.5364,-3.09702,0,9.87706,0.189207,-0.0311353,-0.304878,-0.213415,-0.518293,-10.0351,-0.00479004,-0.493374,1.43293,-0.335366,6.25
6841.91,88.5626,-3.09581,0,9.83156,0.146096,-0.0790356,-0.487805,-0.335366,-0.335366,-10.0495,0.0263452,-0.541274,1.40244,-0.762195,6.40244
6841.92,88.5808,-3.11706,0,9.82916,0.167651,-0.0479004,-0.121951,-0.426829,-0.365854,-10.0543,0.0359253,-0.593965,1.15854,-0.518293,5.97561
6841.93,88.5938,-3.12924,0,9.82916,0.172441,-0.0119751,-0.0914634,-0.762195,-0.518293,-10.0399,0.0742456,-0.5772,1.21951,-0.640244,5.94512
6841.94,88.6035,-3.16916,0,9.81,0.162861,0.00479004,0.0914634,-0.884146,-0.792683,-10.0016,0.0742456,-0.62989,0.945122,-0.335366,5.91463
6841.95,88.6268,-3.20108,0,9.79323,0.129331,0.0215552,-0.426829,-0.884146,-0.518293,-9.99442,0.105381,-0.613125,1.43293,-0.152439,5.7622
6841.96,88.6525,-3.15022,0,9.82916,0.0910107,0.0239502,-0.518293,-0.152439,-0.731707,-9.98963,0.122146,-0.464634,0.884146,-0.152439,5.67073
6841.97,88.6697,-3.10935,0,9.87706,0.119751,-0.00718506,-0.243902,-0.0304878,-0.762195,-9.91778,0.136516,-0.462239,0.579268,-0.426829,5.09146
6841.98,88.7054,-3.05334,0,9.87946,0.0431104,-0.0670605,-0.0609756,-0.152439,-0.670732,-9.9058,0.138911,-0.445474,0.396341,-0.0609756,5.15244
6841.99,88.7163,-3.04076,0,9.84114,0.124541,-0.0407153,0.121951,-0.121951,-0.945122,-9.94652,0.148491,-0.505349,0.0914634,-0.365854,5.12195
6842,88.7356,-3.03651,0,9.8076,0.0694556,-0.0526904,0.0914634,-0.335366,-1.06707,-9.94412,0.141306,-0.519719,-0.0914634,-0.426829,5.12195
6842.01,88.7394,-3.00596,0,9.76449,0.0981958,0.00718506,0.182927,-0.640244,-1.61585,-9.99921,0.134121,-0.459844,-0.182927,-0.579268,4.90854
6842.02,88.7366,-2.99013,0,9.73336,0.0981958,-0.0766406,-0.121951,-0.640244,-2.07317,-10.0136,0.114961,-0.483794,-0.579268,-0.914634,4.72561
6842.03,88.7243,-2.98,0,9.8124,0.131726,-0.0263452,0.335366,-1.06707,-2.43902,-9.97286,0.0981958,-0.493374,-1.21951,-1.06707,4.90854
6842.04,88.7099,-2.95885,0,9.84593,0.172441,-0.0311353,0.396341,-1.55488,-2.16463,-9.91778,0.0862207,-0.457449,-1.70732,-1.15854,5
6842.05,88.6965,-2.93396,0,9.87227,0.177231,0.0886157,0.518293,-1.21951,-2.04268,-9.89862,0.0670605,-0.435894,-2.0122,-1.46341,5.03049
6842.06,88.6841,-2.90504,0,9.86988,0.182021,-0.0670605,0.670732,-0.609756,-1.92073,-9.84593,0.0335303,-0.416733,-2.28659,-1.52439,5.2439
6842.07,88.6667,-2.88679,0,9.81479,0.222737,-0.0598755,0.579268,-0.97561,-1.82927,-9.9082,-0.0479004,-0.440684,-1.61585,-1.95122,5.45732
6842.08,88.6523,-2.88847,0,9.85072,0.210762,-0.0407153,0.213415,-1.03659,-1.76829,-9.92975,-0.0790356,-0.507744,-1.55488,-1.67683,5.67073
6842.09,88.6366,-2.88976,0,9.84114,0.217947,-0.0910107,0.762195,-1.4939,-1.82927,-9.92257,-0.114961,-0.505349,-0.884146,-1.18902,6.15854
6842.1,88.6191,-2.90918,0,9.85311,0.249082,-0.0359253,0.426829,-1.52439,-1.55488,-9.97526,-0.112566,-0.56283,-0.853659,-1.25,5.88415
6842.11,88.6052,-2.89913,0,9.89383,0.241897,-0.0574805,0.457317,-1.09756,-1.37195,-9.93694,-0.105381,-0.479004,-0.731707,-0.97561,5.79268
6842.12,88.593,-2.88178,0,9.88664,0.256267,-0.0718506,0.457317,-0.945122,-0.945122,-9.97526,-0.0958008,-0.450264,-0.579268,-1.52439,5.73171
6842.13,88.5797,-2.87053,0,9.94173,0.277822,-0.0934058,0.579268,-0.548781,-0.579268,-10.0088,-0.0670605,-0.464634,-1.15854,-2.0122,5.60976
6842.14,88.5836,-2.88958,0,9.94173,0.225132,-0.107776,0.396341,-0.365854,-0.213415,-9.98005,-0.0766406,-0.56762,-0.945122,-1.76829,5.4878
6842.15,88.5868,-2.8881,0,9.87227,0.232317,-0.0862207,0.548781,-0.0304878,-0.0609756,-10.0375,-0.0838257,-0.502954,-0.701219,-2.31707,5.27439
6842.16,88.595,-2.88413,0,9.88185,0.222737,-0.114961,0.640244,-0.152439,0.213415,-9.99681,-0.0862207,-0.490979,-1.06707,-2.56098,5.57927
6842.17,88.5979,-2.8851,0,9.93454,0.292192,-0.136516,1.37195,-0.640244,1.18902,-9.99921,-0.124541,-0.510139,-0.426829,-2.86585,5.82317
6842.18,88.6223,-2.88207,0,9.77647,0.165256,-0.100591,0.731707,-0.548781,0.426829,-9.93215,-0.141306,-0.490979,-0.335366,-2.68293,5.94512
6842.19,88.683,-2.87935,0,9.67588,-0.00718506,-0.0838257,-0.609756,-0.426829,-0.548781,-9.91778,-0.182021,-0.490979,-0.0304878,-2.59146,6.21951
6842.2,88.7091,-2.87328,0,9.87467,-0.0718506,-0.179626,-0.762195,-0.152439,-1.89024,-9.88185,-0.158071,-0.476609,-0.0304878,-2.28659,6.12805
6842.21,88.703,-2.87293,0,9.94173,0.0766406,-0.0622705,-0.792683,-0.365854,-2.59146,-9.86748,-0.0958008,-0.495769,-0.121951,-2.07317,6.34146
6842.22,88.6954,-2.85217,0,9.92975,0.124541,-0.0407153,-0.97561,0.792683,-2.19512,-9.84353,-0.0407153,-0.426313,-0.0304878,-1.82927,6.64634
6842.23,88.6837,-2.83805,0,9.87706,0.174836,-0.0526904,-0.182927,0.213415,-1.95122,-9.8555,-0.00958008,-0.447869,0.0304878,-1.58537,6.95122
6842.24,88.6692,-2.83944,0,9.82437,0.208367,0.0455054,-0.213415,0.396341,-1.76829,-9.87706,0.0191602,-0.495769,0.0304878,-1.76829,6.98171
6842.25,88.6605,-2.84816,0,9.74773,0.184417,-0.0215552,-0.335366,0.487805,-1.61585,-9.94652,0.00479004,-0.522114,-0.243902,-1.46341,6.70732
6842.26,88.6609,-2.87117,0,9.76449,0.114961,0.0191602,-0.731707,0.426829,-1.79878,-9.94891,0.0239502,-0.5772,-0.304878,-1.89024,6.82927
6842.27,88.6653,-2.87618,0,9.80042,0.0766406,-0.0215552,-0.548781,0.487805,-1.92073,-9.97047,0.0119751,-0.519719,-0.182927,-1.98171,6.70732
6842.28,88.6601,-2.86517,0,9.86269,0.143701,-0.0718506,0.0609756,0.0914634,-1.85976,-9.96568,0.0167651,-0.462239,0.0609756,-2.10366,6.79878
6842.29,88.6603,-2.83794,0,9.92257,0.143701,-0.0814307,0.487805,0.0914634,-1.46341,-9.97526,0.0167651,-0.395178,-0.457317,-2.56098,6.79878
6842.3,88.6494,-2.81598,0,9.92496,0.205972,-0.0431104,0.396341,0.0304878,-1.55488,-9.9561,0.0383203,-0.409548,-0.914634,-2.65244,6.76829
6842.31,88.6456,-2.78025,0,9.87227,0.172441,-0.0862207,0.152439,0.0609756,-1.43293,-9.97286,-0.0215552,-0.352068,-0.823171,-2.65244,7.07317
6842.32,88.6451,-2.75899,0,9.83395,0.182021,-0.0670605,0.518293,0.304878,-1.06707,-10.0064,-0.0502954,-0.402363,-0.640244,-2.86585,6.98171
6842.33,88.6336,-2.73853,0,9.80521,0.225132,-0.0383203,0.0609756,0.27439,-1.31098,-9.99681,-0.0814307,-0.399968,-0.548781,-3.17073,7.2561
6842.34,88.6306,-2.73533,0,9.77168,0.184417,-0.0718506,0.182927,0.0914634,-1.25,-9.98244,-0.0455054,-0.467029,-0.731707,-3.2622,7.16463
6842.35,88.6254,-2.7254,0,9.78844,0.167651,-0.00718506,0.0304878,-0.152439,-1.64634,-9.98963,-0.0335303,-0.438289,-0.609756,-3.78049,7.40854
6842.36,88.6211,-2.71333,0,9.83156,0.167651,-0.0359253,-0.213415,-0.182927,-1.58537,-10.0184,-0.0431104,-0.428708,-0.396341,-3.71951,7.31707
6842.37,88.6139,-2.6972,0,9.86748,0.179626,-0.0359253,-0.182927,-0.182927,-1.67683,-10.0279,-0.0335303,-0.409548,-0.487805,-3.81098,7.53049
6842.38,88.6105,-2.6736,0,9.91059,0.148491,-0.0455054,-0.213415,-0.426829,-1.76829,-10.004,-0.0431104,-0.373623,-0.335366,-3.93293,7.31707
6842.39,88.6028,-2.65461,0,9.91059,0.193997,-0.0383203,0.0914634,-0.487805,-1.55488,-10.0399,-0.00239502,-0.390388,-0.487805,-4.05488,7.34756
6842.4,88.5909,-2.6341,0,9.89622,0.213157,-0.0359253,0.0304878,-0.426829,-1.67683,-9.97286,0,-0.378413,-0.548781,-3.90244,7.0122
6842.41,88.5839,-2.61308,0,9.86509,0.201182,-0.0167651,-0.304878,0.182927,-1.43293,-9.93694,-0.0239502,-0.371228,-0.0304878,-3.9939,7.2561
6842.42,88.58,-2.60603,0,9.83395,0.165256,-0.0191602,-0.670732,0.335366,-1.67683,-9.91059,-0.0431104,-0.426313,-0.0609756,-3.14024,7.22561
6842.43,88.5887,-2.5759,0,9.83395,0.105381,-0.0646655,-0.304878,0.396341,-1.4939,-9.9082,-0.0287402,-0.332908,-0.0304878,-2.95732,7.0122
6842.44,88.5914,-2.54367,0,9.84832,0.165256,-0.0335303,-0.182927,0.365854,-1.18902,-9.90101,-0.0359253,-0.318538,0.213415,-3.01829,6.98171
6842.45,88.6023,-2.51368,0,9.83395,0.126936,-0.105381,-0.0914634,0.152439,-1.12805,-9.92017,0.00239502,-0.320933,-0.0304878,-3.20122,7.04268
6842.46,88.6107,-2.47758,0,9.78366,0.119751,0.00718506,-0.152439,-0.0304878,-1.34146,-9.89862,0.00958008,-0.289797,0.182927,-3.2622,7.07317
6842.47,88.6106,-2.43986,0,9.79084,0.129331,0.0215552,-0.365854,-0.121951,-1.76829,-9.89383,0.0431104,-0.273032,0.121951,-3.81098,7.22561
6842.48,88.6068,-2.41738,0,9.77886,0.136516,0.0119751,-0.27439,-0.335366,-1.95122,-9.87706,0.0455054,-0.330513,-0.0609756,-3.62805,7.19512
6842.49,88.605,-2.39757,0,9.81958,0.129331,0.0143701,-0.396341,-0.457317,-1.89024,-9.8555,0.0886157,-0.337698,0.152439,-3.44512,7.43902
6842.5,88.6033,-2.38205,0,9.86748,0.119751,-0.0263452,-0.365854,-0.670732,-1.98171,-9.88185,0.0574805,-0.354463,-0.213415,-2.95732,7.56098
6842.51,88.5984,-2.37906,0,9.88185,0.136516,-0.100591,0.0609756,-0.792683,-2.04268,-9.95849,0.0311353,-0.404758,-0.304878,-2.77439,7.19512
6842.52,88.5938,-2.35876,0,9.91299,0.150886,-0.0910107,-0.0914634,-0.792683,-1.85976,-10.0375,0.0335303,-0.337698,-0.152439,-2.7439,7.0122
6842.53,88.5802,-2.32844,0,9.9058,0.213157,-0.0910107,0.0304878,-0.548781,-1.85976,-10.0639,0.0646655,-0.289797,-0.365854,-3.32317,6.55488
6842.54,88.5787,-2.27983,0,9.86269,0.155676,-0.0742456,0.396341,-0.0914634,-1.61585,-10.1118,0.0598755,-0.208367,-0.487805,-3.29268,6.40244
6842.55,88.574,-2.237,0,9.80521,0.198787,-0.0886157,0.243902,-0.0609756,-1.31098,-10.1094,0.0239502,-0.220342,-0.426829,-3.90244,6.55488
6842.56,88.5644,-2.2173,0,9.83395,0.210762,-0.0742456,0.243902,-0.426829,-1.55488,-10.0615,0.0287402,-0.311353,-0.548781,-4.05488,6.58537
6842.57,88.5579,-2.19015,0,9.87227,0.203577,-0.0215552,0.304878,-0.152439,-1.43293,-9.98244,0.00239502,-0.273032,-0.823171,-4.45122,6.70732
6842.58,88.5584,-2.17219,0,9.90101,0.174836,-0.0742456,0.27439,0,-1.28049,-9.93694,-0.0383203,-0.306563,-0.640244,-4.63415,6.58537
6842.59,88.5502,-2.15289,0,9.92257,0.234712,-0.0742456,0.365854,0.365854,-1.12805,-9.91299,-0.0191602,-0.296982,-0.640244,-4.63415,6.61585
6842.6,88.5491,-2.12639,0,9.92017,0.205972,-0.105381,0.457317,0.213415,-1.0061,-9.94173,-0.0359253,-0.263452,-0.304878,-4.57317,6.95122
6842.61,88.5577,-2.11275,0,9.83874,0.165256,-0.100591,0.487805,0.396341,-0.914634,-9.99921,-0.0574805,-0.316143,-0.335366,-5.27439,6.85976
6842.62,88.5673,-2.08805,0,9.84114,0.155676,-0.0119751,0.27439,0.670732,-0.945122,-10.016,-0.0550855,-0.265847,-0.0304878,-5.4878,6.7378
6842.63,88.5813,-2.06435,0,9.81958,0.153281,-0.0502954,0.548781,0.182927,-0.731707,-10.0136,-0.0766406,-0.265847,0,-5.60976,6.70732
6842.64,88.5858,-2.0323,0,9.82197,0.179626,-0.0526904,0.579268,-0.0914634,-0.914634,-10.016,-0.0646655,-0.225132,-0.304878,-5.85366,7.19512
6842.65,88.5852,-1.99773,0,9.84593,0.210762,-0.0526904,0.884146,-0.182927,-0.792683,-10.0088,-0.0766406,-0.208367,0.0914634,-6.03659,6.76829
6842.66,88.5869,-1.96919,0,9.84832,0.205972,-0.0263452,0.823171,0,-0.701219,-9.94652,-0.0742456,-0.227527,0.213415,-6.25,6.58537
6842.67,88.5756,-1.95215,0,9.88664,0.277822,0.0550855,0.609756,0.182927,-0.0609756,-9.95131,-0.0814307,-0.273032,0.396341,-6.37195,6.70732
6842.68,88.5779,-1.92486,0,9.78605,0.244292,0.0119751,0.335366,0.243902,0.27439,-9.94652,-0.0502954,-0.225132,0.670732,-6.37195,6.67683
6842.69,88.6174,-1.89525,0,9.73096,0.0479004,-0.0263452,-0.243902,0.152439,-0.731707,-9.96089,-0.0718506,-0.210762,0.97561,-6.79878,6.79878
6842.7,88.6398,-1.8552,0,9.79803,0.0958008,0.0263452,-0.121951,-0.0914634,-0.853659,-9.99681,-0.0119751,-0.160466,0.97561,-6.89024,6.55488
6842.71,88.6544,-1.81985,0,9.83156,0.114961,-0.00958008,-0.27439,-0.731707,-0.97561,-10.016,-0.0239502,-0.174836,0.945122,-7.37805,6.76829
6842.72,88.6579,-1.78759,0,9.77647,0.167651,0.0479004,-0.518293,-1.06707,-0.97561,-10.0088,-0.0143701,-0.182021,0.853659,-7.19512,6.76829
6842.73,88.6561,-1.75042,0,9.79803,0.213157,0.0191602,-0.152439,-1.09756,-0.609756,-10.0399,-0.00958008,-0.155676,0.670732,-7.89634,6.89024
6842.74,88.6527,-1.7124,0,9.8076,0.227527,-0.00239502,-0.0914634,-1.55488,-0.426829,-10.0591,0.0239502,-0.146096,0.640244,-8.35366,6.70732
6842.75,88.6625,-1.68626,0,9.75252,0.148491,-0.0143701,-0.548781,-2.07317,-0.853659,-10.0471,0,-0.191602,0.27439,-8.04878,6.70732
6842.76,88.6744,-1.63868,0,9.80521,0.138911,0.0383203,-0.884146,-1.4939,-0.823171,-10.0878,0.0167651,-0.0934058,0.213415,-9.20732,6.64634
6842.77,88.6942,-1.58527,0,9.8603,0.0981958,-0.0239502,-0.731707,-1.67683,-0.823171,-10.1285,0.0335303,-0.0598755,0.121951,-9.81707,6.55488
6842.78,88.699,-1.53498,0,9.88664,0.110171,-0.0167651,-0.823171,-1.37195,-1.46341,-10.1022,0.0598755,-0.0646655,0.0609756,-10.3963,6.76829
6842.79,88.7057,-1.48818,0,9.86509,0.122146,-0.0934058,-0.853659,-1.7378,-1.21951,-10.107,0.0646655,-0.0718506,-0.152439,-10.9451,6.64634
6842.8,88.7045,-1.42103,0,9.85311,0.177231,-0.0143701,-0.457317,-1.85976,-1.03659,-10.0735,0.0407153,0.0263452,-0.457317,-11.6463,6.64634
6842.81,88.7009,-1.37475,0,9.83874,0.182021,-0.0718506,-0.853659,-1.89024,-1.15854,-10.0711,0.0550855,-0.0550855,-0.579268,-12.3476,6.67683
6842.82,88.7051,-1.341,0,9.81719,0.148491,-0.0311353,-0.609756,-2.10366,-1.06707,-10.1118,0.0311353,-0.102986,-0.548781,-12.3171,6.37195
6842.83,88.716,-1.31991,0,9.80042,0.153281,-0.0407153,-0.457317,-2.07317,-0.609756,-10.0615,-0.00958008,-0.153281,-0.213415,-12.9878,6.28049
6842.84,88.7382,-1.29741,0,9.88425,0.124541,-0.0598755,0.0914634,-2.13415,-0.365854,-10.0687,-0.0263452,-0.143701,0.152439,-13.3232,6.34146
6842.85,88.7542,-1.25076,0,9.89862,0.146096,-0.170046,0.27439,-2.13415,-0.335366,-10.0782,-0.0814307,-0.0335303,0.213415,-14.3902,6.25
6842.86,88.7878,-1.20747,0,9.92496,0.0718506,-0.167651,0.0304878,-1.46341,-0.365854,-10.0878,-0.0718506,-0.0407153,0.731707,-14.878,6.0061
6842.87,88.8183,-1.162,0,9.90341,0.0479004,-0.191602,-0.152439,-1.0061,-0.640244,-10.0735,-0.0862207,-0.0239502,0.792683,-15.5793,6.21951
6842.88,88.8388,-1.09776,0,9.92257,0.0886157,-0.205972,0.457317,-0.426829,-0.609756,-10.0735,-0.0790356,0.0670605,1.12805,-15.9146,6.03659
6842.89,88.8497,-1.03976,0,9.84593,0.117356,-0.196392,0.365854,-1.03659,-0.762195,-10.0663,-0.0910107,0.0502954,0.701219,-16.311,6.18902
6842.9,88.8659,-0.96023,0,9.82677,0.0862207,-0.134121,0.396341,-1.67683,-0.823171,-10.119,-0.0694556,0.155676,0.731707,-17.5915,6.52439
6842.91,88.8715,-0.875693,0,9.81719,0.0263452,-0.131726,-0.182927,-1.61585,-1.98171,-10.1501,-0.0622705,0.191602,0.884146,-18.811,6.4939
6842.92,88.8771,-0.80131,0,9.89622,-0.131726,-0.186812,-1.25,-0.457317,-3.5061,-10.1597,-0.0479004,0.160466,0.762195,-19.7561,6.34146
6842.93,88.8661,-0.720522,0,9.91299,-0.0742456,-0.196392,-0.823171,0.548781,-4.35976,-10.1237,-0.0239502,0.201182,0.731707,-20.2744,6.46341
6842.94,88.8363,-0.635662,0,9.85311,0.0814307,-0.208367,-0.121951,0.853659,-4.42073,-10.0998,0.0335303,0.232317,0.823171,-21.1585,6.25
6842.95,88.7976,-0.545653,0,9.87467,0.174836,-0.153281,-0.0304878,0.792683,-4.26829,-10.1285,0.0359253,0.270637,0.487805,-21.5549,6.37195
6842.96,88.7581,-0.455631,0,9.98484,0.225132,-0.143701,0.213415,0.884146,-3.84146,-10.095,0.0215552,0.285007,0.731707,-22.3171,6.61585
6842.97,88.713,-0.370109,0,10.0112,0.361648,-0.131726,0.152439,1.58537,-2.7439,-10.0878,-0.0215552,0.280217,0.609756,-22.8049,6.46341
6842.98,88.6719,-0.279116,0,9.93933,0.376018,-0.129331,0.0304878,1.98171,-1.98171,-10.0615,-0.0215552,0.318538,0.792683,-23.1098,6.15854
6842.99,88.6361,-0.173723,0,9.80521,0.349673,-0.0287402,-0.182927,1.64634,-1.64634,-9.98963,-0.0143701,0.395178,0.853659,-23.628,6.06707
6843,88.6212,-0.052558,0,9.73336,0.232317,-0.0215552,-0.823171,1.03659,-1.52439,-10.0136,-0.0215552,0.483794,0.579268,-24.2378,5.97561
6843.01,88.6272,0.065724,0,9.7621,0.124541,0.0239502,-0.365854,0.823171,-1.40244,-10.0447,-0.00958008,0.493374,1.06707,-24.7256,5.82317
6843.02,88.6328,0.192995,0,9.72378,0.0862207,-0.0455054,-0.609756,0.914634,-1.82927,-10.0399,-0.0502954,0.55325,1.25,-25.3659,5.82317
6843.03,88.6373,0.349947,0,9.68785,0.0622705,-0.0119751,-0.670732,0.640244,-2.13415,-10.0375,-0.0598755,0.706531,1.12805,-26.2805,5.64024
6843.04,88.6299,0.496672,0,9.69983,0.0814307,0.0335303,-0.823171,0.304878,-2.80488,-10.0663,-0.0622705,0.689766,1.79878,-27.3171,5.57927
6843.05,88.612,0.619401,0,9.73096,0.0886157,0.0550855,-1.09756,-0.457317,-3.65854,-10.0256,-0.0718506,0.60594,1.79878,-27.7134,5.54878
6843.06,88.5933,0.739657,0,9.70701,0.0479004,0.0646655,-1.37195,-1.55488,-4.2378,-9.93215,-0.0383203,0.61073,1.82927,-27.7744,5.42683
6843.07,88.5688,0.861872,0,9.77407,0.0239502,0.0622705,-1.34146,-2.07317,-5.12195,-9.92017,-0.0790356,0.63947,1.89024,-27.8049,5.4878
6843.08,88.541,1.02436,0,9.86509,0.0167651,0,-1.31098,-2.16463,-5.57927,-9.90101,-0.00958008,0.835862,1.79878,-28.2012,5.73171
6843.09,88.5043,1.19012,0,9.87467,0.0407153,-0.0598755,-1.70732,-1.70732,-6.25,-10.0184,0.0287402,0.888552,1.58537,-28.628,5.39634
6843.1,88.4609,1.34917,0,9.96807,0.0814307,-0.0311353,-2.0122,0.0914634,-6.52439,-10.0591,0.0526904,0.890947,1.12805,-29.2988,5.94512
6843.11,88.4132,1.51456,0,10.0782,0.110171,-0.114961,-2.19512,1.64634,-6.7378,-10.1022,0.0479004,0.950823,1.25,-30.0915,5.57927
6843.12,88.3653,1.68812,0,9.99921,0.102986,-0.102986,-1.98171,2.13415,-6.92073,-10.0471,0.0574805,1.0107,0.914634,-30.8841,6.09756
6843.13,88.3027,1.8743,0,9.51541,0.198787,-0.234712,-1.61585,3.38415,-7.28659,-9.92975,0.0455054,1.08494,0.304878,-31.1585,6.37195
6843.14,88.2281,2.06465,0,9.59684,0.316143,-0.129331,-1.64634,2.0122,-7.22561,-9.88664,-0.0407153,1.13045,0.670732,-31.9512,6.40244
6843.15,88.1622,2.2365,0,9.83156,0.316143,-0.210762,-0.792683,2.22561,-6.58537,-9.84593,-0.0718506,1.07776,1.0061,-31.7988,6.15854
6843.16,88.1038,2.40992,0,9.97047,0.323328,-0.217947,-0.609756,1.7378,-5.91463,-9.84114,-0.110171,1.11368,1.18902,-32.1646,6.06707
6843.17,88.0405,2.59085,0,10.0064,0.383203,-0.237107,0.0304878,1.82927,-5.85366,-9.8555,-0.110171,1.17835,1.40244,-32.5305,5.70122
6843.18,87.9945,2.78922,0,10.0256,0.301772,-0.261057,-0.152439,1.98171,-5.18293,-9.91059,-0.167651,1.29331,1.31098,-33.3841,5.33537
6843.19,87.9603,3.01322,0,10.0423,0.241897,-0.205972,0.0609756,2.68293,-4.78659,-9.94652,-0.184417,1.44659,1.7378,-34.4817,5.18293
6843.2,87.939,3.2324,0,10.1597,0.177231,-0.143701,-0.365854,5.30488,-4.32927,-9.9082,-0.167651,1.45857,1.4939,-35.1524,5.4878
6843.21,87.918,3.47174,0,9.51062,0.0886157,-0.198787,1.0061,3.84146,-5.30488,-9.90101,-0.155676,1.5855,1.25,-36.0671,5.45732
6843.22,87.8841,3.69823,0,9.70941,0.162861,-0.131726,1.15854,3.5061,-5.7622,-9.89383,-0.122146,1.56874,1.46341,-36.6463,5.7622
6843.23,87.8352,3.92301,0,9.82437,0.268242,-0.146096,1.40244,3.20122,-6.12805,-9.82677,-0.110171,1.59029,1.82927,-36.7378,5.67073
6843.24,87.7767,4.12841,0,9.82197,0.383203,-0.167651,1.76829,2.77439,-5.82317,-9.80042,-0.124541,1.54,2.2561,-36.311,5.57927
6843.25,87.7175,4.35465,0,9.81958,0.373623,-0.122146,1.43293,3.20122,-6.12805,-9.73336,-0.0694556,1.65735,2.80488,-36.0061,5.54878
6843.26,87.6569,4.61074,0,9.80281,0.390388,-0.0670605,1.0061,3.59756,-6.18902,-9.7118,-0.0934058,1.825,2.56098,-36.1585,5.36585
6843.27,87.6024,4.87974,0,9.7597,0.352068,-0.0598755,0.853659,3.62805,-6.12805,-9.72857,-0.0862207,1.93039,2.59146,-36.4634,4.96951
6843.28,87.5517,5.15085,0,9.78366,0.332908,-0.00479004,0.670732,3.5061,-6.09756,-9.75491,-0.0718506,1.99266,2.77439,-36.5549,5
6843.29,87.5083,5.42107,0,9.80042,0.256267,0.0670605,1.03659,3.96341,-6.37195,-9.74054,-0.0814307,2.03337,2.28659,-37.0122,4.32927
6843.3,87.4614,5.72099,0,9.83635,0.249082,0.105381,0.914634,3.62805,-6.92073,-9.73336,-0.0694556,2.213,2.28659,-37.5305,4.29878
6843.31,87.4133,6.00785,0,9.83874,0.217947,0.117356,0.731707,2.65244,-7.5,-9.68306,-0.0718506,2.19623,2.22561,-37.5,4.32927
6843.32,87.3549,6.27167,0,9.80521,0.244292,0.0814307,0.518293,2.56098,-8.32317,-9.60403,-0.0886157,2.12678,2.5,-37.1037,4.45122
6843.33,87.2969,6.54331,0,9.75252,0.184417,0.162861,0.670732,2.16463,-9.11585,-9.56331,-0.0790356,2.19863,2.40854,-37.1341,5.15244
6843.34,87.2287,6.81736,0,9.72138,0.215552,0.110171,0.182927,2.43902,-9.87805,-9.48907,-0.102986,2.23934,2.65244,-37.439,5.82317
6843.35,87.1526,7.09646,0,9.6663,0.232317,0.150886,0.27439,2.95732,-10.6098,-9.4268,-0.0838257,2.29443,2.68293,-37.561,6.21951
6843.36,87.0635,7.39612,0,9.67827,0.280217,0.141306,0.304878,3.20122,-11.5244,-9.45314,-0.0574805,2.44052,2.59146,-37.9268,6.92073
6843.37,86.9675,7.7163,0,9.73575,0.308958,0.0934058,0.0914634,3.07927,-12.0732,-9.43398,-0.0407153,2.57944,2.71341,-38.2622,7.19512
6843.38,86.8666,7.99249,0,9.67109,0.289797,0.126936,-0.0609756,2.34756,-12.9878,-9.49146,-0.0383203,2.4549,2.77439,-38.2622,7.31707
6843.39,86.7528,8.23523,0,9.64235,0.330513,0.165256,-0.579268,1.03659,-13.9939,-9.45793,-0.0455054,2.34712,3.59756,-37.4085,6.98171
6843.4,86.6265,8.52273,0,9.8124,0.440684,0.249082,-0.670732,1.89024,-14.2683,-9.4747,-0.0862207,2.59381,4.42073,-37.4085,6.58537
6843.41,86.4937,8.84427,0,9.69743,0.474214,0.146096,0.853659,0.609756,-14.7256,-9.45554,-0.136516,2.79259,4.42073,-38.0488,6.43293
6843.42,86.3431,9.1738,0,9.87706,0.682581,0.232317,0.609756,0.548781,-14.4512,-9.44835,-0.148491,2.8836,4.60366,-39.1463,6.31098
6843.43,86.197,9.48745,0,9.92496,0.725691,0.179626,0.396341,0.0609756,-13.8415,-9.41961,-0.227527,2.86205,4.42073,-39.0854,6.12805
6843.44,86.0545,9.81973,0,9.86748,0.725691,0.143701,0.426829,-0.762195,-13.7195,-9.36692,-0.215552,2.98659,4.45122,-39.1463,6.12805
6843.45,85.9215,10.1631,0,9.93694,0.735271,0.136516,-0.0304878,-0.731707,-12.9878,-9.29268,-0.222737,3.07281,4.45122,-39.1768,6.64634
6843.46,85.7906,10.5176,0,10.3561,0.816702,0.268242,-1.15854,1.55488,-12.4695,-9.24478,-0.167651,3.16861,4.11585,-39.2683,6.85976
6843.47,85.6761,10.892,0,10.277,0.708926,0.102986,-1.12805,2.59146,-12.2256,-9.17772,-0.160466,3.30034,3.71951,-39.2378,6.82927
6843.48,85.5594,11.2687,0,9.35974,0.692161,0.0455054,-0.701219,-1.55488,-12.1037,-9.15376,-0.0790356,3.36979,3.2622,-39.3598,7.04268
6843.49,85.4433,11.6171,0,9.61361,0.775986,0.0191602,-1.21951,-1.61585,-11.4939,-9.12502,-0.0119751,3.29794,3.23171,-39.6037,7.22561
6843.5,85.3292,11.9501,0,9.77886,0.816702,-0.0479004,-0.457317,-0.945122,-11.189,-9.07233,0.0359253,3.2716,3.20122,-39.6037,6.92073
6843.51,85.2108,12.3007,0,10.0663,0.955613,-0.0886157,-0.762195,0.487805,-10.5488,-9.01964,0.0814307,3.39135,3.53659,-39.9085,6.76829
6843.52,85.1021,12.6525,0,9.66869,0.883762,-0.100591,-0.27439,-0.853659,-10.2134,-9.0412,0.0958008,3.46799,3.5061,-40.1829,6.4939
6843.53,84.9961,13.0348,0,9.72857,0.838257,-0.0646655,-0.853659,-1.0061,-10.7622,-9.09149,0.0622705,3.69312,3.65854,-40.2439,6.12805
6843.54,84.8913,13.4383,0,9.75491,0.735271,-0.0622705,-1.28049,-0.518293,-12.1037,-9.12981,0.0119751,3.87993,3.47561,-40.5793,5.36585
6843.55,84.7974,13.8243,0,9.88185,0.720901,-0.0431104,-0.365854,-1.18902,-11.4939,-9.11305,-0.0694556,3.86556,3.2622,-40.122,5.30488
6843.56,84.6941,14.2141,0,9.97047,0.775986,-0.107776,0.609756,-1.4939,-12.0732,-9.0891,-0.124541,3.94699,3.23171,-39.4817,5.45732
6843.57,84.5907,14.6078,0,10.1214,0.878972,-0.119751,1.34146,-1.15854,-11.25,-8.9454,-0.174836,3.97573,3.78049,-39.1463,5.79268
6843.58,84.4864,14.9804,0,10.1549,0.922083,-0.0670605,1.31098,-1.25,-11.0976,-8.78733,-0.232317,3.87993,4.05488,-38.7805,6.34146
6843.59,84.383,15.3617,0,10.0495,0.917292,-0.0502954,1.03659,-0.0609756,-11.1585,-8.67237,-0.232317,3.93741,4.11585,-38.5976,6.95122
6843.6,84.2831,15.7516,0,9.94891,0.900527,-0.0910107,0.853659,1.28049,-11.0976,-8.61728,-0.158071,4.02124,4.54268,-38.872,7.40854
6843.61,84.1849,16.136,0,9.90101,0.974773,-0.126936,1.12805,2.53049,-10.2134,-8.58615,-0.107776,4.05237,4.69512,-38.9939,7.53049
6843.62,84.0966,16.4726,0,9.90101,0.984353,-0.167651,1.37195,3.65854,-9.29878,-8.57417,-0.0335303,3.8967,5.09146,-39.3598,7.65244
6843.63,84.0117,16.7849,0,9.76928,0.946033,-0.0814307,1.4939,4.54268,-9.42073,-8.57177,0.0502954,3.8464,5.73171,-38.75,6.85976
6843.64,83.9228,17.1688,0,9.75012,0.967588,0.0359253,0.548781,4.78659,-9.72561,-8.63405,0.143701,4.26553,5.82317,-38.3537,6.37195
6843.65,83.845,17.6082,0,9.55613,0.809517,-0.00239502,0.426829,4.57317,-10.4573,-8.67237,0.189207,4.62478,4.96951,-39.0549,5.36585
6843.66,83.7531,18.0334,0,9.69025,0.929268,0.0143701,1.0061,4.84756,-10.7622,-8.66518,0.182021,4.63676,3.96341,-39.3293,4.87805
6843.67,83.6628,18.4174,0,9.9058,1.06099,-0.00718506,1.82927,4.66463,-9.48171,-8.63405,0.186812,4.50264,3.29268,-37.8049,4.20732
6843.68,83.5817,18.8285,0,10.0926,1.15679,0.0215552,2.7439,4.48171,-7.86585,-8.55501,0.148491,4.66789,2.56098,-36.7988,4.14634
6843.69,83.5084,19.2476,0,10.1429,1.19032,0.112566,2.9878,4.26829,-6.92073,-8.45681,0.0646655,4.73256,2.37805,-36.4329,4.26829
6843.7,83.4617,19.6872,0,10.0663,0.979563,0.112566,2.13415,4.20732,-6.67683,-8.3682,-0.0191602,4.86428,2.16463,-36.0061,4.39024
6843.71,83.4087,20.1096,0,9.81958,0.958008,0.263452,1.55488,3.53659,-7.37805,-8.29874,-0.0502954,4.82596,2.16463,-35.5183,4.96951
6843.72,83.3612,20.4921,0,9.71659,0.871787,0.117356,1.76829,4.32927,-7.83537,-8.18857,-0.0383203,4.65113,2.07317,-34.5732,5.79268
6843.73,83.3076,20.9228,0,9.65672,0.922083,0.129331,1.82927,4.11585,-7.89634,-8.06643,-0.0502954,4.88584,1.79878,-33.628,6.46341
6843.74,83.238,21.3548,0,9.70941,1.07776,0.146096,1.46341,3.29268,-7.83537,-8.09756,-0.0431104,4.99362,1.61585,-33.9939,7.07317
6843.75,83.174,21.7378,0,9.77886,1.12087,0.0910107,1.85976,3.32317,-6.98171,-8.02811,-0.0670605,4.79722,1.15854,-33.628,7.56098
6843.76,83.1076,22.1337,0,9.70462,1.22625,0.174836,2.59146,2.89634,-6.0061,-7.96584,-0.0550855,4.89542,1.09756,-32.9878,7.77439
6843.77,83.0412,22.5532,0,9.80281,1.32445,0.301772,2.89634,2.2561,-5.12195,-8.06403,-0.0981958,5.14929,1.15854,-33.689,8.2622
6843.78,82.9948,22.9554,0,9.78126,1.09692,0.263452,2.53049,2.56098,-5.88415,-8.07361,-0.0766406,5.15169,1.76829,-33.9634,8.14024
6843.79,82.9428,23.3716,0,9.45554,0.974773,0.335303,1.89024,2.04268,-7.59146,-8.05685,-0.0574805,5.29299,2.0122,-32.9878,8.04878
6843.8,82.8841,23.7887,0,9.48667,1.01549,0.335303,1.58537,0.823171,-7.92683,-7.97302,-0.0191602,5.32652,2.10366,-31.8902,8.32317
6843.81,82.8195,24.2027,0,9.66151,1.09692,0.0790356,2.9878,0.152439,-7.89634,-7.95865,-0.00479004,5.3864,1.67683,-31.0366,8.53659
6843.82,82.7321,24.5868,0,9.68067,1.26218,0.0670605,2.80488,0.731707,-8.41463,-7.9323,-0.0119751,5.30018,1.7378,-30.7317,8.23171
6843.83,82.6464,24.9241,0,9.82437,1.31726,0.0981958,2.07317,1.31098,-7.9878,-7.96584,-0.0239502,5.16366,2.59146,-30.4878,8.20122
6843.84,82.5635,25.2895,0,9.78605,1.33163,0.0862207,1.12805,1.67683,-7.65244,-8.07122,-0.0479004,5.44388,3.20122,-31.2195,8.2622
6843.85,82.4799,25.626,0,9.89862,1.42264,0.0910107,1.28049,1.15854,-7.0122,-8.15744,-0.0119751,5.42472,3.47561,-32.5915,8.23171
6843.86,82.3885,25.9333,0,9.77168,1.51844,0.0502954,1.79878,1.58537,-6.64634,-8.19097,0.0598755,5.36484,3.9939,-33.1098,7.92683
6843.87,82.314,26.2742,0,9.82677,1.48012,0.143701,0.701219,2.07317,-5.64024,-8.13588,0.0502954,5.56603,3.53659,-33.0793,7.65244
6843.88,82.266,26.6394,0,9.85072,1.30529,0.100591,0.457317,2.07317,-5.18293,-8.05206,0.0646655,5.70733,2.71341,-33.9329,7.07317
6843.89,82.2186,27.0088,0,9.87706,1.31726,0.105381,1.18902,2.22561,-5.12195,-7.96344,0.0886157,5.74326,2.10366,-33.689,6.85976
6843.9,82.1878,27.3808,0,9.81479,1.19511,0.155676,0.518293,2.43902,-4.87805,-7.83171,0.0910107,5.74086,1.52439,-32.5,6.15854
6843.91,82.1627,27.7428,0,9.74294,1.152,0.0359253,0.426829,2.37805,-4.78659,-7.73112,0.0407153,5.69296,1.09756,-31.6159,5.94512
6843.92,82.1374,28.0922,0,9.80521,1.18314,-0.0287402,0.182927,3.38415,-4.57317,-7.69759,0.0431104,5.67859,1.0061,-30.0915,5.7622
6843.93,82.1097,28.4411,0,9.76928,1.24062,0.0455054,-0.426829,3.14024,-4.14634,-7.62814,0.00718506,5.69775,0.823171,-29.6037,6.03659
6843.94,82.0861,28.7936,0,9.87227,1.23583,0.0646655,0.304878,3.44512,-3.9939,-7.49162,0.0287402,5.68578,1.0061,-29.4512,6.28049
6843.95,82.0674,29.108,0,9.80521,1.15919,0.143701,0.396341,3.68902,-4.35976,-7.48444,0.0574805,5.55645,1.61585,-28.689,6.7378
6843.96,82.0463,29.4484,0,9.65911,1.0586,0.205972,-0.0304878,4.05488,-5.60976,-7.4078,0.126936,5.69775,2.34756,-27.7134,7.31707
6843.97,82.0212,29.808,0,9.49625,0.996328,0.208367,-0.0609756,4.02439,-6.58537,-7.42935,0.131726,5.88696,1.89024,-27.4695,7.89634
6843.98,81.9799,30.1624,0,9.46033,1.06099,0.105381,0.823171,3.47561,-7.43902,-7.44851,0.184417,5.95162,2.13415,-26.6768,7.68293
6843.99,81.9206,30.5217,0,9.58726,1.24062,0.210762,0.823171,2.22561,-7.37805,-7.46528,0.217947,6.06898,1.85976,-25.4573,7.65244
6844,81.8646,30.883,0,9.79803,1.26936,0.167651,1.21951,1.0061,-7.13415,-7.39343,0.215552,6.10011,1.31098,-24.0854,7.37805
6844.01,81.8176,31.24,0,9.96089,1.2981,0.158071,1.55488,0.487805,-6.25,-7.34552,0.263452,6.11688,0.945122,-22.9573,7.19512
6844.02,81.7695,31.6021,0,9.95131,1.31247,0.146096,1.40244,1.89024,-6.28049,-7.23296,0.229922,6.12885,0.457317,-21.7073,6.82927
6844.03,81.7221,31.9702,0,9.93215,1.33642,0.263452,0.548781,1.98171,-6.0061,-7.13476,0.217947,6.1576,0.243902,-20.8232,7.07317
6844.04,81.6946,32.3436,0,9.91059,1.23583,0.294587,0.914634,2.83537,-5.21341,-7.12279,0.158071,6.25819,0.243902,-19.5122,7.28659
6844.05,81.6596,32.6906,0,9.83156,1.29571,0.416733,0.97561,2.31707,-5.21341,-7.07968,0.0910107,6.1576,0.0914634,-18.0793,7.71341
6844.06,81.6316,33.0004,0,9.66869,1.28373,0.419128,0.182927,2.83537,-4.48171,-7.07489,0.0167651,6.02826,0.609756,-16.6768,7.86585
6844.07,81.5969,33.2797,0,9.77886,1.33642,0.265847,2.77439,2.92683,-4.7561,-7.09644,0.0239502,5.94923,1.06707,-15.5488,8.10976
6844.08,81.5609,33.5593,0,9.70222,1.34361,0.261057,2.5,2.83537,-4.7561,-7.18266,-0.00718506,6.08335,1.55488,-15.7317,8.41463
6844.09,81.5134,33.8714,0,9.67348,1.46336,0.366438,2.86585,2.9878,-4.5122,-7.26409,0.0143701,6.3947,1.95122,-16.6768,7.89634
6844.1,81.4816,34.1583,0,9.78844,1.3963,0.136516,2.92683,2.43902,-4.02439,-7.27846,0.0502954,6.33483,1.61585,-16.6159,7.80488
6844.11,81.4325,34.4452,0,9.74773,1.51126,0.344883,2.7439,1.4939,-4.39024,-7.2593,0.102986,6.38273,1.55488,-16.0061,7.5
6844.12,81.4179,34.7385,0,10.0447,1.4921,0.538879,0.0914634,2.92683,-1.79878,-7.16829,0.167651,6.40428,1.37195,-14.9695,7.28659
6844.13,81.3943,35.0436,0,9.69743,1.38432,0.179626,2.9878,2.77439,-3.41463,-7.0701,0.205972,6.44979,1.37195,-13.9939,7.37805
6844.14,81.3429,35.3214,0,9.78126,1.55437,0.356858,2.46951,1.21951,-4.35976,-7.08686,0.234712,6.38033,0.426829,-12.4695,7.16463
6844.15,81.3092,35.6004,0,9.80281,1.4442,0.399968,1.7378,1.76829,-4.02439,-7.07249,0.174836,6.43781,-0.121951,-11.7073,7.34756
6844.16,81.2763,35.8711,0,9.7621,1.48012,0.455054,1.09756,1.70732,-3.5061,-7.1156,0.0862207,6.4929,-0.365854,-11.128,7.34756
6844.17,81.2507,36.1107,0,9.69743,1.42983,0.399968,1.21951,1.34146,-3.35366,-7.17787,0.0886157,6.43302,-0.487805,-10.9146,6.98171
6844.18,81.2373,36.3416,0,9.65672,1.33882,0.359253,0.97561,1.25,-3.2622,-7.12997,0.0550855,6.3947,-0.243902,-10.4573,7.07317
6844.19,81.2188,36.5532,0,9.63516,1.36277,0.313748,0.304878,1.55488,-3.44512,-7.13716,0.00958008,6.34441,-0.396341,-10.1829,7.16463
6844.2,81.2055,36.7654,0,9.71659,1.38911,0.277822,0.518293,1.98171,-2.83537,-7.07249,0.0119751,6.33722,0.0914634,-9.81707,7.5
6844.21,81.1966,36.9831,0,9.89622,1.43222,0.251477,1.09756,1.79878,-2.2561,-7.0222,0.00718506,6.37075,1.09756,-9.69512,7.56098
6844.22,81.1983,37.1895,0,10.0447,1.47773,0.455054,-0.213415,2.92683,-1.12805,-6.98627,0.00479004,6.32285,1.03659,-9.32927,8.07927
6844.23,81.2247,37.4049,0,9.7142,1.36277,0.364043,-1.25,3.65854,-0.670732,-6.97909,0.0718506,6.41386,1.70732,-8.56707,8.32317
6844.24,81.2117,37.6043,0,9.60882,1.47294,0.0742456,1.82927,2.89634,-1.52439,-6.99825,0.0646655,6.38991,1.55488,-8.04878,8.20122
6844.25,81.1832,37.8041,0,9.78366,1.57353,0.435894,-0.670732,3.32317,-2.04268,-7.03178,0.0646655,6.46655,1.67683,-6.98171,8.38415
6844.26,81.171,37.9992,0,9.96328,1.52323,0.335303,-0.884146,5.33537,-1.58537,-7.05333,0.0934058,6.50487,1.76829,-6.76829,8.29268
6844.27,81.1631,38.1859,0,9.94412,1.53042,0.239502,-0.762195,5.88415,-1.06707,-7.05333,0.0526904,6.50008,1.43293,-6.46341,8.5061
6844.28,81.1608,38.3707,0,9.85311,1.48731,0.397573,-1.12805,5.67073,-1.06707,-7.07249,0.0359253,6.55038,1.89024,-6.61585,8.38415
6844.29,81.18,38.5445,0,9.92017,1.45857,0.100591,-0.914634,8.04878,-0.243902,-7.08447,0.0670605,6.5408,2.0122,-6.55488,8.41463
6844.3,81.1757,38.7206,0,9.82677,1.54479,0.308958,-1.67683,8.01829,0.152439,-7.03657,0.0598755,6.54798,1.79878,-6.34146,8.38415
6844.31,81.1892,38.8846,0,9.78844,1.45857,0.328118,-2.5,8.75,-0.304878,-7.08447,0.0598755,6.56235,1.31098,-6.06707,8.65854
6844.32,81.2187,39.0293,0,9.79084,1.40348,0.352068,-2.5,9.17683,-0.243902,-7.15871,0,6.55756,1.37195,-6.06707,8.41463
6844.33,81.2471,39.165,0,9.79084,1.36277,0.423918,-1.0061,8.68902,-0.609756,-7.1635,0.0814307,6.54319,0.884146,-6.06707,8.41463
6844.34,81.256,39.2968,0,9.7621,1.43462,0.483794,-0.243902,8.07927,-0.670732,-7.15392,0.0766406,6.54319,1.55488,-6.06707,8.56707
6844.35,81.2565,39.4089,0,9.83395,1.4921,0.438289,-0.0914634,8.35366,-0.457317,-7.1659,0.129331,6.47134,1.52439,-6.58537,8.9939
6844.36,81.2683,39.5273,0,9.71899,1.42983,0.445474,-0.640244,9.05488,-0.487805,-7.14434,0.167651,6.51445,1.52439,-7.07317,8.68902
6844.37,81.2987,39.6338,0,9.77168,1.3484,0.359253,-0.518293,9.66463,-0.579268,-7.18266,0.160466,6.50727,1.64634,-7.37805,9.02439
6844.38,81.3238,39.7013,0,9.83395,1.35319,0.342488,0.121951,9.72561,-0.731707,-7.24972,0.131726,6.36836,1.79878,-8.10976,8.68902
6844.39,81.3521,39.7606,0,9.97047,1.40109,0.289797,1.18902,9.17683,-0.213415,-7.28565,0.129331,6.36836,1.98171,-8.35366,8.5061
6844.4,81.3811,39.8117,0,9.88664,1.39869,0.306563,0.945122,10.1524,0.426829,-7.3575,0.0910107,6.3971,2.07317,-9.32927,8.23171
6844.41,81.4368,39.8299,0,9.86269,1.26218,0.407153,0.670732,10.5183,0.731707,-7.49162,0.0742456,6.33483,1.95122,-10.5488,7.71341
6844.42,81.5146,39.8454,0,9.76449,1.22386,0.455054,0.518293,11.5549,0.121951,-7.61137,-0.0239502,6.42344,2.19512,-12.0427,7.62195
6844.43,81.549,39.8512,0,9.68546,1.14482,0.481399,2.40854,7.43902,-1.58537,-7.67364,-0.0694556,6.42105,2.77439,-14.1768,7.68293
6844.44,81.5644,39.8466,0,9.69504,1.14721,0.479004,2.62195,6.37195,-2.5,-7.6473,-0.131726,6.33962,4.02439,-15.7012,8.01829
6844.45,81.5715,39.8479,0,9.93933,1.22146,0.445474,3.07927,6.82927,-2.56098,-7.57305,-0.146096,6.30848,5.2439,-17.1037,8.59756
6844.46,81.5767,39.8705,0,10.0399,1.22386,0.352068,3.59756,6.03659,-2.77439,-7.46528,-0.105381,6.33722,6.46341,-18.0793,8.90244
6844.47,81.5669,39.8971,0,10.2004,1.34121,0.426313,3.04878,7.59146,-3.01829,-7.43893,-0.0694556,6.34201,7.22561,-18.9024,9.32927
6844.48,81.5535,39.8862,0,10.083,1.27894,0.462239,2.46951,7.80488,-3.90244,-7.47725,0.0119751,6.16957,7.95732,-19.4207,9.14634
6844.49,81.5984,39.8816,0,10.3561,0.965193,0.60594,2.53049,11.189,-2.40854,-7.54192,0.0359253,6.25579,9.20732,-19.3902,8.9939
6844.5,81.5726,39.8899,0,9.60642,1.18793,0.244292,1.40244,9.39024,-5.42683,-7.64011,0.107776,6.40907,9.05488,-19.7561,8.04878
6844.51,81.5314,39.9066,0,9.9082,1.31247,0.443079,2.83537,10.5183,-6.0061,-7.69041,0.177231,6.50008,8.87195,-21.4329,7.13415
6844.52,81.4946,39.9232,0,9.92017,1.28134,0.651445,1.34146,10.3963,-6.03659,-7.84848,0.205972,6.6342,9.05488,-24.0854,6.15854
6844.53,81.4933,39.9254,0,10.107,1.12566,0.878972,-0.609756,11.311,-4.57317,-7.86045,0.225132,6.55996,9.72561,-26.4024,5.4878
6844.54,81.4462,39.9065,0,9.69025,1.4897,0.431104,-1.21951,15.0305,-4.32927,-7.87482,0.210762,6.44739,10.061,-28.4146,5.4878
6844.55,81.4062,39.8734,0,9.96089,1.45857,0.474214,1.18902,13.3232,-4.54268,-7.78142,0.134121,6.28453,10.5488,-29.5122,4.72561
6844.56,81.3226,39.8833,0,9.19927,1.59508,1.02028,2.04268,7.68293,-5.97561,-7.63772,0.222737,6.40189,10.2744,-30.7317,4.81707
6844.57,81.2533,39.9642,0,9.59924,1.48012,0.874182,2.37805,6.76829,-6.89024,-7.52276,0.296982,6.71803,9.81707,-32.7439,5.03049
6844.58,81.1854,40.0689,0,9.92496,1.55676,0.991538,-0.487805,5.09146,-6.58537,-7.48204,0.433499,6.84018,10.061,-34.8476,5.09146
6844.59,81.2693,40.1226,0,11.077,0.922083,0.869392,-3.93293,5.70122,-1.12805,-7.47007,0.546064,6.55038,10.7927,-35.9451,5.09146
6844.6,81.2576,40.0252,0,9.53218,1.24062,0.661025,-0.884146,1.7378,-3.9939,-7.38864,0.514929,5.66901,13.2927,-33.689,4.32927
6844.61,81.2103,39.8599,0,9.04599,1.22146,0.948428,0.731707,4.05488,-6.98171,-7.43414,0.426313,5.34329,16.8293,-28.872,3.17073
6844.62,81.1139,39.9095,0,9.20166,1.60466,1.5376,-1.06707,2.10366,-7.59146,-7.30481,0.637075,6.34441,18.2317,-27.7744,1.64634
6844.63,81.0152,40.0718,0,9.48907,1.79387,1.86812,-11.9207,-3.44512,-6.34146,-7.23056,0.802332,6.94795,14.5427,-30.3659,1.0061
6844.64,80.9717,40.2337,0,9.82197,1.17595,0.704136,-14.0854,-9.7561,-8.84146,-7.58503,0.742456,7.32157,10.4268,-35.0305,0.0914634
6844.65,80.9994,40.3835,0,10.0998,0.579595,0.792751,-11.9207,-10.7012,-8.90244,-7.97781,0.747246,7.65448,8.35366,-40.7012,-1.67683
6844.66,80.9891,40.4591,0,9.74294,0.58199,1.69807,-9.35976,-12.2866,-12.439,-8.24366,0.718506,7.44133,8.2622,-44.5732,-2.80488
6844.67,80.9618,40.5498,0,9.48667,0.66342,1.65975,-9.66463,-10.122,-13.0183,-8.06164,0.790356,7.39343,7.16463,-45.6707,-3.17073
6844.68,80.9431,40.718,0,9.01485,0.462239,1.45138,-6.95122,-5.7622,-14.3598,-7.52515,0.912502,7.41259,5.45732,-45.9146,-2.95732
6844.69,80.9006,40.9641,0,9.04599,0.608335,1.30768,-9.84756,-1.55488,-14.9695,-6.9743,1.0562,7.40301,2.95732,-45.7622,-2.04268
6844.7,80.8441,41.3122,0,9.22083,0.462239,0.608335,-9.48171,-6.40244,-18.4756,-6.58391,1.04662,7.71436,1.67683,-47.2256,-0.457317
6844.71,80.7735,41.7019,0,9.98244,0.474214,0.866997,-8.10976,-16.4024,-20.3354,-6.30609,1.06818,7.76465,0.97561,-47.561,1.03659
6844.72,80.6844,42.1113,0,10.0998,0.579595,1.23344,-7.2561,-18.811,-21.2195,-6.17197,1.03465,7.84608,0.0304878,-46.4634,2.56098
6844.73,80.5847,42.5002,0,9.44356,0.476609,0.383203,-3.9939,-18.75,-23.2927,-5.98276,0.914897,7.58024,0.213415,-42.9573,3.47561
6844.74,80.4357,42.8996,0,9.76928,0.955613,0.785566,-4.17683,-15.4573,-23.0183,-5.77918,0.744851,7.5036,0.914634,-38.2317,3.68902
6844.75,80.2597,43.3742,0,10.1309,1.1999,0.869392,-5.79268,-10.4573,-23.689,-5.54926,0.479004,7.8389,0.97561,-36.5854,3.56707
6844.76,80.1277,43.9049,0,10.483,1.25739,0.775986,-12.7439,4.54268,-19.3902,-5.40077,0.263452,8.18857,1.0061,-36.7683,2.9878
6844.77,79.9682,44.466,0,10.5956,1.29571,0.131726,-4.57317,1.25,-22.1951,-5.34808,0.155676,8.52148,0.731707,-37.7439,2.46951
6844.78,79.7452,45.0676,0,9.45314,1.41546,0.431104,-4.14634,-8.53659,-25.8537,-5.05828,0.182021,8.57656,0.487805,-37.9878,2.92683
6844.79,79.5237,45.646,0,10.2651,1.69807,0.502954,-11.0671,-6.64634,-24.3598,-4.86668,0.285007,8.26042,1.18902,-36.0061,4.42073
6844.8,79.3521,46.2149,0,10.0519,1.32445,-0.385598,-3.62805,-5.4878,-23.5671,-4.60562,0.469424,7.92991,1.85976,-32.4695,6.95122
6844.81,79.1394,46.785,0,10.0016,1.83698,0.637075,-1.98171,-4.35976,-22.1951,-4.53617,0.579595,8.00655,2.95732,-29.4512,9.84756
6844.82,78.9609,47.3466,0,9.62319,1.54958,-0.146096,-2.5,-1.82927,-21.7073,-4.55533,0.464634,8.15983,3.04878,-28.1707,11.7988
6844.83,78.7677,47.869,0,9.3789,1.70286,0.792751,2.22561,-0.27439,-21.25,-4.67987,0.464634,8.23887,2.56098,-27.2866,12.5915
6844.84,78.547,48.3307,0,9.2831,1.8274,0.878972,-1.21951,2.0122,-22.7134,-4.82836,0.512534,8.16462,1.67683,-25.8841,12.3171
6844.85,78.3529,48.7421,0,9.42201,1.59269,0.227527,0.914634,2.77439,-23.5976,-4.89302,0.627495,8.01613,0.792683,-24.0854,11.6463
6844.86,78.1203,49.1335,0,9.5705,1.96631,0.730481,-0.182927,-1.76829,-23.811,-4.92895,0.673001,8.04727,0.121951,-23.1707,10.9756
6844.87,77.8695,49.5132,0,9.61361,2.29203,-0.126936,-1.98171,-2.28659,-22.4695,-4.97685,0.742456,8.15504,-0.640244,-23.3841,10.3963
6844.88,77.6512,49.8885,0,9.75491,2.2106,0.251477,0.945122,-5.54878,-20.9756,-5.04391,0.780776,8.35143,-1.12805,-24.1768,10.2134
6844.89,77.3925,50.2401,0,9.63995,2.67284,0.931663,1.25,-6.55488,-19.9695,-5.02475,0.701741,8.24845,-1.40244,-23.75,9.66463
6844.9,77.1544,50.5793,0,9.7621,2.61776,0.855022,-0.152439,-0.548781,-19.3902,-5.02236,0.546064,8.25803,-1.76829,-22.7744,8.87195
6844.91,77.0356,50.9281,0,11.5823,3.20214,2.41897,-17.5915,16.2805,-6.79878,-4.90021,0.407153,8.24605,-2.40854,-21.5244,8.2622
6844.92,77.087,51.2958,0,7.26409,1.08494,-1.4897,-9.42073,2.83537,-5.06098,-4.74932,0.440684,8.26282,-3.41463,-21.0061,8.35366
6844.93,76.9191,51.6818,0,8.83762,2.27766,0.184417,8.90244,-2.40854,-13.9939,-4.70861,0.543669,8.47358,-4.20732,-20.9756,9.05488
6844.94,76.6787,52.0746,0,9.4723,2.46687,0.548459,2.53049,-8.04878,-21.4329,-4.70621,0.632285,8.66518,-5.09146,-21.9817,9.66463
6844.95,76.4714,52.4534,0,10.1357,2.51956,0.883762,2.59146,-7.5,-19.8476,-4.73256,0.65863,8.72745,-5.67073,-22.1646,9.66463
6844.96,76.229,52.8128,0,9.55134,2.74709,0.974773,0.0914634,-3.75,-19.6037,-4.64155,0.6251,8.52148,-5.60976,-21.0061,9.26829
6844.97,76.0014,53.1308,0,9.73096,2.7423,0.407153,2.92683,-2.53049,-19.2073,-4.65831,0.555645,8.3179,-4.69512,-19.0549,8.81098
6844.98,75.7467,53.4584,0,9.63756,3.16622,0.893342,0.396341,-0.0609756,-17.439,-4.58407,0.282612,8.37778,-3.35366,-18.2317,7.9878
6844.99,75.5196,53.789,0,9.43398,2.89318,0.376018,0.457317,-0.27439,-17.4695,-4.53377,0.138911,8.42568,-2.10366,-18.0488,7.22561
6845,75.3088,54.1128,0,9.62558,2.75667,0.59157,3.62805,-3.56707,-18.4451,-4.52419,0.155676,8.46639,-1.52439,-17.4695,7.04268
6845.01,75.067,54.4487,0,9.30705,2.92192,1.13284,0.670732,-4.05488,-19.0854,-4.51222,0.203577,8.66997,-2.5,-17.9268,7.2561
6845.02,74.8227,54.7647,0,9.68067,2.97701,0.65863,-1.92073,-2.86585,-20.5183,-4.5218,0.287402,8.62686,-2.22561,-18.3537,8.10976
6845.03,74.5681,55.0502,0,9.74533,3.0776,0.617915,-1.03659,-1.12805,-21.189,-4.63436,0.490979,8.66997,-2.0122,-20.2134,9.14634
6845.04,74.3179,55.2914,0,9.70701,3.06083,0.119751,-1.0061,-1.03659,-21.311,-4.80441,0.550855,8.67716,-1.7378,-22.5915,9.93902
6845.05,74.0341,55.4958,0,9.49625,3.21891,0.407153,-1.55488,2.31707,-22.7439,-4.85949,0.512534,8.53106,-1.40244,-24.4207,10.7927
6845.06,73.7622,55.7103,0,9.18011,2.92671,0.632285,2.16463,-3.62805,-24.2378,-4.85231,0.486189,8.67716,-1.55488,-25.6402,10.7012
6845.07,73.4704,55.935,0,9.25196,3.05125,0.680186,-0.731707,-0.243902,-25.6707,-4.81159,0.500559,8.77056,-1.95122,-26.9817,10.3963
6845.08,73.2054,56.2021,0,9.25196,2.81894,0.416733,2.92683,-6.09756,-26.189,-4.711,0.495769,9.06515,-3.29268,-28.4756,9.84756
6845.09,72.9146,56.4749,0,9.8076,3.38177,0.61073,-0.670732,-1.58537,-25.122,-4.60562,0.459844,9.01725,-3.78049,-29.7256,9.2378
6845.1,72.6591,56.7498,0,9.87227,3.20214,0.189207,1.7378,-4.2378,-24.2683,-4.50982,0.416733,8.95498,-3.81098,-29.5732,8.84146
6845.11,72.3725,57.0103,0,9.30705,3.45122,0.708926,0.0609756,-1.79878,-23.1098,-4.47869,0.462239,8.86157,-3.93293,-28.2317,8.75
6845.12,72.1141,57.2673,0,9.49625,3.1734,0.237107,1.03659,-0.213415,-24.6341,-4.39965,0.536484,8.77296,-4.02439,-27.0122,8.87195
6845.13,71.8403,57.5284,0,9.59684,3.33147,0.948428,2.9878,-4.42073,-25.3659,-4.43558,0.565225,8.98611,-3.93293,-26.9512,9.14634
6845.14,71.5413,57.7693,0,9.41961,3.26202,0.744851,3.44512,-4.66463,-28.5976,-4.49066,0.457449,8.99569,-3.96341,-28.2622,8.56707
6845.15,71.2036,57.9946,0,9.39806,3.50152,0.349673,1.15854,-3.10976,-30.4268,-4.49785,0.287402,8.94779,-3.5061,-29.2683,7.86585
6845.16,70.8722,58.2361,0,9.34297,3.37698,0.335303,-1.21951,-0.792683,-31.6159,-4.43558,0.217947,9.07233,-2.9878,-30.2439,7.31707
6845.17,70.573,58.5149,0,9.55613,3.11592,-0.198787,-1.40244,-0.457317,-32.7134,-4.33259,0.189207,9.34297,-2.9878,-31.3415,7.0122
6845.18,70.2598,58.8076,0,9.77407,3.27399,0.469424,1.31098,-0.609756,-33.811,-4.27032,0.220342,9.47709,-2.80488,-32.4085,7.53049
6845.19,69.8927,59.1015,0,9.64474,3.79611,0.131726,0.945122,0.457317,-33.9024,-4.20086,0.299377,9.46751,-3.10976,-32.0122,7.68293
6845.2,69.5265,59.3634,0,9.56571,3.87275,0.759221,1.64634,2.31707,-33.4146,-4.24876,0.383203,9.35016,-3.81098,-30.7622,8.32317
6845.21,69.1678,59.6016,0,9.38848,3.74581,0.241897,2.86585,2.19512,-33.9939,-4.28709,0.440684,9.29268,-4.60366,-29.2988,8.71951
6845.22,68.8079,59.8338,0,9.19209,3.67396,0.222737,5.03049,-0.579268,-34.7866,-4.31822,0.452659,9.39566,-5.51829,-29.8171,9.17683
6845.23,68.4643,60.0509,0,9.0388,3.37219,0.526904,5.85366,-3.9939,-36.5549,-4.29187,0.395178,9.27112,-5.88415,-31.4634,9.48171
6845.24,68.1034,60.2807,0,9.32142,3.49673,0.60115,5.82317,-9.60366,-38.811,-4.24158,0.325723,9.39087,-5.33537,-32.8049,8.75
6845.25,67.7118,60.5025,0,9.41482,3.80569,0.435894,2.7439,-3.47561,-39.7256,-4.22242,0.122146,9.35734,-4.66463,-34.2073,8.41463
6845.26,67.299,60.7322,0,9.45793,3.90149,0.953218,-3.41463,2.68293,-41.8598,-4.1338,-0.0167651,9.34297,-3.93293,-34.0244,7.65244
6845.27,66.8485,60.9759,0,9.35734,4.08111,0.701741,-2.10366,3.38415,-44.2073,-4.03321,-0.155676,9.37411,-2.83537,-33.9024,7.28659
6845.28,66.3648,61.2089,0,9.16574,4.19368,0.888552,-3.23171,3.75,-46.4329,-4.03561,-0.126936,9.36453,-1.79878,-34.5732,7.19512
6845.29,65.8889,61.4504,0,9.43398,4.06674,-0.227527,1.03659,4.17683,-49.2073,-4.00687,-0.107776,9.50104,-1.46341,-35.5183,7.46951
6845.3,65.3933,61.6955,0,9.44835,4.18649,0.486189,4.66463,5.21341,-51.0061,-3.90388,0.0766406,9.40524,-1.0061,-36.8293,8.17073
6845.31,64.8791,61.9175,0,9.29747,4.32541,0.498164,5.42683,4.60366,-51.7683,-3.86077,0.385598,9.14658,-1.89024,-37.3476,8.65854
6845.32,64.3602,62.122,0,9.22083,4.39965,0.847837,3.9939,-2.0122,-52.1646,-3.81048,0.471819,8.93342,-2.34756,-36.5854,9.48171
6845.33,63.8291,62.3547,0,9.08191,4.56012,1.02507,-1.79878,-1.40244,-52.1037,-3.73863,0.462239,9.16813,-0.640244,-37.378,9.5122
6845.34,63.3542,62.5999,0,8.79451,3.95897,0.689766,-0.579268,4.63415,-52.4085,-3.69073,0.287402,9.30226,1.98171,-37.9573,9.17683
6845.35,62.8156,62.8702,0,8.62686,4.4236,0.603545,0.792683,-3.65854,-53.9329,-3.64522,0.172441,9.61361,3.29268,-38.3232,8.38415
6845.36,62.2246,63.1441,0,8.41849,4.83315,0.912502,-3.32317,-1.25,-54.8476,-3.56139,0.117356,9.57768,3.65854,-37.378,8.68902
6845.37,61.6434,63.477,0,8.31072,4.41642,0.584385,0.0914634,-5.33537,-58.872,-3.19975,0.0191602,9.49146,3.84146,-36.4634,8.59756
6845.38,61.0756,63.8673,0,8.57656,4.48108,0.934058,-1.12805,-4.7561,-59.5122,-2.83091,0.117356,9.35255,3.71951,-35.0915,8.47561
6845.39,60.5211,64.3047,0,8.55501,4.41163,0.471819,1.31098,-1.46341,-59.939,-2.55788,0.419128,9.38129,2.95732,-33.1098,9.29878
6845.4,60.1295,64.7928,0,9.84353,4.34457,-0.107776,0.884146,-10.5488,-51.5244,-2.28964,0.543669,9.51541,1.7378,-32.1951,10.3354
6845.41,59.6188,65.3021,0,9.11065,5.16127,0.6251,1.95122,-5.4878,-52.8049,-2.13157,0.589175,9.616,-0.335366,-30.7622,10.3963
6845.42,59.0594,65.7698,0,8.78254,5.74565,0.816702,-5.27439,1.34146,-51.3415,-2.15312,0.517324,9.30226,-0.884146,-29.1768,10.0305
6845.43,58.5257,66.1765,0,8.44005,5.37921,0.479004,-6.21951,0.945122,-51.25,-2.21779,0.402363,8.84241,-1.03659,-24.6341,9.02439
6845.44,58.1017,66.5308,0,8.44963,4.7613,-0.0263452,-4.78659,-2.13415,-47.5,-2.38304,0.153281,8.90708,-0.152439,-20.6402,8.65854
6845.45,57.6255,66.8462,0,7.18985,4.66071,0.270637,0.182927,-10.1524,-46.4329,-2.5483,0.0670605,9.12502,0.579268,-19.6037,8.35366
6845.46,56.9965,67.169,0,7.41019,5.67141,0.364043,-4.14634,-9.54268,-53.872,-2.51477,0.160466,9.31902,0.518293,-20.2744,8.56707
6845.47,56.3998,67.4996,0,8.00416,5.37921,-0.411943,1.18902,-3.75,-59.0549,-2.43334,0.342488,9.35495,0.518293,-19.7561,9.17683
6845.48,55.8792,67.8628,0,9.00288,5.63069,0.258662,3.90244,-5.27439,-56.3415,-2.25611,0.481399,9.45793,-0.0914634,-17.7134,8.9939
6845.49,55.3711,68.2555,0,8.71308,5.78397,0.474214,-1.0061,-5.70122,-52.9573,-2.04056,0.608335,9.36453,-1.4939,-14.8476,8.65854
6845.5,54.9061,68.6576,0,8.35622,5.26186,0.311353,-3.23171,-8.17073,-52.4085,-1.90644,0.656235,9.24478,-1.76829,-12.378,8.90244
6845.51,54.6031,69.051,0,8.84481,4.86907,0.366438,-5.70122,-16.7683,-43.689,-1.87291,0.687371,9.23999,-1.98171,-10,9.08537
6845.52,54.3102,69.415,0,8.37299,4.81878,-0.505349,0.701219,-17.622,-41.0671,-1.93039,0.63947,9.2352,-2.53049,-8.81098,8.93293
6845.53,53.8803,69.7434,0,7.71675,5.63788,0.143701,3.17073,-19.7256,-42.9268,-2.03337,0.512534,9.29028,-3.14024,-7.07317,8.59756
6845.54,53.4308,70.054,0,7.69999,6.03066,0.0598755,2.34756,-17.3171,-41.8902,-2.11241,0.476609,9.50104,-3.71951,-5.12195,8.56707
6845.55,52.9414,70.3355,0,7.43414,6.38512,-0.311353,4.17683,-16.0061,-41.5854,-2.24174,0.419128,9.68546,-4.20732,-4.2378,8.47561
6845.56,52.42,70.5737,0,7.41019,6.49769,0.0550855,6.15854,-13.1402,-44.6646,-2.39981,0.354463,9.72857,-3.87195,-3.90244,8.65854
6845.57,51.821,70.7925,0,7.3072,6.81383,0.337698,4.90854,-13.5061,-50.061,-2.4501,0.256267,9.65911,-4.05488,-3.32317,8.96341
6845.58,51.2493,71.0179,0,7.19464,6.25579,0.134121,0.152439,-11.7378,-52.561,-2.42855,0.143701,9.43398,-3.9939,-2.40854,9.48171
6845.59,50.6891,71.2847,0,7.75747,6.27974,0.0574805,-0.213415,-11.5549,-56.6768,-2.36388,0.193997,9.49625,-4.90854,-1.76829,9.90854
6845.6,50.2569,71.5796,0,8.54782,5.88696,-0.220342,-1.12805,-17.1341,-53.811,-2.30161,0.287402,9.44835,-5.67073,-1.4939,10.2744
6845.61,49.8191,71.9587,0,8.23887,6.20071,-0.0311353,0.914634,-12.6829,-50.3354,-2.1651,0.416733,9.43398,-6.52439,-1.09756,11.128
6845.62,49.3614,72.6432,0,8.1742,6.3971,-0.608335,-1.21951,-13.0488,-51.0671,-2.04056,0.512534,9.35495,-7.22561,0.182927,11.7378
6845.63,48.9434,72.9417,0,7.76465,5.99952,-0.66342,5.82317,-12.5915,-48.6585,-1.98308,0.483794,9.33579,-7.83537,1.82927,11.7988
6845.64,48.5307,73.1335,0,7.65688,6.22705,0.0694556,7.68293,-15.7622,-46.0671,-2.01661,0.349673,9.15856,-7.56098,4.14634,11.4024
6845.65,48.0918,73.3003,0,7.14913,6.3947,0.146096,6.89024,-12.9573,-44.0854,-2.00463,0.193997,8.9454,-6.25,7.07317,10.8232
6845.66,47.6264,73.4691,0,6.69168,6.55277,0.0886157,4.90854,-13.7195,-42.4085,-2.00703,0.189207,9.13221,-5.91463,9.02439,10.7622
6845.67,47.0926,73.6113,0,6.70605,7.01262,0.0886157,10.061,-10.0305,-46.4939,-2.10522,0.167651,9.19687,-5.91463,9.69512,10.8232
6845.68,46.5878,73.7201,0,7.33115,7.20422,0.275427,5.39634,-6.64634,-48.2622,-2.18186,0.141306,9.03162,-5.85366,11.9207,10.6707
6845.69,46.1424,73.8104,0,7.53234,6.83299,-0.323328,5.4878,-10.1829,-47.8963,-2.2585,0.0958008,9.10347,-6.12805,13.5976,11.0671
6845.7,45.7564,73.9203,0,7.81734,6.88329,-0.222737,6.40244,-13.6585,-44.4817,-2.19863,0.0407153,9.27352,-6.61585,15.3659,10.8232
6845.71,45.3861,74.0362,0,7.8365,6.78509,-0.0311353,5.51829,-6.82927,-44.6341,-2.17228,0.0479004,9.35734,-6.82927,16.7988,10.4573
6845.72,44.947,74.1632,0,7.2593,7.02699,0.0838257,-0.762195,0.914634,-45.9146,-2.07648,-0.0526904,9.23999,-7.04268,18.5366,10.5488
6845.73,44.5476,74.2943,0,6.83778,6.23184,-0.56762,1.92073,5.97561,-46.2805,-2.00224,-0.0215552,9.09389,-7.40854,21.7073,10.4573
6845.74,44.1454,74.4352,0,6.78749,6.63181,-0.258662,7.37805,4.81707,-43.3232,-1.91362,-0.00958008,8.98611,-6.43293,25.3963,10.3659
6845.75,43.8084,74.5758,0,6.70605,6.65815,-0.792751,6.28049,-2.7439,-36.5549,-1.91841,0.0263452,9.12263,-4.93902,28.0488,10.3049
6845.76,43.4387,74.6959,0,6.54798,6.924,-0.534089,12.7744,-7.7439,-36.8902,-1.99505,0.0455054,9.19448,-4.26829,30.2439,10.4268
6845.77,43.0058,74.7716,0,6.54798,7.60658,0.138911,10.1524,-10.9451,-38.628,-2.12917,0.0814307,9.05796,-3.81098,33.4146,10.1524
6845.78,42.5671,74.8061,0,6.71563,7.65688,0.409548,6.82927,-11.128,-41.189,-2.28006,0.131726,9.02922,-4.45122,37.3171,10.0305
6845.79,42.1848,74.7999,0,6.95035,7.41259,0.205972,5,-8.93293,-40.2134,-2.45729,0.0431104,9.07473,-5.15244,40,9.29878
6845.8,41.8424,74.7633,0,7.08926,7.22577,0.282612,5.54878,-9.32927,-39.5732,-2.58662,0.0263452,9.06994,-4.93902,41.9512,8.20122
6845.81,41.521,74.6976,0,7.19703,7.24254,0.637075,3.17073,-13.1098,-38.872,-2.6441,0.00718506,8.82565,-5.09146,44.0549,7.56098
6845.82,41.1942,74.5941,0,6.90245,7.13476,0.174836,-2.86585,-8.84146,-38.5061,-2.73751,-0.0479004,8.58615,-4.84756,46.8598,7.19512
6845.83,40.8654,74.4794,0,6.57433,6.90963,-0.0311353,-2.71341,-3.35366,-38.4146,-2.79978,-0.0766406,8.58615,-4.39024,49.2378,7.2561
6845.84,40.5398,74.359,0,6.47853,6.86652,-0.191602,-0.365854,-5.91463,-38.2622,-2.8836,-0.0934058,8.71308,-4.32927,50.3049,7.2561
6845.85,40.2243,74.2272,0,6.7803,7.20901,-0.208367,0.579268,-12.0427,-37.7134,-2.95545,-0.0862207,8.72266,-4.78659,50.6098,7.71341
6845.86,39.8922,74.0709,0,6.60067,7.38624,-0.174836,1.21951,-9.45122,-37.0732,-3.06562,0,8.67476,-4.14634,51.9207,7.9878
6845.87,39.5295,73.8925,0,6.64139,7.93709,0.0862207,1.40244,-6.98171,-37.0732,-3.11832,0.0718506,8.49034,-3.56707,53.6585,8.38415
6845.88,39.1723,73.7005,0,6.76593,8.01134,0.340093,-2.9878,-4.29878,-37.7744,-3.1734,0.0455054,8.40891,-3.41463,56.6463,8.38415
6845.89,38.8547,73.4834,0,6.72282,7.66646,-0.0479004,-6.92073,0.304878,-36.6463,-3.27639,-0.0646655,8.3203,-3.01829,58.3537,8.41463
6845.9,38.5689,73.2291,0,6.60307,7.32636,-0.222737,-6.31098,3.29268,-35.6402,-3.37698,-0.134121,8.09756,-2.56098,60.6402,8.07927
6845.91,38.2427,72.983,0,6.16957,7.48444,-0.0622705,-6.0061,5.12195,-35.1829,-3.45601,-0.165256,8.27,-2.19512,61.6463,7.89634
6845.92,37.8707,72.7239,0,5.68338,7.55389,0.148491,-5.4878,7.22561,-35.3354,-3.59732,-0.148491,8.37059,-2.43902,61.4634,7.86585
6845.93,37.4709,72.4274,0,5.51094,7.81016,0.510139,-7.04268,5.79268,-35.3659,-3.64522,-0.100591,8.01613,-2.22561,63.1098,7.71341
6845.94,37.0544,72.1161,0,5.33131,7.64969,0.328118,-9.5122,-2.62195,-37.1951,-3.78413,-0.0550855,8.07361,-1.52439,64.7866,7.89634
6845.95,36.6753,71.7852,0,5.28581,7.20182,0.359253,-11.0671,-9.48171,-37.1037,-3.91825,-0.0622705,8.06403,-0.914634,65.5793,8.44512
6845.96,36.2489,71.415,0,5.26665,8.13349,0.275427,-4.45122,-15.2439,-35.8537,-4.07393,-0.0981958,7.91554,-0.487805,66.6768,8.20122
6845.97,35.8539,71.0148,0,5.53729,8.38975,0.665815,-8.68902,-18.7195,-34.5427,-4.16973,-0.222737,7.72633,0.365854,67.6219,7.53049
6845.98,35.5305,70.6263,0,5.90372,8.20294,0.232317,-13.9024,-19.3598,-32.7744,-4.2799,-0.287402,7.89638,0.243902,68.4756,6.95122
6845.99,35.2598,70.2269,0,6.10251,7.97302,0,-12.622,-18.2012,-31.4939,-4.36373,-0.323328,7.83411,0.335366,68.7805,6.55488
6846,35.0101,69.7941,0,6.1073,8.04487,-0.0455054,-11.6463,-14.1463,-29.4512,-4.43558,-0.301772,7.57305,0.853659,69.6341,6.55488
6846.01,34.7735,69.3942,0,5.82948,8.1263,-0.0239502,-13.0793,-14.939,-25.4573,-4.48587,-0.193997,7.78142,1.64634,69.1159,7.10366
6846.02,34.5339,68.9886,0,5.75044,8.35622,-0.203577,-13.9634,-17.378,-23.9634,-4.52419,0.0143701,7.67843,1.4939,68.75,7.95732
6846.03,34.3113,68.5363,0,5.60674,8.19336,-0.306563,-14.3598,-17.6524,-22.4085,-4.62718,0.124541,7.38145,1.98171,70.9146,9.48171
6846.04,34.0838,68.0973,0,5.51813,8.28916,-0.495769,-15.3049,-15.2744,-21.8598,-4.70621,0.191602,7.47486,1.98171,72.1037,10.1829
6846.05,33.8568,67.6325,0,5.44148,8.21492,-0.426313,-18.5976,-14.4207,-22.0122,-4.94332,0.251477,7.52994,1.7378,71.4634,10.5793
6846.06,33.6412,67.1274,0,5.3361,7.79818,-0.938848,-15.3963,-16.0366,-23.0793,-5.15169,0.186812,7.41977,1.4939,70.6707,9.84756
6846.07,33.3962,66.5942,0,5.18043,7.68083,-0.910107,-10.2744,-15.5183,-25.7317,-5.36963,0.174836,7.39343,0.670732,70.1219,8.81098
6846.08,33.1039,66.0634,0,5.17803,7.91314,-0.749641,-11.4939,-17.378,-29.4207,-5.47262,0.186812,7.4054,0.27439,70.1524,7.2561
6846.09,32.8057,65.4914,0,5.16845,7.79339,-0.787961,-12.0732,-18.5366,-31.3415,-5.5301,0.203577,7.0701,-0.121951,70.5183,5.97561
6846.1,32.4894,64.9446,0,5.10618,7.68083,-0.718506,-11.5854,-17.2561,-33.9329,-5.56124,0.179626,7.12758,-0.579268,71.0671,5.67073
6846.11,32.1781,64.416,0,5.27862,7.6473,-0.771196,-9.78659,-17.622,-36.0976,-5.59716,0.0981958,7.14913,-0.853659,70.3049,5.73171
6846.12,31.8537,63.8452,0,5.37203,7.74789,-0.565225,-10.8537,-14.3598,-38.3232,-5.65225,0.0502954,6.82102,-0.97561,70.8841,6.28049
6846.13,31.5337,63.2753,0,5.63309,7.86285,-0.637075,-13.3841,-8.23171,-40.3354,-5.71212,0.0215552,6.76114,-1.55488,71.3415,7.10366
6846.14,31.2675,62.7006,0,6.0115,7.71915,-0.948428,-15.7927,-1.79878,-40.1829,-5.90133,0.00239502,6.81623,-1.70732,70.9451,8.20122
6846.15,31.0221,62.1527,0,5.99713,7.53713,-1.08255,-14.3293,5.39634,-39.8171,-5.98755,0.0742456,6.93837,-2.53049,69.4207,9.02439
6846.16,30.7738,61.5532,0,5.92288,7.63053,-0.967588,-8.9939,10.2744,-39.2073,-6.04263,0.148491,6.56235,-2.56098,70.2439,9.63415
6846.17,30.4842,60.942,0,5.68099,7.93709,-0.730481,-5.36585,11.1585,-39.3902,-6.11688,0.239502,6.44021,-2.10366,71.7988,10.2134
6846.18,30.136,60.2986,0,5.34089,8.36101,-0.716111,-5.4878,11.4939,-39.7866,-6.24861,0.292192,6.26058,-1.85976,72.7744,10.5488
6846.19,29.7503,59.6585,0,5.03673,8.49513,-0.65384,-6.92073,13.3537,-40.4268,-6.43542,0.289797,6.32285,-1.58537,72.6829,10.5183
6846.2,29.3624,59.0279,0,4.94811,8.36341,-0.799937,-6.09756,18.628,-41.3415,-6.58151,0.249082,6.37554,-1.58537,71.5854,10.3659
6846.21,28.9843,58.3533,0,4.99122,8.4161,-0.538879,-2.77439,21.5549,-41.25,-6.72761,0.210762,6.13125,-2.07317,71.2805,10.0305
6846.22,28.6194,57.678,0,5.01996,8.54543,-0.479004,0.609756,24.0549,-40.1829,-6.79228,0.162861,6.04263,-2.07317,72.2561,9.63415
6846.23,28.2605,56.9913,0,4.94332,8.66518,-0.172441,3.38415,26.0366,-38.8415,-6.90245,0.100591,5.93725,-2.28659,73.5061,9.11585
6846.24,27.9151,56.2991,0,4.87386,8.80649,0.359253,0.884146,25.6402,-36.6768,-6.94077,0.0526904,5.79834,-1.7378,73.689,8.90244
6846.25,27.5887,55.6231,0,4.78285,8.60291,0.308958,-1.15854,24.1463,-35.6707,-6.9264,0.0622705,5.72889,-1.52439,73.6281,8.47561
6846.26,27.2821,54.9598,0,4.7134,8.42807,0.167651,-1.21951,23.2317,-34.6037,-6.94795,0.0766406,5.6738,-2.0122,73.3841,8.29268
6846.27,26.9611,54.3065,0,4.44755,8.43526,0.421523,-0.914634,23.6585,-33.811,-6.94316,0.107776,5.58758,-2.2561,73.2927,8.59756
6846.28,26.6067,53.6263,0,4.04998,8.49274,0.819097,-4.20732,23.5976,-33.1707,-7.00543,0.143701,5.37442,-2.10366,73.8719,8.53659
6846.29,26.236,52.9635,0,3.90388,8.5598,0.828677,-7.19512,17.8659,-33.5671,-7.12279,0.112566,5.41753,-1.58537,74.0549,8.23171
6846.3,25.8536,52.3126,0,3.68114,8.48076,0.845442,-10.2744,10.7317,-33.3537,-7.20182,0.138911,5.40556,-0.97561,73.5976,8.2622
6846.31,25.4684,51.6267,0,3.80569,8.77056,0.732876,-7.56098,7.83537,-34.4207,-7.29762,0.148491,5.17803,-0.27439,73.9939,8.87195
6846.32,25.0592,50.9622,0,3.77695,8.73464,0.876577,-5.12195,5.94512,-37.5,-7.38385,0.143701,5.21156,-0.548781,74.5122,8.78049
6846.33,24.6608,50.2955,0,3.8967,8.80409,0.929268,-4.72561,1.55488,-38.2317,-7.49641,0.141306,5.15169,-1.40244,74.8476,8.56707
6846.34,24.2967,49.6116,0,4.04519,8.77296,0.735271,-5.85366,-0.0304878,-37.3476,-7.52276,0.150886,4.96009,-2.0122,75.5183,8.53659
6846.35,23.967,48.9108,0,4.16973,8.67237,0.574805,-4.81707,-2.5,-36.4634,-7.58503,0.162861,4.79243,-2.07317,74.939,8.35366
6846.36,23.6341,48.1773,0,4.10027,8.74661,0.55804,-5.09146,-4.5122,-36.311,-7.70238,0.105381,4.58407,-1.0061,75.1219,7.86585
6846.37,23.33,47.5189,0,4.21284,8.77296,0.426313,-6.55488,-5.88415,-35.1524,-7.81016,0.117356,4.86428,0.27439,73.75,7.37805
6846.38,23.0438,46.8621,0,4.13859,8.8975,0.258662,-9.11585,-8.56707,-32.5,-7.87961,0.153281,4.79004,0.304878,72.8659,7.65244
6846.39,22.7963,46.1732,0,4.20805,9.05078,0.0119751,-13.0183,-5.51829,-29.1159,-7.96584,0.170046,4.5673,-0.365854,73.689,7.53049
6846.4,22.5423,45.4889,0,3.92304,9.01006,-0.0119751,-13.628,0.609756,-27.4085,-8.07122,0.239502,4.5218,-1.37195,73.5671,7.46951
6846.41,22.2712,44.7866,0,3.68354,8.90947,0.0766406,-10.2439,7.22561,-27.5,-8.16702,0.268242,4.36373,-1.4939,73.3537,7.13415
6846.42,21.9391,44.0812,0,3.20693,8.95977,0.177231,-9.11585,6.7378,-28.628,-8.20534,0.359253,4.24158,-1.95122,73.0793,7.2561
6846.43,21.5885,43.4265,0,3.2692,9.12742,0.112566,-7.10366,4.32927,-31.2195,-8.26282,0.435894,4.3757,-2.5,71.7378,7.5
6846.44,21.2444,42.7565,0,3.36979,9.11305,0.392783,-5.33537,-0.243902,-32.4695,-8.34425,0.428708,4.22481,-3.81098,70.4878,8.01829
6846.45,20.9258,42.084,0,3.68114,9.05557,0.399968,-4.14634,0.97561,-34.2988,-8.42568,0.342488,4.13141,-3.75,69.6037,8.23171
6846.46,20.6495,41.4125,0,3.98052,9.08431,0.560435,-2.53049,0.487805,-33.7805,-8.48795,0.273032,4.04279,-3.41463,68.9939,8.20122
6846.47,20.4269,40.712,0,4.26313,9.11784,0.546064,-4.17683,3.5061,-31.7073,-8.48076,0.170046,3.78653,-2.65244,68.3841,8.2622
6846.48,20.2347,40.0345,0,4.25355,9.12502,0.237107,-5.54878,8.17073,-28.9329,-8.57656,0.0550855,3.80808,-2.34756,67.9573,8.32317
6846.49,20.0586,39.3549,0,3.95418,9.00288,0.0838257,-5.7622,12.561,-25.061,-8.64842,0.00479004,3.70749,-1.82927,67.3171,8.5061
6846.5,19.8699,38.6465,0,3.57816,8.97414,-0.00239502,-2.56098,15.6402,-22.6829,-8.73224,0.0191602,3.49194,-1.43293,66.2805,8.29268
6846.51,19.6262,37.9634,0,3.03449,9.26154,0.275427,1.95122,12.3476,-21.3415,-8.74182,0.0622705,3.48236,-1.03659,65.3659,8.10976
6846.52,19.3701,37.2934,0,2.94348,9.34297,0.61073,2.31707,10.7622,-21.7683,-8.8496,0.150886,3.4608,-1.0061,63.9939,8.41463
6846.53,19.0723,36.6376,0,2.34233,9.02683,0.910107,1.82927,4.42073,-20.5488,-8.86157,0.203577,3.41051,-1.61585,63.811,8.93293
6846.54,18.7594,35.9673,0,2.63931,9.18969,0.910107,3.71951,5.33537,-25.7012,-8.98372,0.193997,3.27399,-1.4939,63.2317,9.35976
6846.55,18.4457,35.2802,0,2.89318,9.33339,0.797541,1.28049,6.7378,-28.872,-9.04599,0.244292,3.10155,-0.182927,62.561,9.81707
6846.56,18.1763,34.5894,0,3.14706,9.24957,0.819097,-1.52439,5.18293,-28.2012,-9.137,0.208367,2.99377,0.640244,61.4329,9.66463
6846.57,17.9538,33.937,0,3.47996,9.21364,0.684976,-2.89634,6.31098,-27.8354,-9.21603,0.126936,3.06802,0.304878,60.6402,9.45122
6846.58,17.7877,33.3304,0,3.51589,9.01006,0.519719,-4.57317,5.57927,-23.811,-9.34058,0.193997,3.19975,-0.396341,58.628,8.87195
6846.59,17.6976,32.6743,0,3.82485,8.85199,0.136516,-4.69512,7.71341,-20.5793,-9.2328,0.325723,2.83091,-0.884146,57.439,8.44512
6846.6,17.5894,32.0459,0,3.76258,9.14897,-0.0479004,-2.07317,10.8841,-20.5488,-9.1825,0.565225,2.82373,-2.83537,57.8963,8.04878
6846.61,17.4733,31.3997,0,3.42488,9.12023,0.162861,-0.182927,10.7622,-17.9573,-9.19448,0.696951,2.63931,-3.90244,58.1402,8.38415
6846.62,17.2924,30.7447,0,2.66566,8.97414,0.373623,2.19512,11.128,-16.5549,-9.27591,0.713716,2.50998,-4.14634,57.0427,8.44512
6846.63,17.0591,30.1083,0,2.41418,9.04359,0.431104,5.51829,10,-19.0244,-9.39806,0.632285,2.50998,-4.32927,56.4634,8.20122
6846.64,16.8219,29.5181,0,2.66087,9.40764,0.682581,3.71951,5.82317,-21.6159,-9.51781,0.536484,2.63452,-5.21341,54.3902,7.19512
6846.65,16.5921,28.9516,0,2.91234,9.58966,0.603545,-0.762195,2.71341,-23.5976,-9.66151,0.443079,2.67524,-5.97561,53.0488,6.37195
6846.66,16.4308,28.3631,0,3.38656,9.37171,0.162861,-2.37805,6.06707,-23.1402,-9.73096,0.421523,2.48843,-7.40854,51.4024,5.30488
6846.67,16.3647,27.7491,0,3.98531,9.10347,-0.292192,0.609756,13.8415,-21.4634,-9.70941,0.294587,2.2609,-7.9878,50.7012,4.54268
6846.68,16.342,27.131,0,4.10027,9.0891,-0.280217,4.42073,22.4695,-18.4756,-9.68306,0.122146,2.12678,-8.04878,49.878,3.41463
6846.69,16.3574,26.5229,0,4.07153,9.04359,-0.0622705,6.85976,29.6951,-14.5427,-9.54176,0.100591,2.03098,-8.14024,48.9634,2.86585
6846.7,16.3513,25.9199,0,3.6069,9.18969,0.162861,6.25,30.3659,-10.9756,-9.44835,0.229922,1.92799,-8.20122,47.9573,3.38415
6846.71,16.3309,25.3497,0,3.21412,9.28549,0.229922,5.79268,30.1524,-7.68293,-9.34537,0.349673,1.94476,-8.84146,47.378,4.11585
6846.72,16.2357,24.7978,0,2.46448,9.24717,0.256267,7.56098,28.8415,-6.82927,-9.45314,0.459844,1.94715,-9.20732,45.7317,5.51829
6846.73,16.0913,24.2582,0,2.14354,9.30226,0.60115,8.81098,30.3963,-8.07927,-9.54176,0.423918,1.9232,-9.5122,45.122,6.40244
6846.74,15.9041,23.7058,0,1.98787,9.54415,0.756826,10.0915,29.6341,-10.2744,-9.69025,0.390388,1.80105,-9.5122,44.3293,6.85976
6846.75,15.7097,23.1699,0,2.04295,9.76689,1.20469,8.20122,25.5488,-11.4939,-9.77168,0.330513,1.79147,-9.66463,43.7805,6.64634
6846.76,15.5195,22.65,0,2.03337,9.55613,1.12326,6.12805,21.4939,-11.8598,-9.81719,0.253872,1.77471,-9.57317,41.5549,6.52439
6846.77,15.3803,22.0909,0,2.3543,9.26873,0.713716,6.95122,19.878,-11.6159,-9.77886,0.179626,1.50168,-9.11585,40.3963,6.06707
6846.78,15.2917,21.565,0,2.68482,9.35495,0.783171,8.65854,18.872,-10.3354,-9.74533,0.155676,1.54479,-8.20122,39.3902,5.88415
6846.79,15.2284,21.077,0,2.74709,9.58247,1.11608,5.97561,16.25,-7.89634,-9.70462,0.191602,1.61185,-8.81098,38.5061,5.97561
6846.8,15.1604,20.6047,0,2.51717,9.69743,0.886157,1.64634,16.4939,-5.54878,-9.65432,0.210762,1.5879,-8.93293,38.0793,5.88415
6846.81,15.0504,20.1256,0,2.04056,9.54176,0.65384,2.19512,17.1951,-4.81707,-9.64235,0.232317,1.47533,-9.66463,38.7805,6.55488
6846.82,14.8611,19.6209,0,1.45378,9.21364,0.730481,6.85976,15.8232,-6.85976,-9.7118,0.215552,1.29092,-9.54268,38.7805,6.58537
6846.83,14.6849,19.1327,0,1.79387,9.87467,1.0586,8.75,14.4207,-8.65854,-9.87946,0.308958,1.29571,-8.96341,36.4024,7.28659
6846.84,14.5093,18.6488,0,1.8777,10.0256,1.36516,5.39634,10.7927,-9.60366,-9.94173,0.253872,1.23583,-8.47561,34.5122,7.53049
6846.85,14.349,18.1535,0,1.95194,9.93694,1.27655,1.70732,10.2134,-9.42073,-10.0591,0.174836,1.11129,-7.65244,33.0793,7.34756
6846.86,14.2395,17.6433,0,2.19384,9.73575,1.05381,0.97561,10.9756,-7.80488,-10.1118,0.155676,0.960403,-6.58537,31.5854,7.2561
6846.87,14.1362,17.1458,0,2.12678,9.65432,1.03225,1.61585,7.83537,-6.82927,-10.119,0.0838257,0.926873,-5.03049,30.7927,7.07317
6846.88,14.0411,16.6462,0,2.11001,9.44117,0.859812,0.213415,8.62805,-6.55488,-10.1525,-0.0263452,0.831072,-3.75,30.2744,7.2561
6846.89,13.9752,16.1729,0,2.42136,9.6663,0.63468,4.20732,8.53659,-6.76829,-10.0974,-0.0502954,0.855022,-2.31707,29.6646,6.98171
6846.9,13.8689,15.7137,0,2.10283,9.98723,1.0107,1.4939,4.02439,-6.58537,-10.0279,0.0167651,0.828677,-1.89024,29.7866,7.07317
6846.91,13.7367,15.2802,0,1.85375,9.93694,0.895737,-2.59146,1.40244,-6.7378,-10.004,0.0646655,0.859812,-2.13415,29.4817,7.62195
6846.92,13.5811,14.8518,0,1.66214,9.77647,0.59636,-2.2561,2.07317,-7.53049,-10.0735,0.107776,0.811912,-2.56098,29.4817,8.10976
6846.93,13.3948,14.4465,0,1.45138,9.54655,0.680186,0.792683,1.34146,-8.93293,-10.119,0.158071,0.843047,-2.53049,29.2988,8.44512
6846.94,13.2244,14.0426,0,1.77471,9.62319,0.546064,3.10976,1.34146,-11.372,-10.1525,0.280217,0.778381,-2.95732,27.7744,8.90244
6846.95,13.071,13.6002,0,1.94955,9.9537,0.902922,1.28049,-0.97561,-11.2805,-10.2243,0.313748,0.536484,-3.41463,26.8293,8.87195
6846.96,12.9473,13.1745,0,2.08606,9.68067,0.675395,-1.28049,-2.89634,-10.7622,-10.2698,0.335303,0.534089,-2.95732,25.4878,8.90244
6846.97,12.8677,12.7723,0,2.31598,9.48907,0.481399,0,-1.89024,-9.69512,-10.2866,0.273032,0.56283,-2.19512,23.3841,8.44512
6846.98,12.8152,12.3738,0,2.41178,9.58487,0.62031,0.640244,-0.0304878,-7.92683,-10.1597,0.251477,0.500559,-1.40244,22.0732,7.83537
6846.99,12.7618,11.96,0,2.3088,9.57768,0.524509,0.335366,0.304878,-6.95122,-9.98723,0.155676,0.354463,-0.914634,22.0427,7.53049
6847,12.6737,11.5822,0,2.00703,9.62558,0.409548,-0.487805,-0.97561,-6.98171,-9.92736,0.107776,0.438289,-0.762195,22.1037,7.16463
6847.01,12.5628,11.1784,0,1.88967,9.616,0.122146,0.701219,-0.304878,-8.14024,-9.90101,0.0550855,0.258662,-0.609756,22.4695,7.07317
6847.02,12.3931,10.7914,0,1.53281,9.27831,0.165256,2.80488,-0.213415,-10.8232,-9.9561,0.00718506,0.263452,-0.182927,22.1341,6.79878
6847.03,12.2619,10.4322,0,1.99266,9.81,0.637075,6.89024,-1.85976,-11.5244,-9.98484,0.0622705,0.318538,0.0304878,21.3415,6.98171
6847.04,12.1452,10.0866,0,2.14833,10.1094,0.881367,1.15854,-1.98171,-11.372,-9.96328,0.100591,0.313748,0.121951,20.0305,7.34756
6847.05,12.0427,9.74606,0,2.18186,9.88904,0.608335,-0.609756,1.43293,-11.0671,-9.97765,0.198787,0.275427,-0.152439,19.0854,7.62195
6847.06,11.9609,9.4157,0,2.31119,9.76449,0.498164,-1.15854,2.0122,-10.9451,-9.99921,0.261057,0.261057,-0.518293,18.5671,8.10976
6847.07,11.8876,9.12413,0,2.30161,9.60163,0.469424,-1.7378,2.80488,-10.5793,-10.0591,0.287402,0.376018,-1.37195,17.7439,8.96341
6847.08,11.8331,8.81729,0,2.38304,9.59684,0.285007,-0.884146,4.26829,-9.7561,-10.0711,0.270637,0.256267,-1.34146,16.5854,9.42073
6847.09,11.7982,8.52532,0,2.48124,9.35734,0.0910107,1.25,7.31707,-9.72561,-10.016,0.237107,0.265847,-1.55488,15.3659,9.60366
6847.1,11.7435,8.23507,0,2.36388,9.36213,-0.0167651,4.02439,9.84756,-10.4268,-9.95849,0.210762,0.220342,-1.37195,14.5122,10.4573
6847.11,11.695,7.9193,0,2.39502,9.69504,0.409548,5.12195,9.05488,-9.29878,-9.91538,0.158071,0.0574805,-1.40244,14.3293,10.4268
6847.12,11.6414,7.59143,0,2.20821,9.53936,0.452659,3.68902,9.2378,-8.20122,-9.96568,0.155676,-0.0502954,-1.79878,14.3902,10.2744
6847.13,11.5828,7.28643,0,2.08846,9.30226,0.443079,3.78049,9.57317,-8.04878,-9.99921,0.0766406,-0.00718506,-0.823171,14.0244,10.3659
6847.14,11.5135,6.99165,0,1.99745,9.40764,0.431104,4.08537,8.75,-7.89634,-10.0495,0.105381,-0.0167651,-1.18902,12.5,9.69512
6847.15,11.447,6.69938,0,2.04774,9.58487,0.304167,4.60366,6.89024,-7.89634,-9.99921,0.158071,-0.0574805,-1.18902,12.0122,9.39024
6847.16,11.3587,6.41869,0,1.89446,9.66151,0.289797,4.14634,5.79268,-8.29268,-9.92257,0.268242,-0.0574805,-1.31098,11.4329,10.061
6847.17,11.2874,6.15963,0,2.05493,9.83874,0.390388,3.62805,6.31098,-8.17073,-9.87467,0.320933,-0.0119751,-1.28049,10.8232,10.2439
6847.18,11.2286,5.9092,0,2.1148,9.75731,0.488584,1.31098,5.64024,-7.92683,-9.9082,0.292192,-0.0191602,-1.76829,10.7927,10.7622
6847.19,11.1817,5.65937,0,2.14594,9.77647,0.368833,2.5,6.89024,-7.13415,-9.87946,0.249082,-0.0598755,-1.67683,10.4878,11.128
6847.2,11.128,5.41195,0,1.98308,9.8555,0.64426,1.85976,7.80488,-5.88415,-9.94173,0.141306,-0.0934058,-1.64634,10.0915,11.1585
6847.21,11.0754,5.17387,0,1.93757,9.76928,0.723296,0.640244,5.18293,-5.54878,-9.96807,0.0550855,-0.0958008,-1.43293,9.87805,10.9146
6847.22,11.0355,4.94769,0,1.98547,9.7118,0.589175,0.640244,4.02439,-5.06098,-10.016,-0.00239502,-0.0862207,-1.82927,8.71951,10
6847.23,10.9925,4.66585,0,1.9256,9.72617,0.469424,-0.335366,2.43902,-4.72561,-10.0711,-0.0526904,-0.373623,-1.09756,8.71951,9.11585
6847.24,10.9504,4.37065,0,1.92081,9.53697,0.359253,0.365854,1.15854,-5.12195,-10.0998,-0.0981958,-0.483794,-0.121951,9.05488,8.29268
6847.25,10.9372,4.06464,0,2.08367,9.35495,0.237107,1.61585,-0.579268,-4.69512,-10.0256,-0.0335303,-0.579595,1.64634,9.57317,8.04878
6847.26,10.9404,3.79418,0,2.14594,9.30465,0.256267,3.17073,-1.43293,-4.05488,-10.0351,-0.0311353,-0.476609,2.62195,9.02439,7.59146
6847.27,10.9649,3.55727,0,2.27527,9.44356,0.380808,2.80488,-4.57317,-3.2622,-9.98723,0.00718506,-0.373623,3.23171,9.05488,7.28659
6847.28,11.0079,3.34485,0,2.32556,9.54894,0.277822,1.46341,-5.21341,-2.28659,-9.9561,0.0574805,-0.306563,3.93293,8.23171,7.22561
6847.29,11.0679,3.1569,0,2.31838,9.62319,0.134121,1.58537,-5.21341,-1.40244,-9.89143,0.107776,-0.234712,4.14634,7.77439,7.13415
6847.3,11.1913,2.99633,0,2.49801,9.62319,0.0287402,2.80488,-2.19512,-0.701219,-9.92736,0.112566,-0.148491,3.90244,7.13415,6.7378
6847.31,11.3001,2.83235,0,2.37586,9.52739,0.107776,3.38415,1.61585,-0.640244,-9.97047,0.0718506,-0.191602,3.75,6.34146,5.97561
6847.32,11.3451,2.66384,0,2.25132,9.30944,-0.114961,4.96951,6.67683,-1.89024,-9.92017,0.131726,-0.237107,3.59756,5.67073,5.70122
6847.33,11.4153,2.484,0,2.27287,9.82677,0.0167651,5.57927,10.2134,0.457317,-9.89383,0.277822,-0.311353,3.78049,5.09146,5.64024
6847.34,11.4152,2.29559,0,1.85614,10.0016,0.507744,1.92073,6.40244,2.13415,-9.92257,0.340093,-0.383203,3.32317,5.45732,6.37195
6847.35,11.3651,2.08769,0,1.59508,9.61361,0.244292,-0.457317,3.71951,1.31098,-10.0112,0.335303,-0.507744,2.68293,5.94512,6.31098
6847.36,11.2975,1.87744,0,1.72202,9.53697,0.253872,1.89024,3.32317,-0.152439,-10.1477,0.289797,-0.56283,2.13415,6.06707,6.15854
6847.37,11.2776,1.65995,0,1.89686,9.7142,0.433499,1.95122,1.82927,-1.28049,-10.1932,0.275427,-0.63468,1.40244,5.73171,5.94512
6847.38,11.2536,1.44622,0,1.9232,9.82437,0.433499,1.58537,0.884146,-1.95122,-10.1501,0.265847,-0.64905,0.97561,4.90854,5.7622
6847.39,11.223,1.2587,0,1.85854,9.86269,0.421523,0.884146,-0.579268,-1.55488,-10.1405,0.285007,-0.560435,0.579268,4.11585,6.0061
6847.4,11.1867,1.0691,0,1.85135,9.87227,0.440684,0.426829,-1.34146,-2.28659,-10.0854,0.263452,-0.570015,0.0914634,3.17073,6.31098
6847.41,11.1524,0.868047,0,1.86812,9.86269,0.404758,-0.335366,-1.70732,-2.43902,-10.0495,0.261057,-0.632285,-0.152439,2.89634,7.28659
6847.42,11.1118,0.678735,0,1.81782,9.7621,0.347278,-0.731707,-1.52439,-2.77439,-10.0519,0.232317,-0.617915,-0.640244,2.86585,7.86585
6847.43,11.0601,0.479722,0,1.77471,9.83156,0.399968,-1.12805,-2.83537,-3.38415,-10.0567,0.131726,-0.708926,-1.06707,3.17073,7.9878
6847.44,11.0187,0.305498,0,1.86572,9.78844,0.246687,-1.46341,-2.46951,-3.65854,-10.016,0.0814307,-0.62989,-1.25,3.04878,7.89634
6847.45,10.9757,0.146071,0,1.9232,9.71659,0.107776,-1.58537,-2.92683,-4.7561,-9.98244,0.131726,-0.570015,-1.43293,2.59146,8.07927
6847.46,10.9506,-0.0120594,0,2.10522,9.62319,0.122146,-1.70732,-2.37805,-5.36585,-9.90341,0.138911,-0.555645,-1.40244,2.2561,8.44512
6847.47,10.9485,-0.179163,0,2.26569,9.51062,0.0526904,-0.731707,-0.97561,-5.27439,-9.88904,0.150886,-0.56283,-1.21951,1.79878,8.59756
6847.48,10.9617,-0.355875,0,2.33993,9.49865,0.0263452,-0.365854,2.0122,-4.66463,-9.92736,0.124541,-0.632285,-1.4939,1.79878,8.87195
6847.49,10.9749,-0.558854,0,2.31359,9.42201,0.174836,0.182927,4.90854,-4.57317,-9.98963,0.0646655,-0.754431,-0.97561,1.70732,8.75
6847.5,10.9827,-0.746356,0,2.19863,9.49146,0.335303,0.548781,4.81707,-3.65854,-10.0232,0.0670605,-0.756826,-0.396341,1.79878,8.62805
6847.51,10.9734,-0.975199,0,2.08127,9.58966,0.225132,-0.182927,3.75,-3.65854,-10.0256,0.0958008,-0.785566,-0.0609756,1.03659,8.44512
6847.52,10.9604,-1.22329,0,2.04535,9.59924,0.301772,0.304878,2.7439,-3.59756,-10.0184,0.126936,-0.716111,0.609756,0.426829,8.29268
6847.53,10.9399,-1.51645,0,2.01661,9.74294,0.416733,-0.731707,1.67683,-3.65854,-9.9082,0.189207,-0.749641,0.701219,-0.213415,8.44512
6847.54,10.9138,-1.70134,0,1.93757,9.7118,0.486189,-1.89024,1.06707,-3.41463,-9.91059,0.165256,-0.64905,0.945122,-0.457317,8.53659
6847.55,10.8752,-1.87244,0,1.83698,9.7118,0.498164,-1.89024,-0.396341,-3.5061,-9.88904,0.117356,-0.704136,1.0061,-0.762195,8.81098
6847.56,10.8316,-2.01092,0,1.81542,9.68546,0.469424,-2.13415,-2.31707,-3.90244,-9.93933,0.0191602,-0.706531,0.823171,-1.03659,8.81098
6847.57,10.7942,-2.13109,0,1.86333,9.79323,0.411943,-2.71341,-2.53049,-3.68902,-9.97765,-0.0215552,-0.687371,0.823171,-1.03659,8.29268
6847.58,10.7496,-2.30594,0,1.84417,9.81479,0.237107,-3.75,-3.2622,-4.2378,-10.0088,-0.0550855,-0.821492,1.18902,-0.762195,8.44512
6847.59,10.7076,-2.51798,0,1.8777,9.60163,0.201182,-3.68902,-3.14024,-4.93902,-10.0758,-0.0263452,-0.914897,2.13415,-0.518293,7.89634
6847.6,10.6594,-2.74591,0,1.84417,9.50344,0.119751,-2.9878,-2.28659,-5.4878,-10.0567,0.0862207,-0.914897,2.53049,-0.243902,7.86585
6847.61,10.6181,-2.9537,0,1.93039,9.616,0.229922,-2.65244,-3.23171,-5.64024,-10.0974,0.174836,-0.926873,2.9878,-0.243902,8.10976
6847.62,10.5901,-3.08366,0,2.03816,9.62319,0.258662,-1.82927,-4.08537,-5.60976,-10.0878,0.215552,-0.843047,2.9878,-0.579268,8.29268
6847.63,10.5732,-3.16906,0,2.12438,9.68067,0.304167,-1.95122,-4.48171,-5.39634,-10.1022,0.148491,-0.816702,2.62195,-1.25,8.23171
6847.64,10.5553,-3.22452,0,2.11959,9.69025,0.308958,-2.53049,-5.60976,-5.45732,-10.0447,0.136516,-0.764011,2.37805,-2.04268,8.20122
6847.65,10.5428,-3.28256,0,2.14594,9.64714,0.304167,-3.01829,-5.33537,-5.36585,-10.0232,0.0526904,-0.799937,1.79878,-2.68293,7.92683
6847.66,10.5362,-3.36846,0,2.18665,9.58487,0.229922,-3.14024,-4.02439,-5.42683,-10.0064,0.00239502,-0.895737,1.82927,-2.10366,7.40854
6847.67,10.5199,-3.48681,0,2.07648,9.53457,0.280217,-2.86585,-2.2561,-5.27439,-9.96568,0.00479004,-0.984353,2.16463,-1.61585,7.22561
6847.68,10.4905,-3.60968,0,1.95673,9.68306,0.344883,-3.29268,-1.95122,-4.87805,-9.93454,0.0718506,-0.950823,2.34756,-1.06707,7.04268
6847.69,10.4499,-3.71908,0,1.93039,9.70462,0.378413,-4.32927,-3.9939,-5.70122,-9.92017,0.184417,-0.895737,2.2561,-0.762195,7.56098
6847.7,10.4111,-3.82283,0,1.97589,9.69264,0.294587,-4.5122,-4.84756,-6.15854,-9.88904,0.241897,-0.859812,1.85976,-0.457317,8.68902
6847.71,10.3673,-3.89163,0,2.03577,9.7118,0.256267,-4.14634,-4.60366,-7.37805,-9.97047,0.222737,-0.835862,1.92073,-0.701219,8.78049
6847.72,10.3355,-3.91855,0,2.15791,9.67827,0.306563,-4.45122,-4.02439,-7.7439,-10.0016,0.208367,-0.771196,1.06707,-1.55488,8.96341
6847.73,10.3131,-3.96117,0,2.25611,9.59445,0.263452,-4.39024,-2.9878,-8.20122,-10.004,0.232317,-0.840652,0.487805,-1.92073,8.90244
6847.74,10.3025,-3.99333,0,2.31119,9.52978,0.280217,-4.29878,-1.67683,-7.86585,-9.95131,0.193997,-0.811912,-0.0609756,-2.2561,8.84146
6847.75,10.3027,-4.04857,0,2.33514,9.4723,0.289797,-3.5061,-1.21951,-7.22561,-9.89383,0.193997,-0.900527,-0.701219,-2.34756,8.90244
6847.76,10.3033,-4.09714,0,2.32077,9.54176,0.402363,-3.56707,-0.823171,-6.82927,-9.92496,0.112566,-0.888552,-0.426829,-2.34756,8.44512
6847.77,10.3061,-4.14919,0,2.31838,9.58008,0.292192,-4.05488,-0.701219,-6.46341,-9.85072,0.170046,-0.900527,-0.731707,-2.31707,8.47561
6847.78,10.3065,-4.22598,0,2.33514,9.58487,0.232317,-4.2378,-0.426829,-6.89024,-9.81479,0.220342,-0.953218,-0.487805,-1.55488,8.65854
6847.79,10.3074,-4.24623,0,2.27766,9.54655,0.256267,-4.32927,-0.457317,-6.28049,-9.82916,0.265847,-0.787961,-0.609756,-1.40244,9.29878
6847.8,10.3025,-4.25794,0,2.23934,9.5681,0.308958,-4.42073,0.914634,-6.37195,-9.88664,0.244292,-0.768801,-1.79878,-1.21951,9.2378
6847.81,10.2866,-4.26331,0,2.16989,9.60403,0.332908,-5.09146,0.365854,-6.58537,-9.90101,0.208367,-0.756826,-2.95732,-1.76829,9.20732
6847.82,10.275,-4.28384,0,2.24174,9.59445,0.364043,-5.2439,-0.182927,-7.04268,-9.86988,0.285007,-0.807122,-3.59756,-1.82927,8.81098
6847.83,10.2862,-4.30916,0,2.4022,9.57529,0.249082,-4.93902,0.487805,-6.64634,-9.85072,0.340093,-0.826282,-3.9939,-1.89024,8.75
6847.84,10.3132,-4.33557,0,2.50519,9.56092,0.229922,-3.84146,2.7439,-6.25,-9.76689,0.347278,-0.826282,-4.5122,-1.92073,8.9939
6847.85,10.3603,-4.33875,0,2.58902,9.46512,0.328118,-3.84146,5.21341,-5.45732,-9.73575,0.320933,-0.749641,-4.87805,-1.7378,8.96341
6847.86,10.4435,-4.3429,0,2.7423,9.2831,0.265847,-4.11585,7.16463,-4.32927,-9.77168,0.213157,-0.756826,-5.70122,-1.89024,9.02439
6847.87,10.5666,-4.33872,0,2.8836,9.11065,0.270637,-3.56707,9.05488,-3.32317,-9.80281,0.193997,-0.732876,-5.60976,-1.55488,8.2622
6847.88,10.7903,-4.31847,0,3.10634,8.98372,0.241897,-2.59146,10.2439,-1.85976,-9.86748,0.158071,-0.684976,-6.21951,-1.61585,7.65244
6847.89,11.379,-4.32416,0,3.44883,9.00288,0.306563,-1.58537,9.54268,-0.213415,-9.9058,0.170046,-0.768801,-5.27439,-1.76829,6.98171
6847.9,11.6697,-4.31744,0,3.80569,9.10347,0.268242,-1.03659,7.83537,2.31707,-9.8076,0.246687,-0.718506,-4.69512,-2.5,6.76829
6847.91,12.0122,-4.28512,0,4.31104,8.87355,0.00958008,0.0304878,9.35976,5.70122,-9.73815,0.304167,-0.608335,-4.29878,-3.32317,6.79878
6847.92,12.4411,-4.25069,0,4.57449,8.52148,-0.0239502,1.82927,10.2134,10.6707,-9.74054,0.263452,-0.589175,-3.68902,-4.26829,6.70732
6847.93,12.9574,-4.21853,0,4.93134,8.33227,-0.0359253,2.56098,12.1646,15.5793,-9.70701,0.196392,-0.589175,-2.80488,-5.27439,6.46341
6847.94,13.5611,-4.19814,0,5.17803,8.16223,0,4.60366,14.3293,21.9512,-9.60882,0.172441,-0.627495,-1.28049,-5.97561,5.91463
6847.95,14.2217,-4.16153,0,5.30736,8.33467,0.263452,6.28049,16.8902,28.7805,-9.52739,0.124541,-0.550855,0.97561,-6.25,5.33537
6847.96,14.9073,-4.13322,0,4.58646,8.43765,0.459844,4.84756,9.81707,40.7622,-9.36692,0.205972,-0.570015,3.17073,-6.64634,5.06098
6847.97,15.6192,-4.09099,0,5.29778,9.26394,0.522114,5.79268,21.6768,42.3171,-9.22801,0.387993,-0.500559,5.36585,-6.95122,4.63415
6847.98,16.3493,-4.03881,0,5.27862,9.68785,0.464634,2.46951,23.8415,48.0488,-9.31184,0.440684,-0.457449,6.85976,-7.43902,4.17683
6847.99,17.0791,-3.99383,0,5.13732,9.88664,0.00239502,1.7378,29.2378,51.7988,-9.45075,0.502954,-0.486189,7.89634,-8.32317,3.68902
6848,17.7949,-3.9622,0,4.81878,10.1573,-0.232317,1.52439,36.0061,56.0976,-9.72857,0.646655,-0.550855,8.59756,-9.20732,3.2622
6848.01,18.4966,-3.91393,0,4.43079,10.2435,-0.433499,0,42.1037,60.1829,-10.0591,0.819097,-0.490979,9.02439,-10.3049,3.56707
6848.02,19.1969,-3.88767,0,4.04758,10.3082,-0.220342,-0.0609756,40.9451,65.4573,-10.4111,0.871787,-0.60115,9.32927,-10.8841,4.35976
6848.03,19.8809,-3.90989,0,4.09309,10.6171,-0.189207,5.64024,40.2134,65.9451,-10.6411,0.766406,-0.838257,8.87195,-11.1585,5
6848.04,20.5576,-3.96816,0,4.04998,10.8207,0.186812,6.25,38.9939,67.7439,-10.7009,0.696951,-1.01788,9.66463,-10.5793,6.15854
6848.05,21.2261,-4.01524,0,3.76976,10.9788,0.459844,4.93902,37.8659,71.4939,-10.8039,0.59157,-0.984353,9.63415,-9.90854,6.58537
6848.06,21.8969,-4.0904,0,3.559,10.7896,0.684976,4.90854,36.4939,74.5122,-10.6938,0.6251,-1.11608,9.66463,-9.11585,6.89024
6848.07,22.537,-4.15214,0,3.19017,10.4423,0.998723,7.2561,33.9634,75.3354,-10.5309,0.613125,-1.04902,9.02439,-8.01829,7.07317
6848.08,23.118,-4.20806,0,2.84768,10.4207,1.11129,9.20732,29.4512,74.0854,-10.3992,0.680186,-1.02028,8.32317,-8.01829,6.98171
6848.09,23.6464,-4.26207,0,2.74709,10.7536,1.23344,9.90854,25.3354,71.8598,-10.3609,0.718506,-1.01788,7.43902,-7.95732,6.79878
6848.1,24.1084,-4.30043,0,2.6465,10.7608,1.32445,9.90854,19.4817,67.1951,-10.4902,0.807122,-0.967588,6.34146,-7.95732,7.04268
6848.11,24.5064,-4.33481,0,2.52435,10.5093,1.41546,10.8841,11.4634,62.2561,-10.5812,0.866997,-0.965193,5.42683,-8.81098,7.62195
6848.12,24.8813,-4.3624,0,2.77343,10.4375,1.36037,10.7012,4.54268,57.8963,-10.6195,0.881367,-0.943638,4.48171,-9.35976,8.9939
6848.13,25.2616,-4.35593,0,3.16382,10.4614,1.04423,8.68902,3.41463,55.2439,-10.6028,0.869392,-0.787961,3.62805,-10.3659,10.3354
6848.14,25.661,-4.33675,0,3.5566,10.1932,0.895737,6.67683,6.92073,53.0488,-10.392,0.814307,-0.713716,2.40854,-11.5549,12.1646
6848.15,26.0847,-4.30422,0,3.98771,9.86748,0.900527,6.09756,12.2256,50.7012,-10.1621,0.759221,-0.63468,1.52439,-11.8293,13.1707
6848.16,26.5282,-4.28202,0,4.25595,9.59924,1.03465,7.2561,17.1646,49.6951,-10.0471,0.720901,-0.66821,0.945122,-12.4085,14.1159
6848.17,27.0073,-4.26609,0,4.5673,9.39087,1.36516,7.04268,21.7073,50.0915,-9.80521,0.742456,-0.675395,0.335366,-12.2256,14.0244
6848.18,27.495,-4.25473,0,4.61281,9.1849,1.55197,5.30488,26.8598,50.4573,-9.73575,0.752036,-0.687371,0.426829,-11.9817,14.2988
6848.19,27.9919,-4.23886,0,4.61999,9.02443,1.70286,4.2378,31.2805,51.4939,-9.6663,0.754431,-0.661025,0.243902,-11.7378,14.0854
6848.2,28.4982,-4.21036,0,4.6176,8.7993,1.81303,3.10976,34.3293,52.2866,-9.64953,0.759221,-0.603545,0.243902,-12.0732,13.75
6848.21,29.0233,-4.20155,0,4.72058,8.71548,1.90644,0.27439,33.7805,53.689,-9.61121,0.771196,-0.680186,0.365854,-12.1951,13.4756
6848.22,29.5797,-4.20274,0,4.89781,8.54064,1.61664,-0.823171,32.5305,55.122,-9.57289,0.790356,-0.718506,0.213415,-12.2561,13.2317
6848.23,30.1492,-4.18764,0,4.92177,8.38257,1.54239,-1.55488,30.0915,56.4024,-9.56092,0.833467,-0.64905,-0.121951,-12.561,12.6829
6848.24,30.7412,-4.15456,0,4.75411,8.11433,1.69567,-4.39024,24.6341,59.9695,-9.51062,0.893342,-0.56762,-0.243902,-12.7744,13.0183
6848.25,31.3169,-4.13943,0,4.84033,8.15025,1.35319,-3.53659,25.1829,58.811,-9.4747,0.883762,-0.63468,-1.09756,-12.1037,12.439
6848.26,31.8525,-4.1609,0,4.49306,7.85806,1.2981,-3.65854,24.878,57.8354,-9.39087,0.866997,-0.778381,-1.52439,-11.4329,11.6768
6848.27,32.3277,-4.19616,0,4.09309,7.73591,1.35079,-3.14024,18.9939,56.5854,-9.38848,0.850232,-0.838257,-1.7378,-10.3049,10.8537
6848.28,32.7216,-4.2387,0,3.7027,7.70238,1.35558,-3.90244,10.7622,53.7805,-9.39087,0.881367,-0.874182,-1.92073,-9.69512,10.1524
6848.29,33.0489,-4.29585,0,3.58295,7.72394,1.14003,-4.90854,3.32317,49.3902,-9.41003,0.917292,-0.943638,-2.07317,-9.11585,9.20732
6848.3,33.3447,-4.34631,0,3.60211,7.51078,1.00112,-4.96951,-3.35366,45.3354,-9.45554,0.876577,-0.929268,-1.92073,-8.71951,8.68902
6848.31,33.6352,-4.39955,0,3.78413,7.35032,1.11368,-4.32927,-10.3963,42.1037,-9.47949,0.878972,-0.950823,-2.04268,-7.80488,7.92683
6848.32,33.9795,-4.47353,0,4.38768,7.2138,1.14242,-5.64024,-15.3963,39.878,-9.50104,0.799937,-1.04902,-2.53049,-7.2561,7.04268
6848.33,34.3893,-4.55525,0,5.03194,7.09884,0.864602,-5.7622,-19.2073,39.0549,-9.46991,0.799937,-1.08973,-2.83537,-6.7378,6.43293
6848.34,34.8368,-4.63149,0,5.37203,6.87131,0.783171,-2.80488,-20.8537,38.2622,-9.50344,0.809517,-1.08255,-3.41463,-6.0061,5.73171
6848.35,35.2825,-4.69103,0,5.53968,6.85934,0.936453,0.97561,-21.0061,37.1341,-9.51062,0.878972,-1.02507,-3.96341,-5.73171,4.96951
6848.36,35.6869,-4.73859,0,5.37442,6.92161,1.21906,1.58537,-21.6768,36.0671,-9.58008,0.883762,-0.991538,-5.51829,-5.54878,4.26829
6848.37,36.062,-4.7989,0,5.3385,7.02459,1.04423,-1.82927,-20.3963,35.122,-9.62558,0.943638,-1.0562,-6.98171,-4.90854,3.81098
6848.38,36.4047,-4.90176,0,5.12774,6.83778,0.797541,-5.2439,-17.2256,33.3232,-9.6184,0.965193,-1.23823,-7.9878,-4.17683,3.04878
6848.39,36.7217,-5.00778,0,4.98883,6.48811,0.469424,-5.42683,-16.4024,30,-9.57529,1.00112,-1.22864,-9.39024,-2.92683,2.65244
6848.4,36.9859,-5.1212,0,4.86907,6.37554,0.419128,-2.68293,-19.0549,25.6402,-9.66151,1.07536,-1.25499,-10.3963,-2.28659,2.10366
6848.41,37.1848,-5.2073,0,4.74214,6.40428,0.447869,-0.548781,-22.2866,21.25,-9.70941,1.07776,-1.18074,-11.372,-2.22561,1.37195
6848.42,37.3426,-5.24443,0,4.7613,6.32046,0.294587,1.09756,-22.2256,16.4939,-9.74294,1.03225,-1.02267,-12.622,-2.19512,0.945122
6848.43,37.474,-5.29932,0,4.81878,6.09293,0.134121,3.93293,-19.6646,11.372,-9.75012,0.948428,-1.07536,-13.9634,-1.7378,0.0914634
6848.44,37.5503,-5.40538,0,4.85949,6.18873,0.304167,8.07927,-17.8354,6.40244,-9.70941,0.931663,-1.17356,-15.7012,-1.03659,-0.731707
6848.45,37.6368,-5.60722,0,5.23072,6.42344,0.409548,8.62805,-15.1829,2.16463,-9.5705,0.960403,-1.21188,-17.0122,-0.182927,-1.37195
6848.46,37.8258,-5.786,0,5.8199,6.65336,0.217947,8.75,-16.8293,-1.06707,-9.58008,0.938848,-1.24062,-17.7744,0.335366,-1.52439
6848.47,37.9166,-5.92592,0,6.26537,6.7827,0.213157,9.2378,-15.3963,-2.83537,-9.5705,0.907712,-1.22386,-18.811,0.487805,-1.58537
6848.48,38.0141,-6.09177,0,6.67252,6.84976,0.440684,9.63415,-12.378,-3.75,-9.61121,0.874182,-1.2981,-19.1159,0.426829,-1.31098
6848.49,38.0861,-6.26747,0,6.60786,6.81144,0.570015,8.93293,-11.7988,-5.30488,-9.6639,0.862207,-1.41546,-19.5122,0.701219,-1.18902
6848.5,38.1481,-6.47305,0,6.86892,6.95993,0.440684,7.92683,-8.17073,-7.04268,-9.69743,0.912502,-1.48012,-19.2988,0.487805,-0.731707
6848.51,38.1742,-6.71369,0,6.91682,7.14913,0.306563,7.37805,-2.16463,-9.39024,-9.7621,0.907712,-1.53042,-18.5671,-0.152439,0
6848.52,38.1694,-6.91421,0,6.95993,7.27128,0.390388,7.95732,2.34756,-11.8598,-9.87706,0.799937,-1.6813,-17.3476,-0.762195,1.21951
6848.53,38.151,-7.01617,0,7.05094,7.32397,0.526904,8.14024,6.52439,-13.5976,-10.0256,0.550855,-1.59748,-16.1585,-1.89024,2.13415
6848.54,38.1428,-7.11768,0,7.24014,7.30481,0.56762,9.14634,10.9756,-14.2988,-10.1333,0.385598,-1.66693,-14.9085,-2.43902,2.92683
6848.55,38.1446,-7.21865,0,7.37427,7.31678,0.61552,9.7561,14.878,-14.2683,-10.2267,0.270637,-1.71004,-13.811,-2.65244,3.93293
6848.56,38.1222,-7.32346,0,7.02699,7.23056,0.792751,10.4573,17.6524,-14.6037,-10.2818,0.282612,-1.74118,-12.622,-2.2561,4.42073
6848.57,38.0625,-7.48532,0,6.35638,6.86413,0.792751,10.6707,20.8537,-15.6402,-10.2866,0.452659,-1.89686,-12.1341,-1.18902,4.87805
6848.58,37.9291,-7.76322,0,5.69536,6.69168,0.673001,12.6829,23.4146,-18.3841,-10.2986,0.661025,-2.0214,-11.8598,0.0304878,5.12195
6848.59,37.7078,-7.96012,0,5.16845,6.55277,0.66821,15.2439,22.8659,-23.2622,-10.2818,0.855022,-2.15791,-11.8902,1.4939,5.82317
6848.6,37.3973,-8.13684,0,4.88105,6.55517,0.742456,16.7073,21.3415,-29.5732,-10.3058,1.06099,-2.20102,-12.622,2.34756,6.52439
6848.61,37.0259,-8.26908,0,4.90261,6.56475,0.864602,18.5976,18.2927,-36.5854,-10.3944,1.24541,-2.05732,-12.7439,2.2561,7.59146
6848.62,36.5257,-8.3989,0,4.81159,7.12279,1.29331,19.2073,12.7744,-44.939,-10.5764,1.42025,-2.04535,-12.6829,1.12805,9.2378
6848.63,35.8831,-8.55292,0,5.19001,8.56219,1.5376,15.6707,12.5915,-54.7561,-10.7632,1.40109,-2.07888,-11.4024,0.0609756,11.8598
6848.64,35.1219,-8.66923,0,5.4343,10.0854,1.4897,11.4939,3.90244,-62.2256,-10.9476,1.2023,-2.13157,-9.54268,-0.914634,14.1768
6848.65,34.3581,-8.77985,0,5.69536,10.8399,0.893342,9.54268,-13.0488,-62.8354,-11.0865,0.730481,-2.20102,-6.92073,-1.52439,16.0976
6848.66,33.7373,-8.82767,0,6.36836,10.5596,0.404758,11.9512,-31.0366,-56.6768,-11.247,0.172441,-1.96871,-2.7439,-1.89024,16.4939
6848.67,33.2236,-8.78587,0,6.91921,10.6674,1.0562,10,-51.372,-50.8537,-11.5823,-0.246687,-1.59269,1.25,-1.82927,15.2439
6848.68,32.8808,-8.63661,0,8.90708,10.4974,0.943638,4.20732,-62.1646,-49.4512,-12.2026,-0.831072,-1.07776,7.04268,-4.11585,13.5366
6848.69,32.6913,-8.47081,0,10.9596,10.016,0.0814307,6.89024,-70.1219,-49.3293,-12.4062,-1.19751,-0.972378,13.0793,-6.21951,11.4329
6848.7,32.5855,-8.31188,0,12.5283,10.5549,0.63947,12.5,-59.8476,-45.8841,-12.3176,-1.42983,-0.967588,19.7561,-6.76829,9.66463
6848.71,32.5563,-8.20832,0,13.084,11.8649,1.88967,10.0305,-38.872,-34.0244,-11.944,-1.65496,-1.19751,25.7012,-5.18293,8.90244
6848.72,32.6268,-8.06128,0,11.6446,12.3918,2.48124,-6.61585,-20.8841,-14.5732,-11.5895,-1.60227,-1.06339,30.4268,-0.121951,8.32317
6848.73,32.7888,-7.85318,0,8.06882,10.4758,1.82261,-20.122,-8.62805,6.37195,-11.0698,-1.152,-0.543669,32.7439,4.57317,9.17683
6848.74,32.765,-7.48034,0,3.70031,8.52627,0.191602,-26.4939,3.01829,16.6159,-10.4758,-0.222737,0.292192,30.8537,7.92683,10.0305
6848.75,32.1696,-6.97001,0,-0.263452,6.92879,-0.627495,-20.4573,19.3598,10.6098,-10.2028,0.981958,0.974773,25.8841,10.3354,11.4939
6848.76,30.7673,-6.38321,0,-3.01772,6.21029,0.579595,-1.0061,22.8049,-5.39634,-10.2459,2.05732,1.42264,17.6829,11.4939,12.439
6848.77,29.2047,-5.76668,0,-4.84512,7.13237,2.39023,5.7622,-3.29268,-26.8902,-10.5525,2.94587,1.71723,9.05488,11.5549,12.8049
6848.78,27.5328,-5.1254,0,-4.7589,8.36101,2.65608,-7.2561,-49.5732,-50.4878,-10.7321,3.48954,1.98308,1.12805,8.68902,11.8293
6848.79,25.9712,-4.45963,0,-2.56267,8.8951,0.395178,-27.622,-85.5793,-70.3659,-10.6339,3.7985,2.19623,-6.4939,4.96951,10.7012
6848.8,24.6623,-3.62672,0,0.184417,9.19687,-2.96503,-30.7012,-88.9329,-82.8963,-10.1621,3.54223,2.48843,-13.4451,1.31098,9.42073
6848.81,23.5825,-2.80744,0,2.02379,9.43159,-3.92544,-16.4939,-76.0671,-84.5732,-9.63277,2.81175,2.41418,-19.2683,-1.95122,8.10976
6848.82,22.6792,-2.106,0,3.38416,10.2291,-2.72074,2.40854,-59.2378,-81.4024,-9.34776,1.62861,2.36628,-22.0732,-3.93293,6.79878
6848.83,21.9226,-1.50635,0,4.38768,11.2877,-1.2981,8.04878,-39.4207,-74.2683,-9.36213,0.701741,2.14833,-23.0183,-6.06707,5.03049
6848.84,21.2155,-0.97998,0,3.76258,11.2135,-0.469424,2.65244,-30.6707,-65.2744,-9.35974,-0.270637,1.94236,-20.7622,-7.13415,3.9939
6848.85,20.6898,-0.505676,0,4.80201,10.2267,-0.843047,2.95732,-7.7439,-61.6768,-9.43638,-0.958008,1.825,-17.8049,-7.59146,3.56707
6848.86,20.1624,-0.122859,0,3.9925,9.54894,-0.847837,1.89024,2.53049,-57.8963,-9.4723,-1.48731,1.51844,-14.2988,-6.98171,3.87195
6848.87,19.6099,0.192793,0,3.40811,9.35734,-0.512534,6.28049,9.90854,-56.0671,-9.4723,-1.76752,1.28613,-9.90854,-5.2439,4.54268
6848.88,19.0191,0.433656,0,2.90276,9.53697,0.215552,3.2622,14.878,-54.8171,-9.40764,-1.74597,0.934058,-4.54268,-3.10976,5.97561
6848.89,18.4168,0.686221,0,2.45729,9.22562,-0.0958008,3.23171,13.9024,-53.0793,-9.38369,-1.56634,0.687371,0,-1.31098,7.2561
6848.9,17.8093,0.963717,0,2.35909,9.25436,-0.296982,8.17073,12.3476,-53.5976,-9.4244,-1.26697,0.56762,4.57317,0.518293,7.95732
6848.91,17.1299,1.19617,0,1.72202,9.63516,0.177231,9.32927,6.58537,-53.6585,-9.5226,-0.840652,0.66821,7.7439,0.97561,7.7439
6848.92,16.3601,1.37637,0,0.857417,9.52499,0.148491,9.60366,-0.0609756,-54.0854,-9.78366,-0.459844,0.641865,10.0915,0.914634,6.7378
6848.93,15.4387,1.49103,0,-0.292192,9.6663,0.170046,8.07927,-8.47561,-57.1037,-10.083,-0.0718506,0.56762,11.4634,0.945122,4.48171
6848.94,14.512,1.55814,0,-0.150886,9.77407,0.296982,-1.64634,-12.5915,-61.25,-10.2986,0.198787,0.490979,12.439,1.15854,1.76829
6848.95,13.5852,1.59706,0,0.215552,10.5405,0.735271,-6.34146,-18.2317,-67.3476,-10.3824,0.376018,0.407153,12.2256,0.914634,-0.97561
6848.96,12.7105,1.68366,0,0.804727,10.5549,0.502954,-13.811,-23.2927,-70.4268,-10.2555,0.524509,0.486189,11.372,0.243902,-3.17073
6848.97,11.8538,1.79355,0,1.0083,10.2339,0.0215552,-17.5,-31.311,-72.9573,-10.0639,0.61073,0.555645,9.63415,-0.518293,-4.20732
6848.98,11.0304,1.91312,0,1.44899,10.0064,-0.308958,-19.6646,-37.4695,-76.6463,-9.78126,0.63468,0.64426,7.37805,-1.31098,-4.63415
6848.99,10.2917,1.99672,0,2.03337,9.49625,-0.881367,-18.4756,-46.4634,-77.5305,-9.53218,0.57241,0.603545,5.64024,-2.40854,-3.71951
6849,9.63567,2.05523,0,2.46448,9.13939,-1.30529,-11.4634,-50.6098,-76.7378,-9.33579,0.476609,0.536484,4.05488,-3.17073,-2.80488
6849.01,9.05284,2.06864,0,2.95545,9.23999,-1.33163,-5.09146,-49.0549,-76.0061,-9.16813,0.387993,0.373623,3.23171,-3.20122,-2.04268
6849.02,8.52425,2.05924,0,3.18298,9.3789,-1.26697,-1.28049,-44.3293,-73.7195,-9.09389,0.232317,0.292192,2.62195,-3.47561,-0.884146
6849.03,8.02463,2.04481,0,3.10634,9.43877,-1.0586,1.79878,-37.1341,-70.7622,-9.0388,-0.0239502,0.268242,2.62195,-4.05488,-0.548781
6849.04,7.5857,2.01109,0,3.32908,9.37171,-0.958008,1.98171,-27.6524,-68.3232,-9.06754,-0.273032,0.191602,2.95732,-4.45122,-1.03659
6849.05,7.24485,1.95169,0,3.84161,9.06754,-1.23104,2.83537,-17.5305,-66.1585,-9.07712,-0.452659,0.0838257,3.59756,-4.93902,-2.04268
6849.06,6.90957,1.88242,0,3.60929,8.98611,-1.25499,6.52439,-7.80488,-64.0854,-9.08431,-0.613125,0.0335303,4.87805,-5.27439,-3.07927
6849.07,6.56272,1.78429,0,3.33387,9.35016,-0.637075,8.23171,4.08537,-61.3415,-9.07233,-0.682581,-0.0910107,6.55488,-5.33537,-4.35976
6849.08,6.21563,1.61839,0,3.10874,9.8579,-0.153281,5.67073,13.9634,-57.7439,-9.00048,-0.764011,-0.371228,8.07927,-5.51829,-4.60366
6849.09,5.85924,1.39971,0,2.60578,9.73336,-0.0311353,1.79878,18.5671,-54.2683,-8.9454,-0.785566,-0.56283,10.4268,-4.26829,-4.48171
6849.1,5.47713,1.08449,0,2.10522,9.36213,-0.208367,2.2561,20.9756,-52.8963,-8.87594,-0.735271,-0.718506,12.1037,-2.68293,-3.5061
6849.11,5.05889,0.146182,0,1.70525,9.26873,-0.0718506,3.81098,21.8293,-52.7744,-8.80409,-0.66342,-0.871787,13.811,-0.670732,-2.0122
6849.12,4.57568,-1.20445,0,1.2023,9.33339,0.165256,1.34146,18.3232,-53.9634,-8.76338,-0.452659,-0.960403,14.7561,0.152439,0.243902
6849.13,4.06566,-2.24544,0,1.1065,9.25675,0.0790356,-0.853659,12.0732,-56.6159,-8.66997,-0.249082,-0.924478,15.6707,0.243902,2.89634
6849.14,3.59861,-3.28644,0,1.50647,9.34537,-0.282612,-0.731707,7.53049,-58.0488,-8.5598,-0.0670605,-1.04902,16.0061,0.304878,5.54878
6849.15,3.11967,-4.291,0,1.41785,9.37171,-0.131726,0,2.92683,-59.0854,-8.47358,0.150886,-1.02507,16.1585,-0.0914634,8.01829
6849.16,2.63301,-4.84335,0,1.35079,9.2352,-0.0143701,-0.518293,-1.18902,-60.2744,-8.47837,0.268242,-1.03465,15.8537,-0.457317,10.2134
6849.17,2.17102,-5.43137,0,1.54239,9.29028,-0.198787,-0.609756,-1.25,-61.0061,-8.48795,0.289797,-1.04902,15.5183,-0.121951,11.8598
6849.18,1.63392,-5.82138,0,1.24541,8.943,-0.167651,-3.29268,-8.32317,-66.5549,-8.62686,0.476609,-1.07057,15,-0.121951,13.2927
6849.19,1.13084,-6.01856,0,1.62861,9.27591,0.179626,-4.11585,-6.18902,-68.3232,-8.73464,0.438289,-1.05381,15.122,0.335366,13.872
6849.2,0.782345,-6.05471,0,2.9315,9.87946,-0.414338,-3.90244,0.365854,-66.9817,-8.84002,0.347278,-0.986748,15.0305,1.12805,14.1463
6849.21,0.377032,-6.07787,0,2.24413,9.44356,-0.301772,-4.26829,-0.304878,-67.0427,-8.8496,0.280217,-0.986748,14.4207,1.7378,14.3293
6849.22,-0.00351251,-6.13138,0,2.38065,9.9058,-0.404758,-5.39634,0.27439,-65.6402,-8.81367,0.0670605,-1.11368,14.0549,3.29268,14.2988
6849.23,-0.367353,-6.23263,0,2.10283,9.89622,-0.687371,-3.2622,-0.396341,-61.6159,-8.90947,-0.160466,-1.35079,14.1159,5.64024,13.9329
6849.24,-0.709002,-6.34479,0,2.01182,9.8603,-0.795146,2.37805,2.13415,-59.1463,-9.09628,-0.246687,-1.4442,14.3598,8.20122,13.3841
6849.25,-1.13441,-6.42584,0,1.38911,9.2328,-0.514929,0.121951,5.18293,-62.3171,-9.3765,-0.177231,-1.37474,14.0854,10.1829,13.4451
6849.26,-1.69386,-6.42628,0,0.866997,8.57177,-0.512534,-5.21341,2.86585,-71.189,-9.77886,-0.0263452,-1.09452,12.7744,10.2134,13.5061
6849.27,-2.12494,-6.36778,0,1.95673,9.21125,-1.07057,-2.28659,5.97561,-71.9207,-10.2195,0.0622705,-0.876577,10.9146,9.42073,13.2317
6849.28,-2.4291,-6.3154,0,2.89079,9.85072,-1.38193,3.04878,11.2195,-68.75,-10.4734,0.263452,-0.917292,8.5061,8.10976,12.5
6849.29,-2.82239,-6.30765,0,1.96871,9.5202,-0.282612,-0.243902,9.48171,-68.9329,-10.6507,0.373623,-1.13524,5.97561,7.19512,11.189
6849.3,-3.10309,-6.32511,0,2.51238,10.277,-0.689766,-3.81098,11.0976,-62.439,-10.883,0.469424,-1.28134,4.5122,6.7378,9.08537
6849.31,-3.27621,-6.40213,0,2.86684,10.5692,-1.12566,0.579268,14.6951,-54.9695,-11.0051,0.431104,-1.59269,4.20732,6.92073,6.98171
6849.32,-3.38119,-6.58224,0,2.9818,11.0674,-0.802332,4.32927,15.122,-48.1707,-11.0386,0.289797,-2.12678,4.48171,9.02439,5.30488
6849.33,-3.30268,-6.82503,0,4.03561,11.9775,-0.943638,6.61585,14.2073,-36.8902,-11.0171,0.107776,-2.47406,6.18902,11.4329,3.78049
6849.34,-3.21684,-7.11454,0,3.33147,11.4578,0.126936,2.68293,7.86585,-31.0671,-10.9548,-0.241897,-2.74469,8.38415,14.1768,3.44512
6849.35,-3.06227,-7.39366,0,3.52547,11.1249,0.0526904,-1.52439,-0.426829,-26.6768,-11.1919,-0.816702,-2.80696,10.7927,16.8902,2.19512
6849.36,-2.83437,-7.50769,0,3.86796,10.8734,0.0287402,-2.04268,-6.61585,-22.9573,-11.4123,-1.11608,-2.05014,10.7317,17.9573,1.64634
6849.37,-2.54433,-7.39728,0,4.23439,10.8925,0.141306,-3.96341,-12.1037,-19.5427,-12.114,-0.898132,-0.981958,8.59756,17.2561,0.365854
6849.38,-2.16733,-6.97802,0,4.82357,10.9261,0.138911,-6.79878,-16.4939,-15.3354,-13.0553,-0.229922,0.742456,3.75,13.1098,-1.82927
6849.39,-1.67988,-6.56156,0,5.54926,10.8351,0.0910107,-7.80488,-18.628,-10.0305,-13.9558,0.687371,0.878972,-5.97561,13.1707,-4.11585
6849.4,-1.01187,-6.25355,0,6.445,10.9788,0.0407153,-6.43293,-19.3598,-0.731707,-13.963,1.99984,0.316143,-13.3537,16.25,-6.25
6849.41,-0.213768,-5.93467,0,6.99825,11.1321,0.56283,-6.03659,-22.7134,13.75,-13.9222,2.85965,0.459844,-20.0305,18.7805,-6.95122
6849.42,0.77754,-5.54407,0,7.67843,10.974,1.1041,-7.9878,-31.7073,29.3293,-13.254,3.17819,0.931663,-26.311,18.5366,-6.15854
6849.43,1.96388,-5.1543,0,8.45681,11.1201,1.88728,-13.9024,-39.0244,46.6159,-12.0038,2.36149,0.917292,-30.6707,14.3902,-5.21341
6849.44,3.33134,-4.67632,0,8.47118,11.0099,1.91123,-32.6524,-31.7378,66.8598,-10.7129,1.1041,1.30529,-30.5488,7.34756,-4.69512
6849.45,4.80371,-3.75558,0,6.95993,9.80281,1.82261,-41.6768,-17.1341,84.8476,-10.0112,-0.0407153,1.76034,-27.1341,0.853659,-4.45122
6849.46,6.34855,-3.31663,0,5.75284,9.15856,1.95434,-43.6585,-14.5732,101.86,-9.54894,-1.28613,1.21188,-19.5122,-5.88415,-4.02439
6849.47,7.96026,-2.7625,0,4.97446,9.28549,1.22146,-37.6524,-14.9085,119.909,-10.016,-1.62143,1.88009,-11.7988,-7.9878,-4.17683
6849.48,9.50938,-2.28632,0,3.25723,10.404,0.426313,-26.5854,-10.2439,138.841,-9.83156,-2.13875,1.56634,-1.85976,-4.45122,-4.32927
6849.49,10.9327,-1.86231,0,0.902922,11.8649,-0.55804,-21.7073,2.07317,155.762,-10.0303,-2.71835,1.07536,8.75,-1.34146,-3.81098
6849.5,12.2165,-1.44082,0,-1.24541,13.6277,-1.16637,-18.5671,6.18902,163.963,-9.8579,-1.82261,1.48491,14.5732,4.14634,-1.89024
6849.51,13.3982,-1.04229,0,-2.17228,15.3832,-0.790356,-18.4451,-4.87805,161.921,-9.97047,-1.2526,1.4921,16.9207,4.63415,0.97561
6849.52,14.4828,-0.624833,0,-1.52084,15.8407,-0.589175,-19.2988,-18.5366,149.207,-10.1645,-0.65384,1.61185,18.4146,3.17073,4.72561
6849.53,15.4978,-0.198409,0,-0.229922,15.4072,-0.217947,-12.7744,-29.6646,134.878,-10.483,-0.126936,1.57113,17.7439,1.61585,7.43902
6849.54,16.5245,0.130544,0,1.16877,14.9856,0.507744,-10.3049,-38.2317,127.287,-10.6842,0.325723,1.23344,17.1646,1.21951,8.59756
6849.55,17.5999,0.419943,0,2.05732,14.133,0.268242,-12.1341,-38.0793,126.555,-10.6363,0.6251,1.19751,16.6159,1.58537,8.44512
6849.56,18.7241,0.96924,0,2.40939,12.775,-0.332908,-7.28659,-29.2378,128.841,-10.4686,0.917292,1.42983,15.0305,0,7.77439
6849.57,19.816,1.33348,0,1.76992,12.1978,0.205972,4.20732,-23.3232,132.774,-10.0639,1.24062,1.4418,11.9817,-1.52439,8.41463
6849.58,20.8769,1.64221,0,1.23104,12.2697,0.543669,10.4878,-17.7134,137.012,-9.72138,1.4921,1.23104,8.23171,-1.70732,9.54268
6849.59,21.9586,1.92282,0,1.28613,12.3248,0.421523,12.378,-8.29268,140.823,-9.36213,1.67172,1.02746,4.20732,-1.55488,12.1341
6849.6,23.0449,2.1359,0,1.32684,12.1954,0.476609,10.4573,2.5,142.988,-9.06515,1.6837,0.811912,1.03659,-1.61585,14.1768
6849.61,24.1015,2.31689,0,0.977168,11.544,-0.179626,7.59146,16.4939,144.97,-8.80888,1.59269,0.802332,-1.82927,-2.22561,15.9756
6849.62,25.1207,2.43966,0,0.716111,11.1728,-0.560435,8.68902,32.622,145.701,-8.63884,1.56634,0.766406,-4.54268,-3.81098,17.3171
6849.63,26.0577,2.50688,0,0.210762,10.689,-0.579595,10.5183,43.3232,144.573,-8.56699,1.45378,0.59636,-6.43293,-4.2378,17.8049
6849.64,26.8069,2.54992,0,-0.972378,10.3273,-0.0143701,8.81098,44.6341,140.61,-8.57896,1.24541,0.526904,-8.01829,-4.72561,17.7439
6849.65,27.4481,2.58957,0,-1.0586,9.82916,0.0502954,5.12195,46.3415,132.683,-8.53585,1.07297,0.519719,-8.47561,-5,17.439
6849.66,27.9995,2.60828,0,-0.859812,9.22562,-0.306563,6.06707,47.4085,123.14,-8.48076,0.938848,0.447869,-9.66463,-5.67073,16.9817
6849.67,28.4544,2.60994,0,-0.749641,8.77056,-0.531694,10.1829,48.0183,113.537,-8.47358,0.816702,0.387993,-10.5793,-5.4878,16.4024
6849.68,28.8292,2.59036,0,-0.555645,8.41131,-1.04423,14.5732,41.6159,104.024,-8.51429,0.701741,0.311353,-11.5244,-6.0061,16.5549
6849.69,29.1664,2.56003,0,-0.349673,7.95625,-1.38672,18.75,30.0915,98.3841,-8.6077,0.661025,0.270637,-12.9268,-6.40244,16.3415
6849.7,29.4431,2.49659,0,-0.249082,7.60898,-0.852627,21.8293,26.189,91.5854,-8.7059,0.59157,0.146096,-14.0244,-5.67073,15.8841
6849.71,29.4881,2.38108,0,-1.29571,7.40301,-0.397573,21.9207,11.0061,84.939,-8.73224,0.66821,-0.0550855,-15.3659,-5.2439,15.7012
6849.72,29.4391,2.22206,0,-1.17116,7.23775,-0.114961,29.2073,17.1951,73.9329,-8.72027,0.780776,-0.208367,-16.4329,-4.29878,14.8171
6849.73,29.2807,2.0228,0,-1.21427,7.21619,-0.428708,37.0427,20.3049,63.4146,-8.66518,0.996328,-0.311353,-17.6524,-3.47561,14.0244
6849.74,28.9992,1.79839,0,-1.37235,7.25451,0.141306,40.3049,24.2378,52.8963,-8.56938,1.13045,-0.383203,-18.7805,-3.2622,13.5366
6849.75,28.6295,1.48727,0,-1.37714,7.31918,0.766406,35.9451,31.7378,43.2012,-8.53824,1.11368,-0.483794,-19.3902,-2.43902,11.9512
6849.76,28.2379,1.07943,0,-1.11608,7.24493,1.40588,26.7073,39.7256,36.3415,-8.56699,1.11129,-0.574805,-20.1829,-1.89024,9.87805
6849.77,27.8449,0.737825,0,-0.737666,6.91921,1.52323,17.1951,46.5549,29.939,-8.57896,1.06339,-0.5772,-20.6707,-2.10366,7.68293
6849.78,27.4317,0.46041,0,-0.426313,6.50966,1.16637,14.0854,53.628,22.3171,-8.64363,0.926873,-0.6251,-21.4634,-2.59146,5.42683
6849.79,26.9986,0.219192,0,-0.117356,6.48571,1.18553,12.9573,57.622,13.9024,-8.75619,0.883762,-0.704136,-22.439,-3.23171,3.75
6849.8,26.4816,-0.0136937,0,0.423918,6.6821,1.33163,11.7378,58.1402,5.21341,-8.90468,0.773591,-0.761616,-23.4451,-3.38415,2.80488
6849.81,24.3079,-0.287618,0,1.0562,6.95993,1.54718,9.02439,53.689,-1.67683,-9.0388,0.526904,-0.905317,-25.0305,-2.92683,2.16463
6849.82,24.0602,-0.614295,0,1.9711,7.23775,1.50647,4.63415,41.5854,-5.70122,-9.20406,0.301772,-1.01309,-26.0671,-2.19512,1.15854
6849.83,23.8686,-1.11503,0,2.62494,7.51557,1.65256,2.04268,27.5,-9.72561,-9.33818,0.0886157,-1.16637,-27.5305,-1.12805,-0.213415
6849.84,23.7227,-1.97963,0,3.37219,7.77663,1.98547,-3.01829,18.9634,-14.0244,-9.38608,0.0718506,-1.34361,-27.4695,-0.243902,-1.25
6849.85,23.5965,-2.54342,0,4.00208,7.90835,1.9256,-9.32927,6.06707,-19.2378,-9.36932,0.153281,-1.44899,-27.1951,0.914634,-1.52439
6849.86,23.4911,-2.94067,0,4.57449,7.68801,1.42743,-10.7622,-10.4268,-25.3659,-9.34058,0.253872,-1.50168,-26.25,1.67683,-1.21951
6849.87,23.4411,-3.23092,0,5.2882,7.14674,1.06099,-4.57317,-28.5061,-31.6463,-9.33818,0.335303,-1.48731,-25.6707,2.65244,-0.0609756
6849.88,23.4567,-3.47382,0,6.16478,6.91921,0.744851,4.02439,-47.0427,-35.6707,-9.43398,0.397573,-1.39869,-23.689,2.68293,1.18902
6849.89,23.4958,-3.68564,0,6.98388,7.08447,0.433499,12.6829,-60,-39.1463,-9.63277,0.335303,-1.29331,-21.6463,2.04268,3.10976
6849.9,23.5826,-3.88568,0,8.61249,7.70478,0.0742456,16.372,-65.0305,-41.5244,-9.92017,0.380808,-1.24062,-18.5976,1.25,5.45732
6849.91,23.7748,-4.10023,0,10.4255,8.27719,-0.256267,17.2866,-61.9207,-37.4695,-10.2531,0.308958,-1.25978,-16.0061,0.457317,7.62195
6849.92,24.1376,-4.26717,0,12.9786,8.86157,-0.965193,8.9939,-53.7195,-28.0793,-10.5285,0.146096,-1.3939,-13.2012,1.37195,8.65854
6849.93,24.7681,-4.46233,0,15.2611,8.83523,-2.72793,9.20732,-33.4451,-8.71951,-10.7225,-0.112566,-1.70525,-10.8232,3.14024,8.2622
6849.94,25.5662,-4.75473,0,15.6012,9.37411,-3.91825,22.8354,-4.90854,11.5854,-10.8039,-0.304167,-2.2585,-8.14024,6.46341,6.70732
6849.95,26.4507,-5.12377,0,14.2863,10.0303,-3.06562,35.1524,8.9939,30.3354,-10.8758,-0.522114,-2.71595,-6.18902,10.6098,4.29878
6849.96,27.3144,-5.52654,0,10.7488,9.60642,-1.28373,39.4207,6.37195,43.7195,-10.9476,-0.56283,-2.9794,-4.14634,14.2378,1.4939
6849.97,27.9708,-5.95156,0,7.04375,8.84002,-0.512534,39.3598,-0.304878,44.0549,-10.9093,-0.239502,-3.16382,-2.77439,17.4695,-0.182927
6849.98,28.23,-6.36287,0,4.09788,8.15025,-0.5772,38.0488,-6.12805,29.0549,-10.9357,0.249082,-3.18538,-2.5,19.8476,-0.182927
6849.99,28.0624,-6.78396,0,2.03816,7.5491,-1.02028,32.5915,-14.5122,9.69512,-11.1009,0.713716,-3.36979,-2.34756,22.2866,1.95122
6850,27.5485,-7.18141,0,1.03944,6.96951,-1.43701,30.8841,-12.8963,-12.4695,-11.3907,1.09692,-3.41769,-4.05488,24.0549,4.54268
6850.01,26.6036,-7.49261,0,-0.220342,7.49881,-0.546064,26.6463,-3.04878,-36.7683,-11.7811,1.31726,-3.13748,-5.45732,25.7622,7.31707
6850.02,25.3605,-7.56969,0,-0.816702,8.93582,0.979563,16.7073,8.5061,-61.8902,-12.4565,1.35798,-2.04535,-4.57317,23.0793,9.57317
6850.03,24.003,-7.33597,0,-0.143701,11.0291,2.47885,-1.18902,13.2012,-85.2439,-13.3642,1.21667,-0.373623,-2.19512,13.4146,11.128
6850.04,22.7059,-7.0012,0,2.72314,14.2887,3.65719,-15.8537,3.38415,-105.396,-14.0348,0.720901,0.275427,2.77439,3.23171,12.561
6850.05,21.7083,-6.58536,0,8.33227,17.2346,4.04279,-26.372,-2.04268,-108.11,-14.3869,-0.117356,0.864602,7.89634,-1.34146,14.878
6850.06,21.3728,-6.11601,0,15.3425,18.2596,3.61887,-24.8171,6.15854,-71.6463,-13.9869,-1.35079,1.22146,10.4268,0.121951,15.7012
6850.07,21.9905,-5.54292,0,18.0369,13.4265,0.728086,-11.1585,19.6951,-2.19512,-13.3355,-2.41657,1.96631,9.7561,6.58537,14.7256
6850.08,22.9869,-4.88659,0,10.3944,9.137,-2.43813,10.1829,41.0671,47.1951,-10.9716,-2.10762,2.15073,7.53049,12.1037,14.1463
6850.09,23.2716,-4.01057,0,1.1544,6.59588,-2.5507,23.5671,88.75,55.7012,-9.31184,-0.60594,2.90037,1.09756,13.2012,15.8537
6850.1,22.2578,-2.94551,0,-6.36596,5.77918,-0.285007,34.6951,99.3293,41.5244,-8.20534,0.407153,3.47278,-3.78049,11.372,18.7805
6850.11,20.553,-1.88877,0,-13.6277,6.27974,3.58055,47.378,46.25,4.66463,-7.89638,1.40588,3.45841,-11.5549,7.13415,21.1585
6850.12,18.47,-0.971359,0,-15.7041,8.7538,5.31694,39.7561,-45.2439,-46.4024,-8.0329,1.93997,2.84768,-16.6159,4.2378,22.5915
6850.13,16.3381,0.064738,0,-10.8925,11.2231,3.7027,-17.6829,-92.1037,-89.7561,-8.55501,2.38544,2.2609,-18.3537,1.7378,22.4695
6850.14,14.3646,0.91501,0,-4.99601,10.9812,-1.54239,-62.8354,-84.2988,-118.11,-9.41003,2.63692,1.7316,-18.4451,-0.487805,22.1037
6850.15,12.7342,1.21821,0,-0.536484,10.6986,-5.11097,-57.5305,-55.7927,-131.189,-10.507,2.41657,1.50168,-17.1646,-2.43902,21.4939
6850.16,11.6112,1.4251,0,3.93502,11.714,-4.55054,-15.4878,-36.7073,-126.494,-11.4674,1.62861,1.28613,-15.4878,-4.29878,19.6951
6850.17,10.8541,1.57844,0,6.41626,13.3522,-1.4418,18.7195,-31.5244,-105.945,-12.0829,0.579595,1.11368,-12.7744,-5.82317,17.0122
6850.18,10.379,1.66736,0,6.32285,12.8445,1.72202,16.4329,-25.9146,-79.8171,-12.1667,-0.502954,0.807122,-10.1524,-5.39634,13.872
6850.19,9.98143,1.70563,0,4.59604,10.8542,1.48731,4.81707,-12.4085,-66.2195,-11.8218,-1.32684,0.538879,-6.0061,-3.87195,10.9451
6850.2,9.40966,1.72609,0,1.99745,9.82197,0.680186,3.90244,-3.68902,-61.4329,-11.1392,-1.71723,0.426313,-1.0061,-2.53049,8.62805
6850.21,8.63999,1.72039,0,0.249082,9.96568,0.912502,1.46341,-4.42073,-62.2561,-10.3728,-1.76034,0.289797,4.57317,-1.4939,7.43902
6850.22,7.71025,1.63942,0,-0.814307,10.2363,0.929268,-4.66463,-10.6402,-67.9573,-9.75731,-1.65496,0.165256,9.39024,-0.0304878,6.85976
6850.23,6.67186,1.52904,0,-1.21906,10.2435,0.656235,-14.6646,-16.0976,-76.3719,-9.35734,-1.37953,0.0191602,13.811,1.21951,6.28049
6850.24,5.50887,1.47591,0,-1.85375,9.98723,-0.0502954,-20.4878,-26.8293,-83.5976,-9.24238,-1.02746,0.100591,17.1037,1.95122,5.39634
6850.25,4.53687,1.45308,0,0.0886157,9.83635,-0.910107,-18.3841,-42.4085,-88.9939,-9.18729,-0.850232,0.177231,19.0549,1.92073,3.90244
6850.26,3.59343,1.56197,0,0.61552,9.69983,-1.77231,-12.3171,-54.2073,-94.4207,-9.21843,-0.632285,0.392783,20.2744,0.640244,2.37805
6850.27,2.7466,1.70727,0,1.47773,9.86509,-2.03337,-1.0061,-63.75,-96.4634,-9.20166,-0.416733,0.495769,19.9085,-0.914634,1.28049
6850.28,2.03771,1.77342,0,2.34951,10.0567,-1.66454,3.41463,-61.25,-93.5671,-9.14658,-0.189207,0.462239,19.6646,-2.2561,0.670732
6850.29,1.44181,1.80269,0,2.78541,9.99921,-0.929268,3.62805,-53.0488,-88.4146,-9.02204,-0.00479004,0.371228,18.9634,-2.89634,0.914634
6850.3,0.913098,1.80563,0,2.69679,9.75012,-0.759221,0.701219,-45.5183,-82.561,-8.89271,0.227527,0.287402,18.9939,-4.08537,1.58537
6850.31,0.437276,1.78614,0,2.5962,9.60403,-1.00591,-0.97561,-40.7622,-77.561,-8.83762,0.287402,0.201182,18.7195,-5.06098,2.7439
6850.32,-0.0268706,1.72459,0,2.33514,9.33818,-1.33163,0.762195,-32.9573,-75.1219,-8.81128,0.273032,0.0335303,18.9329,-6.18902,3.90244
6850.33,-0.517528,1.61565,0,2.00703,9.30226,-0.986748,2.92683,-23.0183,-74.9695,-8.78493,0.124541,-0.160466,19.3598,-6.95122,4.60366
6850.34,-1.02326,1.48769,0,1.76034,9.4723,-0.500559,0.213415,-14.3598,-74.1463,-8.77056,-0.0622705,-0.251477,20,-7.46951,4.45122
6850.35,-1.50593,1.35805,0,1.74118,9.29747,-0.459844,-5.15244,-7.53049,-72.9878,-8.67237,-0.316143,-0.275427,21.2195,-8.01829,3.68902
6850.36,-1.92489,1.20296,0,1.9711,8.98851,-0.637075,-10.0915,-3.2622,-71.0671,-8.62207,-0.471819,-0.390388,22.9878,-8.23171,2.86585
6850.37,-2.24165,0.997565,0,2.50519,8.94779,-1.03704,-11.7073,0.640244,-68.1707,-8.56459,-0.486189,-0.60115,23.5976,-8.20122,2.0122
6850.38,-2.46046,0.728308,0,2.94108,8.72027,-1.03944,-10.4268,2.68293,-64.939,-8.4137,-0.445474,-0.857417,24.6037,-7.77439,1.85976
6850.39,-2.59073,0.397976,0,3.30273,8.53345,-1.20948,-6.95122,6.4939,-61.4939,-8.27958,-0.443079,-1.08973,25.3049,-6.15854,2.65244
6850.4,-2.69207,0.0395932,0,3.19256,8.35143,-0.931663,-1.12805,10.1524,-58.3232,-8.18378,-0.332908,-1.17835,26.25,-5.09146,4.32927
6850.41,-2.792,-0.279912,0,2.91474,8.44723,-0.433499,1.15854,10.1524,-54.5427,-8.04487,-0.0574805,-1.00112,27.4695,-4.39024,5.73171
6850.42,-2.91083,-0.621357,0,2.5483,8.53824,-0.440684,0.548781,8.9939,-51.7378,-7.95865,-0.00718506,-1.16398,27.2866,-5.03049,8.17073
6850.43,-3.08177,-0.946753,0,2.0693,8.6556,-0.792751,1.12805,9.84756,-50.8232,-7.99218,0.347278,-1.17356,27.3476,-5.12195,11.25
6850.44,-3.35215,-1.27954,0,1.35798,8.70111,-1.00112,3.93293,11.0976,-51.9817,-8.06882,0.490979,-1.24541,26.6159,-4.87805,13.9939
6850.45,-3.69927,-1.49892,0,0.996328,9.15376,-0.816702,5.21341,12.9878,-54.939,-8.35862,0.780776,-0.962798,25.7927,-5,15.9756
6850.46,-4.14293,-1.73594,0,0.718506,9.24478,-0.771196,4.17683,14.2073,-61.8902,-8.58854,0.883762,-1.07536,23.1098,-4.5122,16.4024
6850.47,-4.63229,-2.07012,0,0.802332,9.39327,-0.656235,2.46951,12.4085,-68.3537,-8.71069,0.938848,-1.31487,20.8537,-3.07927,16.311
6850.48,-5.14892,-2.87109,0,0.718506,8.81846,-0.483794,1.0061,7.34756,-71.6768,-8.76577,0.929268,-1.55437,18.689,-1.09756,15.6402
6850.49,-5.57373,-3.85094,0,1.41546,9.0891,-0.519719,3.07927,4.39024,-71.9207,-8.87355,0.857417,-1.43941,17.1341,-0.365854,15.0915
6850.5,-5.9362,-4.02599,0,1.70525,9.24238,-0.0479004,5.2439,-3.04878,-69.6951,-9.0891,0.764011,-1.11608,15.7927,-2.19512,14.7561
6850.51,-6.41269,-4.14364,0,1.07297,9.10586,0.431104,1.40244,-6.85976,-74.4512,-9.41003,0.64426,-1.11368,13.8415,-3.32317,14.2683
6850.52,-6.7748,-4.24403,0,1.88728,10.6483,0.282612,-2.07317,-14.2378,-70.5488,-9.85311,0.392783,-1.13524,11.8598,-3.53659,13.628
6850.53,-7.10665,-4.30072,0,1.88009,10.9045,0.00958008,-4.45122,-12.0122,-67.6524,-10.2291,0.237107,-1.00591,9.72561,-3.10976,12.5305
6850.54,-7.44381,-4.31484,0,1.84177,10.7321,-0.306563,-10.7012,-13.3232,-68.7805,-10.5165,0.227527,-0.857417,7.04268,-3.2622,11.8293
6850.55,-7.77819,-4.33459,0,1.79147,10.0806,-0.694556,-10.5488,-12.1037,-69.8781,-10.6435,0.275427,-0.895737,3.68902,-3.07927,11.5244
6850.56,-7.93562,-4.41197,0,2.86444,10.4782,-1.08255,-3.01829,-8.38415,-63.1402,-10.6554,0.510139,-1.14482,0.853659,-2.13415,11.0671
6850.57,-7.94939,-4.67782,0,3.47996,10.6459,-1.0083,-1.46341,3.65854,-54.5427,-10.5189,0.814307,-1.5376,-1.46341,-0.152439,11.6159
6850.58,-7.87743,-4.96914,0,3.365,10.3489,-1.12326,-0.701219,10.3659,-45.6402,-10.392,0.972378,-2.16989,-2.46951,3.29268,11.9817
6850.59,-7.78955,-5.37779,0,2.89318,10.1118,-1.152,-2.71341,15.8841,-39.6951,-10.4207,0.871787,-2.84049,-1.79878,7.34756,11.5244
6850.6,-7.7379,-5.89234,0,2.23216,9.81719,-1.12326,1.37195,16.3415,-36.7683,-10.5141,0.598755,-3.47996,0.884146,11.7073,9.93902
6850.61,-7.65645,-6.48873,0,2.37586,10.3968,-0.840652,5,15.4573,-33.75,-10.6147,0.122146,-4.04758,4.87805,16.1585,8.29268
6850.62,-7.59364,-7.10503,0,2.15791,10.6219,-0.00718506,5.03049,3.32317,-32.6524,-10.6147,-0.246687,-4.2775,9.05488,20.9146,5.82317
6850.63,-7.49582,-7.61403,0,2.41178,10.6507,0.364043,0.640244,-13.2317,-31.5549,-10.7345,-0.61552,-3.87275,12.378,24.2988,3.75
6850.64,-7.33036,-7.86497,0,2.88839,10.5596,0.404758,-3.01829,-29.878,-29.6341,-11.0578,-0.811912,-2.72314,14.7561,23.5366,1.7378
6850.65,-7.05551,-7.77858,0,3.66438,10.5405,0.237107,-6.55488,-42.2561,-26.0366,-11.6877,-0.687371,-1.14482,14.5732,17.9573,0.0304878
6850.66,-6.63703,-7.32354,0,4.76369,10.7009,0.196392,-9.93902,-49.0244,-20.6707,-12.775,-0.232317,0.840652,8.87195,10.6402,-1.7378
6850.67,-6.02706,-6.6967,0,6.55038,11.338,-0.258662,-13.5976,-48.6585,-12.561,-14.4132,0.593965,2.16031,-1.64634,4.39024,-5.39634
6850.68,-5.21953,-6.14811,0,7.53234,11.4793,-0.0981958,-16.1585,-49.4207,1.46341,-15.6538,2.19384,1.96392,-11.5549,1.52439,-9.5122
6850.69,-4.17717,-5.71605,0,8.69871,11.2686,-0.268242,-19.1159,-45.9756,18.8415,-15.2754,3.90149,1.27415,-17.8659,2.2561,-11.6463
6850.7,-2.90013,-5.25205,0,9.27352,10.792,0.306563,-21.0061,-35.0915,38.7805,-14.042,4.14099,1.48252,-23.6585,5.33537,-11.2195
6850.71,-1.42349,-4.65485,0,9.43398,10.8662,1.6334,-27.4695,-26.0366,61.1585,-12.8157,2.7902,2.21779,-29.9085,3.47561,-14.0549
6850.72,0.242318,-3.93019,0,8.95019,10.38,1.71723,-38.2622,-6.67683,83.8719,-10.8231,1.15919,1.71483,-28.5366,0.548781,-17.2256
6850.73,2.0173,-3.31836,0,7.44133,9.7621,1.89207,-42.9878,8.23171,105.457,-9.91059,-0.239502,2.00463,-25.4268,-6.0061,-19.2073
6850.74,3.81799,-2.69735,0,5.71931,9.87227,1.14961,-45.4268,17.1951,126.463,-9.58247,-1.16158,2.09085,-19.1159,-10.9756,-19.1463
6850.75,5.5536,-2.21327,0,3.64522,10.2746,0.0814307,-34.6951,24.4207,145.03,-9.31423,-1.78908,1.55437,-10.7927,-10.4573,-17.0122
6850.76,7.12833,-1.81539,0,1.10171,11.6614,-0.493374,-25.3049,24.3293,161.006,-9.52739,-2.1651,1.30289,-2.68293,-9.11585,-13.4146
6850.77,8.54416,-1.56473,0,-1.29331,13.5438,-1.06578,-19.2378,18.9024,170.152,-9.63277,-2.4022,0.752036,6.7378,-6.34146,-9.11585
6850.78,9.80211,-1.37522,0,-2.90516,15.6538,-1.13763,-20.4268,3.84146,167.256,-9.79084,-2.22018,0.519719,13.0183,-3.78049,-5.06098
6850.79,10.9228,-1.10108,0,-2.87402,16.2334,-1.46096,-25,-13.8415,154.848,-9.97526,-1.68849,0.886157,17.6829,-2.9878,-0.213415
6850.8,11.962,-0.760724,0,-1.41546,15.5796,-1.45378,-15.9756,-25.6707,138.933,-10.2483,-0.874182,1.30529,18.4451,-3.78049,2.95732
6850.81,13.0346,-0.436563,0,0.720901,15.3976,-0.287402,-5.57927,-34.2683,128.384,-10.4064,-0.263452,1.29571,17.8049,-3.23171,4.69512
6850.82,14.1925,-0.115302,0,2.33993,15.0623,0.455054,-7.37805,-36.311,126.738,-10.2914,0.249082,1.08255,15.9451,-1.4939,4.96951
