time,angle1,angle2,intgangle,accX1,accY1,accZ1,gyroX1,gyroY1,gyroZ1,accX2,accY2,accZ2,gyroX2,gyroY2,gyroZ2
6663.5,96.9851,-2.66963,0,9.65193,-1.23104,1.94236,-0.914634,-0.853659,-1.40244,-9.93933,0.0550855,-0.462239,-0.121951,0,6.7378
6663.51,96.9844,-2.68417,0,9.65672,-1.2502,1.93518,-1.06707,-0.457317,-1.28049,-9.9537,0.0479004,-0.488584,0.243902,-0.0304878,6.58537
6663.52,96.9874,-2.70869,0,9.63756,-1.27415,1.95913,-1.09756,-0.609756,-1.34146,-9.95131,-0.00479004,-0.510139,-0.304878,-0.121951,6.52439
6663.53,96.9857,-2.7052,0,9.64714,-1.24781,1.90644,-0.884146,-0.731707,-1.34146,-9.97765,0.0119751,-0.464634,0.182927,-0.548781,6.40244
6663.54,96.9882,-2.6764,0,9.66869,-1.28373,1.91362,-0.701219,-1.0061,-1.43293,-9.97286,0.0143701,-0.409548,0.426829,-0.457317,6.46341
6663.55,96.9884,-2.65824,0,9.68306,-1.2502,1.88009,-0.823171,-0.823171,-1.15854,-9.95849,0.0431104,-0.431104,0.457317,-0.243902,6.70732
6663.56,96.9857,-2.65406,0,9.63516,-1.24781,1.89207,-0.701219,-0.701219,-1.43293,-9.94891,0.0910107,-0.455054,0.640244,0,6.70732
6663.57,96.9912,-2.66506,0,9.62319,-1.28613,1.8753,-1.0061,-0.487805,-1.34146,-9.91778,0.0862207,-0.479004,0.121951,0.152439,6.67683
6663.58,96.9963,-2.64271,0,9.64474,-1.30768,1.91841,-0.853659,-0.548781,-1.55488,-9.91299,0.0838257,-0.419128,0.213415,0.27439,6.40244
6663.59,97.0035,-2.66416,0,9.64235,-1.31008,1.91362,-0.884146,-0.121951,-1.43293,-9.88185,0.0910107,-0.490979,0.335366,0.0609756,6.55488
6663.6,97.0125,-2.63793,0,9.69504,-1.31966,1.95913,-1.09756,-0.304878,-1.31098,-9.89622,0.0742456,-0.416733,0.27439,-0.0914634,6.25
6663.61,97.0198,-2.65475,0,9.68546,-1.32924,1.91362,-0.548781,-0.0304878,-1.52439,-9.94173,0.105381,-0.488584,0.152439,0.182927,6.25
6663.62,97.0301,-2.66325,0,9.6663,-1.32445,1.9232,-0.365854,-0.487805,-1.31098,-9.96807,0.0934058,-0.476609,0.243902,0.0304878,6.7378
6663.63,97.0413,-2.66047,0,9.63995,-1.31726,1.88728,0.0914634,-0.579268,-1.21951,-9.94173,0.107776,-0.457449,0.182927,0.121951,6.64634
6663.64,97.0502,-2.6523,0,9.61121,-1.31008,1.91123,-0.243902,-0.609756,-1.31098,-9.95849,0.126936,-0.445474,0.213415,0.396341,6.76829
6663.65,97.0521,-2.66147,0,9.63756,-1.28373,1.93518,-0.121951,-0.335366,-1.40244,-9.93933,0.124541,-0.481399,-0.335366,0.670732,6.58537
6663.66,97.0488,-2.66212,0,9.63037,-1.26697,1.94236,0.121951,-0.335366,-1.58537,-9.92257,0.0934058,-0.462239,-0.213415,0.335366,6.70732
6663.67,97.0458,-2.66193,0,9.65672,-1.24781,1.9256,0,-0.27439,-1.28049,-9.9082,0.0646655,-0.459844,-0.121951,0.518293,6.37195
6663.68,97.0496,-2.66959,0,9.62798,-1.27415,1.91841,-0.0304878,-0.304878,-1.18902,-9.89622,0.0910107,-0.476609,-0.304878,0.609756,6.37195
6663.69,97.0505,-2.64537,0,9.65672,-1.28373,1.99984,-0.304878,-0.0304878,-1.43293,-9.93933,0.0694556,-0.411943,-0.182927,0.457317,6.34146
6663.7,97.0554,-2.66864,0,9.60642,-1.30529,1.96631,-0.457317,0.0914634,-1.4939,-9.9058,0.0502954,-0.507744,-0.182927,0.548781,6.40244
6663.71,97.0559,-2.66239,0,9.59924,-1.28134,2.03098,-0.548781,0.0304878,-1.52439,-9.94652,0.0502954,-0.447869,-0.304878,0.731707,6.37195
6663.72,97.0551,-2.65725,0,9.60163,-1.28134,1.93039,-0.762195,-0.182927,-1.61585,-9.93694,0.0526904,-0.450264,-0.0609756,0.548781,6.40244
6663.73,97.0523,-2.64494,0,9.61121,-1.25978,1.97589,-0.487805,-0.457317,-1.4939,-9.91538,0.0526904,-0.435894,-0.213415,0.335366,6.4939
6663.74,97.0506,-2.64633,0,9.62798,-1.27176,1.95913,-0.548781,-0.579268,-1.52439,-9.94891,0.0694556,-0.462239,-0.396341,0.579268,6.37195
6663.75,97.0501,-2.67955,0,9.6663,-1.27894,1.90404,-0.548781,-0.457317,-1.46341,-9.97047,0.0814307,-0.536484,-0.426829,0.579268,6.40244
6663.76,97.0492,-2.66995,0,9.62558,-1.2526,1.8753,-0.335366,-0.670732,-1.25,-9.97765,0.0598755,-0.447869,-0.304878,0.27439,6.28049
6663.77,97.0435,-2.66983,0,9.63756,-1.25499,1.9256,-0.396341,-0.640244,-1.61585,-10.0208,0.0239502,-0.467029,0.335366,0.0609756,6.03659
6663.78,97.0388,-2.67783,0,9.65193,-1.24302,1.90165,-0.396341,-0.914634,-1.37195,-10.0136,0.0526904,-0.481399,0.213415,0.0914634,6.40244
6663.79,97.0369,-2.66122,0,9.64474,-1.23104,1.91602,-0.335366,-0.518293,-1.0061,-9.99442,0.0383203,-0.438289,0.182927,-0.0609756,6.18902
6663.8,97.0325,-2.64525,0,9.69025,-1.24302,1.88488,-0.182927,-0.579268,-1.28049,-9.98963,0.0718506,-0.435894,0.152439,-0.0914634,6.58537
6663.81,97.0306,-2.63033,0,9.62798,-1.23583,1.91602,-0.457317,-0.487805,-1.12805,-9.93694,0.110171,-0.433499,-0.152439,-0.0914634,6.40244
6663.82,97.0404,-2.62397,0,9.65672,-1.27894,1.93278,-0.243902,-0.426829,-0.853659,-9.96568,0.136516,-0.445474,0,-0.304878,6.43293
6663.83,97.051,-2.62541,0,9.64714,-1.30768,1.86093,-0.243902,-0.243902,-1.12805,-9.92975,0.117356,-0.457449,-0.579268,0.0609756,6.46341
6663.84,97.0672,-2.64984,0,9.616,-1.33403,1.85614,-0.426829,-0.182927,-1.12805,-9.89862,0.0934058,-0.495769,-0.426829,-0.121951,6.37195
6663.85,97.0762,-2.66092,0,9.63277,-1.33403,1.89207,-0.335366,-0.304878,-1.46341,-9.92975,0.0718506,-0.479004,-0.548781,-0.121951,6.52439
6663.86,97.0826,-2.68518,0,9.64953,-1.30289,1.89686,0.0304878,-0.762195,-1.25,-9.93694,0.0479004,-0.507744,-0.762195,-0.243902,6.43293
6663.87,97.0916,-2.71022,0,9.64474,-1.3005,1.9256,-0.121951,-0.97561,-1.06707,-9.93454,0.0455054,-0.514929,-0.487805,-0.304878,6.92073
6663.88,97.1011,-2.71499,0,9.68546,-1.30289,1.84896,0.121951,-0.548781,-0.97561,-9.92975,-0.0239502,-0.479004,-0.457317,-0.213415,6.46341
6663.89,97.1047,-2.73392,0,9.65193,-1.28613,1.84896,0.0914634,-0.396341,-1.18902,-9.93694,0,-0.507744,-0.182927,-0.27439,6.70732
6663.9,97.1136,-2.73815,0,9.63995,-1.31726,1.89925,-0.121951,-0.121951,-1.21951,-9.91299,-0.0335303,-0.481399,0.213415,-0.243902,6.4939
6663.91,97.1161,-2.74932,0,9.65911,-1.29092,1.90883,-0.121951,-0.0609756,-1.28049,-9.92496,0.0167651,-0.493374,0.152439,0.0609756,6.52439
6663.92,97.1202,-2.74932,0,9.67827,-1.31247,1.92799,-0.0304878,0.243902,-1.37195,-9.92496,0.0407153,-0.476609,0.182927,0,6.7378
6663.93,97.1292,-2.75151,0,9.64235,-1.31487,1.89686,-0.0609756,0.304878,-1.15854,-9.93454,0.0694556,-0.481399,0.121951,0.518293,6.98171
6663.94,97.1351,-2.77009,0,9.63277,-1.31487,1.97589,-0.365854,0.213415,-1.34146,-9.94891,0.0215552,-0.517324,-0.121951,0.457317,7.2561
6663.95,97.1389,-2.76357,0,9.62319,-1.31008,1.90165,-0.213415,0.335366,-1.43293,-9.98244,0.0287402,-0.469424,-0.0914634,0.335366,7.04268
6663.96,97.1439,-2.77876,0,9.69743,-1.30289,1.90644,-0.0609756,0.0914634,-1.12805,-9.99202,0.0598755,-0.510139,0.0914634,-0.121951,7.04268
6663.97,97.1474,-2.78553,0,9.63277,-1.33642,1.825,0.518293,-0.213415,-1.70732,-9.95849,0.0934058,-0.495769,-0.0609756,-0.152439,6.82927
6663.98,97.1648,-2.80967,0,9.57529,-1.3939,1.83458,1.06707,-1.09756,-1.52439,-9.89862,0.122146,-0.522114,0.121951,0.0914634,7.31707
6663.99,97.1859,-2.7806,0,9.51062,-1.41785,1.90165,1.58537,-2.22561,-1.61585,-9.87946,0.0958008,-0.431104,-0.0609756,0.27439,6.92073
6664,97.2034,-2.73685,0,9.52978,-1.41067,1.93278,1.40244,-3.93293,-1.67683,-9.87706,0.0910107,-0.404758,-0.609756,0.152439,7.16463
6664.01,97.1946,-2.73192,0,9.75731,-1.3005,1.89207,1.15854,-5.30488,-1.89024,-9.8579,0.00239502,-0.462239,-0.0609756,0.243902,7.31707
6664.02,97.1703,-2.75494,0,9.82197,-1.2023,1.9232,1.43293,-5.67073,-1.95122,-9.82916,0,-0.522114,0.396341,0.792683,7.40854
6664.03,97.1441,-2.76102,0,9.79323,-1.20469,1.93757,1.25,-3.5061,-2.31707,-9.83635,-0.0143701,-0.488584,0.548781,1.09756,7.7439
6664.04,97.1379,-2.77872,0,9.75731,-1.34121,1.9735,0.792683,-0.152439,-2.2561,-9.84832,-0.0215552,-0.529299,0.335366,1.58537,7.43902
6664.05,97.1483,-2.79613,0,9.63277,-1.41785,2.01661,0.640244,-0.121951,-2.04268,-9.89383,0.0718506,-0.538879,0.304878,1.92073,7.43902
6664.06,97.1568,-2.81714,0,9.56092,-1.32924,1.91841,0.945122,0.0609756,-1.43293,-9.91778,0.0455054,-0.555645,0.213415,1.89024,7.37805
6664.07,97.1612,-2.82011,0,9.65432,-1.2526,1.9232,0.884146,0.97561,-0.548781,-9.94652,0.0622705,-0.498164,0.152439,1.85976,7.2561
6664.08,97.1742,-2.82356,0,9.71659,-1.3005,2.13875,-0.182927,0.579268,-0.518293,-9.95849,0.129331,-0.500559,0.27439,1.61585,7.37805
6664.09,97.1797,-2.8341,0,9.70222,-1.30529,2.05014,-0.518293,-0.518293,-1.03659,-9.97765,0.0981958,-0.524509,0.335366,1.46341,7.62195
6664.1,97.1615,-2.82424,0,9.68546,-1.19032,1.74836,-0.0609756,0.304878,-1.34146,-9.96328,0.0886157,-0.457449,0.0304878,1.82927,7.62195
6664.11,97.141,-2.81731,0,9.59205,-1.1544,1.73399,0.335366,0.579268,-1.09756,-9.96568,0.0742456,-0.464634,-0.243902,2.07317,7.83537
6664.12,97.1285,-2.82311,0,9.56331,-1.19751,1.88249,-0.487805,-1.03659,-1.28049,-9.96807,0.0670605,-0.510139,-0.121951,2.16463,7.56098
6664.13,97.1182,-2.84486,0,9.616,-1.22625,1.88728,-0.243902,-2.53049,-1.46341,-9.96089,0.0383203,-0.574805,0.121951,2.68293,7.46951
6664.14,97.1107,-2.8524,0,9.66869,-1.2526,1.80345,-0.396341,-2.77439,-1.52439,-9.95131,0.0239502,-0.522114,0.243902,2.77439,7.13415
6664.15,97.1091,-2.8553,0,9.61361,-1.2526,1.74597,-0.731707,-1.98171,-1.18902,-10.0064,0.0622705,-0.507744,0.457317,2.53049,6.70732
6664.16,97.1174,-2.85453,0,9.67827,-1.2981,1.83219,-0.640244,-0.97561,-0.97561,-9.94173,0.0598755,-0.490979,0.762195,2.31707,6.58537
6664.17,97.1463,-2.84647,0,9.6639,-1.346,1.94476,-0.396341,-0.365854,-0.487805,-9.91778,0.141306,-0.462239,0.853659,2.34756,6.40244
6664.18,97.1882,-2.85355,0,9.73575,-1.42743,1.91123,-0.304878,-0.609756,-0.518293,-9.85072,0.196392,-0.514929,0.792683,2.71341,6.40244
6664.19,97.2224,-2.85911,0,9.82437,-1.45617,1.77231,0.426829,-1.98171,-0.792683,-9.79323,0.239502,-0.507744,0.609756,3.2622,6.64634
6664.2,97.2325,-2.87757,0,9.79803,-1.37474,1.70525,0.365854,-2.53049,-1.25,-9.77168,0.239502,-0.560435,0.182927,3.56707,6.70732
6664.21,97.2345,-2.89757,0,9.6663,-1.32684,1.65256,0.152439,-1.21951,-1.4939,-9.8124,0.201182,-0.57241,0.335366,3.56707,6.92073
6664.22,97.2449,-2.92046,0,9.49865,-1.32445,1.82021,-0.365854,1.12805,-1.25,-9.85072,0.167651,-0.59157,-0.152439,3.9939,7.10366
6664.23,97.277,-2.95374,0,9.48667,-1.34361,2.00463,-0.335366,2.40854,-0.487805,-9.83874,0.150886,-0.63947,-0.426829,4.29878,6.70732
6664.24,97.3041,-2.98606,0,9.62798,-1.33642,1.95194,0.426829,3.2622,-0.27439,-9.88664,0.179626,-0.64426,-0.152439,4.2378,6.37195
6664.25,97.322,-3.01257,0,9.80281,-1.31966,1.84896,1.25,2.5,-0.0304878,-9.89862,0.196392,-0.6251,-0.0914634,3.93293,6.58537
6664.26,97.3295,-3.05363,0,9.89143,-1.27176,1.7771,1.98171,1.03659,0.762195,-9.88664,0.170046,-0.692161,0,4.35976,6.46341
6664.27,97.3857,-3.08499,0,9.63277,-1.51126,1.70765,1.79878,0.304878,-0.640244,-9.92975,0.148491,-0.661025,0.335366,4.5122,6.28049
6664.28,97.4118,-3.11954,0,9.4244,-1.37474,1.73399,2.31707,0,-0.914634,-9.96328,0.117356,-0.682581,0.426829,4.48171,6.55488
6664.29,97.4265,-3.14903,0,9.36453,-1.32924,1.82979,1.7378,0.365854,-1.03659,-9.98484,0.0958008,-0.66821,0.396341,4.48171,6.09756
6664.3,97.4457,-3.17258,0,9.39566,-1.36037,1.9256,1.92073,0.518293,-1.03659,-10.0064,0.0742456,-0.64905,0.365854,4.5122,6.0061
6664.31,97.4626,-3.1954,0,9.44835,-1.34121,1.88728,1.79878,0.243902,-0.823171,-9.9537,0.0838257,-0.646655,0.0914634,4.7561,5.85366
6664.32,97.48,-3.23526,0,9.43877,-1.38193,1.86093,1.92073,-0.640244,-1.18902,-9.90341,0.0431104,-0.720901,-0.121951,4.7561,6.0061
6664.33,97.4957,-3.2775,0,9.49625,-1.40109,1.84896,1.7378,-0.945122,-1.31098,-9.9561,0.0263452,-0.742456,-0.335366,4.90854,5.4878
6664.34,97.5093,-3.31122,0,9.56092,-1.43462,1.87051,1.40244,-0.731707,-1.58537,-10.004,0.0838257,-0.716111,-0.152439,4.81707,5.39634
6664.35,97.5165,-3.3432,0,9.65432,-1.40109,1.95194,1.28049,-1.28049,-1.43293,-10.0303,0.110171,-0.716111,-0.365854,4.60366,5.2439
6664.36,97.5165,-3.38251,0,9.80521,-1.3963,1.92799,1.55488,-1.0061,-1.58537,-10.0758,0.146096,-0.756826,-0.182927,4.32927,5.2439
6664.37,97.5021,-3.42691,0,9.93694,-1.32924,1.96152,1.7378,-0.396341,-1.7378,-10.0711,0.179626,-0.783171,-0.304878,3.71951,5.18293
6664.38,97.4677,-3.45006,0,9.98484,-1.17835,1.82979,1.76829,0.0304878,-1.46341,-10.0184,0.131726,-0.694556,0.0304878,3.41463,5.27439
6664.39,97.4364,-3.47255,0,9.79563,-1.17595,1.84896,1.21951,0.335366,-1.46341,-9.95131,0.0574805,-0.689766,-0.182927,3.17073,5.36585
6664.4,97.4272,-3.505,0,9.53936,-1.27176,1.84896,0.487805,1.03659,-1.43293,-9.89143,0.0215552,-0.730481,0.335366,3.2622,4.96951
6664.41,97.4305,-3.54666,0,9.39566,-1.29571,1.94715,-0.335366,2.04268,-1.15854,-9.93454,-0.0479004,-0.780776,0.335366,3.62805,4.96951
6664.42,97.4692,-3.59953,0,9.4268,-1.45857,2.04535,-0.609756,1.40244,-1.0061,-9.93694,-0.0622705,-0.838257,0.670732,3.9939,4.39024
6664.43,97.5165,-3.66245,0,9.60882,-1.54,1.93278,-0.426829,0.670732,-0.914634,-9.96568,-0.0287402,-0.893342,1.52439,3.9939,3.96341
6664.44,97.5528,-3.72279,0,9.75491,-1.55437,1.8274,-0.27439,-0.121951,-1.09756,-9.95849,0.0646655,-0.890947,1.55488,3.78049,4.2378
6664.45,97.5883,-3.80027,0,9.61121,-1.54239,1.8274,-0.0609756,-1.03659,-1.25,-9.9537,0.165256,-0.977168,1.4939,4.08537,4.20732
6664.46,97.6521,-3.88051,0,9.43159,-1.54479,1.90883,0.182927,-0.518293,-0.701219,-9.93454,0.196392,-1.00112,1.31098,4.14634,4.45122
6664.47,97.7193,-3.96512,0,9.31902,-1.4897,1.96631,0.731707,-0.487805,-0.457317,-9.92975,0.196392,-1.03465,1.12805,4.29878,4.60366
6664.48,97.7802,-4.03484,0,9.40524,-1.49449,1.95913,1.25,-1.18902,-0.396341,-9.92257,0.146096,-0.981958,1.06707,3.96341,4.54268
6664.49,97.8144,-4.11707,0,9.63277,-1.51605,1.89686,1.7378,-1.76829,-0.792683,-9.91299,0.0910107,-1.04662,1.09756,3.96341,4.84756
6664.5,97.8193,-4.19883,0,9.78126,-1.47054,1.84177,1.79878,-1.95122,-1.52439,-9.91538,0.0407153,-1.06099,1.37195,4.14634,5.27439
6664.51,97.8137,-4.28529,0,9.81719,-1.50647,1.89207,1.21951,-1.58537,-2.62195,-9.92017,0.00479004,-1.09931,1.34146,4.60366,5
6664.52,97.8108,-4.35682,0,9.81479,-1.53521,1.92799,0.640244,-0.792683,-2.71341,-9.86509,-0.0215552,-1.04423,1.12805,4.81707,4.63415
6664.53,97.8039,-4.40148,0,9.79084,-1.48491,1.99745,-0.365854,-0.0914634,-2.56098,-9.83874,0.0263452,-0.936453,0.823171,4.35976,4.26829
6664.54,97.791,-4.43962,0,9.74773,-1.37953,1.9711,-1.0061,-0.518293,-1.95122,-9.91778,0.122146,-0.922083,0.365854,3.84146,3.81098
6664.55,97.7754,-4.46332,0,9.63277,-1.27655,1.92799,-0.670732,-1.06707,-0.640244,-9.89862,0.215552,-0.864602,-0.457317,3.53659,3.62805
6664.56,97.8322,-4.50183,0,9.5226,-1.47773,1.8274,-0.0609756,-0.792683,-0.121951,-10.0399,0.191602,-0.943638,-1.25,3.32317,4.08537
6664.57,97.8796,-4.52536,0,9.35255,-1.49689,1.72202,1.15854,0.823171,-0.731707,-10.0974,0.189207,-0.890947,-0.823171,3.01829,4.39024
6664.58,97.8793,-4.54558,0,9.34058,-1.33163,1.67412,1.46341,1.0061,-0.97561,-10.2219,0.114961,-0.888552,-0.609756,2.31707,5.36585
6664.59,97.8532,-4.54312,0,9.56092,-1.2502,1.75555,1.40244,0.670732,-1.34146,-10.3393,-0.0311353,-0.811912,-0.335366,1.40244,6.06707
6664.6,97.804,-4.49937,0,9.59684,-1.13284,1.90404,1.03659,-0.487805,-2.28659,-10.3776,-0.0862207,-0.723296,-0.426829,0.0914634,6.61585
6664.61,97.7477,-4.45697,0,9.65193,-1.16637,1.83458,1.28049,-1.25,-3.81098,-10.3177,-0.134121,-0.65863,-0.243902,-1.52439,6.55488
6664.62,97.6557,-4.39054,0,9.61121,-0.950823,1.84896,1.28049,-1.67683,-5.06098,-10.2004,-0.105381,-0.536484,-0.457317,-2.16463,6.06707
6664.63,97.5515,-4.3241,0,9.33818,-0.886157,1.83458,0.213415,-2.04268,-6.03659,-10.1357,-0.0335303,-0.493374,-1.0061,-3.71951,5.36585
6664.64,97.4493,-4.24992,0,9.16334,-0.843047,1.825,-0.27439,-1.06707,-5.70122,-10.083,0.0502954,-0.440684,-0.945122,-4.54268,4.93902
6664.65,97.3537,-4.17017,0,9.2831,-0.886157,1.80824,-0.701219,-0.304878,-5.64024,-10.0591,0.134121,-0.399968,-1.61585,-5.36585,4.69512
6664.66,97.271,-4.10796,0,9.63516,-0.941243,1.70525,-0.27439,0.457317,-4.7561,-10.0974,0.193997,-0.464634,-2.0122,-6.15854,4.96951
6664.67,97.1784,-4.04586,0,9.9058,-0.831072,1.69807,0.518293,0.853659,-4.29878,-10.1669,0.162861,-0.457449,-1.98171,-6.98171,5.15244
6664.68,97.071,-3.97247,0,10.0112,-0.680186,1.74836,0.792683,-0.182927,-4.08537,-10.2459,0.0814307,-0.399968,-1.95122,-8.59756,5.64024
6664.69,96.9608,-3.88553,0,10.0519,-0.682581,1.79147,1.15854,-1.18902,-4.66463,-10.3704,-0.0311353,-0.330513,-1.82927,-9.7561,5.79268
6664.7,96.851,-3.79561,0,9.99202,-0.651445,1.82261,1.37195,-1.79878,-4.5122,-10.3561,-0.153281,-0.301772,-1.58537,-10.9451,5.7622
6664.71,96.7492,-3.7226,0,9.93454,-0.711321,1.85135,1.34146,-2.13415,-4.69512,-10.3632,-0.205972,-0.364043,-1.46341,-12.1341,5.91463
6664.72,96.6662,-3.63513,0,9.90101,-0.773591,1.88249,1.46341,-0.97561,-3.62805,-10.2603,-0.234712,-0.282612,-0.731707,-12.9268,5.45732
6664.73,96.6087,-3.57581,0,9.9082,-0.912502,1.96392,1.25,0.396341,-2.7439,-10.0926,-0.162861,-0.387993,-0.670732,-13.0183,5.42683
6664.74,96.5607,-3.54558,0,9.96807,-0.943638,2.00224,1.03659,1.12805,-2.0122,-9.96328,-0.117356,-0.500559,0.0304878,-12.8354,4.90854
6664.75,96.5079,-3.51331,0,9.95131,-0.888552,2.06211,0,2.83537,-1.15854,-9.86509,-0.0215552,-0.481399,0.0304878,-12.7439,5
6664.76,96.4552,-3.49372,0,9.81719,-0.890947,2.09085,-1.15854,3.47561,-0.762195,-9.86748,0.0407153,-0.531694,0.0304878,-13.2622,5.03049
6664.77,96.4212,-3.49257,0,9.64714,-0.974773,2.16031,-1.76829,3.10976,-0.365854,-9.9058,0.0790356,-0.61073,0.182927,-12.8354,5.33537
6664.78,96.4209,-3.48876,0,9.59684,-1.07536,2.17228,-1.55488,1.95122,0.121951,-9.94412,0.0455054,-0.60115,-0.304878,-12.7134,5.06098
6664.79,96.4416,-3.48994,0,9.53457,-1.13045,2.1651,-0.792683,0.884146,0.853659,-9.97765,-0.00239502,-0.6251,-0.121951,-13.4451,5.51829
6664.8,96.4629,-3.48925,0,9.61361,-1.14961,2.08127,-0.243902,-1.03659,0.762195,-10.0256,-0.114961,-0.62031,0.213415,-13.7195,5.67073
6664.81,96.4667,-3.48522,0,9.58487,-1.06818,2.03577,0.0304878,-3.17073,0.792683,-10.0303,-0.141306,-0.60594,1.15854,-14.0854,5.64024
6664.82,96.4677,-3.48157,0,9.57289,-1.06818,1.95194,-0.0914634,-4.17683,0.548781,-10.0495,-0.172441,-0.608335,1.4939,-14.3293,5.97561
6664.83,96.4812,-3.48248,0,9.55613,-1.10889,2.05493,-1.15854,-3.5061,0.823171,-9.99442,-0.150886,-0.6251,2.19512,-15.0305,6.15854
6664.84,96.5061,-3.47715,0,9.57768,-1.15919,2.019,-1.43293,-2.40854,1.21951,-10.0064,-0.105381,-0.598755,2.59146,-15.4268,6.31098
6664.85,96.5379,-3.45116,0,9.59445,-1.19032,2.06211,-1.85976,-1.46341,1.70732,-9.92736,-0.0934058,-0.502954,2.53049,-16.0671,6.28049
6664.86,96.5828,-3.41528,0,9.58487,-1.27894,1.94715,-2.34756,-1.15854,1.58537,-9.92257,-0.0502954,-0.455054,2.0122,-16.311,6.25
6664.87,96.6409,-3.37895,0,9.48428,-1.34361,1.84177,-2.59146,-1.89024,1.4939,-9.94173,0.00958008,-0.447869,1.82927,-16.4939,6.09756
6664.88,96.7021,-3.34605,0,9.4747,-1.36756,1.83938,-3.41463,-2.53049,1.46341,-10.004,0.0838257,-0.459844,1.03659,-16.8598,5.82317
6664.89,96.763,-3.29843,0,9.48188,-1.36995,1.74357,-3.59756,-3.20122,1.28049,-10.0327,0.0838257,-0.390388,0.487805,-17.1646,5.82317
6664.9,96.8499,-3.2411,0,9.46751,-1.45857,1.79626,-3.38415,-3.78049,0.762195,-10.0495,0.0670605,-0.340093,0,-17.6829,5.91463
6664.91,96.942,-3.18798,0,9.49865,-1.44899,1.82021,-3.01829,-4.84756,0.365854,-10.0663,0.0239502,-0.349673,-0.121951,-18.1402,6.06707
6664.92,97.0189,-3.14576,0,9.616,-1.45857,1.75794,-2.86585,-5.42683,-0.304878,-10.0375,-0.0167651,-0.387993,-0.27439,-18.5671,6.28049
6664.93,97.0779,-3.11225,0,9.66151,-1.46336,1.80345,-2.2561,-5.7622,-0.548781,-10.0327,-0.0311353,-0.419128,0.121951,-18.689,6.31098
6664.94,97.1317,-3.07182,0,9.76449,-1.51126,1.75315,-1.85976,-5.39634,-0.731707,-9.98005,-0.0958008,-0.380808,0.396341,-18.9939,6.52439
6664.95,97.1593,-3.02227,0,9.83395,-1.4442,1.69088,-1.12805,-4.66463,-1.03659,-9.94652,-0.131726,-0.332908,0.884146,-19.4512,6.67683
6664.96,97.174,-2.96551,0,9.86509,-1.41785,1.69807,-1.40244,-3.81098,-1.37195,-9.99202,-0.162861,-0.294587,1.61585,-20.1829,6.89024
6664.97,97.1891,-2.87907,0,9.84832,-1.37235,1.6358,-1.03659,-2.34756,-0.945122,-10.0423,-0.112566,-0.155676,1.40244,-21.2805,6.76829
6664.98,97.218,-2.78827,0,9.74294,-1.34121,1.60945,-0.762195,-1.82927,-0.213415,-10.0567,-0.0574805,-0.122146,1.37195,-22.1951,6.46341
6664.99,97.2304,-2.69387,0,9.7142,-1.25978,1.61185,-0.213415,-1.34146,0.579268,-10.095,-0.00958008,-0.0910107,1.4939,-22.6524,6.34146
6665,97.2442,-2.56816,0,9.66869,-1.22625,1.58071,-0.487805,-1.18902,1.43293,-10.1716,0.0574805,0.0646655,1.09756,-23.5061,6.34146
6665.01,97.2662,-2.45627,0,9.5705,-1.2526,1.67651,-0.365854,-1.21951,1.64634,-10.1669,0.0479004,0.0239502,1.0061,-24.7256,6.7378
6665.02,97.2918,-2.35508,0,9.54176,-1.27655,1.71244,-0.182927,-1.31098,1.61585,-10.1237,0.0622705,-0.00479004,0.853659,-25.4878,6.76829
6665.03,97.3195,-2.2304,0,9.61361,-1.31008,1.76513,-0.640244,-1.79878,1.46341,-10.119,0.0598755,0.117356,0.487805,-26.0671,6.98171
6665.04,97.3599,-2.10507,0,9.74533,-1.41785,1.72441,-0.609756,-1.52439,1.09756,-10.1214,0.0335303,0.141306,0.0304878,-27.1646,6.52439
6665.05,97.4013,-1.98729,0,9.7621,-1.40827,1.73639,-0.27439,-1.64634,-0.0914634,-10.174,-0.0311353,0.129331,-0.213415,-28.4756,6.67683
6665.06,97.44,-1.89271,0,9.75252,-1.40827,1.78908,-0.335366,-1.03659,-0.121951,-10.1525,-0.0479004,0.0455054,0.0609756,-29.1463,6.82927
6665.07,97.4559,-1.77879,0,9.72138,-1.35319,1.67891,0.152439,-0.457317,-0.457317,-10.1525,-0.0407153,0.148491,-0.182927,-29.5122,6.89024
6665.08,97.4641,-1.66115,0,9.74533,-1.346,1.6813,0.426829,0.335366,-0.701219,-10.1525,-0.0598755,0.184417,0.121951,-30.5793,7.2561
6665.09,97.4807,-1.52834,0,9.71899,-1.48252,1.67651,0.609756,1.61585,-1.61585,-10.1693,-0.0742456,0.273032,0.121951,-31.25,7.59146
6665.1,97.488,-1.36511,0,9.7142,-1.5855,1.68849,0.0914634,2.77439,-3.17073,-10.198,-0.0670605,0.433499,0.823171,-32.2256,7.7439
6665.11,97.4861,-1.20481,0,9.68546,-1.62622,1.6837,0.0914634,3.47561,-4.45122,-10.1836,-0.0622705,0.447869,0.701219,-33.2927,7.89634
6665.12,97.4723,-1.05465,0,9.69743,-1.55676,1.66693,0.365854,3.14024,-4.78659,-10.1549,-0.0742456,0.428708,0.701219,-34.2683,8.23171
6665.13,97.4416,-0.881697,0,9.73815,-1.47054,1.70046,0.853659,2.37805,-5.42683,-10.0926,-0.0814307,0.55325,0.792683,-35.3963,8.29268
6665.14,97.3979,-0.692013,0,9.73336,-1.38672,1.71004,0.97561,2.13415,-5.82317,-10.0327,-0.0526904,0.65384,0.792683,-36.2805,8.65854
6665.15,97.3523,-0.476851,0,9.71899,-1.32684,1.72441,1.52439,2.19512,-5.42683,-9.98244,-0.0694556,0.795146,0.701219,-37.8049,8.90244
6665.16,97.3105,-0.26461,0,9.71659,-1.37953,1.72681,0.884146,3.47561,-5.7622,-9.98244,-0.105381,0.819097,0.884146,-38.7805,9.29878
6665.17,97.2641,-0.0885215,0,9.75491,-1.31487,1.74597,0.97561,4.54268,-5.4878,-9.89383,-0.0742456,0.689766,0.701219,-39.2073,9.2378
6665.18,97.2219,0.111867,0,9.84593,-1.26936,1.74597,1.4939,4.84756,-4.48171,-9.88664,-0.0766406,0.826282,1.09756,-39.2683,9.57317
6665.19,97.1839,0.346212,0,9.70462,-1.30768,1.7771,1.21951,4.7561,-4.81707,-9.94412,-0.105381,1.01549,1.25,-40.1829,9.26829
6665.2,97.1458,0.563464,0,9.61121,-1.33642,1.74357,1.4939,4.2378,-5.39634,-9.98723,-0.117356,0.984353,1.67683,-41.0976,8.93293
6665.21,97.102,0.790296,0,9.48428,-1.31008,1.78668,1.46341,4.11585,-5.94512,-9.97765,-0.122146,1.06339,2.59146,-42.0427,8.96341
6665.22,97.0515,1.0292,0,9.44117,-1.32924,1.81303,1.58537,3.10976,-7.0122,-9.93454,-0.114961,1.152,2.9878,-42.1646,8.78049
6665.23,96.9947,1.30628,0,9.52499,-1.33163,1.7795,1.18902,1.31098,-7.65244,-9.84353,-0.0886157,1.35079,2.86585,-42.9268,8.84146
6665.24,96.934,1.57997,0,9.64953,-1.36277,1.74357,1.09756,0.426829,-8.32317,-9.82916,-0.0335303,1.38193,3.23171,-43.3841,8.84146
6665.25,96.8644,1.85656,0,9.74533,-1.29331,1.72202,0.792683,0.640244,-8.38415,-9.79084,-0.0526904,1.43701,3.87195,-43.4146,8.71951
6665.26,96.7947,2.13346,0,9.75012,-1.30768,1.77471,0.27439,1.7378,-8.68902,-9.74773,-0.0431104,1.48012,3.78049,-43.4146,8.07927
6665.27,96.7268,2.40056,0,9.79803,-1.29092,1.71723,1.0061,3.2622,-8.38415,-9.74294,-0.0646655,1.48491,3.90244,-42.9573,7.16463
6665.28,96.6682,2.64586,0,9.82916,-1.27655,1.80824,0.853659,4.5122,-7.34756,-9.68306,-0.0550855,1.42743,3.75,-42.2561,6.52439
6665.29,96.6195,2.92478,0,9.73336,-1.34361,1.76513,0.945122,5.57927,-7.40854,-9.65193,-0.0287402,1.61185,3.9939,-42.1646,5.79268
6665.3,96.5636,3.24677,0,9.59205,-1.29331,1.77471,1.21951,5.79268,-7.86585,-9.65432,-0.0215552,1.84896,3.84146,-43.2622,5.85366
6665.31,96.4769,3.58605,0,9.53697,-1.1065,1.82979,0.945122,6.0061,-8.96341,-9.63995,0.0479004,1.97829,3.75,-43.9024,6.12805
6665.32,96.4318,3.92989,0,9.4723,-1.42504,1.71483,-0.365854,5.03049,-8.84146,-9.61361,0.107776,2.05253,2.43902,-43.8415,6.7378
6665.33,96.3838,4.29275,0,10.1118,-1.57832,1.43701,0.945122,10.3963,-9.87805,-9.56571,0.110171,2.18665,2.0122,-43.811,7.28659
6665.34,96.3068,4.66087,0,9.70701,-1.27415,1.55437,1.31098,5.36585,-10.0915,-9.55134,0.143701,2.27048,1.46341,-43.811,8.23171
6665.35,96.2417,4.987,0,9.34058,-1.18793,2.04056,1.37195,-0.579268,-8.56707,-9.48907,0.196392,2.13636,2.28659,-42.1341,9.02439
6665.36,96.1681,5.33007,0,9.79084,-1.1065,1.80584,2.77439,1.70732,-7.92683,-9.69743,0.0886157,2.31598,1.37195,-44.1463,9.84756
6665.37,96.0988,5.70902,0,10.0064,-1.06818,1.70525,2.77439,4.69512,-6.92073,-9.41961,-0.0910107,2.46927,1.25,-42.5,9.84756
6665.38,96.0443,6.05927,0,9.48667,-1.08255,1.94476,2.31707,0.152439,-6.40244,-9.36692,0.0742456,2.39502,0.731707,-42.6524,9.72561
6665.39,95.9851,6.38927,0,9.81958,-1.06818,1.77471,2.68293,4.87805,-6.37195,-9.36932,0.00958008,2.36867,1.34146,-41.372,9.54268
6665.4,95.9224,6.76873,0,9.77168,-1.00112,1.84417,2.22561,5.4878,-6.12805,-9.40045,-0.0335303,2.65368,1.52439,-41.9512,9.05488
6665.41,95.8617,7.19465,0,9.72857,-0.998723,1.84177,2.56098,5.97561,-6.06707,-9.4747,-0.00958008,2.95306,1.34146,-43.0793,8.62805
6665.42,95.7963,7.60199,0,9.79323,-0.974773,1.82979,2.5,6.28049,-6.31098,-9.51062,-0.0263452,2.95545,0.487805,-44.0854,8.59756
6665.43,95.7282,7.90988,0,9.79084,-0.924478,1.83219,2.80488,6.31098,-6.12805,-9.44596,0.0526904,2.56028,1.40244,-42.7439,8.75
6665.44,95.6629,8.2171,0,9.68306,-0.962798,1.89207,3.04878,6.31098,-6.55488,-9.31902,0.172441,2.57944,2.0122,-39.6951,9.14634
6665.45,95.5987,8.60724,0,9.69504,-0.938848,1.88249,2.95732,7.04268,-6.28049,-9.33579,0.285007,3.01054,1.76829,-39.5732,10.061
6665.46,95.5129,8.99382,0,9.73815,-0.783171,1.86812,3.14024,8.59756,-6.70732,-9.42201,0.318538,3.09197,1.34146,-40.7012,10.9146
6665.47,95.4314,9.39204,0,9.75731,-0.780776,1.98308,3.29268,8.9939,-6.40244,-9.51781,0.256267,3.24765,0.823171,-42.2561,10.8232
6665.48,95.3614,9.78923,0,9.76689,-0.878972,2.08606,2.71341,9.05488,-6.55488,-9.5226,0.213157,3.3171,0.0609756,-43.811,10.5488
6665.49,95.3186,10.1973,0,9.6639,-1.13284,2.10043,3.23171,7.83537,-7.07317,-9.45554,0.141306,3.41769,-0.762195,-44.6951,10.5488
6665.5,95.2584,10.5795,0,9.78366,-0.981958,2.22976,3.87195,7.40854,-6.98171,-9.34058,0.0670605,3.33147,-0.0609756,-44.4512,10.3049
6665.51,95.204,10.934,0,9.75252,-1.0562,2.22018,3.59756,7.19512,-7.43902,-9.23759,-0.0119751,3.23807,0.762195,-43.4451,10.3963
6665.52,95.1672,11.2986,0,9.70701,-1.19272,2.12678,3.81098,6.82927,-7.43902,-9.09628,-0.0574805,3.29794,1.76829,-42.8354,10.3963
6665.53,95.0894,11.6793,0,9.73575,-0.941243,2.14833,4.81707,5.70122,-8.65854,-9.01964,-0.143701,3.40811,2.56098,-42.9573,10.8232
6665.54,94.9969,12.0288,0,9.68067,-0.931663,2.00224,2.92683,4.63415,-10.2744,-8.97893,-0.186812,3.3195,2.77439,-43.3841,10.9146
6665.55,94.9178,12.3608,0,9.67348,-0.831072,2.02858,3.75,5.39634,-7.89634,-8.9454,-0.213157,3.29076,3.10976,-43.9634,10.9756
6665.56,94.823,12.7499,0,9.73575,-0.65384,2.11241,3.62805,6.25,-7.46951,-8.96216,-0.186812,3.61408,3.53659,-45.2134,11.0061
6665.57,94.7584,13.2077,0,9.40524,-0.881367,2.25371,3.2622,5.91463,-7.68293,-9.07473,-0.100591,4.05477,3.5061,-47.4695,11.0671
6665.58,94.6822,13.6264,0,9.63995,-0.754431,2.21539,2.92683,5.94512,-7.19512,-9.08191,0.00718506,3.95657,3.29268,-48.1707,10.9146
6665.59,94.5971,14.0153,0,9.76689,-0.598755,2.25132,2.13415,6.09756,-6.28049,-8.98851,0.141306,3.85598,3.53659,-46.5244,10.9146
6665.6,94.5712,14.4454,0,9.5202,-1.1544,2.26569,2.62195,6.25,-7.37805,-8.84481,0.251477,4.05956,3.17073,-44.939,10.7927
6665.61,94.489,14.8484,0,9.56571,-0.797541,2.24174,2.04268,6.76829,-8.78049,-8.71548,0.294587,3.95418,2.89634,-43.9024,10.7317
6665.62,94.4082,15.2451,0,9.52978,-0.692161,2.24653,0.823171,5.94512,-7.56098,-8.658,0.251477,3.97334,2.19512,-43.2622,10.1829
6665.63,94.3649,15.6261,0,9.28789,-1.06578,2.26569,1.61585,4.63415,-8.78049,-8.69153,0.234712,3.98771,2.13415,-44.4512,9.54268
6665.64,94.2806,16.0445,0,9.42919,-0.689766,2.13875,1.7378,4.87805,-8.23171,-8.63165,0.296982,4.20326,1.95122,-46.0976,8.44512
6665.65,94.1987,16.505,0,9.55852,-0.682581,2.14354,1.82927,5.12195,-7.95732,-8.76577,0.373623,4.55054,0.823171,-48.4146,8.10976
6665.66,94.1097,16.898,0,9.25436,-0.565225,2.34951,-0.0304878,0.945122,-7.65244,-8.85918,0.404758,4.35654,0.731707,-49.0549,7.7439
6665.67,94.0827,17.3185,0,9.14418,-1.11129,2.37107,1.7378,1.7378,-8.5061,-8.87834,0.450264,4.57688,1.34146,-49.2378,7.7439
6665.68,94.0031,17.7583,0,9.10826,-0.687371,2.51717,2.04268,-1.64634,-8.59756,-8.81607,0.560435,4.72298,0.731707,-49.9695,8.10976
6665.69,93.8897,18.1865,0,9.14179,-0.340093,2.42855,1.46341,-1.52439,-7.7439,-8.73224,0.546064,4.70621,-0.0914634,-50.1829,8.68902
6665.7,93.844,18.6442,0,9.55852,-0.898132,2.24413,4.08537,0.762195,-7.68293,-8.62926,0.505349,4.88105,-0.97561,-50.4878,8.9939
6665.71,93.7598,19.1035,0,9.5681,-0.60594,2.64171,2.28659,1.28049,-8.14024,-8.52387,0.455054,4.91937,-1.52439,-51.1585,9.11585
6665.72,93.692,19.3491,0,9.64235,-0.756826,2.33275,2.2561,2.13415,-8.41463,-8.24605,0.335303,3.85598,-1.21951,-49.4512,8.96341
6665.73,93.6264,19.5749,0,9.51302,-0.675395,2.39023,3.32317,-0.121951,-7.43902,-7.9826,0.203577,3.69312,-2.10366,-44.7561,8.9939
6665.74,93.5865,20.0224,0,9.67588,-0.864602,2.37825,3.10976,0,-7.10366,-8.04248,0.0287402,4.76609,-2.56098,-45.6402,8.38415
6665.75,93.5164,20.5363,0,9.73575,-0.682581,2.2106,4.42073,2.13415,-8.01829,-8.28916,-0.0215552,5.33371,-3.44512,-48.1707,8.2622
6665.76,93.4185,20.9839,0,10.1884,-0.440684,1.97589,3.59756,6.40244,-7.86585,-8.56459,0.0335303,5.26904,-2.40854,-48.3537,8.53659
6665.77,93.3881,21.3675,0,9.41722,-1.13284,2.09325,4.96951,4.96951,-10.122,-8.59093,0.280217,5.0487,-1.12805,-46.372,9.72561
6665.78,93.3505,21.7759,0,9.56092,-0.965193,2.10522,7.16463,1.12805,-8.68902,-8.43526,0.426313,5.16127,-0.457317,-44.1159,11.0061
6665.79,93.2784,22.2274,0,9.87467,-0.608335,2.13157,7.28659,0.243902,-7.71341,-8.2221,0.500559,5.33131,-0.97561,-44.1768,11.4939
6665.8,93.2282,22.6948,0,10.2746,-0.704136,2.01182,7.19512,3.71951,-6.43293,-8.13349,0.522114,5.44627,-1.61585,-45.0915,11.6768
6665.81,93.1772,23.1466,0,9.48188,-0.720901,2.34233,7.07317,1.46341,-7.5,-8.06882,0.433499,5.41753,-2.22561,-45.5488,11.0976
6665.82,93.138,23.5945,0,9.53936,-0.811912,2.24653,4.42073,2.92683,-7.43902,-7.93949,0.380808,5.40316,-3.32317,-44.6037,9.72561
6665.83,93.0926,24.0405,0,9.46751,-0.819097,2.19384,5.79268,4.14634,-8.32317,-7.75986,0.344883,5.36245,-3.5061,-42.6524,8.87195
6665.84,93.0572,24.4938,0,9.57768,-0.866997,2.22976,5.4878,3.5061,-7.86585,-7.57545,0.337698,5.36005,-3.41463,-41.6463,7.86585
6665.85,93.0127,24.9071,0,9.48428,-0.740061,2.31119,5.67073,3.14024,-7.40854,-7.4533,0.325723,5.16606,-2.7439,-41.0671,7.22561
6665.86,92.9288,25.3644,0,8.97414,-0.414338,2.71835,5.2439,-0.0304878,-7.80488,-7.44372,0.237107,5.45825,-1.67683,-40.9451,6.89024
6665.87,92.9052,25.8568,0,9.03641,-0.910107,2.56028,5.79268,0.97561,-8.17073,-7.46288,0.251477,5.74565,-1.21951,-41.8293,6.79878
6665.88,92.7952,26.3426,0,9.47949,-0.292192,2.38304,5.91463,3.75,-8.90244,-7.48923,0.258662,5.83427,-1.21951,-41.4939,6.4939
6665.89,92.7007,26.8098,0,10.2651,-0.150886,2.20581,5.21341,1.4939,-5.64024,-7.54431,0.296982,5.88217,-0.518293,-40.0305,6.37195
6665.9,92.6228,27.2664,0,9.97526,-0.510139,2.37346,4.72561,3.65854,-8.41463,-7.51557,0.299377,5.90372,0.670732,-38.2927,6.18902
6665.91,92.5301,27.7414,0,9.53457,-0.486189,2.29443,4.48171,2.56098,-10.061,-7.44133,0.320933,6.04263,0.548781,-36.7988,6.18902
6665.92,92.4086,28.2203,0,9.69504,-0.285007,2.39023,4.11585,4.32927,-10.6707,-7.41498,0.313748,6.14562,0.121951,-36.8293,5.85366
6665.93,92.3087,28.7041,0,9.52978,-0.340093,2.54112,3.65854,4.48171,-9.45122,-7.41977,0.282612,6.28214,-0.304878,-37.1037,5.33537
6665.94,92.2051,29.1881,0,9.78366,-0.246687,2.56986,3.93293,5.45732,-8.81098,-7.39343,0.229922,6.36836,-1.09756,-37.6524,4.87805
6665.95,92.1091,29.6769,0,9.49386,-0.110171,2.80217,5.2439,1.40244,-6.64634,-7.33834,0.258662,6.45697,-1.70732,-37.9573,4.5122
6665.96,92.0257,30.1811,0,9.38369,-0.177231,2.6944,4.45122,1.58537,-6.40244,-7.17069,0.299377,6.50727,-2.07317,-37.8049,4.69512
6665.97,91.9809,30.6898,0,9.61121,-0.407153,2.4549,3.71951,2.59146,-5.39634,-7.0222,0.342488,6.51206,-1.95122,-37.378,5.42683
6665.98,91.8965,31.199,0,9.15856,-0.170046,2.56986,3.56707,0.670732,-6.7378,-6.83778,0.352068,6.45937,-1.89024,-36.1585,6.12805
6665.99,91.8338,31.7101,0,9.31902,-0.301772,2.42615,4.26829,-0.152439,-6.31098,-6.6821,0.376018,6.43781,-0.487805,-34.9085,6.89024
6666,91.7704,32.2273,0,9.50104,-0.316143,2.51956,5.88415,-0.579268,-6.61585,-6.59349,0.368833,6.50248,-0.762195,-33.6585,7.19512
6666.01,91.7076,32.7584,0,9.3789,-0.323328,2.58423,6.79878,-2.83537,-6.82927,-6.61744,0.285007,6.72761,-0.304878,-33.5061,7.43902
6666.02,91.6068,33.2722,0,9.77407,0.0502954,2.5507,6.0061,-2.04268,-6.18902,-6.69168,0.299377,6.82581,-0.731707,-33.2622,7.2561
6666.03,91.5035,33.7574,0,9.62558,0.0622705,2.52914,5.15244,-0.213415,-6.4939,-6.70126,0.287402,6.78749,-1.09756,-32.378,6.55488
6666.04,91.4108,34.2442,0,9.65911,0.0502954,2.61536,3.84146,1.31098,-5.7622,-6.71324,0.292192,6.9264,-1.18902,-31.1585,5.7622
6666.05,91.333,34.7085,0,9.34776,-0.0718506,2.58662,3.2622,2.28659,-5.94512,-6.63899,0.359253,6.83299,-1.95122,-28.9329,5.09146
6666.06,91.2526,35.1891,0,9.35255,-0.0862207,2.56267,2.56098,3.04878,-6.55488,-6.49529,0.352068,6.89526,-2.31707,-27.2866,4.60366
6666.07,91.2112,35.6494,0,9.76449,-0.234712,2.5986,-0.121951,3.53659,-4.48171,-6.44979,0.304167,6.84018,-2.80488,-26.1585,4.45122
6666.08,91.1456,36.106,0,9.56571,-0.0311353,2.44292,3.78049,2.0122,-4.57317,-6.35399,0.265847,6.8282,-2.65244,-24.2988,4.14634
6666.09,91.1203,36.5687,0,9.50823,-0.256267,2.65608,2.65244,0.518293,-3.44512,-6.3013,0.330513,6.91921,-3.14024,-22.9268,4.32927
6666.1,91.0944,37.0107,0,9.65193,-0.191602,2.65847,1.09756,0.457317,-2.68293,-6.30848,0.256267,6.91442,-3.2622,-21.6463,4.57317
6666.11,91.0674,37.4084,0,9.25196,-0.292192,2.52435,0.884146,1.64634,-4.26829,-6.30369,0.191602,6.74917,-2.71341,-20.122,5.03049
6666.12,91.0214,37.7988,0,9.25196,-0.273032,2.54351,0.27439,1.85976,-5.97561,-6.29411,0.184417,6.78988,-2.19512,-19.2988,5.36585
6666.13,90.9661,38.1827,0,9.25196,-0.261057,2.60339,1.0061,0.213415,-6.85976,-6.38752,0.0550855,6.94556,-2.43902,-19.4512,5.97561
6666.14,90.8969,38.5489,0,9.51062,-0.0622705,2.61057,2.07317,-1.46341,-5.85366,-6.38752,0.0502954,6.93119,-1.76829,-19.1159,6.21951
6666.15,90.8232,38.9101,0,9.7597,0.0598755,2.63452,2.83537,-2.95732,-4.93902,-6.36836,0.0934058,6.96951,-1.37195,-17.8963,6.61585
6666.16,90.7598,39.2642,0,9.85072,0.0694556,2.68482,2.56098,-2.92683,-3.90244,-6.33722,0.131726,6.98148,-0.762195,-16.5244,7.28659
6666.17,90.7265,39.6169,0,9.79323,-0.0790356,2.7423,1.61585,-2.10366,-2.7439,-6.29651,0.268242,7.01741,-0.182927,-14.3598,7.46951
6666.18,90.6812,39.9733,0,9.69983,-0.0167651,2.6441,2.10366,-1.76829,-3.2622,-6.251,0.229922,7.07968,-0.0304878,-12.1951,7.65244
6666.19,90.6288,40.3303,0,9.63756,0.0431104,2.65608,0.97561,-2.31707,-3.32317,-6.19352,0.225132,7.10842,-0.0304878,-10.7622,7.34756
6666.2,90.5765,40.6786,0,9.67109,0.0886157,2.56986,0.457317,-1.0061,-2.7439,-6.14562,0.241897,7.08926,-0.335366,-9.17683,6.89024
6666.21,90.5357,41.011,0,9.63756,0.0598755,2.57465,-0.304878,0.152439,-1.64634,-6.17197,0.191602,7.10602,-0.670732,-8.01829,6.64634
6666.22,90.5028,41.3275,0,9.59684,0.0191602,2.51717,-1.06707,0.670732,-1.52439,-6.16478,0.179626,7.07728,-0.731707,-6.76829,6.46341
6666.23,90.482,41.6368,0,9.70941,-0.0191602,2.50998,-1.12805,0.426829,-0.731707,-6.12885,0.134121,7.05812,-0.365854,-5.70122,6.43293
6666.24,90.461,41.9323,0,9.70701,-0.0119751,2.52914,-1.61585,0.365854,-0.426829,-6.19592,0.110171,7.09884,-1.09756,-4.72561,6.37195
6666.25,90.4644,42.224,0,9.65193,-0.0981958,2.53393,-1.79878,-0.0304878,-0.243902,-6.2055,0.117356,7.14674,-0.914634,-4.39024,6.40244
6666.26,90.4765,42.4982,0,9.60403,-0.172441,2.5028,-2.10366,-0.27439,-0.823171,-6.24621,0.0766406,7.10363,-0.670732,-3.68902,6.31098
6666.27,90.4839,42.7791,0,9.58487,-0.167651,2.44771,-1.67683,0.670732,-1.03659,-6.22466,0.143701,7.09884,-1.06707,-3.07927,6.37195
6666.28,90.4822,43.0786,0,9.70701,-0.100591,2.38065,-2.0122,1.34146,-0.609756,-6.26058,0.136516,7.08207,-0.609756,-2.19512,6.4939
6666.29,90.4911,43.4555,0,9.7621,-0.105381,2.213,-2.56098,2.40854,0.304878,-6.32285,0.155676,7.17308,-0.548781,-1.25,6.52439
6666.3,90.4998,43.8034,0,9.80521,-0.105381,2.23934,-2.7439,2.56098,0.365854,-6.43542,0.0814307,7.07249,-0.518293,-0.853659,6.46341
6666.31,90.535,44.0819,0,9.79563,-0.220342,2.33754,-2.37805,2.53049,0.518293,-6.49529,0.0455054,7.14674,-0.396341,-1.06707,6.37195
6666.32,90.597,44.3032,0,9.66869,-0.296982,2.38544,-1.58537,2.13415,0.152439,-6.53122,0.00479004,7.07489,0.0304878,-1.15854,6.25
6666.33,90.6624,44.611,0,9.60882,-0.349673,2.35909,-1.03659,2.40854,-0.335366,-6.45697,0.0838257,7.10123,0.121951,-0.640244,6.40244
6666.34,90.7116,44.943,0,9.65911,-0.285007,2.28485,-0.365854,2.89634,-0.182927,-6.44021,0.134121,6.99346,0.213415,0.243902,6.43293
6666.35,90.7424,45.1671,0,9.65193,-0.241897,2.26569,-0.518293,3.23171,-0.304878,-6.43542,0.177231,7.12518,0.579268,0.97561,6.4939
6666.36,90.7753,45.2942,0,9.63516,-0.222737,2.18665,-1.28049,4.32927,0.0304878,-6.4929,0.124541,7.01741,0.396341,1.4939,6.37195
6666.37,90.8102,45.3795,0,9.68306,-0.265847,2.36628,-1.34146,5.15244,-0.243902,-6.5408,0.112566,6.99106,1.06707,1.98171,6.52439
6666.38,90.8367,45.4502,0,9.62079,-0.299377,2.47645,-1.46341,4.11585,-0.823171,-6.61744,0.0383203,7.0198,0.884146,1.82927,6.40244
6666.39,90.8605,45.5331,0,9.59445,-0.344883,2.38544,-0.640244,3.2622,-1.31098,-6.63899,0.0622705,7.0701,1.4939,1.37195,6.40244
6666.4,90.8743,45.6174,0,9.67348,-0.289797,2.4525,0.518293,3.10976,-1.21951,-6.62462,0.153281,7.02938,1.25,1.0061,6.12805
6666.41,90.8872,45.6896,0,9.75252,-0.273032,2.30401,0.365854,5.12195,-1.03659,-6.63899,0.217947,7.02938,1.37195,1.03659,6.70732
6666.42,90.9014,45.7357,0,9.76689,-0.325723,2.34233,-0.426829,5.82317,-1.43293,-6.67731,0.280217,7.02459,0.792683,1.40244,6.70732
6666.43,90.9547,45.7728,0,9.1849,-0.459844,2.692,-0.731707,2.65244,-1.31098,-6.69887,0.311353,7.02459,0.152439,1.43293,6.67683
6666.44,90.9707,45.7976,0,9.44596,-0.426313,2.54591,0.121951,4.66463,-2.34756,-6.76114,0.241897,7.03178,0,0.945122,6.25
6666.45,90.9783,45.7705,0,9.4244,-0.467029,2.43813,2.0122,5.79268,-3.32317,-6.83539,0.148491,6.96232,-0.0304878,0.304878,6.12805
6666.46,90.9588,45.7679,0,9.44117,-0.316143,2.29922,3.14024,5.09146,-3.9939,-6.7803,0.114961,6.95753,0.518293,-0.487805,5.91463
6666.47,90.9348,45.7498,0,9.46033,-0.270637,2.29682,2.83537,3.87195,-3.90244,-6.79946,0.124541,6.924,1.15854,-0.914634,6.28049
6666.48,90.9071,45.7204,0,9.54894,-0.208367,2.39981,3.20122,2.65244,-3.5061,-6.82581,0.107776,6.90245,1.55488,-1.06707,6.70732
6666.49,90.8792,45.6878,0,9.51781,-0.220342,2.61057,2.22561,6.09756,-3.75,-6.90484,0.131726,6.91921,1.52439,-2.04268,6.64634
6666.5,90.8521,45.6477,0,9.59924,-0.220342,2.76625,3.01829,4.02439,-3.68902,-7.04375,0.138911,6.96951,1.31098,-3.75,6.43293
6666.51,90.814,45.5885,0,9.63756,-0.196392,3.0273,0.640244,4.02439,-4.54268,-7.18745,0.124541,6.9719,2.34756,-6.18902,6.82927
6666.52,90.8016,45.542,0,9.8603,-0.534089,2.39023,0.731707,3.29268,-5.94512,-7.19943,0.134121,7.04375,2.65244,-8.35366,6.89024
6666.53,90.783,45.5187,0,9.6663,-0.56283,2.41897,-0.243902,2.77439,-7.07317,-7.09644,0.0934058,7.07249,1.79878,-9.93902,7.16463
6666.54,90.7752,45.4746,0,9.56092,-0.656235,2.68482,1.52439,1.43293,-7.22561,-6.99585,0.0359253,6.84018,1.4939,-10.4573,7.5
6666.55,90.7448,45.437,0,9.49386,-0.560435,2.56746,4.5122,0.792683,-8.41463,-6.94556,-0.0694556,6.81862,2.19512,-10.5488,7.56098
6666.56,90.6832,45.3945,0,9.62079,-0.275427,2.81175,4.96951,-0.396341,-8.10976,-6.90963,-0.143701,6.74438,3.07927,-11.6768,7.43902
6666.57,90.6294,45.3414,0,9.48907,-0.395178,2.9339,5.94512,-3.35366,-8.96341,-6.94556,-0.134121,6.70605,3.93293,-11.7378,7.37805
6666.58,90.5404,45.2664,0,9.68306,-0.0910107,2.65847,6.46341,-3.56707,-8.90244,-7.04375,-0.131726,6.65815,5.30488,-12.3476,7.22561
6666.59,90.4344,45.2274,0,9.62558,0.0862207,2.62734,4.90854,0,-8.65854,-7.08447,-0.0502954,6.89287,6.58537,-13.3537,6.95122
6666.6,90.3588,45.1718,0,9.75252,-0.201182,2.53633,4.90854,2.37805,-9.2378,-7.12758,0.0455054,6.82341,7.31707,-14.6646,6.85976
6666.61,90.2904,45.12,0,9.75491,-0.170046,2.41897,4.63415,2.71341,-8.29268,-7.13955,0.174836,6.84257,6.92073,-15.9146,6.82927
6666.62,90.2236,45.0986,0,9.8124,-0.0766406,2.56267,5.45732,1.0061,-7.13415,-7.13716,0.268242,7.01262,6.95122,-17.4085,6.31098
6666.63,90.1741,45.0827,0,10.0591,-0.105381,2.71116,1.95122,2.40854,-5.82317,-7.15392,0.392783,7.05573,6.28049,-18.75,5.79268
6666.64,90.0725,45.0817,0,9.72617,0.158071,2.6944,1.79878,-1.06707,-8.10976,-7.12279,0.510139,7.11321,5.06098,-19.3902,5.27439
6666.65,89.9908,45.0966,0,9.7118,0.0646655,2.67524,0.0609756,-0.213415,-7.40854,-7.12758,0.560435,7.21619,3.78049,-20.6707,4.39024
6666.66,89.9394,45.1039,0,9.5202,-0.184417,2.6465,0.426829,1.7378,-7.53049,-7.20182,0.474214,7.24493,3.23171,-22.2561,3.81098
6666.67,89.8888,45.0958,0,9.40045,-0.167651,2.7878,3.59756,0.518293,-7.37805,-7.19224,0.414338,7.13716,3.04878,-24.2073,3.5061
6666.68,89.8187,45.0854,0,9.45793,-0.0790356,2.51477,4.96951,-2.07317,-8.35366,-7.05812,0.371228,6.98627,2.65244,-25.7012,3.04878
6666.69,89.7451,45.1107,0,9.57768,-0.0311353,2.51956,4.2378,-1.21951,-8.2622,-6.94316,0.390388,7.08686,2.56098,-27.5,3.56707
6666.7,89.6683,45.1398,0,10.0639,-0.00958008,2.50998,3.47561,0.457317,-8.47561,-6.90484,0.337698,7.07728,3.01829,-28.0793,3.29268
6666.71,89.636,45.1946,0,9.58487,-0.344883,2.76864,3.59756,-0.853659,-8.17073,-6.81144,0.320933,7.14674,4.60366,-29.7256,3.20122
6666.72,89.6154,45.2908,0,9.64953,-0.517324,2.74709,7.83537,-5.15244,-9.11585,-6.77791,0.318538,7.39103,4.78659,-29.8476,3.17073
6666.73,89.547,45.3849,0,9.26394,-0.198787,2.90516,5.06098,-8.47561,-10.2744,-6.79707,0.215552,7.42217,4.87805,-30.0305,3.10976
6666.74,89.5211,45.4972,0,9.05317,-0.574805,2.56507,6.43293,-7.89634,-10.9756,-6.71563,0.364043,7.47725,4.87805,-30.3049,3.65854
6666.75,89.4487,45.6206,0,9.41003,-0.234712,2.692,6.61585,-6.98171,-11.2805,-6.62462,0.490979,7.47725,5,-30.8537,4.2378
6666.76,89.3815,45.7262,0,9.43398,-0.186812,2.7399,4.2378,-6.52439,-10.3049,-6.70605,0.543669,7.48204,4.5122,-31.7073,4.57317
6666.77,89.2885,45.8587,0,9.73336,0.0239502,3.36261,4.93902,-6.58537,-10.4573,-6.77791,0.59636,7.77184,3.65854,-33.2012,4.96951
6666.78,89.1711,46.0291,0,9.50823,0.160466,3.19496,-0.0609756,-7.83537,-11.4634,-6.74198,0.680186,8.0305,2.40854,-35.6098,5.54878
6666.79,89.0745,46.1872,0,9.81,-0.217947,2.13157,2.0122,-13.689,-14.1463,-6.82581,0.5772,8.08798,2.34756,-37.3171,6.0061
6666.8,88.9181,46.3366,0,9.66151,0.129331,2.6441,2.07317,-14.8171,-16.2805,-6.81144,0.423918,8.05445,2.86585,-36.5854,5.57927
6666.81,88.7845,46.5074,0,9.57289,-0.162861,2.28724,2.59146,-12.2561,-17.8354,-6.64857,0.318538,8.05685,2.89634,-36.25,4.84756
6666.82,88.6358,46.7076,0,9.46991,-0.146096,2.77583,3.38415,-12.561,-19.4512,-6.37554,0.373623,7.9826,2.43902,-35.4573,4.54268
6666.83,88.4722,46.9493,0,9.4747,-0.146096,3.13269,2.56098,-12.378,-21.2805,-6.21029,0.225132,8.13349,1.7378,-35.122,4.29878
6666.84,88.305,47.2443,0,9.50823,-0.141306,2.75188,2.43902,-18.5671,-21.9207,-6.00192,0.201182,8.32748,1.03659,-36.4939,4.48171
6666.85,88.1269,47.5284,0,9.93215,-0.0143701,2.80457,0.457317,-18.1402,-21.7988,-5.85582,0.359253,8.13109,0.304878,-36.5549,4.63415
6666.86,87.938,47.8656,0,9.91538,0.107776,2.45729,-1.64634,-15.3659,-21.8293,-5.65225,0.431104,8.33706,-0.27439,-36.1585,5.79268
6666.87,87.7373,48.1969,0,9.56331,0.198787,2.5004,0.0914634,-13.5061,-22.2561,-5.52771,0.426313,8.21252,0.0304878,-35.4268,6.95122
6666.88,87.4941,48.4932,0,9.92257,0.464634,2.51238,0.396341,-8.68902,-23.9634,-5.39119,0.265847,7.84848,1.64634,-33.3232,7.7439
6666.89,87.2436,48.8226,0,9.67827,0.507744,2.48124,1.98171,-10,-24.5427,-5.18761,0.170046,7.8844,2.95732,-31.372,7.89634
6666.9,86.9745,49.2029,0,9.63995,0.673001,2.36628,2.22561,-9.69512,-24.939,-5.04152,0.0574805,8.15504,3.90244,-30.122,7.53049
6666.91,86.726,49.6067,0,9.86748,0.440684,2.4549,2.62195,-9.87805,-26.311,-4.93374,0.0862207,8.29395,3.78049,-29.7256,7.2561
6666.92,86.4634,50.0257,0,10.0567,0.57241,2.52675,-0.304878,-3.65854,-26.8293,-4.83554,0.0814307,8.38975,3.01829,-29.4207,6.82927
6666.93,86.2412,50.4214,0,9.87227,0.261057,2.00942,-0.518293,-7.92683,-26.7988,-4.75651,0.162861,8.19815,3.65854,-28.0183,6.76829
6666.94,86.0184,50.8302,0,9.79323,0.368833,2.24174,-0.518293,-6.43293,-26.0061,-4.66071,0.182021,8.27719,3.62805,-25.8232,6.98171
6666.95,85.752,51.2454,0,9.7597,0.823887,2.24653,-1.28049,1.34146,-25.4573,-4.56012,0.371228,8.29395,3.35366,-24.0854,7.80488
6666.96,85.4943,51.6581,0,9.78126,0.802332,1.84656,-0.579268,-0.396341,-25.3963,-4.52659,0.524509,8.35622,2.92683,-22.5915,8.68902
6666.97,85.2481,52.0497,0,9.85072,0.797541,2.03577,0,-1.92073,-24.878,-4.55772,0.617915,8.37299,2.65244,-21.7988,9.35976
6666.98,85.0032,52.4039,0,9.76928,0.826282,2.33275,-0.487805,-2.31707,-24.8171,-4.56012,0.64905,8.18857,2.28659,-21.2805,9.5122
6666.99,84.8024,52.7248,0,9.73815,0.510139,1.50407,1.58537,-4.35976,-24.5732,-4.57209,0.560435,8.05206,2.19512,-19.6341,8.5061
6667,84.5513,53.0266,0,9.84593,1.04183,2.22737,2.40854,-3.32317,-23.9024,-4.61281,0.416733,8.07122,2.46951,-18.8415,7.2561
6667.01,84.3096,53.3037,0,9.57289,1.18074,1.75794,2.40854,-6.15854,-21.4329,-4.6152,0.349673,7.97302,2.22561,-18.0793,5.91463
6667.02,84.0764,53.5759,0,9.74533,1.14961,2.12917,1.34146,-5.09146,-21.6768,-4.68466,0.285007,8.14307,2.31707,-17.9573,5.51829
6667.03,83.8489,53.8697,0,9.2304,1.05141,2.02619,0.853659,-5.09146,-22.0427,-4.72537,0.273032,8.49034,1.76829,-18.811,5.33537
6667.04,83.6503,54.1684,0,9.38129,0.802332,2.2106,1.46341,-8.35366,-22.8354,-4.68705,0.330513,8.56699,1.79878,-19.6951,5.73171
6667.05,83.4475,54.4645,0,9.73815,0.850232,2.21779,1.82927,-9.17683,-23.4756,-4.57928,0.457449,8.45202,1.76829,-19.1463,6.64634
6667.06,83.2083,54.7545,0,9.78366,1.10171,2.05253,0.0914634,-8.35366,-24.6646,-4.55772,0.526904,8.464,1.64634,-18.0183,7.34756
6667.07,82.9779,55.0135,0,9.84353,0.965193,2.01421,-0.213415,-8.20122,-25.9451,-4.63197,0.505349,8.42807,1.55488,-17.561,8.10976
6667.08,82.695,55.2513,0,9.67109,1.46815,1.79866,-0.945122,-5.51829,-25.5793,-4.69424,0.371228,8.44484,1.55488,-17.7134,7.77439
6667.09,82.3933,55.46,0,9.77647,1.77471,1.90404,-1.7378,-4.87805,-24.6951,-4.75411,0.340093,8.37778,1.82927,-18.7805,7.13415
6667.1,82.1101,55.6835,0,10.186,1.70765,1.67891,-2.16463,-6.15854,-25,-4.76609,0.399968,8.60052,2.19512,-19.7561,6.46341
6667.11,81.8354,55.9178,0,9.75731,1.67412,1.99026,-0.670732,-4.66463,-24.2683,-4.79004,0.378413,8.82086,1.64634,-21.0976,6.31098
6667.12,81.5683,56.1721,0,9.66151,1.60227,1.96152,-1.34146,-4.17683,-24.6951,-4.68945,0.452659,8.90708,0.731707,-21.3415,6.12805
6667.13,81.3135,56.4429,0,9.6184,1.45138,1.99266,-0.579268,-4.45122,-25.7012,-4.63436,0.450264,9.05796,-0.0914634,-21.311,6.46341
6667.14,81.053,56.7216,0,9.57768,1.47773,1.65735,-0.396341,-2.95732,-26.4024,-4.58886,0.421523,9.15376,-0.640244,-21.6159,6.28049
6667.15,80.8002,56.9798,0,9.68306,1.26457,1.73878,0.97561,-6.7378,-28.872,-4.56251,0.519719,9.00767,-1.31098,-21.0366,5.39634
6667.16,80.5394,57.2146,0,9.57768,1.16877,1.51126,3.23171,-7.95732,-31.189,-4.6176,0.603545,8.98851,-1.18902,-20.2744,5.30488
6667.17,80.2303,57.4324,0,9.44596,1.49689,1.80105,4.96951,-8.93293,-32.4695,-4.66789,0.490979,9.01006,-1.12805,-20.5793,4.45122
6667.18,79.8923,57.6342,0,9.94891,1.85854,1.54718,5.73171,-9.96951,-32.8354,-4.75411,0.368833,9.10347,-0.823171,-20.8841,4.11585
6667.19,79.5276,57.8324,0,9.69743,2.17468,2.14594,5.73171,-8.35366,-32.0427,-4.75651,0.222737,9.14897,-0.97561,-21.9512,3.84146
6667.2,79.1467,58.0559,0,9.74054,2.20581,2.09325,5.39634,-10.0305,-34.2073,-4.66789,0.191602,9.30705,-1.09756,-22.7744,4.02439
6667.21,78.7829,58.2875,0,9.74294,1.90883,1.83219,4.48171,-9.87805,-36.6463,-4.62239,0.246687,9.38848,-0.823171,-23.811,4.57317
6667.22,78.4394,58.539,0,9.92975,1.72441,2.00942,5.39634,-9.42073,-37.8354,-4.53138,0.311353,9.50583,-0.335366,-25.0305,4.90854
6667.23,78.099,58.78,0,10.1525,1.72681,1.64777,7.86585,-7.07317,-38.628,-4.48108,0.313748,9.39327,-0.213415,-25.9146,5.60976
6667.24,77.7154,59.0088,0,10.2938,2.18905,1.81063,8.78049,-5.33537,-38.9329,-4.46671,0.337698,9.33339,0.518293,-27.0732,5.79268
6667.25,77.2786,59.2225,0,10.1405,2.73751,1.79147,9.20732,-2.34756,-38.811,-4.4739,0.359253,9.2831,0.640244,-27.2866,6.40244
6667.26,76.8227,59.4473,0,9.9082,3.08718,1.65256,8.17073,0.335366,-37.1646,-4.39007,0.440684,9.31423,-0.0304878,-27.2256,6.55488
6667.27,76.3629,59.6742,0,9.52499,3.01533,1.85854,6.70732,0.518293,-37.9573,-4.36133,0.385598,9.37171,-0.884146,-27.1646,6.7378
6667.28,75.9357,59.9118,0,9.20885,2.47166,2.08846,6.52439,-1.0061,-40.7622,-4.29906,0.340093,9.44835,-1.03659,-27.9878,6.92073
6667.29,75.5394,60.1377,0,9.16334,1.90644,1.90644,6.61585,-3.90244,-45.1524,-4.22481,0.234712,9.26154,-0.27439,-27.8354,6.95122
6667.3,75.1359,60.3902,0,9.37171,1.78668,1.70765,8.53659,-7.22561,-48.6585,-4.0883,0.179626,9.34776,0.335366,-27.7439,6.89024
6667.31,74.6895,60.6716,0,9.72857,2.18186,1.55197,10.7927,-10.5183,-50.0915,-3.96376,0.237107,9.50344,0.670732,-27.4695,7.10366
6667.32,74.1983,60.9528,0,10.1381,2.80936,1.47773,13.6585,-8.84146,-49.7561,-3.9446,0.368833,9.58966,1.12805,-26.7683,7.95732
6667.33,73.672,61.2684,0,10.2363,3.27399,1.95673,11.2805,-5.88415,-49.7561,-3.80569,0.452659,9.8076,1.79878,-26.4024,8.41463
6667.34,73.1449,61.5837,0,10.2483,3.38416,1.68609,13.2622,-5.7622,-49.8171,-3.753,0.62989,9.82677,1.76829,-26.6768,8.65854
6667.35,72.5956,61.8742,0,9.67348,3.55181,2.26569,14.7561,-4.96951,-49.2988,-3.8009,0.699346,9.79563,0.945122,-25.8232,8.59756
6667.36,72.0325,62.1575,0,8.94061,3.49912,1.89925,13.3232,-2.62195,-49.3598,-3.72905,0.651445,9.66869,-0.792683,-23.811,8.59756
6667.37,71.4717,62.4315,0,8.32988,3.11832,2.22018,12.7439,-2.59146,-52.0122,-3.69312,0.57241,9.60642,-2.16463,-21.6463,8.04878
6667.38,70.973,62.7222,0,8.49274,2.49561,1.88728,12.378,-5.45732,-55.2744,-3.54942,0.570015,9.58008,-2.40854,-20.5488,7.95732
6667.39,70.4843,63.0132,0,9.33339,2.73511,1.13763,12.7439,-9.17683,-55.3659,-3.52307,0.64426,9.6663,-2.31707,-19.4817,7.89634
6667.4,69.9475,63.3094,0,9.46272,3.35303,1.65256,12.5915,-9.02439,-54.7866,-3.41769,0.735271,9.59924,-2.37805,-18.1402,8.23171
6667.41,69.4167,63.5912,0,9.87706,3.70989,1.68609,12.5305,-6.09756,-53.0793,-3.36261,0.816702,9.41482,-3.01829,-16.0976,7.89634
6667.42,68.9231,63.8554,0,10.0806,3.67157,1.60706,14.5427,-1.12805,-51.5244,-3.40811,0.835862,9.46512,-3.47561,-13.5366,7.04268
6667.43,68.3912,64.1195,0,9.73575,4.04519,1.76992,16.4634,1.03659,-51.25,-3.42967,0.752036,9.6639,-4.63415,-12.622,6.4939
6667.44,67.8554,64.3651,0,9.33579,3.95178,1.60945,16.5549,4.63415,-51.9512,-3.50391,0.63947,9.76449,-5.97561,-12.7439,5.2439
6667.45,67.3208,64.5802,0,8.79691,3.60211,1.42743,16.9207,3.23171,-54.2988,-3.47517,0.471819,9.41243,-6.55488,-12.1037,4.05488
6667.46,66.7724,64.8079,0,8.64602,3.69073,1.17835,17.561,-0.823171,-55.061,-3.31231,0.359253,9.23999,-7.0122,-10.7012,3.53659
6667.47,66.1899,65.0742,0,8.81607,4.19847,1.3484,20.4573,-5.54878,-54.878,-3.15185,0.330513,9.41243,-6.64634,-9.14634,3.87195
6667.48,65.6025,65.3436,0,8.67237,4.59844,1.24302,22.1951,-7.56098,-51.5244,-3.09676,0.356858,9.43638,-5.88415,-8.47561,4.14634
6667.49,65.0265,65.5942,0,8.56219,4.71579,1.03465,22.0732,-9.42073,-49.6951,-3.10155,0.332908,9.33818,-5.27439,-7.28659,4.84756
6667.5,64.4874,65.8263,0,8.40412,4.35654,1.46096,22.5,-10.7927,-50.061,-3.10634,0.344883,9.22083,-4.93902,-5.57927,4.84756
6667.51,63.9783,66.0428,0,8.70111,4.32062,1.23344,20.6098,-10.6098,-50.122,-3.15903,0.376018,9.27352,-4.57317,-4.87805,5.09146
6667.52,63.4701,66.2516,0,8.8017,4.35894,1.2981,19.2683,-10.7317,-51.189,-3.15664,0.409548,9.26154,-4.5122,-4.5122,5.70122
6667.53,62.9498,66.464,0,8.80409,4.38768,1.69567,18.8415,-10.6402,-53.1707,-3.11353,0.452659,9.20646,-4.5122,-3.65854,6.40244
6667.54,62.4244,66.7255,0,8.64602,4.38289,1.27176,20.0305,-11.0366,-53.9634,-3.04167,0.526904,9.26154,-4.45122,-2.19512,7.16463
6667.55,61.8758,67.0884,0,8.67716,4.70861,1.2023,19.0854,-11.0061,-54.1159,-3.02251,0.522114,9.2304,-4.87805,-1.0061,8.01829
6667.56,61.3489,67.411,0,8.62446,4.75651,1.31726,19.2073,-13.1098,-52.2256,-3.04646,0.397573,9.28549,-5.18293,1.03659,8.10976
6667.57,60.8175,67.6766,0,8.69632,5.03433,1.29092,19.5732,-12.561,-51.3415,-3.05844,0.225132,9.35734,-4.90854,1.34146,7.5
6667.58,60.3192,67.843,0,8.86636,5.11337,1.17595,19.2073,-13.7805,-49.2378,-3.11592,0.114961,9.20885,-5.15244,2.59146,6.76829
6667.59,59.8351,67.9769,0,8.93582,5.39119,1.13763,21.7073,-13.9024,-46.4939,-3.11592,0.0239502,9.137,-4.72561,4.60366,6.03659
6667.6,59.3494,68.1024,0,8.71308,5.43669,1.2526,21.5854,-11.9512,-45.8841,-3.12311,-0.00718506,9.15856,-4.7561,6.58537,5.03049
6667.61,58.8967,68.2196,0,8.80888,5.36484,1.03704,21.372,-10.1524,-44.7866,-3.13269,0.0215552,9.15137,-4.66463,8.68902,5.18293
6667.62,58.4275,68.3544,0,8.37299,5.34568,1.2023,20.6402,-9.81707,-44.9085,-3.02251,0.189207,9.12502,-5.09146,10,6.06707
6667.63,57.9306,68.4881,0,8.02571,5.11337,1.03704,18.8415,-7.77439,-48.811,-2.9315,0.419128,8.91187,-4.57317,12.1646,7.43902
6667.64,57.4431,68.6083,0,7.91554,4.93853,1.29092,21.4634,-6.67683,-49.9695,-2.89079,0.57241,8.68674,-4.08537,14.5122,8.47561
6667.65,56.9394,68.7029,0,8.30832,5.49178,1.36037,17.7744,-10.3049,-49.5427,-2.98419,0.469424,8.7059,-3.53659,16.4939,9.29878
6667.66,56.4479,68.7775,0,8.27479,5.64506,0.936453,17.8354,-9.7561,-47.622,-3.07042,0.193997,8.75619,-3.84146,17.8354,8.96341
6667.67,56.0063,68.8374,0,8.17899,5.4822,1.10889,16.1585,-11.9207,-44.4817,-3.15664,-0.0335303,8.85678,-3.78049,19.3293,8.04878
6667.68,55.6016,68.8928,0,8.25563,5.44148,0.938848,16.5854,-16.0061,-42.5305,-3.14227,-0.165256,8.79451,-3.65854,20.6098,6.18902
6667.69,55.2312,68.9388,0,8.16941,5.34329,0.64905,16.7988,-13.4756,-40.2744,-3.08239,-0.0622705,8.54782,-3.20122,22.9878,5.60976
6667.7,54.8166,69.0087,0,7.87961,5.39598,0.898132,16.0366,-12.8049,-43.0488,-2.95306,0.0862207,8.49513,-3.17073,26.189,5.85366
6667.71,54.4178,69.0959,0,7.7431,5.0511,1.03465,14.7866,-12.5915,-44.9085,-2.886,0.155676,8.55262,-3.84146,28.6585,6.61585
6667.72,54.0303,69.1608,0,7.64969,4.91937,0.979563,16.8293,-14.6951,-45.3354,-2.86205,0.193997,8.26042,-3.59756,31.372,7.34756
6667.73,53.5705,69.1959,0,7.60179,5.47741,1.1065,16.7988,-16.189,-47.3171,-2.9315,0.189207,8.15025,-3.62805,34.2378,7.86585
6667.74,53.1306,69.2054,0,7.71915,5.77918,0.486189,18.4756,-21.7988,-44.0854,-3.09916,0.117356,8.33706,-2.95732,35.1829,8.62805
6667.75,52.6691,69.1652,0,7.45809,6.23184,0.699346,18.1402,-24.0244,-40.9451,-3.27878,-0.0143701,8.26761,-2.19512,35.4878,8.41463
6667.76,52.238,69.0695,0,7.67843,6.251,0.637075,20.1829,-24.6341,-40.2744,-3.44643,-0.0790356,8.09277,-1.0061,37.378,8.20122
6667.77,51.8181,68.9537,0,8.12391,6.57433,0.56283,19.8171,-19.7561,-40.3659,-3.48236,-0.0981958,7.94907,0.396341,39.878,8.41463
6667.78,51.4331,68.8516,0,8.39454,6.38991,0.761616,16.6159,-15.9146,-41.128,-3.49912,-0.100591,8.0808,0.548781,42.7439,8.41463
6667.79,51.0935,68.7752,0,8.43526,6.10251,0.759221,15.6402,-8.5061,-40.122,-3.50152,-0.0742456,8.30832,0.213415,45.0915,8.29268
6667.8,50.7311,68.6444,0,8.06164,5.97557,0.64426,12.0122,-1.43293,-41.7988,-3.52307,-0.0383203,7.80537,-0.335366,47.6524,8.04878
6667.81,50.4193,68.4739,0,8.04727,5.55166,0.308958,13.628,0,-41.3415,-3.56139,0.0981958,7.49641,-0.0304878,50.5488,7.65244
6667.82,50.084,68.3319,0,7.597,5.76242,0.450264,14.3598,0.640244,-39.1159,-3.63803,0.270637,7.85087,0.731707,50.5183,7.31707
6667.83,49.6792,68.1467,0,6.98867,6.18873,0.486189,14.1463,0.97561,-38.0183,-3.82006,0.340093,7.79818,1.58537,49.4817,7.0122
6667.84,49.2593,67.936,0,6.80186,6.33243,0.955613,14.878,0.0609756,-37.4695,-4.07153,0.304167,8.01613,1.15854,50,6.55488
6667.85,48.8045,67.718,0,6.94316,6.69887,1.09452,14.2073,-7.34756,-39.8171,-4.25834,0.251477,8.24366,0.487805,50.6098,5.7622
6667.86,48.3596,67.4573,0,7.20422,6.55517,0.60115,13.5061,-12.6829,-43.1402,-4.39965,0.244292,8.06882,-0.0914634,52.8963,5.15244
6667.87,47.9123,67.1689,0,7.49641,6.69408,0.998723,10.6707,-12.2256,-45.3963,-4.44276,0.155676,7.8365,-0.0609756,55.9451,5.12195
6667.88,47.446,66.8753,0,7.09405,6.5408,0.673001,8.81098,-12.7134,-46.372,-4.40684,0.138911,7.6473,-0.487805,58.872,4.7561
6667.89,46.9784,66.6186,0,6.95514,6.74917,0.66821,7.5,-16.8598,-44.4817,-4.42121,0.126936,7.87482,-2.10366,59.8171,5.06098
6667.9,46.5635,66.3283,0,6.91682,6.60067,0.469424,4.17683,-20.9451,-41.0366,-4.49785,0.0790356,7.66167,-2.31707,59.6951,5.4878
6667.91,46.2678,66.0065,0,6.95993,6.10011,0.0479004,7.43902,-24.7256,-34.6646,-4.63197,0.129331,7.55868,-2.13415,60.3963,6.34146
6667.92,45.8672,65.6467,0,6.61265,6.81623,0.548459,8.23171,-28.2012,-36.5244,-4.83794,0.122146,7.51318,-1.15854,60.7012,6.37195
6667.93,45.5078,65.2546,0,6.74677,6.7348,-0.143701,6.46341,-29.5122,-35,-4.98883,0.114961,7.41019,-0.487805,61.5244,6.40244
6667.94,45.1449,64.8712,0,6.85934,6.9264,0.0766406,4.87805,-29.2683,-35.4268,-5.13492,0.0934058,7.57784,-0.365854,61.7378,6.06707
6667.95,44.8016,64.4658,0,7.10363,6.9264,-0.251477,5.82317,-31.4329,-36.2195,-5.19959,0.0335303,7.41019,-0.0304878,62.5,5.64024
6667.96,44.4678,64.0256,0,7.35032,7.05094,-0.234712,6.03659,-32.2256,-36.8902,-5.20677,0.0431104,7.07968,0.152439,64.4207,5.60976
6667.97,44.1274,63.6039,0,7.43893,7.17548,-0.205972,3.84146,-27.0427,-37.9268,-5.15408,-0.0407153,7.01741,0.792683,65.9451,6.15854
6667.98,43.8278,63.1816,0,7.62095,6.93837,-0.268242,2.07317,-22.3171,-37.8354,-5.17564,-0.105381,6.93598,1.46341,66.3719,7.07317
6667.99,43.5331,62.7328,0,7.42456,6.78988,-0.462239,2.43902,-19.939,-37.6829,-5.25707,-0.131726,6.77072,2.7439,65.8232,7.68293
6668,43.2513,62.2801,0,7.25691,6.5863,-0.450264,1.58537,-16.6463,-37.4085,-5.37442,-0.112566,6.78749,3.81098,65.6707,8.68902
6668.01,42.9174,61.7593,0,6.89766,6.87131,-0.608335,0.121951,-16.0671,-37.8659,-5.57561,-0.0742456,6.51685,5.51829,65.3354,9.63415
6668.02,42.5837,61.2911,0,6.72282,6.81862,-0.761616,1.31098,-13.3841,-37.4695,-5.69536,0.0694556,6.84976,5.33537,64.8476,9.90854
6668.03,42.2193,60.8127,0,6.50248,6.96711,-0.498164,2.62195,-11.9207,-38.0793,-5.76721,0.246687,6.75875,5,63.9634,10.5183
6668.04,41.8322,60.3106,0,6.32525,6.95514,-0.215552,3.62805,-10.4573,-39.6341,-5.88935,0.356858,6.64618,4.63415,64.7561,10.6402
6668.05,41.4426,59.8453,0,6.40668,6.79946,-0.277822,2.37805,-12.2256,-42.7439,-5.93725,0.443079,6.80186,3.96341,65.061,10.7317
6668.06,41.0576,59.35,0,6.47613,6.32525,-0.560435,-0.487805,-11.0061,-47.9268,-6.04503,0.488584,6.6342,3.23171,65.1219,10.8841
6668.07,40.6707,58.8607,0,6.61265,5.95881,-0.888552,0.121951,-7.7439,-53.5976,-6.1073,0.510139,6.62223,2.43902,65.2134,10.6098
6668.08,40.2544,58.3304,0,6.60786,6.41865,-0.785566,2.56098,-4.87805,-53.0183,-6.17197,0.476609,6.34441,1.95122,65,9.90854
6668.09,39.8462,57.801,0,6.27256,6.59349,-0.62989,4.20732,-2.68293,-48.4146,-6.22945,0.483794,6.29172,1.25,64.9695,8.87195
6668.1,39.4072,57.3197,0,6.41386,7.56587,-0.332908,6.61585,-1.12805,-45.7012,-6.37794,0.507744,6.59588,-1.31098,63.8415,7.43902
6668.11,38.9913,56.7966,0,6.2989,7.7407,-0.376018,6.31098,-1.79878,-41.8902,-6.46895,0.488584,6.33962,-2.71341,63.1402,5.7622
6668.12,38.6182,56.2501,0,6.38752,7.58982,-0.426313,5.82317,-1.28049,-40.3049,-6.56954,0.534089,6.19352,-3.65854,63.5671,4.42073
6668.13,38.2894,55.6914,0,6.51685,7.2593,-0.495769,5.85366,0.304878,-40.2744,-6.64857,0.519719,6.08335,-3.96341,64.2378,3.84146
6668.14,37.9637,55.1486,0,6.61265,7.22338,-0.795146,6.06707,0.243902,-41.7683,-6.71803,0.467029,6.11448,-5,65.061,3.78049
6668.15,37.6448,54.6011,0,6.63181,7.15871,-0.754431,8.2622,0.762195,-42.439,-6.74917,0.419128,6.00192,-5.94512,65.5793,4.02439
6668.16,37.3227,54.066,0,6.58151,7.20182,-0.469424,10.2134,3.29268,-42.622,-6.80425,0.306563,6.00192,-6.4939,66.0061,4.7561
6668.17,36.9797,53.4882,0,6.43781,7.5515,-0.387993,9.93902,2.53049,-41.372,-6.91442,0.179626,5.76242,-6.82927,66.7683,5.67073
6668.18,36.5978,52.8774,0,5.94683,7.8389,-0.512534,6.64634,1.98171,-39.3902,-7.00783,0.0886157,5.55405,-6.40244,67.7439,7.0122
6668.19,36.1972,52.2591,0,5.6283,7.87482,-0.505349,5.18293,2.7439,-38.75,-7.09165,0.0479004,5.46064,-5.79268,67.1037,8.23171
6668.2,35.8068,51.6522,0,5.48699,7.72633,-0.529299,6.70732,2.46951,-38.1707,-7.15632,0.0383203,5.44388,-5.39634,66.5244,9.2378
6668.21,35.3777,51.0402,0,5.39358,7.96104,-0.0838257,4.87805,0.0304878,-40.3354,-7.18745,0.107776,5.32413,-5.7622,66.6159,10.2134
6668.22,34.9419,50.4614,0,5.32173,7.92272,-0.00718506,1.95122,0.823171,-41.4329,-7.20901,0.146096,5.384,-5.94512,66.7988,11.311
6668.23,34.5274,49.8664,0,5.48938,7.85806,-0.00718506,2.9878,2.46951,-42.2866,-7.2617,0.0622705,5.23072,-5.30488,66.5854,11.9512
6668.24,34.1403,49.2539,0,5.70973,7.92033,-0.0862207,3.71951,2.10366,-42.0732,-7.37906,0.0550855,5.11576,-4.69512,67.1951,12.3476
6668.25,33.7543,48.6259,0,5.62111,7.99458,-0.112566,3.84146,-0.396341,-41.372,-7.50839,0.0119751,5.01278,-4.14634,67.2256,12.1341
6668.26,33.3754,48.0214,0,5.59477,7.91314,-0.131726,3.75,-1.43293,-41.7378,-7.60898,0.0526904,5.07265,-4.45122,66.5854,11.9512
6668.27,32.9932,47.3785,0,5.37442,8.00895,-0.129331,3.17073,-3.32317,-40,-7.70478,0.0598755,4.83554,-5.21341,66.0671,11.25
6668.28,32.6353,46.8056,0,5.32173,7.94907,-0.0215552,1.09756,-4.14634,-38.1707,-7.76705,0.189207,5.08942,-6.25,65.3659,10.1829
6668.29,32.2725,46.2282,0,5.21396,8.46879,-0.138911,-3.87195,-9.26829,-34.939,-7.76944,0.261057,4.95769,-6.92073,64.2073,9.54268
6668.3,31.9231,45.6112,0,4.92416,8.11912,-0.483794,-4.90854,-13.628,-33.5366,-7.75507,0.347278,4.65352,-6.15854,64.5732,9.20732
6668.31,31.5807,45.0004,0,4.90979,7.94667,-0.598755,-3.20122,-15.3659,-34.5122,-7.80297,0.392783,4.59844,-5.7622,65.2744,9.14634
6668.32,31.2273,44.4264,0,5.05589,8.34904,-0.517324,-1.64634,-14.3293,-35.2744,-7.89398,0.371228,4.711,-5.54878,65.1829,8.62805
6668.33,30.9339,43.8202,0,5.48938,8.28916,-0.687371,-1.85976,-11.4939,-34.6037,-7.9826,0.299377,4.50503,-5.82317,64.9085,8.59756
6668.34,30.6558,43.2046,0,5.50136,8.15265,-0.804727,-0.426829,-10.5488,-34.6646,-8.09756,0.210762,4.41402,-6.37195,64.6341,8.04878
6668.35,30.4146,42.6208,0,5.69296,8.18378,-1.09452,1.98171,-7.37805,-33.1098,-8.16702,0.126936,4.48587,-6.18902,63.811,7.86585
6668.36,30.1807,42.0114,0,5.62351,8.18378,-1.03465,3.14024,-6.25,-32.1951,-8.22929,0.0646655,4.29187,-5.57927,63.1707,7.59146
6668.37,29.9364,41.4136,0,5.54208,8.50232,-0.749641,4.69512,-3.44512,-30.8841,-8.23408,0.0598755,4.23679,-4.5122,63.1098,7.86585
6668.38,29.6859,40.81,0,5.27144,8.55262,-0.701741,2.9878,0.609756,-29.0549,-8.27719,0.0838257,4.12422,-4.20732,63.3841,8.04878
6668.39,29.4209,40.2017,0,4.90261,8.33946,-0.718506,2.83537,2.83537,-28.5976,-8.34185,0.0886157,4.02603,-3.65854,63.4146,8.10976
6668.4,29.1354,39.5902,0,4.79004,8.49753,-0.65863,3.41463,2.40854,-29.1159,-8.43765,0.102986,3.94699,-3.41463,62.622,8.41463
6668.41,28.8599,38.9975,0,4.79243,8.72027,-0.447869,0.579268,-0.792683,-27.4085,-8.53824,0.148491,3.96855,-3.44512,61.8293,8.62805
6668.42,28.564,38.4096,0,4.46432,8.60052,-0.495769,1.7378,0.731707,-27.2866,-8.6101,0.196392,3.91586,-3.5061,61.4329,8.47561
6668.43,28.2246,37.8448,0,4.09069,8.59093,-0.285007,3.29268,2.56098,-28.2927,-8.6077,0.268242,3.91346,-4.60366,61.25,8.29268
6668.44,27.893,37.3185,0,4.12662,8.93582,-0.0910107,1.21951,1.37195,-26.8293,-8.7059,0.311353,4.03321,-5.27439,60.7927,8.10976
6668.45,27.5916,36.7174,0,4.25595,8.58375,-0.311353,1.92073,0.823171,-27.6524,-8.71548,0.344883,3.59971,-5.03049,61.2195,8.35366
6668.46,27.2702,36.1288,0,4.13859,8.5095,-0.282612,0.426829,-2.37805,-29.4207,-8.79451,0.387993,3.58055,-5.57927,60.7622,8.47561
6668.47,26.975,35.5985,0,4.47869,8.68195,-0.852627,2.43902,-2.43902,-30.1524,-8.99809,0.385598,3.82485,-6.89024,58.689,8.87195
6668.48,26.7366,34.9853,0,4.88584,9.04838,-0.555645,1.46341,-5.06098,-27.1646,-9.00048,0.416733,3.34824,-7.13415,58.75,9.60366
6668.49,26.4974,34.3967,0,4.68466,8.93582,-0.783171,-1.0061,-6.09756,-26.311,-8.97653,0.385598,3.33866,-6.34146,56.8293,10.3963
6668.5,26.2243,33.8293,0,4.24158,9.0891,-0.965193,-1.15854,-1.40244,-24.8476,-9.04838,0.395178,3.35542,-6.06707,56.0671,11.0976
6668.51,25.9326,33.2441,0,3.93741,9.02204,-0.799937,2.95732,3.38415,-24.3598,-9.12981,0.359253,3.20214,-6.15854,55.7012,10.8841
6668.52,25.6027,32.6323,0,3.63803,8.68913,-0.344883,3.84146,4.29878,-27.1037,-9.22083,0.256267,3.00814,-5.57927,55.5488,10.7012
6668.53,25.2881,32.0668,0,3.83203,8.85199,-0.476609,4.2378,3.96341,-27.622,-9.331,0.193997,3.14466,-5.4878,54.6646,9.84756
6668.54,25.0019,31.5099,0,4.04519,9.18729,-0.402363,0.792683,0.884146,-26.0976,-9.41961,0.134121,3.10874,-5.79268,52.8963,8.81098
6668.55,24.748,30.9358,0,4.12183,8.83044,-0.536484,2.40854,0.97561,-25.9451,-9.40764,0.155676,2.92432,-5.36585,51.7378,8.5061
6668.56,24.5163,30.3525,0,4.20565,8.85199,-0.462239,1.92073,1.98171,-25,-9.32142,0.232317,2.75427,-4.72561,51.2805,8.53659
6668.57,24.3147,29.7866,0,4.26792,8.9454,-0.531694,-0.27439,3.2622,-22.5915,-9.2304,0.306563,2.70158,-5.09146,51.128,9.02439
6668.58,24.1225,29.2607,0,4.07872,8.943,-0.831072,-2.07317,5.21341,-20.0305,-9.27352,0.289797,2.79259,-5.91463,50.7927,9.14634
6668.59,23.8639,28.7164,0,3.39853,8.50232,-0.617915,-1.15854,6.0061,-21.6159,-9.32381,0.301772,2.63213,-6.40244,50.3354,9.26829
6668.6,23.5832,28.1701,0,3.45362,8.81607,-0.526904,-0.701219,5.51829,-23.5976,-9.35495,0.282612,2.53633,-6.43293,49.9695,9.08537
6668.61,23.3178,27.6453,0,3.54463,9.29507,-0.385598,1.37195,1.92073,-21.5549,-9.48907,0.196392,2.56986,-5.82317,47.8659,8.59756
6668.62,23.1125,27.0884,0,3.94939,8.99569,-0.356858,1.37195,-0.853659,-21.7378,-9.42919,0.165256,2.31838,-5.91463,46.9817,7.89634
6668.63,22.9201,26.5526,0,4.06674,9.03401,-0.371228,0.701219,-2.68293,-21.9207,-9.49625,0.107776,2.33035,-5.36585,46.0671,7.43902
6668.64,22.7617,26.0121,0,4.19607,9.03162,-0.519719,-0.121951,-3.71951,-20.2439,-9.46751,0.0814307,2.20821,-4.48171,45.6707,7.46951
6668.65,22.6163,25.4319,0,3.98771,8.90468,-0.608335,-0.121951,-3.75,-17.622,-9.44117,0.0598755,1.93518,-4.05488,45.2744,7.68293
6668.66,22.4731,24.8739,0,3.8009,9.06515,-0.706531,-2.10366,-2.92683,-14.878,-9.49146,0.0862207,1.94236,-2.89634,45,8.23171
6668.67,22.3371,24.365,0,3.60929,8.77775,-0.919688,-2.83537,-3.96341,-13.628,-9.53936,0.124541,2.0693,-2.22561,43.75,8.2622
6668.68,22.1427,23.8568,0,3.15664,8.40173,-0.720901,-0.731707,-4.60366,-16.2805,-9.63516,0.122146,2.00224,-1.67683,42.1646,8.14024
6668.69,21.9458,23.3358,0,3.45362,8.66039,-0.66821,-0.27439,-3.65854,-19.2683,-9.65672,0.153281,1.86093,-1.18902,41.8598,7.71341
6668.7,21.8144,22.8099,0,4.08351,9.58008,-0.773591,3.65854,-4.17683,-15.7317,-9.72378,0.193997,1.76034,-0.97561,41.311,7.19512
6668.71,21.6831,22.3101,0,3.92065,9.29747,-0.622705,1.40244,-3.10976,-15.5488,-9.79563,0.244292,1.79626,-1.7378,41.0061,6.55488
6668.72,21.5391,21.8114,0,3.69791,9.43398,-0.622705,-1.25,-1.18902,-14.1159,-9.78126,0.234712,1.71004,-1.7378,40.7317,6.43293
6668.73,21.3823,21.3271,0,3.44643,9.30944,-0.754431,-2.07317,-0.457317,-13.5061,-9.86509,0.229922,1.70046,-1.67683,39.8476,6.12805
6668.74,21.2207,20.8357,0,3.36261,9.25675,-0.790356,-1.64634,0.0304878,-13.5976,-9.88425,0.287402,1.5855,-1.92073,39.4817,6.25
6668.75,21.0504,20.3675,0,3.2213,8.9454,-0.795146,-0.670732,-0.518293,-14.4817,-9.87706,0.347278,1.59987,-1.70732,38.0488,6.85976
6668.76,20.8941,19.861,0,3.46559,8.90229,-0.826282,-0.823171,1.58537,-16.4024,-9.8579,0.330513,1.34361,-1.55488,37.3171,7.62195
6668.77,20.7854,19.3752,0,3.85598,8.9909,-1.13763,2.53049,2.83537,-15.8232,-9.87946,0.258662,1.3484,-1.25,35.7317,7.56098
6668.78,20.7178,18.9177,0,3.9925,9.25436,-0.62989,0.670732,2.5,-12.1037,-9.92736,0.172441,1.3939,-0.365854,34.4817,7.56098
6668.79,20.6349,18.4599,0,3.71707,9.35734,-0.543669,1.0061,2.53049,-10.3963,-9.90341,0.186812,1.30768,0.0304878,33.3537,7.0122
6668.8,20.5167,17.9917,0,3.3195,9.58487,-0.469424,-0.121951,2.7439,-8.93293,-9.87467,0.167651,1.17835,0.335366,33.9329,6.61585
6668.81,20.3692,17.5249,0,2.95545,9.40524,-0.63947,-0.213415,0.853659,-8.78049,-9.86269,0.174836,1.10171,0.121951,34.6646,6.21951
6668.82,20.2018,17.0864,0,2.85007,9.13939,-0.756826,1.21951,-2.65244,-10.8537,-9.87706,0.208367,1.14721,-0.304878,34.6951,6.03659
6668.83,20.033,16.6544,0,3.03209,9.19687,-0.790356,2.40854,-3.84146,-13.2317,-9.88664,0.198787,1.09931,-0.121951,33.9024,5.7622
6668.84,19.8799,16.2036,0,3.28357,9.25675,-0.768801,2.83537,-3.01829,-14.6037,-9.86509,0.210762,0.938848,-0.27439,33.4146,6.18902
6668.85,19.7407,15.7998,0,3.37458,9.18729,-0.673001,1.0061,-0.548781,-14.7866,-9.95131,0.258662,1.07536,-0.335366,32.561,6.37195
6668.86,19.5465,15.3819,0,3.09676,8.96695,-0.617915,-2.62195,0.853659,-18.4146,-10.0064,0.349673,0.946033,-0.731707,31.25,6.85976
6668.87,19.4493,14.9709,0,3.6524,9.33818,-0.775986,3.35366,2.95732,-13.628,-9.98244,0.344883,0.900527,-0.792683,30.4573,7.68293
6668.88,19.3661,14.5758,0,3.4608,9.38129,-0.390388,-0.609756,4.29878,-10.122,-9.96328,0.342488,0.895737,-0.97561,29.4207,8.10976
6668.89,19.3022,14.1858,0,3.40332,8.95737,-0.64426,-0.152439,4.72561,-9.45122,-9.9561,0.366438,0.847837,-1.03659,28.2622,8.62805
6668.9,19.2414,13.8055,0,3.4608,9.08191,-0.816702,1.89024,5.33537,-9.39024,-9.88904,0.414338,0.816702,-1.46341,27.7439,8.90244
6668.91,19.1444,13.4574,0,3.26681,9.52978,-0.828677,2.22561,4.87805,-9.2378,-9.94652,0.447869,0.895737,-2.28659,26.8293,9.05488
6668.92,19.0155,13.1282,0,2.95545,9.67588,-0.680186,1.7378,3.90244,-8.75,-9.96089,0.445474,0.919688,-3.2622,26.0366,9.05488
6668.93,18.8544,12.7569,0,2.75667,9.616,-0.60594,1.7378,3.29268,-10.2744,-9.99202,0.311353,0.677791,-3.9939,26.25,8.90244
6668.94,18.6801,12.3449,0,2.72553,9.63037,-0.548459,0.762195,4.39024,-11.5549,-10.0471,0.170046,0.435894,-4.63415,26.4939,7.95732
6668.95,18.4916,11.9365,0,2.62015,9.37171,-0.560435,0.396341,2.68293,-12.9878,-10.0232,0.119751,0.378413,-4.81707,26.128,7.83537
6668.96,18.3131,11.5435,0,2.68482,9.26873,-0.665815,-0.609756,1.7378,-13.4451,-9.93215,0.246687,0.371228,-4.78659,25.9146,8.2622
6668.97,18.1669,11.1699,0,2.86923,9.04359,-0.811912,-0.152439,1.95122,-13.4756,-9.93454,0.273032,0.387993,-4.39024,25.7317,8.96341
6668.98,18.0668,10.8385,0,3.16622,9.03162,-0.754431,0.823171,2.16463,-12.561,-9.99202,0.268242,0.510139,-4.57317,24.8476,9.96951
6668.99,18.0173,10.5237,0,3.50152,9.137,-0.711321,0.945122,3.2622,-10.9756,-10.0327,0.268242,0.526904,-4.5122,23.4451,10.6402
6669,18.008,10.2043,0,3.71468,9.08191,-0.802332,3.14024,4.63415,-9.57317,-10.0447,0.311353,0.450264,-3.65854,21.8902,10.8537
6669.01,18.0059,9.86071,0,3.79371,9.33579,-0.845442,3.84146,6.61585,-8.59756,-10.1118,0.234712,0.287402,-3.01829,20.4573,10.1524
6669.02,17.9925,9.51259,0,3.64761,9.4244,-0.866997,3.62805,10.061,-7.80488,-10.1022,0.170046,0.205972,-2.53049,19.8171,9.57317
6669.03,17.9649,9.18701,0,3.43685,9.25436,-0.773591,4.66463,12.3476,-7.68293,-10.1094,0.0910107,0.244292,-2.07317,18.9024,8.5061
6669.04,17.9194,8.84084,0,3.27878,9.331,-0.675395,4.87805,12.7439,-7.5,-9.98484,0.126936,0.0934058,-1.46341,18.2927,7.92683
6669.05,17.8372,8.49041,0,2.9315,9.39806,-0.684976,5,12.1646,-7.16463,-9.87706,0.186812,0.0143701,-1.43293,18.5366,7.40854
6669.06,17.7236,8.15264,0,2.62255,9.19209,-0.759221,4.17683,12.7744,-7.68293,-9.82197,0.174836,0.00958008,-1.40244,19.2073,7.71341
6669.07,17.5156,7.82437,0,1.97589,8.39933,-0.675395,4.17683,11.189,-12.0732,-9.88904,0.265847,-0.00718506,-2.07317,19.2683,8.20122
6669.08,17.3017,7.48703,0,2.37825,8.19336,-1.31487,4.17683,11.0366,-19.1159,-9.83874,0.387993,-0.102986,-2.5,19.1159,8.56707
6669.09,17.2329,7.16072,0,3.54463,10.6698,-0.943638,6.09756,7.62195,-9.20732,-9.94652,0.490979,-0.114961,-2.65244,18.3841,8.9939
6669.1,17.1957,6.88244,0,3.17101,9.46512,-0.383203,1.67683,5.51829,-6.43293,-10.0471,0.524509,0.0383203,-2.92683,17.1646,9.05488
6669.11,17.1612,6.6358,0,3.10155,9.28789,-0.701741,3.01829,4.26829,-6.12805,-10.1405,0.469424,0.129331,-2.71341,15.4878,8.35366
6669.12,17.1366,6.36649,0,3.18538,9.57768,-0.761616,3.17073,3.41463,-5.06098,-10.2291,0.392783,-0.0167651,-2.34756,14.3293,7.68293
6669.13,17.1065,6.06867,0,3.15903,9.74054,-0.64905,2.65244,3.44512,-4.78659,-10.2627,0.301772,-0.193997,-1.70732,14.4207,6.79878
6669.14,17.0649,5.79104,0,3.04167,9.67109,-0.665815,2.22561,3.87195,-4.96951,-10.2315,0.0910107,-0.155676,-1.0061,14.2073,5.70122
6669.15,17.0328,5.49966,0,3.04646,9.38129,-0.682581,2.5,5.21341,-5.18293,-10.1693,0.0335303,-0.265847,-0.27439,14.0854,4.90854
6669.16,16.9957,5.19859,0,2.92911,9.22322,-0.673001,1.92073,6.95122,-5,-10.1237,0.107776,-0.359253,0.548781,14.2988,4.48171
6669.17,16.9421,4.89919,0,2.75188,9.00767,-0.807122,1.58537,7.95732,-5.45732,-10.004,0.110171,-0.399968,0.914634,14.6341,4.72561
6669.18,16.8771,4.61291,0,2.64889,9.07473,-0.725691,1.7378,6.98171,-5.2439,-9.96328,0.306563,-0.392783,0.640244,14.6341,5.15244
6669.19,16.8042,4.37288,0,2.59141,9.32621,-0.608335,1.85976,3.01829,-4.63415,-9.94652,0.464634,-0.239502,-0.213415,13.9634,6.34146
6669.2,16.7484,4.12353,0,2.70398,9.38848,-0.682581,-0.243902,1.28049,-4.14634,-9.96089,0.519719,-0.323328,-1.03659,13.0488,6.34146
6669.21,16.6972,3.88621,0,2.72553,9.33339,-0.617915,0.731707,0.884146,-4.2378,-10.0064,0.56283,-0.316143,-1.89024,12.1037,6.64634
6669.22,16.6587,3.66251,0,2.81894,9.45793,-0.593965,1.61585,1.64634,-3.71951,-10.0447,0.517324,-0.299377,-2.5,11.189,6.09756
6669.23,16.6242,3.45802,0,2.87402,9.48667,-0.63947,1.12805,1.98171,-3.93293,-10.0232,0.282612,-0.253872,-2.5,10.1524,5.27439
6669.24,16.5881,3.24667,0,2.85726,9.51541,-0.735271,1.37195,0.914634,-3.87195,-10.0256,0.445474,-0.320933,-2.34756,8.9939,4.42073
6669.25,16.5514,3.05863,0,2.89079,9.53457,-0.747246,1.0061,0.243902,-4.32927,-9.96568,0.371228,-0.253872,-2.0122,8.14024,4.57317
6669.26,16.5249,2.85126,0,2.99138,9.4723,-0.902922,0.853659,0.640244,-4.72561,-10.0184,0.318538,-0.373623,-1.37195,7.07317,3.9939
6669.27,16.5007,2.62775,0,2.99138,9.35495,-0.910107,1.09756,1.79878,-4.96951,-10.0735,0.229922,-0.483794,-1.7378,6.7378,3.68902
6669.28,16.4895,2.41617,0,3.06083,9.10586,-0.780776,1.92073,3.14024,-5.42683,-10.1166,0.244292,-0.471819,-2.04268,6.34146,3.38415
6669.29,16.4908,2.22271,0,3.08239,9.11305,-0.730481,1.58537,4.11585,-4.48171,-10.1525,0.244292,-0.428708,-2.22561,5.67073,3.23171
6669.3,16.5158,2.02082,0,3.18538,9.12981,-0.718506,1.7378,4.90854,-3.44512,-10.0902,0.239502,-0.493374,-2.04268,4.96951,3.10976
6669.31,16.5655,1.84177,0,3.21891,9.24478,-0.783171,0.518293,5.21341,-1.95122,-10.004,0.364043,-0.416733,-2.31707,4.32927,3.47561
6669.32,16.6287,1.64539,0,3.24765,9.31663,-0.869392,0.762195,4.90854,-1.40244,-9.92496,0.438289,-0.519719,-2.71341,4.45122,3.96341
6669.33,16.6668,1.45897,0,2.99856,9.27831,-0.66342,1.40244,3.84146,-0.914634,-9.97765,0.433499,-0.519719,-3.29268,4.90854,4.32927
6669.34,16.6412,1.27239,0,2.73751,9.42919,-0.603545,1.40244,4.69512,-0.518293,-9.95849,0.419128,-0.55325,-4.14634,5.09146,4.29878
6669.35,16.5986,1.09139,0,2.65847,9.49146,-0.720901,1.34146,5.36585,-1.21951,-9.96568,0.352068,-0.560435,-4.45122,4.90854,4.08537
6669.36,16.5369,0.923918,0,2.55309,9.61121,-0.728086,2.04268,2.68293,-1.76829,-9.94652,0.347278,-0.524509,-4.7561,4.26829,4.14634
6669.37,16.4961,0.760604,0,2.73032,9.59924,-0.886157,0.518293,1.09756,-2.68293,-9.91538,0.344883,-0.522114,-4.78659,3.71951,3.90244
6669.38,16.4823,0.586188,0,3.01772,9.4244,-1.09692,-1.0061,2.62195,-4.05488,-9.93694,0.287402,-0.58678,-5.15244,3.35366,3.87195
6669.39,16.486,0.419023,0,3.1255,9.33818,-0.960403,-1.18902,4.54268,-3.90244,-9.99921,0.107776,-0.5772,-5.27439,2.9878,3.9939
6669.4,16.4777,0.262294,0,2.9794,9.26633,-0.754431,-0.335366,6.37195,-3.71951,-10.0136,-0.0143701,-0.565225,-5.15244,2.9878,3.78049
6669.41,16.4641,0.0993132,0,2.90276,9.19448,-0.514929,1.79878,6.55488,-3.65854,-9.92496,-0.0981958,-0.59636,-4.87805,2.77439,4.35976
6669.42,16.4547,-0.0732328,0,2.9818,9.26154,-0.543669,2.77439,5.06098,-3.90244,-9.79084,-0.0263452,-0.665815,-4.69512,3.10976,4.7561
6669.43,16.4513,-0.238612,0,2.98898,9.24957,-0.646655,2.89634,3.59756,-3.5061,-9.80521,0.0431104,-0.701741,-4.39024,4.05488,5.18293
6669.44,16.4294,-0.407313,0,2.79499,9.33579,-0.684976,2.46951,2.77439,-2.7439,-9.86748,0.165256,-0.754431,-4.72561,4.26829,5.91463
6669.45,16.4098,-0.576804,0,2.80696,9.4723,-0.732876,1.67683,2.04268,-2.19512,-9.94173,0.189207,-0.787961,-4.35976,3.93293,6.34146
6669.46,16.4052,-0.758374,0,2.94108,9.5202,-0.771196,0.823171,1.61585,-2.28659,-10.004,0.179626,-0.871787,-4.11585,3.75,6.25
6669.47,16.416,-0.914117,0,3.04886,9.50344,-0.754431,0.518293,1.43293,-2.22561,-10.0327,0.129331,-0.787961,-3.68902,3.44512,6.31098
6669.48,16.4416,-1.06291,0,3.13508,9.40764,-0.771196,0.335366,0.823171,-2.2561,-9.99442,0.0526904,-0.759221,-3.41463,2.86585,5.85366
6669.49,16.4729,-1.21652,0,3.18059,9.40764,-0.802332,-0.152439,2.46951,-2.22561,-9.9058,0.0790356,-0.778381,-2.59146,2.62195,5.91463
6669.5,16.5119,-1.37187,0,3.13029,9.29507,-0.821492,-0.304878,4.81707,-1.79878,-9.85311,0.0742456,-0.797541,-2.43902,2.53049,6.12805
6669.51,16.5381,-1.50648,0,2.9794,9.24478,-0.747246,1.12805,5.09146,-1.46341,-9.79323,0.0766406,-0.742456,-1.89024,2.62195,6.40244
6669.52,16.5318,-1.63698,0,2.80217,9.32381,-0.63468,1.79878,4.17683,-1.28049,-9.78366,0.107776,-0.744851,-1.4939,2.56098,7.31707
6669.53,16.4929,-1.77524,0,2.65129,9.43638,-0.574805,1.40244,3.17073,-1.52439,-9.8124,0.105381,-0.790356,-2.04268,2.40854,7.37805
6669.54,16.4462,-1.9011,0,2.5986,9.41243,-0.675395,0.762195,1.21951,-2.04268,-9.85072,0.131726,-0.773591,-1.98171,2.40854,7.86585
6669.55,16.4148,-2.05364,0,2.71835,9.41243,-0.735271,0.243902,-0.609756,-2.40854,-9.9058,0.143701,-0.857417,-1.67683,1.89024,7.89634
6669.56,16.4088,-2.20499,0,2.89797,9.36453,-0.828677,0.0304878,-1.92073,-2.46951,-10.0136,0.170046,-0.874182,-1.0061,1.64634,7.80488
6669.57,16.4331,-2.35175,0,3.03928,9.35495,-0.66342,-0.304878,-2.07317,-1.79878,-10.0423,0.143701,-0.857417,-0.731707,1.37195,7.68293
6669.58,16.4633,-2.52691,0,3.00335,9.39806,-0.773591,-1.64634,-0.853659,-1.12805,-10.0256,0.184417,-0.926873,-0.457317,1.09756,7.59146
6669.59,16.472,-2.67673,0,2.86205,9.37171,-0.728086,-1.82927,-0.731707,-0.97561,-10.0327,0.203577,-0.888552,-0.0914634,1.12805,7.5
6669.6,16.4683,-2.81505,0,2.81415,9.41003,-0.766406,-1.46341,-0.762195,-1.0061,-9.99202,0.234712,-0.895737,-0.0914634,1.31098,7.56098
6669.61,16.4568,-2.94534,0,2.8357,9.34776,-0.890947,-1.4939,-1.28049,-2.19512,-10.0423,0.160466,-0.866997,-0.0914634,1.0061,7.46951
6669.62,16.4637,-3.07173,0,3.00814,9.35255,-0.823887,-1.46341,-1.40244,-2.53049,-9.99921,0.110171,-0.869392,-0.426829,1.0061,7.31707
6669.63,16.4807,-3.22678,0,3.09197,9.27112,-0.843047,-1.03659,-0.762195,-2.80488,-9.99202,0.0502954,-0.926873,-0.548781,0.731707,7.0122
6669.64,16.4983,-3.39114,0,3.09916,9.23999,-0.797541,-0.213415,0.152439,-2.89634,-9.91538,0.102986,-0.962798,-0.457317,0.762195,7.04268
6669.65,16.5057,-3.53942,0,2.98898,9.26873,-0.740061,-0.243902,1.34146,-2.53049,-9.91299,0.155676,-0.941243,-0.213415,0.701219,7.22561
6669.66,16.506,-3.67508,0,2.94587,9.34297,-0.780776,-0.182927,1.46341,-2.37805,-9.92736,0.100591,-0.922083,0.182927,0.579268,7.2561
6669.67,16.4978,-3.82222,0,2.89797,9.32381,-0.833467,-0.426829,1.31098,-2.62195,-9.94173,0.126936,-0.996328,0.518293,0.701219,7.65244
6669.68,16.4824,-3.97331,0,2.91234,9.32621,-0.835862,-0.548781,1.31098,-3.41463,-9.98005,0.167651,-0.986748,0.335366,0.365854,7.7439
6669.69,16.4674,-4.0675,0,2.92192,9.3789,-0.799937,-1.46341,1.43293,-3.32317,-10.0447,0.189207,-0.938848,0.27439,0.701219,7.95732
6669.7,16.4509,-4.14368,0,2.90995,9.331,-0.833467,-1.34146,1.58537,-3.53659,-10.0327,0.203577,-0.878972,0.457317,0.365854,7.9878
6669.71,16.4349,-4.18595,0,2.91953,9.27591,-0.725691,-1.18902,0.365854,-3.81098,-10.004,0.201182,-0.823887,-0.0914634,-0.548781,7.9878
6669.72,16.43,-4.19617,0,2.97461,9.35255,-0.687371,-0.792683,0.853659,-3.17073,-10.0136,0.184417,-0.761616,-0.335366,-0.914634,7.89634
6669.73,16.4241,-4.20925,0,2.99617,9.4268,-0.819097,-1.46341,2.04268,-3.23171,-9.97765,0.129331,-0.780776,-0.823171,-1.95122,7.71341
6669.74,16.4151,-4.26052,0,2.94827,9.40285,-0.699346,-1.31098,1.40244,-3.10976,-9.94652,0.0790356,-0.912502,-0.579268,-1.82927,7.62195
6669.75,16.391,-4.32972,0,2.8381,9.40285,-0.754431,-1.85976,0.945122,-3.29268,-9.89862,0.0934058,-0.972378,-0.182927,-1.7378,7.65244
6669.76,16.3539,-4.38653,0,2.7423,9.3765,-0.718506,-1.98171,0.243902,-3.59756,-9.93933,0.0981958,-0.926873,-0.518293,-1.31098,7.71341
6669.77,16.313,-4.4228,0,2.75427,9.39566,-0.744851,-2.10366,-1.18902,-4.14634,-9.94652,0.105381,-0.869392,-0.0609756,-1.15854,7.68293
6669.78,16.273,-4.44298,0,2.77343,9.3789,-0.713716,-2.53049,-1.89024,-4.42073,-9.91299,0.143701,-0.835862,-0.213415,-1.70732,7.77439
6669.79,16.2442,-4.49388,0,2.86923,9.36692,-0.706531,-2.56098,-1.79878,-4.5122,-9.93694,0.114961,-0.943638,0.0609756,-1.64634,8.17073
6669.8,16.2181,-4.53685,0,2.89079,9.3789,-0.759221,-2.71341,-0.853659,-4.5122,-9.93694,0.122146,-0.943638,0.396341,-2.22561,8.47561
6669.81,16.1899,-4.56558,0,2.90755,9.3765,-0.814307,-3.23171,-0.335366,-4.96951,-9.97765,0.0838257,-0.900527,0.426829,-2.13415,8.59756
6669.82,16.1559,-4.59055,0,2.87163,9.43398,-0.780776,-2.9878,-0.243902,-5,-9.98005,0.102986,-0.895737,0.762195,-2.40854,9.11585
6669.83,16.1186,-4.62259,0,2.8381,9.41243,-0.752036,-2.9878,-0.792683,-5.09146,-9.92736,0.0910107,-0.917292,0.457317,-2.16463,9.14634
6669.84,16.0831,-4.6574,0,2.86205,9.36692,-0.706531,-3.10976,-1.82927,-5.42683,-9.94652,0.102986,-0.934058,0.365854,-2.10366,8.78049
6669.85,16.0518,-4.69311,0,2.91474,9.3286,-0.708926,-3.35366,-2.07317,-5.79268,-9.91299,0.117356,-0.938848,0.853659,-2.07317,9.08537
6669.86,16.0231,-4.72848,0,2.92671,9.30465,-0.682581,-3.07927,-1.98171,-5.82317,-9.92975,0.114961,-0.943638,1.37195,-1.98171,8.96341
6669.87,15.9987,-4.7617,0,2.94348,9.36453,-0.675395,-3.53659,-1.79878,-5.42683,-9.93454,0.0742456,-0.946033,1.55488,-2.13415,9.11585
6669.88,15.9596,-4.80383,0,2.79978,9.33579,-0.725691,-3.65854,-1.06707,-5.42683,-9.91778,0.0958008,-0.984353,1.58537,-2.19512,9.02439
6669.89,15.9181,-4.82783,0,2.78301,9.34297,-0.696951,-3.32317,-1.52439,-5.51829,-9.91778,0.0981958,-0.926873,1.92073,-2.37805,8.9939
6669.9,15.8728,-4.83599,0,2.7902,9.35734,-0.809517,-3.01829,-1.15854,-6.03659,-9.92257,0.138911,-0.871787,1.98171,-2.5,9.08537
6669.91,15.8246,-4.85232,0,2.81415,9.43159,-0.845442,-2.92683,-0.518293,-6.43293,-9.96328,0.114961,-0.912502,1.76829,-3.01829,9.39024
6669.92,15.7889,-4.86161,0,2.93629,9.42201,-0.783171,-3.20122,0.762195,-6.67683,-9.9537,0.114961,-0.886157,1.98171,-3.17073,9.08537
6669.93,15.7497,-4.87372,0,2.94348,9.41961,-0.708926,-3.04878,0.670732,-7.19512,-9.93454,0.0886157,-0.898132,1.79878,-3.29268,9.39024
6669.94,15.7011,-4.89292,0,2.87642,9.46751,-0.744851,-3.23171,1.12805,-7.31707,-9.96328,0.107776,-0.931663,1.4939,-3.14024,9.39024
6669.95,15.6443,-4.92485,0,2.80696,9.46272,-0.687371,-3.75,0.243902,-7.46951,-9.92257,0.0502954,-0.977168,1.55488,-2.62195,9.32927
6669.96,15.5785,-4.95606,0,2.75906,9.33818,-0.689766,-4.29878,-0.426829,-8.38415,-9.95131,0.0646655,-0.984353,1.18902,-2.71341,9.2378
6669.97,15.5246,-4.97264,0,2.8381,9.27831,-0.708926,-4.26829,-0.670732,-8.41463,-9.9537,0.0479004,-0.931663,0.914634,-2.71341,9.08537
6669.98,15.4886,-4.99494,0,2.96264,9.24478,-0.752036,-4.32927,-1.0061,-8.2622,-9.93694,0.0431104,-0.958008,1.0061,-2.9878,9.08537
6669.99,15.4662,-5.01836,0,3.08958,9.23759,-0.747246,-4.39024,-0.365854,-8.41463,-9.89622,0.0814307,-0.965193,0.762195,-3.38415,9.26829
6670,15.4716,-5.02395,0,3.25723,9.15376,-0.785566,-5,0.182927,-7.86585,-9.90101,0.119751,-0.895737,0.518293,-3.47561,9.5122
6670.01,15.5026,-5.02402,0,3.40332,9.08431,-0.831072,-4.60366,0.640244,-7.19512,-9.90101,0.0981958,-0.874182,0.182927,-4.02439,9.39024
6670.02,15.5657,-5.02191,0,3.59492,8.96456,-0.752036,-4.39024,1.46341,-6.55488,-9.92257,0.0479004,-0.866997,-0.243902,-4.45122,9.11585
6670.03,15.6642,-5.04568,0,3.75779,8.85199,-0.816702,-4.08537,2.53049,-5.30488,-9.88425,0.0550855,-0.974773,-0.0609756,-4.45122,8.56707
6670.04,15.78,-5.06481,0,3.78892,8.76338,-0.725691,-3.65854,4.42073,-4.42073,-9.8124,0.0910107,-0.950823,-0.335366,-4.11585,8.01829
6670.05,15.9259,-5.06599,0,3.87514,8.64602,-0.704136,-2.56098,7.07317,-3.53659,-9.81958,0.162861,-0.878972,-0.335366,-4.26829,7.34756
6670.06,16.1592,-5.05423,0,3.9422,8.61489,-0.802332,-0.945122,9.39024,-1.79878,-9.81719,0.177231,-0.823887,-0.304878,-4.72561,6.98171
6670.07,16.8283,-5.02339,0,4.16015,8.61728,-0.699346,0.457317,10.3659,0,-9.78844,0.150886,-0.737666,-0.914634,-5.18293,6.4939
6670.08,17.1223,-4.97465,0,4.57928,8.66518,-0.730481,1.18902,10.5793,2.10366,-9.76928,0.193997,-0.65384,-1.46341,-5.67073,6.40244
6670.09,17.4378,-4.95431,0,5.10618,8.69632,-0.740061,1.06707,10.6098,4.69512,-9.72138,0.220342,-0.764011,-1.34146,-6.09756,6.43293
6670.1,17.8394,-4.94718,0,5.60195,8.45202,-0.783171,0.457317,11.6768,8.10976,-9.68306,0.332908,-0.814307,-0.487805,-6.4939,7.0122
6670.11,18.3542,-4.91459,0,6.19592,8.10954,-0.696951,0.701219,15.2744,12.6524,-9.67588,0.344883,-0.704136,0.487805,-7.5,7.9878
6670.12,18.9785,-4.86984,0,6.69887,7.85566,-0.61552,1.85976,19.2683,18.5976,-9.69743,0.304167,-0.64905,2.04268,-8.93293,9.17683
6670.13,19.6994,-4.83449,0,7.13476,7.86285,-0.342488,3.35366,23.9329,26.128,-9.69264,0.222737,-0.682581,3.84146,-10.3049,9.54268
6670.14,20.4889,-4.8173,0,7.27367,7.94907,-0.134121,4.20732,28.4756,34.1159,-9.70701,0.213157,-0.756826,6.64634,-11.6768,9.45122
6670.15,21.3171,-4.77927,0,7.31199,8.26282,0.0574805,4.63415,31.25,41.6159,-9.74533,0.227527,-0.66821,9.20732,-13.2317,9.35976
6670.16,22.1581,-4.75713,0,6.94077,8.64842,0.191602,3.04878,31.7988,50.2439,-9.6639,0.320933,-0.725691,11.9512,-15,8.78049
6670.17,22.9922,-4.70549,0,6.29411,8.86636,0.354463,0.853659,32.1037,58.1402,-9.70222,0.361648,-0.598755,14.4512,-15.8537,7.95732
6670.18,23.7901,-4.63749,0,5.51333,9.12981,0.304167,-0.487805,33.2622,64.8171,-9.9058,0.500559,-0.531694,16.1585,-16.9817,6.89024
6670.19,24.5212,-4.58264,0,4.69184,9.74773,0.316143,-2.40854,31.6463,70.7012,-9.97286,0.744851,-0.58199,17.5915,-17.6524,5.4878
6670.2,25.2188,-4.58183,0,4.29906,10.4854,0.146096,-4.2378,29.2073,75.7317,-9.96328,0.876577,-0.809517,17.6524,-16.7683,4.60366
6670.21,25.9086,-4.63043,0,4.34217,11.1297,-0.244292,-6.12805,28.6585,78.3537,-10.0902,0.862207,-1.03944,17.2561,-14.6037,3.62805
6670.22,26.5709,-4.6694,0,4.43318,11.5464,-0.641865,-7.5,28.6585,77.5915,-10.3632,0.883762,-1.02986,16.1585,-12.2866,2.31707
6670.23,27.1555,-4.67908,0,4.03082,11.7404,-0.66821,-7.65244,25.0305,75.2134,-10.677,0.962798,-0.929268,15.122,-12.1646,1.52439
6670.24,27.6448,-4.6943,0,3.48715,11.4242,-0.593965,-4.90854,18.2622,70.7012,-10.974,0.972378,-0.984353,13.4146,-12.561,2.0122
6670.25,27.9922,-4.70953,0,2.70637,11.3308,-0.402363,0.182927,9.84756,64.4512,-11.2279,0.934058,-1.0107,12.2256,-13.1402,3.14024
6670.26,28.2597,-4.74639,0,2.36628,11.2781,-0.222737,0.213415,3.10976,60.2439,-11.362,0.761616,-1.13524,10.6098,-13.2317,5.15244
6670.27,28.5109,-4.81184,0,2.46208,10.974,-0.165256,-3.07927,-2.07317,57.5,-11.35,0.632285,-1.28613,9.63415,-13.2622,7.19512
6670.28,28.8261,-4.89268,0,3.32668,10.3609,-0.265847,-6.55488,-2.80488,54.0244,-10.9764,0.546064,-1.33163,9.35976,-12.9268,10.0915
6670.29,29.2393,-4.95877,0,4.30864,9.65911,-0.459844,-8.5061,-0.457317,51.9207,-10.5357,0.589175,-1.22386,9.32927,-12.9878,11.8902
6670.3,29.733,-5.00349,0,5.04391,9.10826,-0.337698,-8.04878,2.56098,50.9146,-10.1477,0.706531,-1.09452,9.78659,-13.75,12.7439
6670.31,30.2966,-5.00345,0,5.55645,8.76577,-0.203577,-5.97561,7.19512,52.1341,-9.84114,0.797541,-0.874182,9.63415,-14.9085,13.628
6670.32,30.8973,-4.96265,0,5.82229,8.56219,-0.126936,-3.14024,13.9024,53.2927,-9.70941,0.816702,-0.687371,9.84756,-15.4268,13.75
6670.33,31.5242,-4.91581,0,5.91809,8.33227,-0.0766406,0.487805,21.2805,54.8171,-9.59205,0.802332,-0.646655,9.96951,-15.5183,13.1707
6670.34,32.17,-4.87704,0,5.95881,8.13109,0.124541,4.08537,28.4756,56.2805,-9.52978,0.787961,-0.66821,10.122,-15,12.5915
6670.35,32.8286,-4.8133,0,5.99234,7.98739,0.198787,6.12805,34.6951,57.5915,-9.51541,0.797541,-0.555645,9.72561,-15.061,11.8902
6670.36,33.4971,-4.72914,0,6.02347,7.87961,0.292192,6.82927,41.0061,58.9024,-9.47949,0.768801,-0.457449,9.60366,-15.061,11.311
6670.37,34.1808,-4.64919,0,6.1552,7.77423,0.330513,7.2561,47.7439,59.8171,-9.45554,0.857417,-0.459844,8.93293,-14.9695,11.2195
6670.38,34.8365,-4.57512,0,6.08095,7.85087,0.361648,4.60366,52.4695,59.6037,-9.3765,0.926873,-0.467029,7.95732,-14.6951,10.8841
6670.39,35.4495,-4.51151,0,5.9612,8.05924,0.500559,2.46951,55.9756,59.1768,-9.38608,0.991538,-0.498164,6.37195,-14.0244,11.189
6670.4,36.0118,-4.45074,0,5.6283,8.0329,0.534089,0.97561,59.5732,58.2622,-9.32621,1.0586,-0.495769,5.27439,-13.2927,11.2805
6670.41,36.5097,-4.41969,0,5.04391,7.83411,0.720901,-0.0609756,62.0732,57.4085,-9.33818,1.09692,-0.608335,3.41463,-12.2561,11.189
6670.42,36.9752,-4.41596,0,4.7589,7.53234,1.16637,0.182927,56.8293,56.128,-9.34776,1.21188,-0.716111,1.28049,-11.1585,11.128
6670.43,37.4265,-4.42967,0,4.69424,7.26409,1.32445,0.670732,45.7927,54.4207,-9.44596,1.21667,-0.795146,-0.518293,-10.0305,10.4573
6670.44,37.8573,-4.44287,0,4.64873,7.12039,1.01549,-1.12805,34.939,52.7134,-9.59205,1.2526,-0.807122,-2.86585,-9.45122,8.90244
6670.45,38.2676,-4.47005,0,4.51701,6.93837,0.850232,-3.5061,26.7378,51.6463,-9.67827,1.26457,-0.876577,-4.96951,-9.35976,8.01829
6670.46,38.6651,-4.48256,0,4.57449,6.90963,1.03225,-6.18902,19.6037,50.2744,-9.71899,1.28373,-0.821492,-6.46341,-9.14634,6.46341
6670.47,39.0747,-4.50598,0,4.88344,6.83539,1.04423,-9.05488,9.72561,48.1707,-9.7597,1.21667,-0.874182,-8.2622,-8.9939,4.93902
6670.48,39.4757,-4.54879,0,5.09421,6.7827,0.807122,-7.95732,1.85976,45.3354,-9.76449,1.12087,-0.962798,-10.061,-9.02439,3.87195
6670.49,39.8336,-4.60468,0,5.20438,6.98388,0.883762,-4.7561,-3.29268,42.1951,-9.77647,0.936453,-1.02746,-11.0061,-8.10976,3.01829
6670.5,40.1556,-4.67648,0,5.28341,7.10123,0.900527,-3.84146,-7.43902,39.3598,-9.78605,0.742456,-1.1065,-12.2256,-7.19512,2.68293
6670.51,40.4117,-4.77194,0,5.11576,7.38624,0.711321,-7.28659,-10.8841,37.2561,-9.77407,0.63947,-1.21906,-12.5305,-6.25,2.16463
6670.52,40.6316,-4.88251,0,4.76609,7.0222,0.579595,-8.93293,-14.1768,35.1829,-9.69264,0.570015,-1.28613,-13.0793,-5.18293,2.34756
6670.53,40.8197,-4.9674,0,4.69903,6.79946,0.6251,-7.2561,-17.622,31.4024,-9.64235,0.61552,-1.17835,-13.628,-4.02439,2.13415
6670.54,41.01,-5.04145,0,4.99122,6.70845,0.814307,-9.29878,-22.1341,27.9268,-9.59445,0.665815,-1.13763,-13.9634,-3.75,2.77439
6670.55,41.2222,-5.07964,0,5.36963,6.5408,0.56762,-12.439,-26.9817,24.9695,-9.59924,0.704136,-1.0083,-14.3598,-4.2378,2.62195
6670.56,41.518,-5.11116,0,5.84145,5.95402,0.273032,-10.8232,-33.2622,23.5976,-9.68785,0.704136,-0.998723,-14.5732,-4.78659,2.40854
6670.57,41.9208,-5.14363,0,7.00304,5.70973,-0.165256,-4.96951,-37.0122,22.1341,-9.77407,0.742456,-1.01788,-14.4817,-5,1.89024
6670.58,42.3242,-5.1829,0,7.46288,5.9612,-0.479004,-3.14024,-32.6829,21.8598,-9.75012,0.821492,-1.04902,-14.6341,-4.66463,1.34146
6670.59,42.7088,-5.24687,0,7.56347,6.02347,-0.237107,-1.55488,-25.122,20.5793,-9.69504,0.840652,-1.14961,-14.5732,-4.02439,0.335366
6670.6,43.0425,-5.32455,0,7.49641,6.28693,-0.112566,-0.0609756,-19.0244,19.1463,-9.71899,0.833467,-1.19511,-14.5427,-2.77439,-0.670732
6670.61,43.325,-5.44296,0,7.06052,6.25579,-0.129331,2.83537,-13.5366,17.7744,-9.68067,0.819097,-1.30289,-14.2988,-1.95122,-1.4939
6670.62,43.5556,-5.52852,0,6.68689,6.16478,0.282612,6.06707,-8.68902,15.3659,-9.67348,0.768801,-1.19272,-14.5122,-1.70732,-2.59146
6670.63,43.7347,-5.6379,0,6.42105,6.06419,0.443079,6.85976,-2.65244,11.9817,-9.63277,0.790356,-1.27176,-14.5122,-1.67683,-2.77439
6670.64,43.9076,-5.75632,0,6.62702,5.89893,0.711321,6.25,-0.670732,8.2622,-9.59205,0.866997,-1.29331,-15.2744,-1.52439,-2.22561
6670.65,44.0935,-5.88586,0,7.00783,5.80074,0.538879,6.09756,-1.12805,5.54878,-9.58966,0.862207,-1.26457,-16.189,-0.914634,-2.0122
6670.66,44.2932,-6.03772,0,7.0677,5.68578,0.196392,7.0122,-1.58537,3.04878,-9.6184,0.893342,-1.33882,-17.439,-0.853659,-1.0061
6670.67,44.6534,-6.27195,0,6.94316,5.47501,-0.270637,9.96951,-0.731707,1.37195,-9.63037,0.902922,-1.41785,-18.5061,-0.27439,0.182927
6670.68,45.2149,-6.53257,0,6.7324,5.36484,-0.320933,14.939,1.0061,-0.731707,-9.63277,0.869392,-1.61185,-19.2988,0.640244,1.28049
6670.69,45.2762,-6.71874,0,6.64378,5.63309,0.0958008,16.3415,2.89634,-3.96341,-9.64953,0.847837,-1.69328,-19.6037,1.64634,2.07317
6670.7,45.2606,-6.8802,0,6.53361,5.772,0.522114,15.4878,3.01829,-8.2622,-9.71659,0.857417,-1.74357,-20.2134,2.31707,2.59146
6670.71,45.1868,-7.03216,0,6.46895,5.76242,0.740061,15.7927,2.65244,-13.75,-9.83874,0.785566,-1.81063,-20.6098,3.01829,2.2561
6670.72,45.0647,-7.20915,0,6.40189,5.65943,0.584385,16.9512,2.16463,-19.2683,-9.89622,0.752036,-1.98068,-21.0366,3.62805,2.19512
6670.73,44.9166,-7.40868,0,6.43063,5.578,0.165256,20.0305,2.31707,-23.2622,-9.92257,0.804727,-2.13396,-21.0061,4.32927,2.34756
6670.74,44.7655,-7.61613,0,6.76114,5.56603,-0.0431104,23.4756,4.72561,-26.8902,-9.91538,0.835862,-2.2106,-20.2744,4.84756,3.35366
6670.75,44.5961,-7.84145,0,7.20182,5.78637,0.150886,26.6463,8.90244,-30.4573,-9.84832,0.749641,-2.30401,-19.1463,4.20732,4.60366
6670.76,44.4049,-8.05861,0,7.66885,5.98994,0.59636,28.0183,11.311,-34.6341,-9.8555,0.64426,-2.29682,-18.1098,3.68902,6.21951
6670.77,44.1897,-8.22915,0,7.8868,6.1049,0.517324,30.8232,13.5671,-37.9878,-9.89862,0.541274,-2.12199,-16.4939,3.14024,8.23171
6670.78,43.8752,-8.34608,0,7.58503,6.55038,0.323328,34.1768,15.3049,-42.2866,-10.1549,0.55804,-1.9232,-15.0915,1.85976,10.0915
6670.79,43.3944,-8.41622,0,6.91203,7.4533,-0.110171,37.1037,16.7073,-46.9512,-10.4686,0.534089,-1.76273,-13.5976,0.640244,12.1037
6670.8,42.7913,-8.50783,0,6.39949,8.31311,-0.00239502,37.9573,16.2805,-49.6951,-10.8255,0.387993,-1.88488,-11.6159,0.0304878,13.872
6670.81,42.1691,-8.58852,0,6.48092,8.9933,0.560435,34.2378,11.311,-49.1768,-11.1153,0.285007,-1.98068,-9.02439,0.487805,15.4878
6670.82,41.6924,-8.62831,0,7.87243,9.09149,1.06339,26.189,1.61585,-46.0366,-11.235,0.129331,-1.86812,-5.88415,0.853659,16.25
6670.83,41.4367,-8.54131,0,10.1261,8.76098,1.32684,20.0305,-7.83537,-41.2805,-11.4506,0.0766406,-1.38672,-1.98171,0.243902,17.2866
6670.84,41.3269,-8.3766,0,12.3152,8.87115,1.09931,17.6524,-15.2439,-37.3171,-11.829,-0.220342,-0.946033,2.37805,-1.70732,17.6524
6670.85,41.2224,-8.18311,0,13.4097,9.89862,1.72202,18.2927,-16.9817,-35.6402,-12.1523,-0.699346,-0.756826,7.19512,-2.68293,16.4939
6670.86,41.0426,-8.02467,0,13.3666,11.6398,3.2716,14.0854,-5.70122,-34.1159,-12.4086,-1.18553,-0.924478,13.0793,-2.04268,14.5122
6670.87,40.8439,-7.87432,0,12.4062,12.5307,3.38656,5.12195,3.78049,-27.7744,-12.7008,-1.825,-0.989143,19.2683,-0.396341,12.1037
6670.88,40.6496,-7.75959,0,9.6663,11.3787,1.74118,0.0609756,5.51829,-18.811,-12.1092,-1.74836,-1.05381,24.3293,3.53659,11.7073
6670.89,40.3366,-7.59666,0,5.71212,9.63516,1.28134,-2.10366,3.23171,-11.5549,-11.5967,-1.09213,-0.730481,26.5244,8.29268,12.1341
6670.9,39.6639,-7.31411,0,1.72681,8.32988,0.411943,-6.82927,-8.44512,-10.2134,-10.9572,-0.440684,-0.0766406,27.0122,12.2866,13.6585
6670.91,38.5278,-6.89917,0,-1.30768,7.97781,-0.435894,-10.8232,-23.872,-15.9756,-10.8518,0.811912,0.613125,24.7256,14.0854,15.9146
6670.92,37.1173,-6.3741,0,-2.93629,7.96344,-0.493374,-10.7012,-31.6768,-23.9939,-10.677,1.20469,1.2023,20.6707,13.0488,17.7439
6670.93,35.6029,-5.76069,0,-3.37698,7.87243,-0.593965,-6.76829,-49.5427,-31.4024,-11.3069,2.82612,1.82261,13.75,8.47561,16.372
6670.94,34.1095,-5.09337,0,-2.95066,8.07122,-1.72681,-5.91463,-79.1768,-38.75,-11.4242,3.15664,2.23934,6.89024,4.93902,13.4451
6670.95,32.7198,-4.32456,0,-1.78668,8.15744,-3.41769,-3.14024,-110.671,-46.9817,-11.1512,3.5087,2.62494,-0.853659,1.34146,9.87805
6670.96,31.5788,-3.49223,0,0.447869,8.96935,-4.34696,-5.73171,-127.378,-55.4878,-10.6099,3.32189,2.91713,-8.90244,-1.70732,6.79878
6670.97,30.6533,-2.68999,0,2.75427,10.0447,-4.1362,-10.9451,-121.677,-61.2805,-9.96328,2.66566,2.97222,-15.3659,-4.78659,4.20732
6670.98,29.8732,-1.97792,0,4.39247,10.5908,-3.28357,-13.1098,-103.902,-63.0183,-9.49865,1.7292,2.58662,-18.811,-7.16463,2.40854
6670.99,29.2479,-1.34099,0,5.90372,10.6866,-2.24174,-12.622,-76.5549,-61.8598,-9.33579,0.627495,2.33754,-19.4817,-8.71951,1.31098
6671,28.7129,-0.794668,0,6.15281,10.1118,-1.60227,-8.84146,-54.5122,-58.811,-9.42919,-0.186812,2.07409,-18.2012,-9.54268,1.0061
6671.01,28.1887,-0.316761,0,5.5301,9.69983,-1.3484,-4.29878,-35,-55.4878,-9.48667,-0.893342,1.88249,-16.0061,-9.81707,1.82927
6671.02,27.6013,0.0361345,0,4.33499,9.29986,-1.51126,-1.25,-21.1585,-53.4146,-9.62319,-1.16398,1.44659,-12.9268,-8.59756,3.29268
6671.03,26.9335,0.328222,0,3.3674,9.09868,-1.43941,0.97561,-11.8902,-53.2622,-9.63277,-1.66214,1.24541,-9.08537,-7.37805,4.78659
6671.04,26.2421,0.569634,0,3.13748,9.03401,-1.86333,3.84146,-4.2378,-54.6646,-9.46751,-1.47294,1.05141,-4.57317,-5.45732,7.19512
6671.05,25.5073,0.791042,0,2.59141,8.7514,-1.80105,6.0061,-2.92683,-55.0915,-9.19687,-1.29092,0.914897,0.0609756,-3.56707,9.20732
6671.06,24.7078,1.03428,0,2.14115,8.89031,-1.92081,8.29268,-10.122,-57.1646,-9.06754,-0.761616,0.895737,3.75,-2.68293,10.6402
6671.07,23.8569,1.33413,0,1.84896,9.33339,-1.825,7.56098,-17.0122,-59.2683,-9.09628,-0.423918,0.938848,7.0122,-1.92073,11.0976
6671.08,22.9714,1.57945,0,1.58311,9.35016,-1.65017,6.76829,-25.8537,-61.2805,-9.49386,-0.165256,0.974773,9.02439,-1.95122,9.96951
6671.09,22.1403,1.75356,0,1.99745,9.15137,-1.55437,5.60976,-34.3598,-63.0488,-9.97047,0.0263452,0.866997,10.2134,-1.70732,6.98171
6671.1,21.4171,1.89923,0,2.9339,9.14658,-1.80105,3.44512,-39.9085,-64.9085,-10.2746,0.165256,0.732876,11.0976,-0.731707,3.23171
6671.11,20.7201,1.99761,0,3.20454,9.65672,-1.59029,1.12805,-43.7195,-64.8781,-10.3345,0.256267,0.622705,10.8537,-0.640244,-1.15854
6671.12,20.0632,2.11097,0,3.26441,9.6639,-1.35798,-3.53659,-50.122,-62.8354,-9.99681,0.483794,0.57241,10.5793,-0.243902,-3.93293
6671.13,19.541,2.29569,0,4.17931,8.94061,-1.71723,-3.04878,-51.7378,-63.4756,-9.57768,0.534089,0.60594,8.75,-0.121951,-4.78659
6671.14,18.9331,2.4838,0,3.34584,9.19448,-1.09692,-4.60366,-57.1646,-62.9573,-9.28549,0.467029,0.56283,6.89024,0.0304878,-4.66463
6671.15,18.3683,2.66019,0,3.47996,8.83523,-1.31726,-8.10976,-55.7317,-62.8659,-9.09149,0.349673,0.59157,5.30488,-0.396341,-3.90244
6671.16,17.8665,2.73963,0,3.87514,8.48555,-2.05253,-6.09756,-49.1463,-63.811,-9.07233,0.232317,0.538879,3.96341,-0.853659,-2.68293
6671.17,17.415,2.73138,0,4.18889,8.4137,-2.4525,-4.29878,-40.3659,-63.628,-9.07952,0.270637,0.416733,2.62195,-1.40244,-1.18902
6671.18,17.0219,2.70021,0,4.6176,8.42807,-2.38304,-1.64634,-32.2256,-63.1707,-9.17532,0.234712,0.356858,1.79878,-1.82927,-0.335366
6671.19,16.661,2.67866,0,4.67747,8.37538,-2.53154,1.21951,-20.0915,-61.6463,-9.2807,0.179626,0.364043,0.731707,-2.65244,-0.152439
6671.2,16.2644,2.64926,0,4.24637,8.58375,-2.37346,3.23171,-13.8415,-60.1829,-9.29268,0.105381,0.320933,0.304878,-3.62805,-0.457317
6671.21,15.8726,2.59004,0,4.14817,8.60291,-2.19863,4.54268,-8.90244,-59.3293,-9.21125,0.0167651,0.196392,-0.0609756,-4.05488,-1.21951
6671.22,15.5266,2.50594,0,4.36852,8.54543,-2.14833,5.06098,-3.96341,-58.1707,-9.0867,-0.150886,0.0862207,0.670732,-4.42073,-2.16463
6671.23,15.2083,2.36732,0,4.44037,8.64363,-1.99745,5.06098,1.64634,-56.2805,-8.92384,-0.304167,-0.126936,1.61585,-4.35976,-2.62195
6671.24,14.9022,2.19207,0,4.19128,8.62207,-1.84656,6.34146,6.09756,-53.1098,-8.73464,-0.483794,-0.234712,3.65854,-3.71951,-2.62195
6671.25,14.5534,1.8819,0,3.59013,8.33946,-1.4921,6.37195,8.2622,-52.7134,-8.64363,-0.603545,-0.433499,5.27439,-2.40854,-2.68293
6671.26,14.2148,1.31579,0,3.51589,8.86636,-1.33642,9.14634,6.70732,-48.9939,-8.47837,-0.64426,-0.464634,7.56098,-1.34146,-2.19512
6671.27,13.8549,0.27689,0,3.06323,8.73943,-0.998723,7.95732,0.213415,-47.1341,-8.43286,-0.548459,-0.500559,9.29878,-0.457317,-1.25
6671.28,13.4865,-0.55883,0,2.91474,8.85678,-0.883762,6.61585,-5.70122,-46.4939,-8.47118,-0.390388,-0.519719,10.6402,0.426829,1.0061
6671.29,13.0705,-0.941506,0,2.5962,8.35383,-0.934058,4.05488,-8.9939,-50.1524,-8.46879,-0.261057,-0.637075,11.8902,1.52439,3.44512
6671.3,12.6281,-1.25641,0,2.49801,8.5574,-1.19032,0.914634,-10.6402,-51.6768,-8.6053,-0.189207,-0.881367,13.2622,2.31707,5.03049
6671.31,12.2187,-1.52477,0,2.97701,9.40285,-1.15919,2.04268,-11.6768,-51.8598,-8.76098,-0.105381,-1.08973,14.4512,3.5061,6.25
6671.32,11.7631,-1.73705,0,2.58902,9.19209,-0.900527,-1.95122,-13.5976,-53.6585,-8.92384,0.00958008,-1.00351,15.4573,3.90244,7.19512
6671.33,11.257,-1.9211,0,2.17468,9.09149,-1.11608,0.27439,-16.8293,-55.0915,-9.01006,0.143701,-0.962798,15.3963,4.2378,8.20122
6671.34,10.7606,-2.14929,0,2.31119,9.06754,-1.22386,1.03659,-18.3537,-56.8598,-9.06275,0.285007,-1.18553,15.4878,4.63415,8.93293
6671.35,10.2832,-2.4146,0,2.51238,9.12502,-1.36037,-0.335366,-20.9756,-58.1707,-8.96456,0.423918,-1.37953,15.2134,5.94512,9.96951
6671.36,9.73681,-2.69682,0,2.0669,8.5119,-1.58071,-2.04268,-21.7378,-62.622,-8.95737,0.378413,-1.49689,15.8537,7.40854,10.7317
6671.37,9.18853,-2.96538,0,2.14115,8.72745,-1.7292,0.365854,-20.1829,-64.2073,-9.01246,0.306563,-1.49689,16.372,7.9878,11.5244
6671.38,8.61792,-3.17246,0,2.00942,9.1825,-1.37235,-0.121951,-17.4695,-64.6646,-9.16574,0.208367,-1.31247,16.6463,8.04878,12.378
6671.39,8.08415,-3.31829,0,2.43573,9.60642,-1.51365,0.884146,-10.3354,-65.9146,-9.40285,0.0431104,-1.12326,15.9756,7.89634,12.5915
6671.4,7.56912,-3.47228,0,2.56507,9.88904,-1.60227,1.7378,-6.03659,-65.7317,-9.64235,-0.131726,-1.21188,15.4573,8.32317,12.5305
6671.41,7.06057,-3.61669,0,2.67763,9.83395,-1.93757,2.19512,-3.78049,-67.5305,-9.82677,-0.215552,-1.21906,14.8171,9.48171,12.0732
6671.42,6.54801,-3.69729,0,2.52435,9.37171,-1.98547,2.16463,-1.7378,-68.6585,-10.0303,-0.210762,-0.984353,13.9634,9.45122,11.7073
6671.43,6.05814,-3.74079,0,2.70398,9.38608,-2.28724,2.95732,-0.213415,-69.4207,-10.2004,-0.105381,-0.847837,11.7988,8.96341,10.9451
6671.44,5.57253,-3.76244,0,2.62015,9.31902,-2.0693,3.62805,4.35976,-69.2378,-10.3561,0.0383203,-0.768801,9.84756,8.38415,9.72561
6671.45,5.11366,-3.79776,0,2.76385,9.50583,-2.23216,4.66463,6.82927,-68.5366,-10.4207,0.280217,-0.840652,7.9878,8.53659,9.02439
6671.46,4.75018,-3.84805,0,3.3195,10.0303,-2.53393,8.78049,13.75,-64.0244,-10.562,0.471819,-0.929268,6.67683,7.92683,8.17073
6671.47,4.40278,-3.91833,0,3.13269,10.4183,-1.68609,4.84756,6.09756,-59.9085,-10.7728,0.486189,-1.05381,5.82317,7.0122,7.77439
6671.48,4.17288,-4.05296,0,3.93023,10.7417,-1.31966,-0.213415,1.95122,-55.4878,-11.168,0.411943,-1.42743,6.58537,6.34146,6.82927
6671.49,4.16315,-4.2526,0,5.04391,11.6111,-0.936453,-0.0914634,-5.42683,-40.3963,-11.3548,0.0910107,-1.81063,8.68902,5.70122,6.0061
6671.5,4.24007,-4.54295,0,4.91219,10.883,-1.09452,-4.42073,-8.20122,-33.2317,-11.3692,-0.390388,-2.32317,11.5244,6.58537,4.42073
6671.51,4.36939,-4.94252,0,4.8547,10.6626,-1.48491,-6.46341,-10.6098,-28.1098,-11.2015,-0.771196,-2.91474,15.8232,9.54268,2.9878
6671.52,4.53701,-5.32772,0,4.87626,10.5141,-1.42743,-9.60366,-14.6037,-24.7561,-10.9093,-0.979563,-2.84289,19.3598,12.8963,1.85976
6671.53,4.75371,-5.66891,0,4.98643,10.3704,-1.04662,-13.628,-20.122,-21.0366,-10.7608,-1.05141,-2.65608,21.4939,15.8537,0.518293
6671.54,5.01213,-5.79376,0,4.99841,10.004,-0.766406,-17.7439,-26.7378,-18.1098,-10.9093,-0.917292,-1.67651,22.4085,17.1951,-1.06707
6671.55,5.30935,-5.68942,0,5.10858,9.79803,-0.665815,-20.7317,-32.3171,-15.6402,-11.4769,-0.352068,-0.617915,20.6402,15.5793,-2.28659
6671.56,5.67438,-5.41008,0,5.54208,9.87706,-0.689766,-24.3598,-33.9939,-11.7073,-12.0398,0,0.301772,14.3598,14.3598,-4.17683
6671.57,6.14798,-5.06602,0,6.33243,10.0902,-0.66821,-26.7988,-31.7073,-5.67073,-13.1894,1.5855,0.771196,4.29878,13.75,-6.92073
6671.58,6.76541,-4.80844,0,7.25691,10.2315,-0.390388,-29.1159,-26.4634,3.04878,-13.3355,2.3064,0.352068,-3.56707,14.939,-8.5061
6671.59,7.51821,-4.57326,0,8.12151,10.4638,0.0479004,-31.7683,-20.8537,13.4451,-13.2157,3.1279,0.280217,-13.0488,17.0122,-8.78049
6671.6,8.43228,-4.30223,0,8.943,10.562,0.742456,-36.3415,-18.9329,26.4634,-12.7702,3.27639,0.524509,-23.4451,16.372,-8.44512
6671.61,9.54426,-3.99448,0,10.0112,10.5477,1.77471,-43.5976,-21.7683,41.8902,-11.9296,2.67284,0.735271,-31.8598,11.6463,-7.10366
6671.62,10.8234,-3.62352,0,10.2435,10.2076,1.52084,-54.4817,-18.9634,57.9573,-10.962,1.3963,1.01309,-36.5244,3.81098,-5.30488
6671.63,12.2051,-3.16058,0,9.27831,9.4747,0.876577,-61.6159,-1.34146,72.4695,-10.4303,0.0958008,1.31487,-35.122,-2.5,-4.05488
6671.64,13.6224,-2.56129,0,7.80058,9.04359,1.25739,-65.0915,13.4756,86.311,-10.7872,0.0431104,2.27527,-36.8598,-12.5915,-2.86585
6671.65,15.0363,-2.1592,0,6.25579,8.86876,-0.00239502,-59.2073,13.4756,100.244,-10.3177,-1.90165,1.36516,-20.061,-11.1585,-1.34146
6671.66,16.4216,-1.78851,0,5.01757,9.33339,-1.43701,-45.0305,5.91463,114.36,-10.0687,-2.16989,1.26457,-10.2134,-7.34756,-1.15854
6671.67,17.7501,-1.32871,0,3.61648,10.3561,-2.42136,-31.372,7.86585,129.787,-10.0974,-1.96871,1.73878,-1.58537,-6.40244,-1.06707
6671.68,18.9966,-0.975583,0,2.1172,11.7404,-3.04407,-18.811,20.5488,142.561,-9.331,-2.43334,0.519719,10.1524,-0.853659,-0.487805
6671.69,20.2384,0.0118957,0,1.4921,13.4145,-2.10043,-15.7622,27.7744,152.53,-9.36692,-1.71962,1.33882,15.6098,0.304878,1.46341
6671.7,21.4954,0.557385,0,1.59987,14.9593,-1.47054,-21.7073,30.122,157.104,-9.3286,-1.04662,1.51365,18.4146,1.67683,3.41463
6671.71,22.699,1.156,0,2.08846,15.1509,-1.2981,-22.8963,25.9146,150.671,-9.60642,-0.443079,1.62382,18.4451,1.12805,5.60976
6671.72,23.8075,1.80723,0,2.9315,14.6887,-1.08734,-22.439,18.7195,136.402,-10.0303,0.102986,1.59748,17.0732,0.243902,6.34146
6671.73,24.8452,2.15199,0,3.59013,14.1857,-1.32924,-18.628,16.8293,125.488,-10.4662,0.519719,1.21667,14.5122,-0.152439,6.85976
6671.74,25.8456,2.41531,0,3.52307,13.4504,-1.85375,-11.0976,20.5793,122.835,-10.5381,0.919688,1.18553,11.6463,-0.426829,6.55488
6671.75,26.8556,2.64003,0,3.23807,12.8134,-2.19623,-4.96951,30.8232,126.86,-10.3513,1.26457,1.33882,8.56707,-1.92073,6.55488
6671.76,27.8899,2.82046,0,3.04407,12.3703,-2.19144,0.27439,42.3476,132.134,-9.85311,1.56155,1.19511,4.96951,-3.23171,7.31707
6671.77,28.9141,2.9681,0,2.692,12.5547,-1.825,2.65244,51.6768,136.738,-9.38848,1.66454,1.02986,1.15854,-3.44512,9.96951
6671.78,29.9089,3.06387,0,2.2585,12.3296,-1.86333,7.07317,55.4878,139.329,-9.03162,1.71004,0.811912,-2.10366,-3.5061,12.2561
6671.79,30.875,3.13047,0,2.18665,12.0637,-1.96392,8.78049,61.5244,138.659,-8.80888,1.60227,0.713716,-4.81707,-4.35976,14.8476
6671.8,31.7098,3.19459,0,0.924478,11.9344,-1.34361,7.86585,61.1585,139.146,-8.68195,1.55197,0.713716,-7.2561,-6.0061,17.1646
6671.81,32.4925,3.23448,0,0.661025,11.1392,-1.60945,5.03049,59.4817,137.652,-8.6556,1.37953,0.62989,-10.061,-6.89024,19.2378
6671.82,33.1885,3.23269,0,0.311353,10.3441,-1.36516,5.82317,58.9939,133.811,-8.65321,1.13524,0.476609,-11.8902,-7.43902,19.8476
6671.83,33.8351,3.23802,0,0.395178,9.59205,-1.36995,7.2561,62.8049,128.902,-8.68674,0.850232,0.505349,-12.9878,-7.59146,19.7561
6671.84,34.4502,3.23515,0,0.498164,8.73464,-1.53281,10.8537,62.7744,125.152,-8.63884,0.704136,0.471819,-14.0854,-7.95732,18.5671
6671.85,35.044,3.20479,0,0.692161,8.37059,-1.85614,15.5793,63.4451,121.25,-8.57896,0.589175,0.364043,-14.4207,-8.10976,17.5305
6671.86,35.5561,3.14244,0,0.589175,8.20534,-1.99745,18.2317,62.9878,115.396,-8.57177,0.483794,0.239502,-14.0854,-7.37805,16.0061
6671.87,36.0613,3.03913,0,1.13045,7.9347,-1.96631,22.378,68.1707,107.561,-8.63884,0.376018,0.0814307,-14.3598,-6.09756,14.2988
6671.88,36.4484,2.91622,0,0.938848,7.88201,-1.79866,23.872,66.4939,99.2378,-8.61728,0.349673,-0.00239502,-13.9634,-5.54878,12.7134
6671.89,36.6326,2.78565,0,0.330513,7.49162,-1.83219,25.3963,63.2927,88.0183,-8.658,0.419128,-0.0407153,-13.5061,-4.96951,11.9512
6671.9,36.6686,2.64004,0,0.107776,7.41259,-1.80584,30.2439,61.25,76.7378,-8.64842,0.58678,-0.117356,-13.75,-5.06098,11.372
6671.91,36.573,2.47649,0,-0.143701,7.50839,-1.47054,34.6951,58.811,67.3171,-8.70829,0.730481,-0.210762,-14.0549,-5.18293,11.0061
6671.92,36.3653,2.29084,0,-0.383203,7.41259,-1.20709,34.9695,58.2317,59.4817,-8.73464,0.843047,-0.323328,-14.3293,-5.36585,10.8537
6671.93,36.0704,2.07792,0,-0.5772,7.29762,-0.840652,31.311,58.2012,53.3537,-8.71069,0.972378,-0.445474,-15.2439,-5.06098,10.5183
6671.94,35.7557,1.87057,0,-0.402363,7.24493,-0.399968,23.9939,60.3049,47.9878,-8.73464,1.00112,-0.428708,-16.1585,-4.26829,9.93902
6671.95,35.4602,1.6662,0,-0.0646655,7.40061,0.141306,14.3902,63.5061,43.8415,-8.8472,1.03465,-0.459844,-17.8354,-4.2378,9.57317
6671.96,35.1394,1.44926,0,0.126936,6.85694,0.361648,13.9024,67.9573,37.4695,-8.93821,1.0107,-0.524509,-19.7256,-3.84146,8.10976
6671.97,34.7683,1.19231,0,0.332908,6.93119,0.708926,13.9939,68.1402,28.2317,-9.02443,0.962798,-0.66821,-21.128,-3.32317,6.82927
6671.98,34.3468,0.899694,0,0.56283,7.02459,0.864602,11.6463,64.7256,18.5976,-9.22801,0.790356,-0.814307,-22.6524,-2.86585,5.42683
6671.99,33.9319,0.472007,0,0.890947,6.75635,0.919688,8.20122,58.3841,12.439,-9.31902,0.617915,-1.07297,-24.2073,-1.89024,3.01829
6672,33.519,-0.384832,0,1.19032,6.82341,0.926873,3.07927,50.0305,7.68293,-9.36692,0.459844,-1.18793,-24.6037,-0.426829,0.853659
6672.01,31.9987,-0.972636,0,1.2526,6.89287,1.14242,-2.04268,40.3963,2.56098,-9.29028,0.296982,-1.43222,-25.2744,1.34146,-0.914634
6672.02,31.4755,-1.34355,0,1.47773,6.9264,1.42743,-6.03659,28.1098,-4.93902,-9.21843,0.213157,-1.5376,-25.1524,3.44512,-2.13415
6672.03,31.0197,-1.70651,0,1.99984,6.93837,1.48012,-8.5061,14.3293,-15.0915,-9.12502,0.189207,-1.6334,-24.4512,4.48171,-2.2561
6672.04,30.5886,-2.00693,0,2.67763,6.72282,1.64298,-8.44512,-2.31707,-25,-9.08191,0.220342,-1.45857,-24.1463,5.2439,-2.04268
6672.05,30.2844,-2.28313,0,3.92783,6.45218,2.14594,-7.37805,-22.3476,-32.561,-9.03641,0.304167,-1.40109,-23.4146,5.21341,-0.365854
6672.06,30.134,-2.56254,0,5.51813,6.30609,2.3567,-8.01829,-41.25,-37.5915,-9.137,0.397573,-1.48012,-23.2927,5.36585,1.06707
6672.07,30.1451,-2.81181,0,7.16829,6.1073,2.17228,-6.98171,-61.6159,-38.5366,-9.43398,0.411943,-1.45378,-21.8902,5.42683,2.56098
6672.08,30.3195,-3.03052,0,9.21603,5.85582,1.51605,-4.45122,-76.2805,-38.1707,-9.68785,0.407153,-1.40588,-20.4573,5.36585,4.11585
6672.09,30.6765,-3.23743,0,12.0302,5.84624,0.823887,-3.53659,-75.3354,-32.4695,-10.0639,0.301772,-1.4418,-18.2012,4.48171,4.84756
6672.1,31.2256,-3.41662,0,15.3569,6.18394,0.268242,-3.81098,-56.0671,-20.2744,-10.3153,0.292192,-1.36037,-15.7012,2.9878,5.79268
6672.11,31.9981,-3.59727,0,18.777,6.38273,-0.411943,2.80488,-22.8659,-2.80488,-10.507,0.232317,-1.38193,-12.1951,2.04268,6.58537
6672.12,33.0059,-3.81062,0,21.0307,6.84976,-2.14354,22.5,5.15244,21.2805,-10.5213,0.155676,-1.55676,-9.2378,2.0122,6.85976
6672.13,34.123,-4.06035,0,19.608,8.23168,-2.10762,46.0366,9.39024,44.1463,-10.4303,-0.0215552,-1.81063,-5.33537,3.07927,6.37195
6672.14,35.1657,-4.4121,0,13.6085,8.9454,-0.201182,48.5671,-6.82927,60.3659,-10.3417,-0.191602,-2.36867,-2.68293,6.79878,5.36585
6672.15,35.9394,-4.83327,0,8.25324,7.84608,-0.809517,47.5305,-19.1463,55.9146,-10.4543,-0.431104,-2.79978,-0.731707,11.0976,4.78659
6672.16,36.2921,-5.31095,0,4.84273,7.15392,-0.438289,46.9817,-26.2195,39.7561,-10.5309,-0.428708,-3.18298,1.34146,15.8537,4.66463
6672.17,36.1218,-5.77829,0,2.8357,7.17069,0.273032,45.3963,-28.9329,12.6524,-10.6986,-0.167651,-3.27399,3.38415,19.6037,6.61585
6672.18,35.6063,-6.23243,0,2.22737,7.21859,0.0622705,33.9634,-36.0061,-13.872,-10.9524,0.117356,-3.37698,4.84756,22.2866,9.17683
6672.19,34.8447,-6.58961,0,1.87291,6.68689,-1.33642,29.3293,-42.622,-36.9817,-11.5823,0.490979,-3.13269,6.25,23.75,12.8049
6672.2,33.8103,-6.74598,0,1.31247,6.98627,-1.08255,28.9329,-41.4939,-56.1585,-12.581,0.627495,-2.31598,7.31707,21.7378,16.2195
6672.21,32.7178,-6.59802,0,2.40699,8.86636,0.0407153,19.8171,-32.2256,-73.4756,-13.9606,0.560435,-0.718506,10.0915,12.8354,18.5061
6672.22,31.7336,-6.37876,0,5.85582,11.9679,1.93757,0.457317,-27.7439,-86.8598,-14.8731,0.165256,-0.273032,14.3293,2.77439,19.1768
6672.23,30.905,-6.09386,0,10.7345,14.897,3.6548,-19.0244,-11.25,-92.8049,-15.1748,-0.404758,0.208367,18.75,-1.0061,19.4817
6672.24,30.4146,-5.72144,0,15.673,16.7196,4.36373,-28.6585,10.9451,-75.0305,-15.2347,-0.237107,0.874182,14.0244,-1.40244,18.7195
6672.25,30.501,-5.21605,0,16.7316,14.5282,0.119751,-12.8049,36.7378,-29.1768,-13.8217,-1.48491,1.71004,19.2378,3.93293,17.3476
6672.26,30.8812,-4.62288,0,8.95019,9.5681,-2.5986,19.9085,51.9817,13.1098,-11.8098,-0.950823,2.04295,16.25,10.3659,16.9817
6672.27,30.4219,-3.83744,0,-0.457449,7.99937,-2.69679,34.5732,36.8293,22.8354,-10.3824,0.0958008,2.8357,11.9817,13.1402,18.2012
6672.28,29.0945,-2.88458,0,-7.01501,7.81974,-1.22864,35.9146,6.37195,12.1341,-9.66151,1.21906,3.57097,5,12.1646,20.122
6672.29,27.3149,-1.89833,0,-12.3439,9.00288,0.510139,40.3963,-27.5305,-12.2256,-9.51062,1.86093,3.8488,-2.62195,7.04268,21.6768
6672.3,25.2512,-0.99929,0,-14.545,10.962,3.08239,29.6341,-73.2622,-46.6768,-9.46751,2.11959,3.20933,-8.78049,2.56098,21.6463
6672.31,23.1498,0.129025,0,-9.7118,11.3524,1.31726,-5.51829,-122.195,-80.1524,-9.69504,2.03816,2.59381,-12.3171,0.487805,20.122
6672.32,21.2203,0.737866,0,-4.60802,10.6722,-3.61169,-35.122,-148.994,-101.982,-10.1261,1.83219,2.19623,-13.1707,-1.28049,17.9878
6672.33,19.7286,1.10711,0,0.308958,10.4878,-7.0701,-35.0305,-148.476,-112.348,-10.4686,1.5376,1.7795,-12.1646,-2.86585,16.7683
6672.34,18.6587,1.36039,0,4.03082,11.1033,-5.8175,-19.6037,-138.963,-109.634,-10.7345,0.972378,1.3939,-10.5183,-3.93293,16.5854
6672.35,17.9107,1.5715,0,7.02459,12.0038,-3.19496,-7.56098,-111.098,-100.152,-10.9021,0.234712,1.26936,-9.02439,-4.81707,15.6402
6672.36,17.4157,1.74116,0,8.33467,11.3332,-1.55437,-3.2622,-77.7439,-88.1098,-10.8806,-0.531694,1.10889,-6.55488,-5.88415,14.4817
6672.37,17.0939,1.87899,0,7.75986,9.58247,-2.05253,-0.213415,-46.8293,-76.8902,-10.6363,-0.969983,0.965193,-4.05488,-5.88415,13.1402
6672.38,16.7407,2.00506,0,5.78397,8.57896,-2.16989,6.34146,-28.9024,-70.5183,-10.2195,-1.26697,0.898132,-0.518293,-5.79268,11.2805
6672.39,16.2366,2.1322,0,4.04998,8.66039,-2.17707,10.2744,-12.9573,-68.4146,-9.74773,-1.16398,0.878972,2.83537,-5.06098,10.7317
6672.4,15.4137,2.23097,0,1.45617,9.16334,-1.72202,9.17683,-15.9451,-69.2683,-9.33339,-1.24541,0.730481,6.85976,-3.93293,8.9939
6672.41,14.45,2.31939,0,0.60115,9.34297,-1.88967,5.15244,-23.6585,-74.3902,-9.08191,-0.871787,0.63468,9.87805,-2.71341,7.34756
6672.42,13.4779,2.36094,0,0.838257,9.17053,-1.98787,1.98171,-31.4024,-80.3659,-9.04359,-0.641865,0.438289,11.4939,-1.15854,5.57927
6672.43,12.533,2.46151,0,1.2502,9.48428,-2.04535,0.243902,-47.1951,-84.2378,-9.10347,-0.471819,0.462239,12.6524,-0.0304878,4.20732
6672.44,11.8416,2.78941,0,3.41769,8.95019,-2.31119,-1.25,-40.4878,-87.6219,-9.19448,-0.320933,0.711321,11.8598,0.0609756,1.52439
6672.45,11.1901,2.93207,0,3.62366,9.01246,-2.32317,-2.80488,-49.5427,-87.0122,-9.12981,-0.0550855,0.65384,10.7012,-0.762195,0.152439
6672.46,10.5614,2.96426,0,3.34824,8.81128,-2.39262,-2.0122,-56.7683,-83.7805,-8.97414,0.155676,0.514929,9.08537,-1.25,-0.518293
6672.47,9.923,2.99038,0,3.0776,8.90468,-2.21779,-2.13415,-54.5732,-82.5,-8.80649,0.273032,0.505349,7.65244,-1.64634,-0.335366
6672.48,9.33358,2.96193,0,3.44404,9.137,-1.93518,-5.27439,-45.7012,-82.0427,-8.69153,0.359253,0.373623,7.04268,-2.71341,0.335366
6672.49,8.7984,2.90344,0,3.48475,8.97414,-2.10522,-4.81707,-37.1037,-78.8719,-8.59812,0.390388,0.246687,6.46341,-3.87195,1.37195
6672.5,8.2739,2.83396,0,3.23328,8.87115,-1.84177,-4.96951,-31.372,-76.4329,-8.56938,0.342488,0.179626,6.7378,-5,2.43902
6672.51,7.82818,2.72999,0,3.64043,9.00767,-1.89446,-7.68293,-24.6646,-73.5061,-8.56459,0.249082,0.0311353,7.71341,-6.34146,3.01829
6672.52,7.48412,2.5932,0,3.93023,8.3658,-2.13875,-8.07927,-16.7683,-70.4878,-8.58854,0.0287402,-0.110171,9.20732,-6.89024,2.77439
6672.53,7.18915,2.45261,0,3.90867,7.65927,-2.38783,-5.82317,-8.29268,-70,-8.59093,-0.285007,-0.146096,10.7012,-7.16463,2.0122
6672.54,6.91525,2.29489,0,3.98052,7.78142,-2.42376,-3.07927,-2.53049,-68.5671,-8.57177,-0.56762,-0.229922,11.8902,-6.85976,0.609756
6672.55,6.66658,2.1173,0,4.06195,8.3658,-2.44771,1.03659,1.37195,-64.1159,-8.43047,-0.713716,-0.318538,13.9329,-6.37195,-0.426829
6672.56,6.40355,1.88416,0,3.65959,8.41131,-2.43813,3.5061,4.69512,-61.2195,-8.32509,-0.699346,-0.507744,15.0915,-5.03049,-0.609756
6672.57,6.11113,1.53618,0,3.23328,8.45442,-2.21779,7.2561,7.9878,-59.4817,-8.28198,-0.747246,-0.665815,16.4939,-3.17073,-0.701219
6672.58,5.76703,0.855658,0,2.7399,8.58854,-1.94476,10.9451,8.9939,-58.75,-8.17181,-0.60594,-0.833467,17.4085,-1.95122,0.518293
6672.59,5.30999,-0.174874,0,2.05014,7.94667,-1.54718,10.7012,11.0061,-64.3902,-8.20773,-0.328118,-0.874182,18.4451,-1.18902,3.10976
6672.6,4.91631,-1.44122,0,2.56986,9.18969,-1.61664,16.189,10.4573,-61.2195,-8.28198,-0.0479004,-0.912502,19.1768,-0.670732,5.60976
6672.61,4.54149,-1.86907,0,2.5028,9.58487,-0.819097,10.2744,5.15244,-58.0793,-8.34425,0.148491,-0.852627,19.2683,-1.70732,8.41463
6672.62,4.15365,-2.19486,0,2.17947,9.44356,-0.881367,7.7439,1.70732,-56.8293,-8.5574,0.313748,-1.06578,19.4817,-2.40854,11.0366
6672.63,3.73854,-2.5036,0,1.89925,9.4244,-0.905317,7.9878,0.121951,-57.1341,-8.66518,0.376018,-1.152,19.1463,-2.53049,13.628
6672.64,3.23336,-2.78678,0,1.47054,8.98132,-0.809517,4.32927,-1.82927,-62.8963,-8.99809,0.474214,-1.19751,18.5671,-2.28659,15
6672.65,2.67957,-3.32533,0,1.60945,8.78493,-1.44659,1.76829,-3.96341,-71.0976,-8.83044,-0.179626,-1.31726,18.9329,-1.21951,16.128
6672.66,2.28714,-3.70463,0,2.97701,10.6123,-1.4921,1.98171,-5.79268,-66.5549,-9.07952,0.316143,-1.21188,17.8354,-1.09756,15.3354
6672.67,1.93541,-4.475,0,2.80217,9.4747,-1.20469,-0.579268,-9.72561,-64.8476,-9.06994,0.392783,-1.46815,17.1037,-0.335366,14.6037
6672.68,1.60294,-4.8518,0,2.95306,8.74661,-1.54718,-1.15854,-13.7805,-68.0488,-9.12981,0.273032,-1.67651,17.7134,1.70732,13.5366
6672.69,1.33223,-5.07432,0,3.13987,8.81607,-1.42743,2.19512,-20.122,-64.3598,-9.23759,0.182021,-1.62622,18.4756,3.5061,12.5
6672.7,1.1122,-5.24004,0,3.2692,8.6101,-1.71962,2.7439,-22.0732,-62.1646,-9.42201,0.261057,-1.50407,18.689,4.11585,11.1585
6672.71,0.91939,-5.36046,0,3.44883,9.24717,-1.59508,0.609756,-20.122,-59.1463,-9.73575,0.261057,-1.39869,18.689,4.20732,11.189
6672.72,0.668051,-5.47941,0,3.05844,8.87115,-1.7795,-3.20122,-13.2927,-62.5915,-9.96807,0.217947,-1.45378,18.1098,4.63415,10.8232
6672.73,0.486496,-5.55874,0,3.67635,10.3153,-1.86812,1.28049,-9.90854,-57.1951,-10.2195,0.253872,-1.33403,16.7683,4.66463,11.0366
6672.74,0.347433,-5.60331,0,3.78174,10.3704,-1.93757,2.22561,-6.40244,-54.0854,-10.4159,0.263452,-1.21427,14.1768,4.48171,11.6159
6672.75,0.217514,-5.6426,0,3.51589,10.471,-1.48012,1.70732,-5.88415,-50.4268,-10.5117,0.390388,-1.20948,10.7622,4.54268,10.9451
6672.76,0.0903157,-5.72355,0,3.33147,10.119,-1.56634,-0.0609756,-5.12195,-49.7256,-10.5884,0.502954,-1.42264,6.70732,5.39634,10
6672.77,-0.0254165,-5.88992,0,3.45122,10.0926,-1.75794,-0.457317,-5.60976,-50.1524,-10.5549,0.684976,-1.83938,3.53659,7.65244,9.02439
