time,angle1,angle2,intgangle,accX1,accY1,accZ1,gyroX1,gyroY1,gyroZ1,accX2,accY2,accZ2,gyroX2,gyroY2,gyroZ2
6916.87,95.1549,-5.98516,0,9.80521,-0.972378,0.775986,-1.55488,-0.396341,-0.945122,-39.4268,0.972378,-3.66438,-10.8841,-5.03049,5.45732
6916.88,95.1605,-5.95327,0,9.80521,-0.984353,0.732876,-1.28049,-0.426829,-1.25,-39.5705,1.07776,-3.6069,-11.4329,-5.73171,6.52439
6916.89,95.1775,-5.93677,0,9.79803,-0.979563,0.701741,-1.15854,-0.0914634,-0.579268,-39.1969,1.33642,-3.81766,-11.2805,-5.27439,6.82927
6916.9,95.1815,-5.92106,0,9.78126,-0.984353,0.701741,-1.31098,-0.426829,-1.34146,-39.4172,1.27894,-3.8464,-12.439,-6.76829,7.22561
6916.91,95.1889,-5.89548,0,9.7597,-0.986748,0.713716,-1.7378,-0.152439,-1.18902,-39.5609,1.33642,-3.67396,-12.439,-6.15854,7.56098
6916.92,95.2003,-5.87032,0,9.76449,-0.996328,0.752036,-1.46341,-0.0914634,-1.03659,-39.5514,1.35558,-3.66438,-12.7439,-6.70732,6.03659
6916.93,95.2041,-5.89464,0,9.79084,-0.977168,0.747246,-1.31098,-0.213415,-1.21951,-39.3502,1.30768,-4.48827,-13.7805,-4.57317,4.26829
6916.94,95.2185,-5.89637,0,9.78844,-1.01788,0.725691,-1.18902,-0.518293,-1.03659,-39.1873,1.346,-4.0859,-13.7195,-2.83537,4.72561
6916.95,95.2323,-5.88568,0,9.80281,-1.01309,0.759221,-1.09756,-0.609756,-0.97561,-39.3119,1.346,-3.88472,-14.4817,-3.47561,4.42073
6916.96,95.2355,-5.86605,0,9.86748,-0.977168,0.768801,-1.06707,-0.792683,-1.06707,-39.4172,1.24062,-3.73144,-15.2439,-3.59756,5.33537
6916.97,95.2461,-5.84984,0,9.81,-1.00112,0.833467,-1.31098,-0.853659,-0.97561,-39.5322,1.49928,-3.78892,-14.4207,-3.65854,6.7378
6916.98,95.2631,-5.8221,0,9.81719,-1.04662,0.684976,-1.06707,-0.396341,-1.06707,-39.5514,1.2023,-3.57816,-15.7012,-4.05488,6.76829
6916.99,95.2772,-5.80236,0,9.9058,-1.04423,0.66342,-0.0609756,0.670732,-1.03659,-39.5322,1.35558,-3.7027,-16.128,-5.51829,7.92683
6917,95.2745,-5.76395,0,9.8603,-0.969983,0.675395,-0.0304878,1.61585,-1.31098,-39.6472,1.18314,-3.37698,-17.2866,-7.2561,8.07927
6917.01,95.2745,-5.75119,0,9.67827,-0.902922,0.670605,-0.121951,-0.457317,-0.304878,-39.513,1.14482,-3.78892,-16.0366,-7.22561,7.04268
6917.02,95.2798,-5.73967,0,9.78605,-0.969983,0.682581,-0.823171,-0.731707,-0.884146,-39.5609,1.03944,-3.80808,-17.5,-7.65244,7.37805
6917.03,95.28,-5.73311,0,9.84832,-0.955613,0.740061,-0.365854,-0.823171,-0.914634,-39.4076,1.06818,-3.86556,-17.3171,-5.70122,6.43293
6917.04,95.2756,-5.71286,0,9.83874,-0.938848,0.723296,-0.426829,-0.426829,-1.03659,-39.2735,0.838257,-3.6069,-14.3598,-5.21341,5.70122
6917.05,95.2736,-5.69078,0,9.82916,-0.969983,0.773591,-0.762195,-0.213415,-1.31098,-39.5801,1.09692,-3.58774,-16.0671,-4.87805,4.32927
6917.06,95.278,-5.67163,0,9.8603,-1.0083,0.749641,-0.670732,0.182927,-1.28049,-39.4747,1.09692,-3.61648,-15.5183,-5.4878,4.66463
6917.07,95.2795,-5.65977,0,9.81958,-0.972378,0.728086,-0.365854,0.121951,-1.09756,-39.5801,1.26936,-3.74102,-14.2378,-5.51829,5.7622
6917.08,95.2804,-5.63867,0,9.78605,-0.986748,0.740061,-0.487805,0.0304878,-1.37195,-39.5418,1.2023,-3.56858,-15.2439,-6.03659,6.58537
6917.09,95.2876,-5.63354,0,9.77647,-1.0083,0.728086,-0.213415,-0.27439,-1.21951,-39.5609,1.30768,-3.83682,-15.9451,-6.15854,6.0061
6917.1,95.2815,-5.62341,0,9.74054,-0.919688,0.761616,-0.213415,-0.426829,-1.0061,-39.513,1.1544,-3.74102,-15.8232,-6.21951,4.7561
6917.11,95.281,-5.6291,0,9.78605,-0.958008,0.749641,-0.365854,-0.579268,-1.09756,-39.4651,1.06818,-4.00926,-15.6098,-6.79878,6.0061
6917.12,95.2858,-5.6133,0,9.84353,-0.998723,0.775986,0,-0.27439,-1.15854,-39.5609,1.02028,-3.64522,-16.8598,-6.98171,4.93902
6917.13,95.2752,-5.60917,0,9.87706,-0.917292,0.730481,-0.0914634,-0.152439,-1.15854,-39.6855,1.17356,-3.85598,-16.4024,-8.17073,4.02439
6917.14,95.2689,-5.60387,0,9.84353,-0.948428,0.766406,-0.457317,-0.0914634,-1.34146,-39.4747,1.16398,-3.80808,-16.0976,-7.04268,4.48171
6917.15,95.2659,-5.60075,0,9.8076,-0.960403,0.783171,-0.914634,0.152439,-1.31098,-39.4364,1.1544,-3.83682,-15.7927,-6.43293,3.07927
6917.16,95.2667,-5.58911,0,9.8076,-0.984353,0.790356,-0.182927,0.121951,-1.34146,-39.5897,1.22146,-3.7027,-15.6098,-7.34756,4.2378
6917.17,95.2664,-5.57712,0,9.77886,-0.955613,0.725691,-0.548781,-0.213415,-1.09756,-39.7334,1.46096,-3.71228,-15.3659,-10.3659,3.71951
6917.18,95.2611,-5.57806,0,9.74054,-0.914897,0.718506,-0.579268,-0.182927,-0.914634,-39.446,1.50886,-3.90388,-15.7927,-10.3354,4.54268
6917.19,95.2631,-5.57714,0,9.73096,-0.962798,0.775986,-1.09756,-0.27439,-1.12805,-39.7334,1.25978,-3.90388,-16.311,-11.4329,4.42073
6917.2,95.271,-5.58095,0,9.74773,-0.991538,0.816702,-0.823171,-0.487805,-1.06707,-39.7717,1.0586,-3.9901,-16.7378,-11.2805,4.26829
6917.21,95.2814,-5.59242,0,9.79803,-0.996328,0.828677,-0.487805,-0.945122,-0.884146,-39.6184,1.00112,-4.11464,-14.7561,-11.8293,4.96951
6917.22,95.2853,-5.5614,0,9.76689,-0.958008,0.773591,-0.27439,-1.34146,-0.823171,-39.7046,0.886157,-3.38656,-14.878,-13.3841,3.65854
6917.23,95.2853,-5.56268,0,9.75012,-0.917292,0.790356,-0.731707,-1.15854,-0.426829,-39.6855,0.694556,-3.9422,-13.2622,-15.9756,2.7439
6917.24,95.2722,-5.57453,0,9.79084,-0.874182,0.756826,-1.89024,-0.97561,-0.579268,-39.7334,0.732876,-4.1338,-11.7683,-15.7012,2.04268
6917.25,95.2719,-5.59008,0,9.77168,-0.922083,0.828677,-1.76829,-1.03659,-0.548781,-39.6663,0.895737,-4.19128,-11.7988,-13.0488,1.92073
6917.26,95.2739,-5.59447,0,9.76449,-0.941243,0.835862,-2.16463,-1.46341,-0.731707,-39.6951,0.991538,-4.00926,-8.93293,-13.4146,1.18902
6917.27,95.2838,-5.6049,0,9.76928,-0.972378,0.809517,-2.34756,-1.37195,-0.670732,-39.3119,1.0586,-4.07632,-8.87195,-12.5305,0.487805
6917.28,95.3014,-5.60995,0,9.78844,-1.0083,0.816702,-2.37805,-1.34146,-0.640244,-39.5226,1.30768,-4.00926,-8.32317,-12.1341,-0.0609756
6917.29,95.3055,-5.58227,0,9.77407,-0.972378,0.747246,-2.13415,-1.61585,-0.945122,-39.1969,1.48012,-3.40572,-8.38415,-11.0671,-0.914634
6917.3,95.3075,-5.55008,0,9.78126,-0.974773,0.792751,-2.46951,-1.4939,-1.09756,-39.3789,1.36516,-3.32908,-9.29878,-12.7134,-3.2622
6917.31,95.3088,-5.53248,0,9.74773,-0.962798,0.787961,-2.9878,-0.182927,-1.03659,-39.3693,1.31726,-3.56858,-9.81707,-14.878,-3.44512
6917.32,95.3102,-5.52989,0,9.83395,-1.00112,0.804727,-3.14024,0.518293,-1.37195,-39.6184,1.25978,-3.83682,-11.2805,-13.0183,-5.36585
6917.33,95.3222,-5.51925,0,9.68785,-1.00591,0.761616,-2.19512,-1.58537,-1.0061,-39.628,1.21188,-3.68354,-12.378,-10,-5.73171
6917.34,95.3206,-5.49741,0,9.67109,-0.943638,0.797541,-2.89634,-2.34756,-1.06707,-39.6472,1.47054,-3.48236,-11.4634,-10.4573,-7.16463
6917.35,95.3198,-5.45941,0,9.91538,-1.0083,0.756826,-3.78049,-1.09756,-1.46341,-39.628,1.61424,-3.18538,-13.75,-11.7073,-7.37805
6917.36,95.3388,-5.42399,0,9.8076,-1.06099,0.61073,-1.82927,-2.7439,-1.0061,-39.5897,1.73878,-3.20454,-15.3354,-12.6829,-8.14024
6917.37,95.3335,-5.38104,0,9.7142,-0.950823,0.689766,-2.16463,-2.83537,-1.34146,-39.5322,1.65256,-3.05125,-17.8354,-14.939,-8.20122
6917.38,95.34,-5.35111,0,9.77886,-1.02507,0.65384,-2.77439,-2.53049,-1.34146,-39.6472,1.47054,-3.2716,-19.4207,-18.628,-7.2561
6917.39,95.3436,-5.29978,0,9.75731,-1.02267,0.66821,-2.40854,-2.7439,-1.52439,-39.4268,1.30768,-2.85965,-19.3598,-18.872,-7.77439
6917.4,95.349,-5.27922,0,9.73336,-1.00351,0.706531,-2.31707,-2.7439,-1.21951,-39.4556,1.38432,-3.35782,-20.3659,-16.9512,-6.70732
6917.41,95.3561,-5.24362,0,9.7621,-1.02028,0.708926,-2.10366,-2.9878,-1.25,-39.5897,1.33642,-3.08958,-20.3963,-16.5549,-5.79268
6917.42,95.3559,-5.19753,0,9.82437,-1.00351,0.665815,-2.13415,-3.23171,-1.43293,-39.5705,1.40348,-2.86923,-21.3415,-13.6585,-5.82317
6917.43,95.3549,-5.16777,0,9.84593,-0.986748,0.646655,-1.92073,-3.38415,-1.25,-39.6663,1.32684,-3.13748,-20.8537,-15.4268,-6.06707
6917.44,95.3573,-5.12744,0,9.83156,-0.986748,0.627495,-1.82927,-2.77439,-1.03659,-39.5514,1.21188,-2.91713,-22.0427,-13.9634,-5.15244
6917.45,95.362,-5.07978,0,10.0303,-1.01549,0.584385,-1.4939,-1.25,-0.914634,-39.6376,1.08734,-2.77343,-24.7256,-15.8232,-5.73171
6917.46,95.3702,-5.05075,0,9.72857,-1.08494,0.613125,-0.152439,-1.46341,-1.85976,-39.6759,0.828677,-3.08,-26.0671,-18.6585,-6.76829
6917.47,95.3522,-5.0449,0,9.55373,-0.878972,0.632285,-0.97561,-3.2622,-1.4939,-39.4747,0.780776,-3.45362,-26.128,-19.5732,-6.98171
6917.48,95.3481,-5.03868,0,9.71899,-0.962798,0.65384,-2.46951,-2.80488,-1.37195,-39.3119,0.665815,-3.42488,-26.189,-18.4451,-5.30488
6917.49,95.3542,-5.06174,0,9.79803,-1.02746,0.608335,-1.09756,-3.65854,-1.34146,-39.1394,0.761616,-3.91346,-25.4268,-17.9573,-6.03659
6917.5,95.3475,-5.04947,0,9.8555,-0.969983,0.641865,-1.61585,-3.2622,-1.46341,-39.1394,0.665815,-3.30992,-26.4939,-16.5549,-4.5122
6917.51,95.3511,-5.03216,0,9.93933,-1.0083,0.60594,-1.76829,-3.01829,-1.06707,-39.216,0.483794,-3.2237,-24.7256,-17.5915,-4.66463
6917.52,95.3453,-4.9819,0,9.91299,-0.969983,0.593965,-1.58537,-2.46951,-1.31098,-39.4843,0.502954,-2.65847,-24.7561,-17.9878,-4.66463
6917.53,95.3542,-4.96269,0,9.8076,-1.0107,0.555645,-2.13415,-2.22561,-0.97561,-39.5705,0.426313,-3.1758,-25.7317,-18.5366,-2.7439
6917.54,95.3619,-4.92934,0,9.8076,-1.06099,0.60115,-1.70732,-1.18902,-1.55488,-39.5035,0.502954,-2.90755,-25.8537,-17.9878,-3.78049
6917.55,95.3707,-4.91264,0,9.86269,-1.08973,0.589175,-0.640244,-0.487805,-1.67683,-39.264,0.196392,-3.15664,-25.9451,-17.8963,-2.43902
6917.56,95.3665,-4.90937,0,9.68785,-1.0107,0.526904,-0.304878,-1.82927,-1.98171,-39.2065,0.0526904,-3.3674,-24.5427,-15.9756,-1.76829
6917.57,95.3558,-4.90466,0,9.79323,-0.938848,0.522114,-1.61585,-2.10366,-1.43293,-39.1777,-0.110171,-3.32908,-24.0549,-13.4451,-0.701219
6917.58,95.3619,-4.88955,0,9.8603,-1.0586,0.531694,-1.4939,-2.22561,-1.55488,-39.0915,0.0143701,-3.13748,-23.1098,-13.2317,-0.304878
6917.59,95.3577,-4.89496,0,9.90101,-0.965193,0.613125,-1.12805,-1.67683,-1.09756,-39.2352,0.0622705,-3.49194,-21.0671,-12.0732,0.304878
6917.6,95.3553,-4.86919,0,9.85311,-0.989143,0.56762,-1.89024,-1.43293,-1.37195,-39.2065,0.0526904,-2.94587,-20.061,-10.7012,1.21951
6917.61,95.3558,-4.8372,0,9.81,-1.00351,0.656235,-1.46341,-1.06707,-1.40244,-39.4843,0.177231,-2.84049,-19.4512,-10.7927,2.53049
6917.62,95.3517,-4.80968,0,9.82197,-0.993933,0.56283,-0.731707,-1.03659,-1.61585,-39.4939,0.186812,-2.89797,-18.1098,-11.0061,2.04268
6917.63,95.3393,-4.76747,0,9.81479,-0.962798,0.488584,-0.396341,-0.670732,-1.92073,-39.6855,0.263452,-2.63931,-17.2256,-12.3171,2.5
6917.64,95.3203,-4.72592,0,9.79084,-0.905317,0.450264,-0.640244,-0.701219,-1.79878,-39.5993,0.455054,-2.62015,-17.0732,-13.628,2.7439
6917.65,95.3053,-4.69256,0,9.80521,-0.917292,0.514929,-1.25,-0.97561,-1.61585,-39.7621,0.474214,-2.74469,-16.8902,-13.1707,2.71341
6917.66,95.3014,-4.66236,0,9.86269,-0.974773,0.608335,-1.25,-0.97561,-1.40244,-39.7142,0.397573,-2.77343,-15.7317,-13.1098,2.22561
6917.67,95.2937,-4.63732,0,9.87946,-0.948428,0.59157,-0.884146,-0.426829,-1.34146,-39.5705,0.435894,-2.83091,-15.0305,-12.5,2.46951
6917.68,95.2918,-4.62287,0,9.8603,-0.979563,0.55325,-1.03659,-0.213415,-1.34146,-39.5035,0.292192,-2.99377,-15.0305,-12.4085,1.82927
6917.69,95.2951,-4.58691,0,9.87946,-0.989143,0.60115,-0.884146,-0.0914634,-1.06707,-39.5226,0.359253,-2.61057,-15.4878,-13.0183,3.14024
6917.7,95.2977,-4.55834,0,9.84353,-0.993933,0.560435,-0.609756,0.0914634,-1.21951,-39.4939,0.320933,-2.71595,-14.3293,-13.811,2.71341
6917.71,95.2966,-4.54148,0,9.77168,-0.955613,0.55325,-1.06707,0.243902,-1.09756,-39.6184,0.359253,-2.90755,-14.6341,-13.1098,4.39024
6917.72,95.3039,-4.5281,0,9.75731,-0.981958,0.608335,-0.884146,0.0914634,-0.914634,-39.6088,0.407153,-2.95545,-15.3049,-12.8659,4.72561
6917.73,95.311,-4.49624,0,9.77407,-0.984353,0.58199,-0.670732,0.213415,-0.914634,-39.5705,0.493374,-2.62015,-15.8232,-13.0793,4.69512
6917.74,95.3064,-4.44981,0,9.78126,-0.938848,0.603545,-0.701219,0.0914634,-1.06707,-39.4651,0.598755,-2.34233,-16.9512,-14.6951,4.93902
6917.75,95.3122,-4.399,0,9.80521,-0.950823,0.613125,-1.37195,0.213415,-0.457317,-39.6184,0.665815,-2.24653,-17.5305,-15.9146,5.82317
6917.76,95.3277,-4.37232,0,9.78844,-1.00351,0.63947,-1.43293,0.304878,-0.640244,-39.2352,0.723296,-2.61057,-17.3476,-16.4634,5.88415
6917.77,95.3408,-4.34395,0,9.80521,-1.00591,0.646655,-1.34146,0.0914634,-0.731707,-39.1777,0.761616,-2.55309,-18.1098,-14.6646,5.30488
6917.78,95.35,-4.3301,0,9.74533,-0.984353,0.60594,-1.12805,-0.213415,-0.762195,-39.149,0.684976,-2.78301,-17.9573,-14.5427,4.48171
6917.79,95.359,-4.29865,0,9.80042,-1.0083,0.593965,-1.40244,-0.426829,-0.945122,-39.3023,0.819097,-2.47645,-19.2988,-14.0549,4.17683
6917.8,95.3802,-4.27473,0,9.73815,-1.03704,0.608335,-1.58537,-0.731707,-0.731707,-39.5514,0.895737,-2.60099,-19.3902,-13.689,3.32317
6917.81,95.3916,-4.26102,0,9.75731,-1.02507,0.617915,-1.25,-0.579268,-1.0061,-39.9537,0.723296,-2.79259,-20.6402,-14.1159,3.47561
6917.82,95.4033,-4.24453,0,9.76928,-1.01309,0.66342,-1.31098,-0.701219,-0.823171,-39.9825,0.646655,-2.73511,-20.4878,-13.872,3.90244
6917.83,95.4097,-4.21659,0,9.79084,-1.0107,0.632285,-0.914634,-1.12805,-1.03659,-39.8004,0.761616,-2.51477,-20.5488,-15.4573,4.39024
6917.84,95.4115,-4.19202,0,9.83395,-0.991538,0.5772,-0.701219,-1.31098,-1.0061,-39.7142,0.675395,-2.55309,-20.7012,-16.6159,4.60366
6917.85,95.4062,-4.14985,0,9.81958,-0.950823,0.64426,-1.0061,-1.28049,-0.97561,-39.5418,0.512534,-2.22737,-19.4817,-19.5427,5.54878
6917.86,95.4082,-4.12099,0,9.79563,-0.986748,0.61073,-1.37195,-1.06707,-1.0061,-39.2927,0.292192,-2.41897,-21.0671,-20.5793,6.06707
6917.87,95.4147,-4.11002,0,9.79803,-1.00591,0.6251,-1.76829,-0.945122,-0.945122,-38.8903,0.455054,-2.67763,-21.189,-19.1463,6.82927
6917.88,95.4223,-4.0811,0,9.81479,-1.0562,0.579595,-1.25,-0.823171,-1.40244,-39.0915,0.407153,-2.37107,-19.7866,-18.4146,5.94512
6917.89,95.4238,-4.05508,0,9.84832,-1.01788,0.534089,-0.884146,-0.182927,-1.31098,-39.3789,0.665815,-2.41897,-20.2134,-18.4146,5.39634
6917.9,95.4206,-4.02942,0,9.8579,-1.03225,0.538879,-1.34146,0.670732,-1.79878,-39.1681,0.742456,-2.39023,-19.4512,-17.1951,4.35976
6917.91,95.4177,-4.01487,0,10.095,-1.07776,0.589175,-1.85976,4.45122,-1.95122,-39.2927,0.886157,-2.56267,-19.7256,-14.0549,4.42073
6917.92,95.4319,-4.00074,0,9.59445,-1.06339,0.517324,0.670732,-0.182927,-1.43293,-39.3598,0.828677,-2.56267,-20.0915,-13.5366,5.09146
6917.93,95.4133,-3.98809,0,9.66869,-0.895737,0.519719,-1.4939,-1.37195,-1.4939,-39.4747,0.637075,-2.58183,-19.6037,-12.3171,3.93293
6917.94,95.4179,-3.96436,0,9.72138,-1.03944,0.598755,-1.82927,-1.95122,-1.55488,-39.7717,0.694556,-2.39981,-19.8171,-12.9573,3.59756
6917.95,95.4258,-3.93921,0,9.77407,-1.04662,0.62031,-1.09756,-1.76829,-1.34146,-39.7621,0.713716,-2.36149,-22.1037,-14.0549,3.68902
6917.96,95.4262,-3.89842,0,9.81479,-1.0083,0.613125,-1.34146,-2.19512,-1.31098,-39.9058,0.637075,-2.08367,-22.1646,-16.128,3.62805
6917.97,95.4292,-3.8473,0,9.81479,-1.04183,0.560435,-0.640244,-2.19512,-1.52439,-39.8867,0.665815,-1.87291,-22.6829,-16.311,2.95732
6917.98,95.4267,-3.8,0,9.75252,-0.977168,0.481399,-0.762195,-2.40854,-1.21951,-39.8675,0.847837,-1.91123,-24.6646,-18.5671,3.14024
6917.99,95.4192,-3.76671,0,9.77407,-0.974773,0.514929,-1.55488,-2.2561,-1.55488,-39.5993,0.732876,-2.11241,-25.3963,-19.0244,3.35366
6918,95.4311,-3.74879,0,9.75731,-1.06099,0.534089,-1.64634,-2.46951,-1.28049,-39.4364,0.732876,-2.34233,-25.6402,-17.1341,3.96341
6918.01,95.4323,-3.73693,0,9.81,-1.01309,0.543669,-0.792683,-2.22561,-1.31098,-39.3885,0.742456,-2.42855,-25.6402,-15.9756,4.29878
6918.02,95.434,-3.70221,0,9.87706,-1.02986,0.514929,-0.487805,-2.43902,-1.37195,-39.6088,0.407153,-2.03577,-26.6768,-16.5549,3.84146
6918.03,95.4344,-3.66717,0,9.93933,-1.02986,0.450264,-0.426829,-1.85976,-1.37195,-39.5514,0.340093,-2.00703,-26.5549,-17.6829,4.42073
6918.04,95.4402,-3.64098,0,10.004,-1.03944,0.524509,-0.670732,0.609756,-1.0061,-40.0399,0.311353,-2.16989,-25.0915,-19.4512,3.84146
6918.05,95.4393,-3.61678,0,10.107,-1.06099,0.57241,-0.304878,3.23171,-1.55488,-39.8579,0.493374,-2.17947,-25.4878,-20.2134,4.60366
6918.06,95.4348,-3.57136,0,9.52978,-0.972378,0.397573,1.37195,-1.12805,-1.64634,-39.7142,0.589175,-1.78668,-24.3902,-21.4329,5.21341
6918.07,95.4303,-3.54248,0,9.6639,-0.967588,0.414338,-0.670732,-1.40244,-1.37195,-39.5418,0.493374,-2.03577,-24.5122,-21.25,6.28049
6918.08,95.4266,-3.50999,0,9.79323,-1.02986,0.428708,-0.548781,-2.16463,-1.89024,-39.4747,0.301772,-1.94955,-24.1463,-21.2805,5.12195
6918.09,95.4227,-3.47353,0,9.89143,-1.00591,0.519719,0.0304878,-1.89024,-1.4939,-39.3789,0.263452,-1.85375,-23.4146,-21.4024,4.93902
6918.1,95.4221,-3.44551,0,9.88425,-0.991538,0.476609,-0.213415,-1.79878,-1.06707,-39.3214,0.320933,-1.96871,-23.9024,-20.2744,4.48171
6918.11,95.4215,-3.40475,0,9.87227,-1.0083,0.510139,0.0609756,-1.34146,-1.31098,-39.3023,0.225132,-1.7292,-23.4756,-20.8232,3.2622
6918.12,95.4225,-3.37929,0,9.8579,-1.0083,0.404758,-0.0609756,-1.06707,-1.21951,-39.3502,0.0910107,-1.96871,-23.6585,-20.6402,2.92683
6918.13,95.4231,-3.35113,0,9.82677,-1.01788,0.488584,0.0304878,-0.548781,-1.40244,-39.3119,0.253872,-1.90165,-22.8049,-20.4573,3.78049
6918.14,95.4264,-3.3087,0,9.80521,-1.04423,0.450264,0.213415,-0.579268,-1.55488,-39.446,0.196392,-1.64298,-22.378,-21.311,5.7622
6918.15,95.4238,-3.28018,0,9.80042,-1.0107,0.507744,0.365854,-0.945122,-1.58537,-39.331,0.273032,-1.84417,-22.9268,-19.4207,5.4878
6918.16,95.4227,-3.25463,0,9.79563,-1.02986,0.495769,0.0914634,-0.823171,-1.70732,-39.4364,0.253872,-1.88249,-22.9878,-19.7866,6.98171
6918.17,95.4218,-3.22512,0,9.79563,-1.02028,0.522114,0.304878,-0.792683,-1.58537,-39.4268,0.282612,-1.79626,-23.1098,-20,6.7378
6918.18,95.4216,-3.19484,0,9.8579,-1.03225,0.474214,0.670732,-0.640244,-1.58537,-39.4939,0.320933,-1.76752,-23.4756,-20.6098,7.53049
6918.19,95.4091,-3.15687,0,9.8555,-0.960403,0.481399,0.97561,-0.792683,-1.67683,-39.743,0.445474,-1.62382,-22.378,-20.9756,7.46951
6918.2,95.4087,-3.13694,0,9.8603,-1.0083,0.474214,0.914634,-0.213415,-1.34146,-39.8292,0.464634,-1.92081,-22.1951,-21.7073,7.56098
6918.21,95.4066,-3.10536,0,9.89862,-1.01788,0.507744,1.43293,0.152439,-1.52439,-39.7717,0.435894,-1.70046,-21.7988,-21.9512,6.58537
6918.22,95.3949,-3.04457,0,9.82197,-0.934058,0.455054,1.40244,0.27439,-1.28049,-39.81,0.292192,-1.17356,-21.6463,-23.9329,6.40244
6918.23,95.3811,-3.01409,0,9.78844,-0.919688,0.452659,0.670732,0.457317,-1.34146,-39.7525,0.311353,-1.66214,-21.4634,-24.1159,7.46951
6918.24,95.3765,-2.96577,0,9.78126,-0.962798,0.512534,0.945122,0.792683,-1.25,-39.7813,0.301772,-1.33642,-21.2195,-26.311,7.28659
6918.25,95.3697,-2.918,0,9.81719,-0.960403,0.512534,1.09756,1.09756,-1.34146,-39.6951,0.493374,-1.30768,-21.8598,-25.7317,5.88415
6918.26,95.3662,-2.87837,0,9.84593,-0.969983,0.483794,0.792683,0.762195,-1.18902,-39.7142,0.397573,-1.42264,-21.0976,-27.1341,7.34756
6918.27,95.3716,-2.81828,0,9.84114,-1.0083,0.543669,0.884146,0.609756,-1.06707,-39.5418,0.387993,-1.02986,-22.3171,-26.4634,8.17073
6918.28,95.3711,-2.78186,0,9.87467,-0.984353,0.56762,1.0061,0.823171,-1.09756,-39.6376,0.512534,-1.41306,-21.1585,-28.9024,7.92683
6918.29,95.3764,-2.76845,0,9.84593,-0.993933,0.546064,1.06707,0.487805,-0.884146,-39.5801,0.617915,-1.78668,-22.1341,-28.5976,8.41463
6918.3,95.3774,-2.73863,0,9.91059,-0.967588,0.60115,1.25,0.487805,-0.670732,-39.8292,0.301772,-1.50886,-22.9573,-31.128,8.78049
6918.31,95.3792,-2.68832,0,9.89862,-0.969983,0.538879,1.18902,0.670732,-0.670732,-39.9537,0.387993,-1.13524,-21.6768,-32.1951,7.62195
6918.32,95.3829,-2.6604,0,9.83395,-0.981958,0.536484,1.25,0.792683,-0.823171,-39.9729,0.502954,-1.49928,-22.439,-33.2622,7.71341
6918.33,95.4015,-2.61936,0,9.86269,-1.01788,0.479004,1.46341,1.0061,-0.396341,-39.6951,0.416733,-1.24062,-22.9878,-33.5671,6.25
6918.34,95.4279,-2.56159,0,9.92736,-1.04183,0.387993,2.07317,0.548781,-0.182927,-40.0399,0.474214,-0.934058,-22.5305,-35.5183,6.79878
6918.35,95.4381,-2.51791,0,10.0447,-0.984353,0.404758,1.79878,0.609756,0.335366,-39.7909,0.397573,-1.13524,-22.5915,-35.5183,6.40244
6918.36,95.4474,-2.48359,0,10.1166,-0.974773,0.490979,1.40244,0.609756,0.731707,-39.6855,0.186812,-1.26936,-21.8902,-36.4939,7.2561
6918.37,95.4653,-2.4451,0,10.2339,-1.04662,0.6251,1.34146,2.19512,0.335366,-39.5801,0.0526904,-1.17356,-21.0671,-37.7134,6.85976
6918.38,95.4803,-2.41566,0,10.1453,-1.04662,0.58199,3.14024,3.17073,-0.243902,-39.2352,0.0718506,-1.28852,-18.75,-36.25,6.12805
6918.39,95.4626,-2.38552,0,9.95131,-0.917292,0.543669,3.2622,3.75,-1.15854,-39.628,0.464634,-1.27894,-17.378,-39.1768,6.67683
6918.4,95.4475,-2.33731,0,9.6639,-0.922083,0.505349,2.13415,3.65854,-1.52439,-39.6184,0.541274,-0.943638,-14.2683,-39.6951,5.7622
6918.41,95.4464,-2.27859,0,9.72138,-0.967588,0.55804,0.792683,4.5122,-0.97561,-39.7717,0.426313,-0.732876,-13.75,-40.6098,7.07317
6918.42,95.4611,-2.21407,0,9.84593,-1.03704,0.641865,2.43902,4.7561,-0.701219,-40.0304,0.637075,-0.598755,-13.1707,-41.9817,8.04878
6918.43,95.4584,-2.15112,0,9.87946,-0.955613,0.60115,3.78049,5.15244,-0.548781,-40.1166,0.387993,-0.589175,-12.622,-43.811,8.93293
6918.44,95.4514,-2.08475,0,9.87706,-0.967588,0.531694,3.47561,5.42683,-1.15854,-40.0208,0.483794,-0.493374,-13.2622,-46.7073,6.95122
6918.45,95.4567,-2.01277,0,9.84114,-1.11368,0.447869,3.68902,5.45732,-2.0122,-39.7909,0.416733,-0.349673,-12.7744,-47.8049,7.37805
6918.46,95.463,-1.95303,0,9.76928,-1.14242,0.407153,4.32927,4.63415,-2.31707,-39.7334,0.598755,-0.522114,-15.5183,-50.2134,7.19512
6918.47,95.4527,-1.88339,0,9.68546,-1.00591,0.407153,3.38415,4.08537,-2.22561,-39.81,0.790356,-0.311353,-14.7256,-51.2805,8.04878
6918.48,95.4424,-1.79875,0,9.65911,-0.960403,0.560435,1.55488,3.62805,-1.70732,-39.7046,0.934058,-0.00479004,-16.8293,-52.6829,8.5061
6918.49,95.44,-1.71564,0,9.80521,-0.986748,0.749641,1.21951,3.59756,-1.21951,-39.6472,0.838257,0.0239502,-18.3232,-53.5976,9.90854
6918.5,95.4454,-1.63938,0,9.96328,-1.02028,0.823887,3.29268,3.14024,-0.853659,-39.7046,0.991538,-0.0431104,-19.3293,-55.061,9.05488
6918.51,95.4506,-1.56984,0,9.98244,-0.979563,0.687371,3.71951,2.71341,-0.213415,-39.6567,0.991538,-0.119751,-19.4512,-58.5061,9.60366
6918.52,95.4563,-1.48991,0,9.85072,-0.986748,0.543669,3.78049,1.61585,-0.548781,-39.8196,0.828677,0.110171,-19.6646,-58.5976,9.26829
6918.53,95.4889,-1.39832,0,9.64235,-1.04902,0.55804,4.02439,2.0122,-0.426829,-39.7621,0.502954,0.359253,-20.5488,-61.7073,7.83537
6918.54,95.5103,-1.34086,0,9.73096,-0.998723,0.646655,3.29268,4.60366,0.27439,-39.992,0.598755,-0.177231,-21.7988,-61.9512,8.56707
6918.55,95.5536,-1.24243,0,9.81,-1.09931,0.66342,3.38415,5.18293,0.396341,-40.107,0.723296,0.579595,-20.8232,-63.9939,8.29268
6918.56,95.5804,-1.17519,0,9.52499,-1.06339,0.706531,5.36585,2.34756,-0.792683,-40.0591,0.455054,0.0910107,-21.5244,-65.7317,7.7439
6918.57,95.5992,-1.07828,0,9.59205,-0.986748,0.560435,3.44512,1.67683,-0.0304878,-39.9825,0.627495,0.656235,-22.5305,-67.0122,6.89024
6918.58,95.6073,-0.977189,0,9.72378,-0.996328,0.677791,2.04268,2.71341,-0.396341,-40.0974,0.723296,0.790356,-22.0732,-69.7866,8.29268
6918.59,95.6025,-0.879404,0,9.6639,-0.955613,0.850232,2.5,1.98171,-0.670732,-39.7621,0.723296,0.790356,-22.439,-71.4024,8.68902
6918.6,95.593,-0.785727,0,9.51062,-0.917292,0.838257,1.92073,0.518293,-0.518293,-39.6567,0.924478,0.771196,-21.0671,-75.1829,9.14634
6918.61,95.5755,-0.712641,0,9.45314,-0.910107,0.833467,1.28049,1.18902,-1.4939,-39.6376,0.512534,0.464634,-20.3049,-78.4451,9.78659
6918.62,95.5772,-0.645316,0,9.36932,-0.979563,0.855022,1.28049,0.426829,-1.28049,-39.9154,0.608335,0.416733,-20,-78.6585,9.32927
6918.63,95.5608,-0.559474,0,9.48188,-0.912502,0.907712,1.09756,-0.121951,-1.43293,-40.1549,0.215552,0.780776,-18.5061,-82.5305,8.84146
6918.64,95.5418,-0.436291,0,9.48667,-0.893342,0.924478,1.0061,-1.46341,-1.34146,-40.3848,0.177231,1.49928,-18.2317,-85.8841,7.77439
6918.65,95.5262,-0.314042,0,9.45793,-0.919688,0.898132,1.15854,-2.46951,-1.64634,-40.4806,0.282612,1.55676,-16.4024,-90.6098,7.62195
6918.66,95.5014,-0.198081,0,9.36453,-0.876577,0.866997,0.487805,-3.20122,-2.04268,-40.5668,0.368833,1.51844,-16.25,-95.0915,6.79878
6918.67,95.4715,-0.0912773,0,9.35734,-0.852627,0.922083,-0.762195,-4.26829,-2.28659,-40.6339,0.589175,1.43222,-17.1646,-97.0427,6.82927
6918.68,95.4102,0.0142351,0,9.53697,-0.821492,1.0083,-1.18902,-4.54268,-5.12195,-40.404,0.416733,1.47054,-16.6463,-98.75,7.0122
6918.69,95.4191,0.125243,0,9.32621,-1.20469,0.934058,-2.43902,-4.81707,-3.44512,-40.0974,0.464634,1.62382,-18.2012,-100.701,6.58537
6918.7,95.3966,0.253698,0,9.55134,-0.986748,0.869392,-1.0061,-4.08537,-3.35366,-40.2028,0.771196,2.00703,-17.8049,-103.262,6.89024
6918.71,95.3594,0.377773,0,9.4268,-0.924478,0.766406,-0.853659,-4.05488,-4.2378,-39.9346,0.713716,1.99745,-19.1463,-105.762,5.30488
6918.72,95.3259,0.513091,0,9.39566,-1.02507,0.65384,-1.58537,-2.80488,-5.21341,-39.7334,0.914897,2.25611,-20.122,-110.122,5.54878
6918.73,95.2961,0.659734,0,9.45075,-1.1065,0.617915,-1.58537,-3.41463,-5.82317,-39.6663,0.991538,2.53393,-22.1646,-113.354,6.06707
6918.74,95.2642,0.801425,0,9.67588,-1.12566,0.543669,-1.58537,-4.5122,-6.0061,-39.5418,1.03944,2.53393,-21.0671,-115.396,5.42683
6918.75,95.2237,0.941064,0,9.8579,-1.08015,0.536484,-2.37805,-5.51829,-6.15854,-39.5514,0.953218,2.59141,-22.2561,-116.982,5.54878
6918.76,95.1881,1.08918,0,10.0591,-1.12805,0.56283,-3.01829,-5.67073,-6.03659,-39.5226,0.847837,2.82133,-22.1341,-120.854,6.55488
6918.77,95.1486,1.24637,0,10.3034,-1.11368,0.613125,-2.28659,-5.51829,-6.03659,-39.6855,0.828677,3.08958,-21.5549,-122.652,7.16463
6918.78,95.1063,1.41591,0,10.5189,-1.08973,0.455054,-1.82927,-5.2439,-5.88415,-40.0112,0.723296,3.43446,-22.7744,-125.579,7.9878
6918.79,95.0587,1.59683,0,10.483,-0.998723,0.534089,-1.61585,-4.7561,-5.54878,-39.7238,0.627495,3.72186,-22.8354,-127.683,8.90244
6918.8,95.0054,1.79757,0,10.368,-0.981958,0.522114,-1.55488,-3.23171,-6.15854,-39.4556,0.694556,4.16254,-23.5061,-130.061,8.38415
6918.81,94.9563,1.99317,0,10.0591,-0.998723,0.514929,-1.61585,-2.80488,-6.37195,-39.216,0.617915,4.1817,-24.8476,-131.402,8.47561
6918.82,94.8995,2.16853,0,9.88904,-0.981958,0.548459,-1.70732,-2.16463,-7.2561,-39.216,0.704136,3.96136,-26.5244,-131.982,9.2378
6918.83,94.8498,2.3463,0,9.59684,-1.00112,0.589175,-1.98171,-2.86585,-7.22561,-39.0819,0.627495,4.11464,-27.378,-130.854,9.17683
6918.84,94.8053,2.53596,0,9.61361,-1.07057,0.565225,-2.2561,-2.10366,-7.62195,-39.3214,0.407153,4.46911,-26.1585,-131.646,8.96341
6918.85,94.7506,2.73767,0,9.53457,-1.07536,0.514929,-0.640244,-2.2561,-8.90244,-39.5226,0.330513,4.82357,-25,-135.64,8.23171
6918.86,94.6688,2.9534,0,9.59924,-0.874182,0.419128,-1.34146,-3.32317,-9.26829,-39.5226,0.378413,5.19719,-24.2988,-140.213,7.80488
6918.87,94.5958,3.18853,0,9.66151,-0.958008,0.397573,-2.31707,-3.23171,-9.48171,-39.5322,0.407153,5.68578,-24.4512,-142.744,7.46951
6918.88,94.5472,3.41586,0,9.86748,-1.09213,0.488584,-0.152439,-3.47561,-8.47561,-39.3406,0.407153,5.68578,-24.0244,-142.5,7.13415
6918.89,94.4701,3.64969,0,10.0256,-0.874182,0.469424,0.792683,-4.02439,-8.75,-38.8328,0.148491,5.88696,-23.9634,-141.494,7.83537
6918.9,94.3707,3.88653,0,10.1237,-0.799937,0.464634,-0.945122,-5.30488,-10.2439,-38.4305,0.273032,6.04024,-22.439,-141.098,7.22561
6918.91,94.2952,4.11467,0,10.0758,-0.948428,0.474214,-1.40244,-5.51829,-9.7561,-38.191,0.196392,6.02108,-21.5854,-139.024,8.17073
6918.92,94.2204,4.376,0,10.1381,-0.919688,0.431104,-0.548781,-4.81707,-9.45122,-38.2389,0.330513,6.76833,-21.25,-136.707,7.68293
6918.93,94.1189,4.66071,0,10.2219,-0.749641,0.490979,-0.548781,-0.182927,-10.3049,-38.4496,0.330513,7.39103,-21.25,-138.293,7.5
6918.94,94.0147,4.96064,0,9.78366,-0.826282,0.488584,0.243902,0.487805,-12.0732,-38.6029,0.340093,7.88919,-21.2805,-138.293,6.15854
6918.95,93.9267,5.23594,0,9.5202,-0.869392,0.330513,-0.823171,-1.89024,-11.4329,-38.4975,0.684976,7.64011,-21.1585,-138.963,5.57927
6918.96,93.867,5.52272,0,9.65193,-0.946033,0.337698,-1.37195,-0.335366,-9.5122,-38.3538,0.771196,8.00416,-20.8232,-139.36,5.4878
6918.97,93.7938,5.84686,0,9.8555,-0.819097,0.440684,1.34146,-0.640244,-9.26829,-38.191,0.914897,8.82804,-21.5549,-139.909,5.03049
6918.98,93.6767,6.15052,0,9.88904,-0.526904,0.414338,1.03659,-1.79878,-10.4268,-38.076,0.828677,8.66518,-20.8537,-140.244,6.03659
6918.99,93.5676,6.44946,0,9.80042,-0.60594,0.397573,-1.06707,-2.53049,-10.8537,-37.8748,0.723296,8.74182,-22.2256,-142.012,5.2439
6919,93.4833,6.73463,0,9.73815,-0.785566,0.416733,-0.731707,-2.77439,-10.7317,-37.9419,0.847837,8.71308,-23.0793,-144.97,6.52439
6919.01,93.4027,7.05454,0,9.75731,-0.783171,0.517324,0.853659,-0.853659,-10.4878,-37.9706,0.637075,9.52739,-23.2622,-146.982,7.31707
6919.02,93.2986,7.37795,0,9.88425,-0.64426,0.390388,1.67683,-1.15854,-11.2805,-37.9227,0.570015,9.79563,-23.2622,-149.146,6.7378
6919.03,93.1899,7.70257,0,9.82677,-0.62031,0.488584,0.335366,-2.19512,-11.7378,-38.0377,0.493374,10.0735,-22.5305,-150.03,7.92683
6919.04,93.0987,7.99389,0,9.83395,-0.692161,0.524509,0.457317,-3.78049,-11.0061,-37.4916,0.531694,9.57529,-21.6159,-147.927,9.39024
6919.05,92.9929,8.26725,0,9.96807,-0.627495,0.500559,1.46341,-2.40854,-11.8293,-37.2713,0.790356,9.42201,-21.2195,-143.445,10.3963
6919.06,92.8808,8.58257,0,9.86988,-0.57241,0.428708,2.62195,-1.79878,-12.1037,-36.9935,0.799937,10.2842,-19.4207,-140.183,10.8537
6919.07,92.774,8.90996,0,9.88904,-0.55325,0.483794,3.07927,-1.76829,-11.5549,-37.4054,0.819097,10.8303,-18.9634,-141.89,11.8293
6919.08,92.6455,9.23299,0,9.9082,-0.371228,0.431104,2.46951,-1.34146,-11.8293,-37.7216,1.02028,11.0698,-19.1159,-143.963,10.4268
6919.09,92.5322,9.56661,0,9.86509,-0.421523,0.392783,1.28049,-1.76829,-11.1585,-37.8174,1.09692,11.52,-18.2927,-144.604,8.75
6919.1,92.4312,9.91166,0,9.84353,-0.435894,0.519719,2.28659,-1.37195,-10.3049,-37.53,0.809517,11.8745,-19.5427,-146.006,8.41463
6919.11,92.3352,10.2315,0,9.84832,-0.414338,0.471819,3.07927,-1.09756,-9.7561,-36.8881,0.713716,11.4626,-19.4817,-146.707,7.37805
6919.12,92.2353,10.515,0,9.79563,-0.301772,0.438289,1.95122,-1.58537,-9.02439,-36.6965,0.522114,10.9836,-17.8049,-146.982,8.23171
6919.13,92.1316,10.8506,0,9.85311,-0.332908,0.421523,1.85976,-1.89024,-9.96951,-36.4091,0.273032,12.0086,-20.1524,-148.841,8.96341
6919.14,92.037,11.2041,0,9.9082,-0.395178,0.483794,2.07317,-1.0061,-9.96951,-36.7444,0.320933,12.6601,-20.061,-154.787,9.08537
6919.15,91.9625,11.5413,0,9.82916,-0.397573,0.414338,1.34146,-1.76829,-8.17073,-36.8498,0.0622705,12.6505,-19.7561,-156.067,12.0732
6919.16,91.8914,11.8814,0,9.83635,-0.344883,0.455054,1.37195,-2.89634,-7.34756,-36.6007,-0.00479004,12.8613,-19.8171,-155,13.872
6919.17,91.819,12.2392,0,9.89862,-0.352068,0.55804,1.37195,-1.95122,-7.68293,-36.2845,0.119751,13.3115,-18.1098,-155.549,13.9939
6919.18,91.7388,12.5911,0,9.98484,-0.323328,0.598755,1.43293,-1.21951,-8.2622,-36.0738,0.138911,13.3882,-16.9817,-154.634,14.9695
6919.19,91.6462,12.9437,0,10.0687,-0.280217,0.414338,0.914634,-0.609756,-9.14634,-35.8151,-0.0239502,13.551,-13.2317,-155.732,15.2439
6919.2,91.5741,13.263,0,9.88904,-0.378413,0.423918,1.28049,-2.34756,-8.47561,-35.9301,0.167651,13.2445,-11.7073,-155.762,14.8171
6919.21,91.5086,13.5516,0,9.9561,-0.366438,0.55325,1.28049,-1.37195,-7.77439,-35.8247,-0.0143701,12.89,-10.061,-153.933,14.4817
6919.22,91.4305,13.8903,0,9.82677,-0.265847,0.404758,1.52439,-2.80488,-8.04878,-35.8343,0.0526904,14.0109,-7.53049,-151.311,13.2622
6919.23,91.3291,14.2593,0,9.76689,-0.146096,0.380808,0.731707,-1.79878,-9.17683,-35.9301,0.589175,14.8539,-7.9878,-151.463,10
6919.24,91.234,14.6066,0,9.87227,-0.182021,0.397573,-0.304878,-1.25,-9.14634,-36.1408,0.732876,14.806,-8.62805,-151.494,9.48171
6919.25,91.166,14.9311,0,9.95131,-0.347278,0.378413,-0.548781,-0.823171,-8.5061,-35.7864,1.18314,14.4994,-7.56098,-150.854,9.42073
6919.26,91.1202,15.2999,0,9.78605,-0.325723,0.462239,0.182927,-1.98171,-6.18902,-35.4702,1.06818,15.4191,-8.9939,-151.098,9.14634
6919.27,91.0474,15.6733,0,9.80042,-0.172441,0.481399,0.548781,-2.19512,-7.19512,-35.566,0.761616,15.8119,-9.05488,-154.024,8.96341
6919.28,90.9759,16.0571,0,9.80521,-0.201182,0.371228,-0.701219,-1.67683,-7.56098,-35.5181,0.694556,16.2526,-9.35976,-156.799,8.17073
6919.29,90.9197,16.4471,0,9.80042,-0.301772,0.404758,-0.426829,-1.61585,-7.34756,-35.2307,0.512534,16.5208,-10.8537,-157.896,8.44512
6919.3,90.8536,16.8212,0,9.86748,-0.268242,0.392783,0.27439,-1.25,-8.04878,-35.0296,0.397573,16.4155,-11.189,-158.567,7.80488
6919.31,90.7621,17.1539,0,9.89143,-0.134121,0.390388,0.304878,-1.95122,-9.17683,-34.6368,0.340093,15.7544,-10.0305,-154.604,9.96951
6919.32,90.6538,17.5004,0,9.91538,-0.0790356,0.373623,-0.762195,-1.76829,-10.4268,-34.2248,0.359253,16.0706,-8.87195,-151.829,10.7927
6919.33,90.6126,17.8718,0,9.93694,-0.352068,0.311353,-1.12805,-0.670732,-7.0122,-34.0524,0.694556,16.7029,-7.10366,-151.646,13.628
6919.34,90.5305,18.231,0,9.8579,-0.0670605,0.455054,1.76829,-1.98171,-7.92683,-34.1386,0.780776,16.7987,-6.4939,-150.061,13.7805
6919.35,90.4553,18.6042,0,9.81958,-0.114961,0.352068,-0.731707,-0.304878,-7.95732,-34.0715,0.953218,17.2968,-5.91463,-149.36,12.0732
6919.36,90.3928,18.9748,0,9.80521,-0.253872,0.385598,0.27439,-0.457317,-8.47561,-34.244,1.27894,17.6226,-5.06098,-148.14,12.0122
6919.37,90.3072,19.3394,0,9.73575,-0.102986,0.356858,0.579268,-1.06707,-9.17683,-34.3398,1.48012,17.8429,-4.90854,-146.524,10.2744
6919.38,90.2298,19.7375,0,9.79803,-0.167651,0.368833,-1.25,-0.884146,-9.26829,-34.3685,1.4418,18.7913,-5.82317,-146.098,8.5061
6919.39,90.1787,20.1399,0,9.5681,-0.335303,0.61552,-0.579268,-3.23171,-8.84146,-34.0907,1.52802,19.0308,-8.20122,-146.89,7.10366
6919.4,90.1032,20.5284,0,10.0711,-0.0742456,0.347278,0.945122,-1.70732,-8.20122,-33.8991,1.5855,18.9638,-11.4939,-146.89,6.58537
6919.41,90.0234,20.8869,0,9.88664,-0.0694556,0.330513,0.396341,-2.59146,-8.75,-33.1998,1.55676,18.3027,-13.5366,-144.085,5.88415
6919.42,89.9687,21.2321,0,9.95131,-0.179626,0.251477,-0.518293,0.0914634,-7.65244,-32.4142,1.57592,17.9004,-13.4451,-140.396,6.95122
6919.43,89.887,21.5949,0,9.9058,0.0215552,0.256267,0.426829,-0.731707,-8.14024,-32.1555,1.46096,18.3506,-14.1463,-137.591,8.44512
6919.44,89.8053,21.9668,0,9.69743,0,0.426313,-0.335366,1.82927,-8.56707,-32.2513,1.40348,18.8488,-14.7256,-137.957,9.20732
6919.45,89.7268,22.3071,0,9.77407,-0.0335303,0.155676,0.884146,0.365854,-8.81098,-32.6729,1.28852,18.7817,-15.7012,-135.396,11.0976
6919.46,89.6083,22.6645,0,9.93694,0.287402,0.208367,-1.70732,0.0914634,-9.26829,-33.0656,1.23104,19.6152,-16.7378,-132.378,10.1829
6919.47,89.5646,23.0435,0,9.97526,-0.172441,0.273032,-1.61585,0.548781,-7.28659,-33.4776,1.02986,20.5732,-15.9756,-133.933,10.122
6919.48,89.5309,23.3997,0,9.88185,-0.141306,0.443079,3.41463,-2.43902,-6.0061,-33.5734,1.0586,20.4583,-15.5488,-137.439,10.2744
6919.49,89.452,23.7687,0,10.1381,0.186812,0.282612,1.06707,0.548781,-6.85976,-33.2477,0.934058,20.8031,-15.061,-138.262,10.8841
6919.5,89.4049,24.1363,0,10.0327,-0.0934058,0.409548,0.609756,0.792683,-7.0122,-32.9411,0.713716,20.8702,-12.7439,-140.396,8.62805
6919.51,89.3467,24.5189,0,10.0495,-0.0215552,0.296982,2.95732,1.89024,-7.40854,-32.2992,0.598755,21.0618,-12.0427,-139.451,7.89634
6919.52,89.2558,24.8831,0,9.96328,0.244292,0.234712,2.62195,2.16463,-7.7439,-31.6765,0.799937,20.602,-10.9756,-136.89,7.37805
6919.53,89.1724,25.2063,0,9.91059,0.198787,0.280217,-1.06707,0.823171,-7.68293,-30.9868,0.962798,19.6631,-12.378,-130.671,6.64634
6919.54,89.1555,25.5579,0,9.49386,-0.253872,0.474214,0.27439,-0.731707,-6.55488,-30.4024,0.780776,20.1038,-14.8171,-123.232,7.2561
6919.55,89.1021,25.9721,0,9.58247,-0.0191602,0.409548,3.35366,1.95122,-7.40854,-30.5748,0.886157,21.742,-16.5854,-121.25,8.65854
6919.56,89.0356,26.3663,0,9.92017,0.170046,0.170046,-0.304878,3.44512,-6.61585,-30.9772,0.895737,21.9527,-17.6524,-121.677,10.8841
6919.57,89.005,26.737,0,9.83156,-0.122146,0.366438,1.06707,1.55488,-6.55488,-31.3221,1.1544,22.039,-16.7073,-120.366,11.9512
6919.58,88.9976,27.0882,0,9.89143,-0.174836,0.459844,3.65854,0.27439,-4.90854,-31.5807,1.35558,22.1348,-18.6585,-117.073,13.5976
6919.59,88.9326,27.4446,0,10.0208,0.244292,0.227527,2.37805,1.12805,-5.82317,-31.3125,1.47054,22.3551,-18.3537,-114.116,14.1159
6919.6,88.8736,27.8208,0,9.9082,0.0981958,0.299377,0.792683,1.4939,-7.04268,-31.1879,1.60466,22.9778,-18.872,-113.872,13.0488
6919.61,88.843,28.1773,0,9.63037,-0.205972,0.471819,1.89024,0.97561,-7.92683,-31.2742,1.4418,22.9395,-20.9451,-113.476,11.8598
6919.62,88.7614,28.4794,0,9.92017,0.0191602,0.275427,2.40854,1.46341,-10.4573,-30.8526,1.40348,21.809,-20.2744,-111.22,10.2134
6919.63,88.6851,28.7619,0,9.69025,0.0814307,0.277822,-0.457317,2.0122,-9.32927,-30.4215,1.47054,21.3684,-16.6768,-106.951,8.47561
6919.64,88.6418,29.0766,0,9.72378,-0.0526904,0.153281,1.31098,2.65244,-7.7439,-30.3257,1.5855,22.1923,-13.9329,-103.659,7.59146
6919.65,88.5579,29.404,0,9.96568,0.347278,0.265847,4.90854,3.2622,-7.2561,-30.2299,1.30768,22.6329,-13.4146,-105.183,5.51829
6919.66,88.4605,29.7187,0,10.0926,0.57241,0.258662,1.61585,4.84756,-6.25,-30.6131,1.17356,22.9299,-15.122,-104.573,2.56098
6919.67,88.4007,30.0376,0,9.84832,0.318538,0.524509,1.70732,2.89634,-5.45732,-30.7856,1.25978,23.4281,-18.2317,-101.22,-2.0122
6919.68,88.3363,30.372,0,9.92736,0.273032,0.519719,2.07317,4.60366,-6.61585,-30.594,1.16398,23.8879,-19.1159,-100.884,-3.65854
6919.69,88.2907,30.6952,0,9.69025,0.126936,0.522114,1.34146,4.96951,-6.52439,-30.5365,1.37474,23.8975,-20.122,-98.4756,-3.78049
6919.7,88.2681,31.0404,0,9.80281,-0.0311353,0.462239,3.41463,4.02439,-6.18902,-30.2299,1.4897,24.4244,-23.1402,-96.0061,-3.81098
6919.71,88.259,31.3692,0,9.92975,-0.0119751,0.311353,4.11585,2.53049,-4.66463,-29.9138,1.47054,24.1178,-24.6646,-94.1768,-1.09756
6919.72,88.1995,31.662,0,9.98963,0.366438,0.419128,3.17073,2.71341,-5.33537,-29.406,1.49928,23.2365,-24.0244,-90.2744,-0.853659
6919.73,88.1473,31.9402,0,9.9537,0.337698,0.462239,2.95732,2.34756,-5.03049,-29.2336,1.2502,23.0545,-22.378,-86.4329,0.884146
6919.74,88.0954,32.268,0,9.79803,0.311353,0.58678,1.92073,3.62805,-5.36585,-28.8217,1.1065,24.022,-22.6524,-82.3476,3.75
6919.75,88.0781,32.582,0,9.51541,0.0574805,0.589175,1.98171,7.34756,-5,-28.7929,1.17356,23.9837,-20.6098,-81.7988,5.70122
6919.76,88.0089,32.8817,0,9.34776,0.397573,0.60594,3.87195,3.04878,-6.0061,-28.6492,1.17356,23.8496,-19.1768,-75.1524,6.31098
6919.77,87.9495,33.1836,0,9.6663,0.387993,0.486189,2.22561,0.670732,-5.42683,-28.6684,1.21188,24.1945,-17.5915,-69.6646,7.68293
6919.78,87.9142,33.4967,0,9.88425,0.304167,0.677791,2.86585,-0.0914634,-4.20732,-28.8121,1.23104,24.8459,-14.9695,-63.9329,6.21951
6919.79,87.87,33.7683,0,9.82197,0.395178,0.912502,1.98171,0.884146,-4.05488,-28.927,1.27894,24.319,-14.8171,-61.0366,4.69512
6919.8,87.8314,34.0331,0,9.83874,0.277822,0.706531,2.28659,-0.121951,-5,-28.745,1.03944,24.2711,-15.8232,-56.4939,2.95732
6919.81,87.7952,34.304,0,9.63516,0.215552,0.675395,3.20122,-0.884146,-5.51829,-28.6971,0.876577,24.6064,-15.8537,-52.6524,1.85976
6919.82,87.7609,34.585,0,9.80521,0.330513,0.730481,1.21951,-1.06707,-4.08537,-28.5151,0.713716,24.9226,-16.6768,-49.939,1.28049
6919.83,87.7534,34.8544,0,9.88664,0.119751,0.742456,1.43293,-1.21951,-4.02439,-28.5822,0.502954,24.9801,-18.1098,-47.3171,1.21951
6919.84,87.706,35.1181,0,9.82677,0.404758,0.816702,3.14024,-4.39024,-4.60366,-28.1798,0.847837,24.7501,-17.9573,-44.878,3.84146
6919.85,87.6507,35.3744,0,9.7597,0.498164,0.730481,1.58537,-2.95732,-4.32927,-28.1894,0.799937,24.8364,-15.6402,-42.0122,6.67683
6919.86,87.6019,35.6215,0,9.74533,0.447869,0.670605,1.21951,-3.56707,-4.39024,-28.1319,0.876577,24.8172,-16.5854,-39.5122,7.9878
6919.87,87.5582,35.8614,0,9.73336,0.435894,0.622705,0.396341,-3.23171,-4.11585,-28.266,0.675395,25.0088,-17.5305,-36.311,8.96341
6919.88,87.5153,36.0935,0,9.77886,0.435894,0.593965,-0.0304878,-2.7439,-4.14634,-28.4097,0.981958,25.1812,-17.6829,-34.1159,7.0122
6919.89,87.4766,36.2985,0,9.68546,0.421523,0.66342,-0.27439,-3.65854,-3.93293,-28.4768,1.02986,24.8555,-17.622,-31.5244,5.27439
6919.9,87.445,36.494,0,9.73336,0.426313,0.656235,-0.823171,-3.75,-3.2622,-28.5151,1.02028,24.8651,-18.2012,-29.8171,5.27439
6919.91,87.4157,36.6876,0,9.86988,0.399968,0.538879,-0.823171,-3.65854,-3.5061,-28.5151,0.905317,24.9992,-18.9329,-28.3537,3.59756
6919.92,87.3872,36.8726,0,9.94412,0.443079,0.536484,-1.25,-2.9878,-2.9878,-28.4768,0.761616,24.9513,-18.6585,-27.0122,1.61585
6919.93,87.3616,37.0558,0,9.91538,0.387993,0.517324,-1.46341,-3.41463,-3.41463,-28.5726,0.541274,25.1717,-17.9573,-24.6341,1.55488
6919.94,87.3425,37.2352,0,9.9058,0.323328,0.421523,-0.945122,-2.80488,-3.59756,-28.5917,0.502954,25.2675,-17.6524,-23.628,1.43293
6919.95,87.3233,37.4026,0,9.91299,0.328118,0.354463,-0.792683,-3.38415,-3.59756,-28.5534,0.426313,25.1333,-17.1341,-21.6463,1.09756
6919.96,87.2993,37.5668,0,9.93454,0.373623,0.356858,-1.12805,-3.20122,-3.56707,-28.745,0.541274,25.3824,-17.4085,-21.0061,0.670732
6919.97,87.2829,37.705,0,9.97526,0.354463,0.249082,-0.304878,-2.5,-3.14024,-28.563,0.531694,24.7885,-17.0732,-21.189,0.914634
6919.98,87.2629,37.8418,0,10.0519,0.407153,0.160466,-0.27439,-1.67683,-2.92683,-28.563,0.694556,24.8843,-13.4451,-19.5122,1.58537
6919.99,87.2424,37.9716,0,10.0687,0.459844,0.193997,-0.914634,-0.853659,-2.37805,-28.7833,1.11608,25.0471,-12.5305,-17.9573,1.92073
6920,87.223,38.0903,0,10.0016,0.404758,0.227527,-0.670732,0.365854,-2.95732,-29.042,1.00112,25.1429,-12.6829,-17.3476,1.15854
6920.01,87.2122,38.2146,0,9.89622,0.385598,0.205972,-0.548781,0.792683,-2.40854,-28.8408,1.02028,25.2004,-13.5366,-16.6159,-0.365854
6920.02,87.1959,38.3225,0,9.87706,0.407153,0.289797,-0.579268,1.34146,-2.65244,-29.2623,0.924478,25.3058,-13.3537,-17.439,-1.98171
6920.03,87.1936,38.4173,0,9.94891,0.376018,0.325723,-0.487805,1.31098,-1.89024,-29.1953,0.876577,25.0567,-13.3537,-16.1585,-3.38415
6920.04,87.1895,38.5278,0,9.94412,0.402363,0.253872,0.0609756,2.31707,-1.7378,-29.2528,0.866997,25.5357,-14.2683,-17.8354,-4.93902
6920.05,87.1869,38.6068,0,9.95849,0.376018,0.277822,-0.487805,2.19512,-1.92073,-29.1857,0.742456,24.8651,-15.8232,-18.7195,-4.20732
6920.06,87.1996,38.6803,0,9.92017,0.268242,0.364043,-0.182927,2.16463,-1.95122,-29.2432,0.550855,24.8555,-13.9939,-20.3354,-3.81098
6920.07,87.2183,38.7441,0,10.8111,0.438289,0.397573,-2.28659,10.3049,0.518293,-29.4444,0.292192,24.8555,-13.3537,-24.4207,-2.56098
6920.08,87.2391,38.8178,0,9.96328,0.220342,0.124541,1.70732,3.62805,-1.82927,-29.224,0.330513,24.9322,-11.4329,-27.6524,-1.40244
6920.09,87.2166,38.8817,0,9.68785,0.376018,0.462239,2.16463,1.70732,-3.47561,-29.3869,0.205972,24.9034,-9.69512,-30.7012,1.82927
6920.1,87.1993,38.9567,0,9.98723,0.447869,0.407153,-0.0914634,2.86585,-2.28659,-29.521,0.138911,25.3058,-6.89024,-34.939,3.01829
6920.11,87.1927,39.0364,0,9.95131,0.280217,0.543669,1.09756,3.20122,-3.2622,-29.224,0.186812,25.21,-4.17683,-37.8049,3.62805
6920.12,87.178,39.102,0,9.94891,0.332908,0.495769,2.89634,3.71951,-3.41463,-29.2719,0.426313,24.9992,-3.56707,-39.3293,4.26829
6920.13,87.1515,39.1416,0,9.86269,0.404758,0.364043,2.16463,3.01829,-3.71951,-29.4348,0.579595,24.616,-0.823171,-39.7256,3.71951
6920.14,87.1238,39.1652,0,9.90101,0.404758,0.289797,1.28049,4.17683,-3.90244,-29.6168,0.531694,24.4436,0.884146,-40.9146,3.23171
6920.15,87.0917,39.2121,0,9.92496,0.455054,0.431104,1.06707,4.05488,-3.81098,-29.7126,0.637075,25.0471,3.04878,-44.3293,2.37805
6920.16,87.0626,39.2592,0,10.0375,0.445474,0.438289,1.46341,5.03049,-3.75,-30.1437,0.455054,25.4399,1.79878,-48.1098,1.89024
6920.17,87.033,39.2887,0,10.0806,0.409548,0.280217,1.37195,7.16463,-4.29878,-30.3066,0.455054,25.21,1.40244,-50.6098,0.487805
6920.18,86.9957,39.355,0,9.60882,0.433499,0.450264,-1.09756,6.58537,-4.60366,-30.3928,0.502954,26.1297,1.43293,-55.9451,0.945122
6920.19,86.9692,39.3861,0,10.1477,0.313748,0.471819,-0.518293,6.89024,-5.2439,-30.5461,0.196392,25.4782,2.2561,-62.3171,0.609756
6920.2,86.9437,39.4242,0,10.4064,0.311353,0.486189,2.92683,8.41463,-5.30488,-30.297,0.0718506,25.4207,5.7622,-70.5488,-1.4939
6920.21,86.8803,39.4517,0,9.616,0.531694,0.603545,1.12805,11.1585,-6.25,-30.0767,0.0335303,25.0088,8.32317,-75.7622,-0.884146
6920.22,86.8252,39.5026,0,10.0854,0.58199,0.55804,0.945122,10.2744,-5.2439,-30.0575,-0.0718506,25.5357,12.2561,-78.3841,-1.18902
6920.23,86.7923,39.5495,0,10.1956,0.294587,0.519719,1.82927,8.53659,-6.46341,-29.9042,0.167651,25.3441,15.1829,-82.0427,-1.92073
6920.24,86.726,39.6082,0,9.99442,0.445474,0.773591,2.71341,10.7012,-8.10976,-29.8276,0.167651,25.574,18.0793,-85.2134,-3.47561
6920.25,86.6732,39.6867,0,9.89383,0.335303,0.613125,4.32927,11.0976,-8.10976,-29.6935,0.560435,25.9381,18.2927,-91.1281,-6.0061
6920.26,86.6505,39.7813,0,10.2124,0.261057,0.256267,3.71951,14.8476,-6.12805,-29.4348,0.972378,26.1297,18.2317,-97.1341,-6.0061
6920.27,86.5499,39.8436,0,9.78605,0.696951,0.471819,2.59146,12.5,-8.78049,-29.454,1.06818,25.4782,13.628,-99.6646,-7.77439
6920.28,86.5051,39.9053,0,9.29028,0.210762,0.737666,0.792683,12.8659,-8.96341,-29.0516,0.819097,25.1621,10.1524,-102.043,-9.02439
6920.29,86.4735,39.9829,0,9.84832,0.0838257,0.66342,7.83537,10.8841,-9.35976,-29.2528,0.761616,25.7369,10.2439,-105.762,-9.5122
6920.3,86.3874,40.0775,0,9.86988,0.464634,0.823887,9.87805,8.35366,-10.4878,-29.3581,0.512534,26.2638,10.8232,-112.47,-8.41463
6920.31,86.3081,40.1945,0,10.1716,0.390388,0.740061,6.09756,6.92073,-10.9756,-29.4156,0.637075,26.8961,14.2988,-119.909,-3.87195
6920.32,86.2571,40.3136,0,9.70941,0.273032,0.807122,0.914634,15.7622,-9.45122,-29.5881,0.397573,27.1739,19.3902,-128.994,2.0122
6920.33,86.1997,40.3925,0,9.95131,0.134121,0.402363,5.2439,12.8354,-11.9207,-29.7126,-0.167651,26.4171,27.378,-134.695,5.36585
6920.34,86.1074,40.4181,0,9.50823,0.330513,0.699346,4.32927,2.56098,-13.1098,-29.2144,-0.158071,24.8459,36.6159,-132.988,6.7378
6920.35,86.0099,40.4992,0,10.186,0.364043,1.0586,4.7561,3.90244,-13.7195,-28.2564,0.119751,25.2866,42.0122,-129.512,8.32317
6920.36,85.9275,40.6343,0,10.0926,0.00239502,1.00112,11.0671,10.2744,-16.5244,-27.7679,0.368833,26.1201,40.8232,-133.75,9.35976
6920.37,85.8441,40.8261,0,9.24717,0.122146,1.00591,11.7683,11.7378,-15.2744,-27.5188,0.934058,27.3272,34.0854,-136.89,9.45122
6920.38,85.7239,41.0237,0,9.72378,0.493374,0.823887,8.87195,12.6829,-14.8171,-28.0169,1.74836,28.1223,27.7439,-142.957,6.7378
6920.39,85.5653,41.2063,0,10.0854,0.320933,0.682581,7.77439,-0.670732,-21.189,-28.7833,2.17947,28.6971,19.939,-146.037,1.12805
6920.4,85.4129,41.3221,0,9.27352,0.196392,0.900527,3.62805,-7.46951,-22.1341,-28.7067,2.29443,27.1547,15.8232,-145.396,-7.62195
6920.41,85.2785,41.442,0,10.2603,0.368833,1.15679,1.15854,-0.945122,-18.872,-28.3427,2.40939,27.0398,15.061,-141.402,-13.3841
6920.42,85.1708,41.5788,0,9.4244,0.421523,1.09452,9.35976,7.19512,-15.3963,-27.7487,1.70046,26.9823,18.5976,-141.067,-17.8659
6920.43,85.0263,41.7334,0,9.30226,1.28852,1.09692,14.939,6.28049,-8.5061,-26.8577,1.3939,26.6661,21.2195,-139.085,-21.189
6920.44,84.8948,41.9576,0,8.99569,0.6251,1.02746,-6.92073,-5.51829,-15.4573,-25.6986,1.38432,27.2889,23.3537,-136.494,-20.8841
6920.45,84.9297,42.2335,0,9.75252,-0.514929,1.55676,0.396341,-4.72561,-13.0183,-24.798,1.21188,27.787,20.1524,-135.671,-18.1707
6920.46,84.85,42.5715,0,9.97765,0.289797,1.67651,6.79878,-7.77439,-15.0915,-24.0891,1.62382,28.8121,15.8232,-134.421,-14.2988
6920.47,84.6941,42.9003,0,9.0388,0.555645,1.55197,3.75,-14.6646,-19.2378,-24.1178,2.02619,28.9558,13.3537,-134.909,-9.81707
6920.48,84.5406,43.2584,0,9.6184,0.627495,1.41546,1.64634,-12.439,-18.872,-23.8975,2.19863,29.818,9.48171,-131.86,-6.28049
6920.49,84.3917,43.5931,0,9.58008,0.524509,1.38432,-2.28659,-3.32317,-19.939,-24.0987,2.87881,29.8276,8.20122,-130.518,-0.97561
6920.5,84.2902,43.9101,0,9.33339,0.143701,1.06099,2.86585,-6.67683,-20,-23.955,3.39614,29.5593,8.2622,-125.152,4.90854
6920.51,84.1065,44.2335,0,9.64474,0.725691,0.955613,4.42073,-14.5732,-21.6159,-23.6005,3.92304,29.6551,7.80488,-119.512,9.05488
6920.52,83.8972,44.5701,0,10.0279,0.984353,0.919688,2.7439,-12.7439,-21.9512,-23.6293,4.00926,30.412,6.70732,-116.982,11.5549
6920.53,83.7168,44.8968,0,10.5022,1.02267,1.14242,-2.77439,-0.365854,-19.5122,-23.7059,3.7506,30.6036,1.15854,-117.591,12.378
6920.54,83.5662,45.1944,0,10.0663,0.708926,1.21906,-1.25,-0.548781,-19.9695,-23.9933,3.26202,30.5269,-5.54878,-116.829,10.6098
6920.55,83.4526,45.4819,0,9.69025,0.467029,1.31487,0.27439,0.27439,-19.0854,-23.7825,2.74469,30.3162,-10.0915,-115,6.4939
6920.56,83.2827,45.8031,0,10.4734,0.991538,1.17835,0,12.7134,-19.6646,-23.2652,2.72553,30.9101,-15.5793,-113.415,4.32927
6920.57,83.1223,46.0636,0,9.14179,0.905317,0.613125,2.22561,4.08537,-18.5366,-22.7479,2.62973,28.9654,-14.8171,-105.976,4.48171
6920.58,82.9425,46.3219,0,9.38608,1.42025,0.773591,0.579268,-6.06707,-14.8171,-22.3168,2.47645,28.6875,-11.1585,-94.2683,4.20732
6920.59,82.8111,46.6083,0,9.19927,1.07776,1.23104,-1.28049,-3.41463,-14.1768,-21.9815,2.45729,29.3007,-9.69512,-87.0732,5.94512
6920.6,82.7428,46.9127,0,9.51062,0.804727,1.05141,1.18902,-3.62805,-11.7683,-21.6558,2.28485,29.6743,-10,-84.2073,6.58537
6920.61,82.5405,47.2557,0,9.97286,1.87291,0.996328,-3.93293,-1.09756,-13.75,-21.3013,1.90165,30.6036,-13.2317,-83.689,8.32317
6920.62,82.45,47.5678,0,8.7514,0.902922,1.20709,-7.13415,-0.0914634,-12.439,-21.7037,1.70046,30.6706,-14.3598,-85.2134,8.71951
6920.63,82.3841,47.8718,0,9.68306,0.974773,1.11129,-3.29268,-4.29878,-10.3963,-21.6462,1.93997,30.7281,-16.2805,-82.3476,8.17073
6920.64,82.2161,48.2486,0,10.4902,1.9256,1.23583,-8.44512,5.30488,-11.4634,-21.7132,2.56267,33.3914,-26.189,-85.1829,10.3659
6920.65,82.0968,48.5782,0,8.92863,0.989143,1.23823,-8.90244,6.09756,-15.1524,-22.0869,2.71595,32.9124,-29.4207,-87.8354,11.2195
6920.66,82.0594,48.8418,0,9.90341,0.852627,0.167651,-5.15244,-1.55488,-9.90854,-22.7383,2.16031,32.2418,-27.1951,-86.4939,10.6098
6920.67,81.8546,49.0716,0,9.8076,1.89207,0.713716,-9.14634,-0.27439,-14.8171,-22.6425,1.65256,31.4179,-18.4756,-85.9146,9.93902
6920.68,81.7502,49.2881,0,9.76928,1.07057,0.752036,-7.07317,1.0061,-14.5122,-22.5563,1.35558,31.2071,-10,-80.3659,9.17683
6920.69,81.6864,49.524,0,10.3441,0.924478,0.665815,-5.60976,7.40854,-12.9268,-21.8857,1.0586,31.1209,-5.2439,-73.3841,9.02439
6920.7,81.4812,49.8673,0,9.86269,1.88488,1.27176,-4.96951,6.15854,-15.8232,-21.2917,1.33642,33.832,-5.88415,-75.9756,7.65244
6920.71,81.3547,50.2011,0,9.87946,1.31008,0.866997,-11.4024,5.12195,-14.878,-21.7132,1.74836,34.5985,-11.25,-82.5915,12.5305
6920.72,81.2251,50.5259,0,10.4016,1.32924,0.981958,-12.3171,12.1951,-16.0061,-21.6558,2.52435,34.6368,-15.3049,-84.2683,15.9451
6920.73,81.0642,50.8142,0,9.91538,1.4897,1.21427,-8.2622,14.5427,-16.8902,-21.627,3.14706,33.8129,-15.9756,-82.5915,21.5549
6920.74,80.9002,51.0671,0,9.73815,1.37714,0.376018,-3.62805,18.7805,-18.5366,-21.6941,3.29076,33.171,-14.6341,-78.2317,24.5122
6920.75,80.7291,51.3233,0,9.39087,1.56874,-0.397573,-1.46341,11.6159,-16.6768,-21.3013,3.03209,33.0082,-13.7195,-75.061,26.7683
6920.76,80.5634,51.5922,0,9.58008,1.58071,0.843047,-7.62195,9.57317,-16.7073,-21.2726,2.62015,33.7075,-12.2256,-74.8171,25.7012
6920.77,80.4376,51.8915,0,9.77168,1.19272,0.859812,0.792683,9.14634,-17.8963,-20.4678,2.35191,33.765,-12.7744,-75.5488,24.6951
6920.78,80.2897,52.2113,0,9.26873,1.35798,-0.239502,2.7439,4.96951,-17.5915,-20.123,2.15073,34.2727,-15.061,-77.6524,25
6920.79,80.1319,52.5325,0,9.15137,1.80105,0.65384,-6.67683,-2.65244,-13.2012,-19.7589,2.89797,34.1482,-15.5183,-76.5549,26.4024
6920.8,80.0687,52.8437,0,9.71899,1.06578,1.00591,3.5061,-2.53049,-13.811,-19.6631,3.38656,34.1003,-17.0427,-72.3476,29.5122
6920.81,79.9051,53.1558,0,9.47949,1.89446,0.354463,7.92683,-1.61585,-13.9024,-19.6056,3.5111,34.4835,-20.7317,-70.061,30.8232
6920.82,79.7199,53.4597,0,9.43398,2.08606,0.910107,1.4939,-6.0061,-14.0549,-19.9601,3.74102,35.2307,-25.6707,-73.5671,30.8537
6920.83,79.5875,53.7519,0,9.83156,1.69328,0.984353,6.37195,-9.63415,-14.5427,-20.1134,3.38656,35.4702,-28.689,-79.5122,30.2134
6920.84,79.3782,54.0008,0,9.47709,1.79387,1.40588,6.95122,0.823171,-20.7317,-20.2379,2.70637,34.541,-28.3537,-81.6159,29.0854
6920.85,79.2293,54.2881,0,9.74773,1.80345,0.313748,11.0366,-7.7439,-15.4878,-19.2895,2.36149,34.5985,-26.8902,-80.061,27.3171
6920.86,79.0383,54.5707,0,9.96568,2.15552,0.63468,6.79878,-4.90854,-16.5549,-18.8584,1.97829,34.0715,-25.2439,-78.5061,27.8963
6920.87,78.8471,54.8548,0,9.57529,2.05732,0.958008,6.58537,-0.670732,-17.1341,-18.4943,1.6334,33.8895,-21.25,-73.9939,27.1037
6920.88,78.6517,55.1353,0,9.97526,2.28485,0.783171,10.6402,2.89634,-16.372,-18.6572,1.6813,34.4739,-16.9207,-72.8963,29.7256
6920.89,78.4266,55.4214,0,9.81719,2.5483,0.972378,7.22561,0.701219,-16.4329,-18.7051,1.30768,35.1637,-17.2866,-75.1829,30.4878
6920.9,78.1785,55.7068,0,8.88552,2.21779,1.19272,8.44512,0.121951,-20.3354,-18.3506,1.5855,34.8763,-16.5244,-76.5549,33.2927
6920.91,77.9755,55.9656,0,9.30465,2.24653,0.809517,9.11585,0.121951,-17.1341,-18.4848,2.00703,34.5793,-16.5244,-74.8476,35.8232
6920.92,77.7335,56.1915,0,9.6639,2.58423,1.08973,8.20122,-0.152439,-18.689,-18.753,2.62015,34.2631,-13.4451,-73.3841,36.4634
6920.93,77.4803,56.4165,0,10.1621,2.56507,0.828677,11.4024,0,-21.9512,-19.0979,3.02251,35.1733,-14.1463,-75.4268,36.1585
6920.94,77.2066,56.6609,0,9.76449,2.54351,0.886157,12.1037,-3.07927,-23.689,-19.1266,3.35782,36.2558,-16.9512,-81.2195,34.1768
6920.95,76.9245,56.9081,0,9.37411,2.61776,1.06578,11.1585,-4.17683,-23.0488,-19.0691,3.2716,36.5911,-19.9695,-86.8902,30
6920.96,76.6477,57.1418,0,9.45314,2.62494,0.371228,10.3049,0,-23.2622,-18.6189,3.08,35.5852,-21.25,-86.3415,28.9939
6920.97,76.3652,57.4104,0,9.14418,2.94827,0.962798,3.68902,-2.65244,-19.6037,-18.2165,2.90755,36.5432,-21.5854,-85.3354,27.1341
6920.98,76.1698,57.672,0,9.7621,2.60099,1.19032,10.3049,-3.71951,-17.3171,-18.1495,2.88839,36.5432,-24.0854,-86.4024,25.3659
6920.99,75.9297,57.9194,0,10.0184,3.07521,0.814307,12.4695,0.487805,-17.8963,-18.2932,3.2237,36.6965,-24.9695,-83.9634,23.5366
6921,75.6993,58.1415,0,9.84114,2.9339,0.720901,6.46341,-3.41463,-18.3537,-18.456,3.03209,36.4282,-27.2561,-80,21.5549
6921.01,75.5171,58.313,0,9.31423,2.30401,0.900527,7.0122,-7.28659,-19.4207,-18.7626,2.65847,35.4415,-29.9085,-74.3598,18.0793
6921.02,75.3186,58.5052,0,9.41243,2.32796,0.469424,10,-4.48171,-21.4634,-18.456,2.48603,35.9397,-32.1037,-70.6707,17.0122
6921.03,75.0715,58.7112,0,9.49386,2.73751,0.481399,9.66463,-4.96951,-22.3476,-18.3506,2.31359,36.5624,-32.9268,-72.4695,14.7866
6921.04,74.845,58.9389,0,9.89862,2.81415,0.450264,10.2744,-10.7317,-21.189,-18.1399,2.39981,37.3288,-34.8171,-76.6768,15.3659
6921.05,74.582,59.1803,0,9.84593,3.08239,0.665815,10.122,-9.02439,-22.2866,-18.0058,2.58183,37.9611,-36.8598,-82.6524,15.9146
6921.06,74.3225,59.4223,0,9.78366,3.06562,0.850232,8.10976,-9.81707,-22.439,-17.7854,2.79259,37.9227,-36.7073,-84.3902,15.4573
6921.07,74.0742,59.6433,0,9.64474,2.76385,0.546064,11.5549,-5.91463,-24.6951,-17.9674,2.91713,37.8461,-38.8415,-80.9451,14.5122
6921.08,73.7831,59.873,0,9.5705,3.28597,0.632285,6.89024,-10.3354,-23.5366,-17.7279,2.60099,38.1143,-37.6829,-78.1402,13.9939
6921.09,73.5584,60.0858,0,10.1477,2.85965,0.514929,7.07317,-12.7134,-23.9024,-17.8716,2.26569,38.1048,-36.7988,-75.8232,9.93902
6921.1,73.2983,60.2757,0,9.80521,2.80936,0.883762,11.4634,-13.2927,-27.4695,-17.977,2.05493,37.7311,-36.4634,-72.1646,6.55488
6921.11,73.0317,60.4865,0,9.46512,2.60339,0.498164,13.0793,-15.4878,-29.9085,-17.6513,2.12199,38.2964,-34.1768,-69.4512,4.42073
6921.12,72.7498,60.6971,0,9.03641,2.62255,0.378413,12.7439,-21.6463,-30.3659,-17.316,2.64889,37.9419,-32.5305,-67.9573,5.57927
6921.13,72.47,60.9125,0,9.54655,2.67045,0.397573,14.7866,-25.9451,-31.8598,-16.8178,3.45362,37.4533,-32.8354,-64.2683,9.5122
6921.14,72.1726,61.1101,0,10.2866,3.0273,0.502954,18.4756,-22.0732,-32.6524,-17.1531,3.97094,37.8078,-36.0976,-61.7683,11.5549
6921.15,71.8827,61.2932,0,10.4495,3.30752,0.395178,20.2744,-19.0854,-30.122,-17.5555,4.038,38.3922,-42.4695,-61.8902,13.2622
6921.16,71.6054,61.4166,0,10.186,3.42727,0.0335303,20.6707,-20.8232,-27.3171,-18.3985,3.9422,37.8844,-47.5915,-63.3232,12.3476
6921.17,71.2827,61.5162,0,9.88425,3.50631,0.301772,17.8963,-17.7744,-30.6098,-18.6476,3.3195,37.5779,-49.0854,-65.4268,9.39024
6921.18,70.9108,61.6394,0,9.21364,3.41051,0.421523,16.3415,-18.1402,-34.6951,-18.4369,2.62015,38.3059,-50.7622,-66.25,5.94512
6921.19,70.4654,61.8031,0,8.85918,3.4129,0.0670605,14.4207,-15.0305,-41.4024,-17.9004,1.97829,39.1298,-51.7683,-72.0732,3.29268
6921.2,69.9608,61.9472,0,8.77296,3.80569,0.0311353,8.78049,-18.5976,-43.5061,-17.5555,1.26936,37.7599,-52.5,-75.8841,0.579268
6921.21,69.5901,62.134,0,9.58966,2.81175,0.541274,14.2378,-20.061,-45.3659,-16.4634,0.694556,37.53,-49.9695,-71.0366,-0.396341
6921.22,69.204,62.3499,0,9.86988,3.01054,0.0742456,23.3232,-14.5122,-46.4329,-15.5341,0.560435,37.0701,-46.3415,-65.0915,3.65854
6921.23,68.7522,62.556,0,9.73815,3.76018,0.0526904,16.8293,-13.1402,-45.4573,-14.7581,0.905317,35.2499,-41.2805,-54.6037,7.83537
6921.24,68.3895,62.7671,0,9.59205,3.31471,0.282612,21.9512,-15.8537,-41.4634,-14.5761,1.64298,35.4607,-38.0183,-47.3171,12.7744
6921.25,67.9964,62.9517,0,9.57768,3.76737,0.404758,28.9939,-16.4939,-40.3963,-14.8635,1.99745,35.4032,-36.8902,-40.7317,16.9207
6921.26,67.5351,63.1216,0,9.17772,4.41881,0.107776,23.75,-9.69512,-39.5122,-15.1605,1.94955,35.8247,-38.4756,-36.3415,17.4695
6921.27,67.0774,63.2512,0,9.16574,4.19368,0.359253,19.1463,-5.51829,-42.378,-15.6395,1.98787,35.5181,-40.6098,-32.2561,17.8659
6921.28,66.6479,63.3817,0,8.77775,3.50152,0.469424,24.3293,-7.40854,-46.2195,-15.4575,1.95913,35.4032,-43.1707,-27.0427,16.1585
6921.29,66.2504,63.4947,0,8.77535,3.38656,0.0910107,28.4146,-8.62805,-45.1524,-15.4862,2.18905,34.9529,-43.689,-26.372,14.0244
6921.3,65.8669,63.6146,0,8.72266,3.61408,-0.160466,29.2988,-8.90244,-41.6768,-15.3904,2.53393,35.2403,-45.6402,-23.2622,13.0183
6921.31,65.4617,63.7077,0,8.83523,4.13141,-0.301772,29.878,-13.0793,-39.4512,-15.4766,2.58183,34.541,-46.372,-20.122,10.6707
6921.32,65.0532,63.7928,0,8.6077,4.29427,-0.265847,33.5671,-17.8049,-37.6524,-15.4766,2.28485,34.3877,-50.5183,-17.7439,8.5061
6921.33,64.5721,63.8758,0,8.38496,5.17324,-0.526904,22.0427,-22.0732,-35.3659,-15.4383,1.55676,34.3877,-55.3354,-13.689,3.47561
6921.34,64.1388,63.9757,0,8.00895,4.93853,-0.708926,6.18902,-25.9451,-31.4939,-15.2084,1.12566,34.6847,-58.7195,-14.8171,-1.21951
6921.35,63.7891,64.0748,0,8.44244,4.11225,0.373623,6.25,-21.4329,-35.4573,-14.8635,0.675395,34.0428,-61.128,-13.0793,-4.14634
6921.36,63.4259,64.1642,0,8.66758,3.7051,0.110171,11.0671,-14.5732,-43.3232,-14.2887,0.847837,32.5579,-57.5,-5.85366,-5.70122
6921.37,63.0168,64.2947,0,8.3658,3.65001,-0.452659,11.128,-13.5366,-47.8659,-13.4552,0.895737,32.4621,-54.9085,5.39634,-2.0122
6921.38,62.689,64.4579,0,8.48316,3.43685,-0.536484,11.4329,-17.8659,-43.5061,-13.1199,1.2502,33.2668,-56.8902,12.378,1.89024
6921.39,62.439,64.6268,0,8.66039,3.59253,-0.677791,15,-23.5671,-35.2744,-13.3307,1.5376,34.359,-58.9329,14.3598,7.92683
6921.4,62.2081,64.7534,0,8.44723,4.22481,-0.56762,13.9024,-27.1037,-25.5793,-13.5702,1.26936,33.4393,-60.6402,17.8049,9.96951
6921.41,61.9806,64.8325,0,9.36453,4.98404,-0.455054,14.1463,-25.8232,-22.7439,-14.0588,0.723296,32.9028,-58.689,22.7744,9.35976
6921.42,61.7275,64.9127,0,9.11065,5.06068,-0.275427,16.0671,-20.7317,-23.7195,-14.4515,-0.0239502,34.0236,-56.7073,26.0061,4.54268
6921.43,61.4137,64.9939,0,8.66039,5.16606,-0.129331,16.0671,-21.9207,-26.8293,-14.7006,-0.962798,34.7901,-55.1524,26.5854,-1.25
6921.44,61.1045,65.0584,0,8.11912,4.51222,-0.481399,15.2744,-19.4512,-30.5793,-14.8922,-1.40348,34.7038,-56.0366,30.8232,-6.25
6921.45,60.7984,65.1183,0,7.89398,4.17691,-0.598755,19.0549,-16.25,-33.2927,-14.4515,-0.838257,33.65,-53.7805,37.561,-8.81098
6921.46,60.4706,65.1837,0,7.87482,4.4236,-0.799937,23.9634,-18.9329,-33.2012,-14.0492,0.416733,33.0848,-48.8415,45.122,-5.67073
6921.47,60.1347,65.2736,0,8.464,4.94811,-1.03225,24.9695,-18.2012,-32.6829,-13.9055,1.47054,33.9183,-50.4573,50.9146,0.304878
6921.48,59.79,65.343,0,8.89031,5.55405,-1.07297,21.5854,-18.6585,-30.8232,-13.9151,1.81542,33.286,-51.4634,57.9573,8.2622
6921.49,59.4851,65.378,0,9.62558,5.74565,-1.18793,14.4817,-23.9329,-29.8476,-14.4515,1.55676,33.3051,-52.622,64.1159,12.0427
6921.5,59.1978,65.404,0,10.0399,5.48938,-1.03465,9.87805,-16.8902,-33.0793,-14.9593,0.799937,34.1673,-54.6341,64.7561,11.0061
6921.51,58.9004,65.4073,0,9.46512,5.31455,-0.205972,5.54878,-16.2805,-33.3841,-15.2659,-0.387993,33.9949,-55.4268,66.6463,7.34756
6921.52,58.6249,65.4048,0,8.63644,4.53377,-0.0646655,5.42683,-11.311,-35.061,-15.6107,-1.5855,34.5506,-58.3537,68.811,0.152439
6921.53,58.3822,65.3999,0,7.7407,3.81766,-0.318538,10.4573,-7.65244,-35.2134,-15.1701,-2.27527,33.5255,-55.6707,75.3049,-8.35366
6921.54,58.1593,65.4031,0,7.70238,3.82724,-0.742456,17.9573,-6.79878,-33.3537,-14.5186,-1.93997,32.4525,-53.0183,84.0549,-13.4146
6921.55,57.9469,65.4521,0,7.65209,4.00447,-1.0586,26.5244,-10.0915,-30.2744,-13.8959,-0.981958,32.9028,-48.75,93.9024,-12.1341
6921.56,57.7201,65.4986,0,7.81255,4.53377,-1.66693,30.7622,-14.5732,-27.0732,-13.9438,-0.387993,33.0369,-46.4634,98.9329,-6.58537
6921.57,57.4934,65.5001,0,8.37538,5.32652,-1.89925,25.3354,-26.372,-22.7744,-14.2983,-0.138911,32.213,-40.1524,106.951,-0.945122
6921.58,57.3355,65.4981,0,9.11065,4.99841,-2.36867,20.6402,-29.3598,-23.7805,-14.921,0.129331,33.5159,-34.1768,111.524,4.02439
6921.59,57.05,65.4797,0,8.78972,5.62351,-1.49928,12.3476,-32.2561,-29.2378,-15.4575,-0.215552,34.0811,-31.5854,114.939,7.16463
6921.6,56.6835,65.3808,0,8.1742,5.5804,-1.17595,6.55488,-33.811,-34.6037,-16.3197,-0.866997,32.8645,-29.2683,123.476,7.28659
6921.61,56.2923,65.2694,0,7.67843,5.09421,-1.02746,9.78659,-31.0976,-39.4207,-16.4634,-1.02028,32.6345,-26.2195,133.689,6.79878
6921.62,55.9057,65.1579,0,7.79339,5.04152,-1.21667,14.6951,-29.939,-41.0976,-16.7795,-1.4418,33.1231,-28.0488,137.622,7.07317
6921.63,55.5121,65.0247,0,7.75747,5.21635,-1.46815,14.5427,-28.4146,-40.5183,-16.7891,-1.56634,32.2418,-28.5671,141.067,6.98171
6921.64,55.1418,64.844,0,7.791,5.37203,-1.80345,11.5854,-28.4451,-37.5915,-17.1819,-1.52802,31.2167,-25.4268,143.232,8.44512
6921.65,54.8242,64.6904,0,8.1766,5.47022,-2.27766,12.7439,-22.0122,-34.6037,-17.2968,-1.32684,32.0789,-21.4634,142.073,12.1951
6921.66,54.4866,64.5447,0,8.37299,6.02587,-1.9256,11.2195,-14.2988,-33.2927,-17.7279,-1.0586,32.9219,-19.5427,138.811,16.8902
6921.67,54.1642,64.3605,0,8.4137,6.12406,-1.66214,8.07927,-12.1341,-31.7988,-18.0249,-0.953218,31.9927,-15.8841,143.11,20.1524
6921.68,53.8196,64.1322,0,8.85199,6.29651,-1.5855,7.43902,-9.35976,-36.0061,-18.5039,-0.991538,31.2358,-13.7805,154.116,21.4024
6921.69,53.4174,63.9196,0,8.39933,5.95641,-1.69807,9.81707,-4.32927,-42.7439,-18.9254,-0.981958,32.213,-9.29878,162.012,21.6159
6921.7,52.9681,63.6817,0,8.06643,5.87977,-1.64059,13.75,-4.11585,-46.8598,-19.1266,-1.13524,31.5041,-9.08537,166.982,19.8476
6921.71,52.4799,63.4402,0,7.87482,6.2031,-1.56874,12.1951,-9.72561,-47.378,-19.3757,-1.35558,31.5424,-10.8232,172.591,15.0305
6921.72,51.9781,63.2211,0,7.85806,6.52882,-1.25978,3.84146,-12.9878,-46.7073,-19.4715,-1.4418,32.0981,-12.439,172.012,10.5488
6921.73,51.5103,62.9635,0,7.791,6.33722,-1.21667,1.55488,-10,-45.4878,-19.529,-1.36516,30.7281,-13.0488,170.976,6.03659
6921.74,51.0673,62.712,0,7.67125,6.23663,-1.25739,4.93902,-4.02439,-43.9329,-19.7014,-0.943638,30.891,-10.8841,173.232,2.71341
6921.75,50.589,62.469,0,7.24972,6.47134,-1.12566,5.4878,-1.92073,-43.0488,-19.6823,-0.282612,30.8335,-13.0488,176.433,1.64634
6921.76,50.1218,62.2218,0,7.04854,6.3947,-1.20469,4.20732,-5.33537,-41.9512,-19.7781,0.196392,30.6131,-17.1341,183.537,1.85976
6921.77,49.6672,61.9656,0,6.67971,6.27016,-1.7771,3.78049,-11.372,-39.6341,-19.6439,0.426313,29.8946,-19.6037,189.695,2.40854
6921.78,49.2515,61.6866,0,6.87371,6.36836,-2.36149,0,-6.25,-37.3476,-19.8451,0.359253,29.2911,-18.5671,194.116,2.59146
6921.79,48.8626,61.3839,0,6.68929,6.18634,-2.22737,-3.41463,-2.59146,-35.5793,-20.1709,0.215552,28.8312,-17.0122,198.323,1.79878
6921.8,48.5273,61.0746,0,6.7348,6.34441,-2.00942,-3.87195,-14.2683,-29.8171,-20.1996,-0.359253,28.381,-14.4817,199.268,-0.792683
6921.81,48.2165,60.7415,0,7.19464,6.82581,-1.88967,-8.41463,-23.0793,-27.5915,-20.6978,-0.895737,28.1223,-15.061,198.902,-4.11585
6921.82,47.8926,60.4128,0,7.03417,6.77791,-1.77231,-13.628,-25.122,-28.6585,-20.7265,-1.04902,27.9211,-13.2927,195.976,-7.2561
6921.83,47.5826,60.1079,0,6.71803,6.36596,-1.83698,-14.5427,-22.6829,-28.872,-21.0331,-1.2502,28.5822,-14.4817,189.421,-8.10976
6921.84,47.3065,59.7992,0,6.80186,6.15041,-1.92081,-13.3841,-20.6402,-28.7805,-21.1193,-1.19272,28.2564,-11.9817,184.817,-7.07317
6921.85,47.0606,59.4605,0,6.88089,5.89175,-2.12199,-10.3354,-19.1463,-29.4207,-21.1193,-0.857417,27.1835,-10.122,183.811,-4.39024
6921.86,46.8048,59.1292,0,6.85215,5.95641,-2.13157,-8.62805,-17.4695,-30.061,-21.2438,-0.550855,27.2122,-6.0061,187.073,-0.579268
6921.87,46.5032,58.8406,0,6.64618,6.31088,-1.7771,-8.71951,-21.4939,-30.122,-21.6653,-0.397573,28.4959,-6.76829,184.543,3.2622
6921.88,46.189,58.5114,0,6.71563,6.43781,-1.86572,-9.7561,-26.0671,-31.4634,-22.0869,-0.292192,27.7008,-6.58537,182.896,4.69512
6921.89,45.8649,58.1492,0,6.79707,6.445,-1.83219,-11.0061,-25.4573,-33.75,-22.8629,-0.464634,27.5284,-6.85976,186.951,7.07317
6921.9,45.5593,57.7709,0,7.05094,6.42823,-1.71962,-9.87805,-24.1463,-34.8171,-23.4281,-0.608335,27.4517,-6.46341,186.89,5.21341
6921.91,45.2043,57.3797,0,6.5863,6.06658,-1.5855,-10.8537,-26.5854,-39.878,-23.8783,-0.579595,27.308,-7.59146,190.122,4.2378
6921.92,44.8771,57.0017,0,7.01262,5.78637,-2.02858,-9.32927,-22.8659,-44.1463,-24.1274,-0.416733,27.5475,-7.0122,192.348,2.77439
6921.93,44.5982,56.6194,0,7.3551,5.77439,-2.41178,-5.54878,-16.0671,-42.7134,-24.3669,-0.416733,27.3463,-8.44512,191.951,2.34756
6921.94,44.3433,56.2255,0,7.52755,6.27974,-2.2585,-3.90244,-13.4756,-37.378,-24.8268,-0.129331,27.2314,-9.5122,196.372,1.89024
6921.95,44.0672,55.8297,0,7.6449,6.84257,-2.27766,-3.9939,-13.7805,-35.9756,-24.8172,0.234712,26.8194,-8.81098,200.427,2.86585
6921.96,43.7506,55.4231,0,7.47246,7.12997,-2.40699,-2.89634,-12.5305,-36.9512,-25.0375,0.368833,26.4554,-7.65244,204.756,5.64024
6921.97,43.3956,54.9969,0,7.09884,7.09884,-2.34951,-3.29268,-12.4085,-38.7805,-25.3249,0.138911,25.9381,-6.03659,207.104,9.11585
6921.98,43.0603,54.5645,0,7.0222,6.72282,-2.5004,-4.90854,-9.11585,-40.0305,-25.8327,0.00479004,25.9285,-5.21341,207.652,12.2561
6921.99,42.7311,54.1576,0,6.81623,6.38752,-2.45969,-0.365854,-6.79878,-41.3415,-25.6315,-0.311353,25.9093,-7.0122,205.915,14.1768
6922,42.4137,53.7442,0,6.84257,6.31806,-2.47645,5.70122,-7.13415,-41.6768,-25.6698,-0.340093,25.4495,-8.20122,209.36,16.9817
6922.01,42.0786,53.3318,0,6.86413,6.48092,-2.80936,8.2622,-1.52439,-42.8354,-25.574,-0.0718506,25.028,-11.0671,212.683,20.7927
6922.02,41.6968,52.9193,0,6.50487,6.71324,-2.48843,6.70732,-0.365854,-43.0793,-25.5644,0.301772,24.6831,-12.5,217.835,25.3354
6922.03,41.3087,52.5251,0,6.32046,6.81383,-2.03816,2.31707,-3.53659,-41.9512,-26.0051,0.340093,25.1525,-16.4939,218.506,28.75
6922.04,40.9448,52.082,0,6.43781,6.71563,-1.89446,1.61585,-4.05488,-42.1951,-26.5129,0.110171,24.2232,-19.1159,218.293,30.5488
6922.05,40.5917,51.6263,0,6.30609,6.69647,-2.01182,5.82317,-3.35366,-40.7927,-26.7715,0.550855,23.8304,-20.1829,222.104,29.0244
6922.06,40.2131,51.1154,0,6.13125,6.98148,-2.07888,6.40244,-4.17683,-40.061,-27.5667,0.579595,23.0066,-19.5427,226.921,28.5671
6922.07,39.8227,50.6064,0,6.01389,7.18027,-2.22258,4.84756,-5.45732,-39.2988,-27.7008,0.531694,22.7575,-18.628,230.671,25.7012
6922.08,39.4418,50.111,0,6.06179,7.24254,-2.38544,3.23171,-5.4878,-39.0854,-27.8445,0.311353,22.7383,-20.0305,230.488,22.622
6922.09,39.0606,49.6582,0,6.21029,7.44133,-2.19384,-0.0914634,-5.30488,-39.7256,-27.9882,0.292192,23.3323,-24.0854,230.244,18.8415
6922.1,38.7024,49.165,0,6.22705,7.4557,-1.88009,-4.2378,-5.94512,-38.2012,-27.9307,0.0526904,22.0965,-27.8354,231.25,18.2317
6922.11,38.357,48.6394,0,6.02108,7.39103,-1.61185,-7.62195,-9.02439,-36.189,-28.2469,-0.301772,21.3396,-28.5061,237.683,16.0366
6922.12,38.0577,48.1025,0,6.07856,7.25451,-1.48731,-6.12805,-10.3659,-33.811,-28.7067,-0.397573,21.0618,-28.2012,239.512,15.5183
6922.13,37.7676,47.5505,0,5.95162,7.14195,-1.41785,0.762195,-12.561,-33.1707,-29.1091,-0.359253,20.6499,-27.5,240.183,15.6707
6922.14,37.45,47.019,0,5.70733,7.26409,-1.79387,6.52439,-12.6829,-33.2012,-29.3581,-0.273032,20.8031,-27.6829,240.915,16.6463
6922.15,37.1201,46.4742,0,5.79116,7.53234,-2.29682,5.57927,-9.7561,-33.872,-29.6647,-0.253872,20.3529,-29.3598,240.976,18.872
6922.16,36.7984,45.9104,0,5.70733,7.47486,-2.43813,2.86585,-10.3354,-33.3232,-29.9809,-0.234712,19.8068,-27.0427,245.366,20.061
6922.17,36.4789,45.331,0,5.58758,7.52515,-2.34951,-0.304878,-10.7622,-32.1951,-30.4407,-0.378413,19.3949,-25.1829,246.951,22.378
6922.18,36.1553,44.7328,0,5.50854,7.60658,-2.22018,-0.304878,-10.4878,-31.8598,-31.2646,-0.531694,19.1266,-19.3902,248.841,22.8354
6922.19,35.8597,44.1427,0,5.76721,7.5491,-2.17228,2.95732,-10.4878,-32.6524,-31.5903,-0.378413,19.0212,-22.1646,247.226,23.3232
6922.2,35.5615,43.5433,0,5.75044,7.66646,-2.01661,3.93293,-11.4634,-32.5,-32.146,-0.493374,18.7243,-19.9085,244.909,23.2012
6922.21,35.2831,42.9462,0,5.82229,7.70238,-2.31838,1.46341,-12.9268,-31.5244,-32.0597,-0.378413,18.274,-19.1463,246.402,23.7805
6922.22,35.023,42.344,0,5.90851,7.56826,-2.56986,-1.52439,-9.29878,-32.0427,-31.7915,-0.138911,17.6034,-19.7866,249.36,23.4451
6922.23,34.7691,41.7984,0,5.83906,7.51797,-2.65847,-1.4939,-7.68293,-31.6463,-31.9927,0.177231,18.3219,-20.5183,249.238,23.1402
6922.24,34.53,41.255,0,5.79355,7.6449,-2.79738,-2.5,-8.20122,-29.2683,-32.1651,0.397573,18.0537,-22.378,247.835,24.6037
6922.25,34.2939,40.7138,0,5.578,7.76944,-2.5986,-5.82317,-11.8293,-26.4329,-32.4142,0.847837,17.8237,-22.4085,245.915,25.9146
6922.26,34.0616,40.1346,0,5.52291,7.76465,-2.33754,-7.68293,-11.5854,-26.0061,-32.625,0.608335,16.8466,-24.8171,247.043,26.4329
6922.27,33.7988,39.5176,0,5.07744,7.52515,-1.91123,-2.13415,-11.6159,-26.7073,-32.9986,0.301772,15.946,-25,250.457,27.561
6922.28,33.5375,38.9085,0,5.2403,7.67364,-1.91362,1.34146,-12.7134,-27.7439,-33.6883,0.301772,15.9844,-23.7195,251.585,25.7622
6922.29,33.2913,38.2999,0,5.36724,7.53473,-2.29682,0.701219,-11.6159,-29.0549,-34.2248,0.0718506,15.7832,-25.6402,245.884,24.4207
6922.3,33.0744,37.7284,0,5.44627,7.46049,-2.62015,0.853659,-8.32317,-27.9268,-34.723,0.426313,16.2239,-28.628,237.652,23.3232
6922.31,32.8556,37.14,0,5.47501,7.6952,-2.73751,0,-5.85366,-27.1341,-34.8954,0.675395,15.5533,-31.6768,233.201,22.622
6922.32,32.6287,36.5589,0,5.36245,7.87961,-2.69679,-2.9878,-5.51829,-25.9756,-34.8763,0.924478,15.2467,-32.1341,231.829,22.1037
6922.33,32.3911,35.9459,0,5.20438,7.9323,-2.62015,-3.10976,-5.06098,-25.5488,-34.7038,0.981958,14.1833,-31.0671,232.53,23.5366
6922.34,32.1195,35.3851,0,4.94093,8.13588,-2.4525,-2.65244,-8.04878,-25.4268,-34.6272,1.0107,14.6527,-30.061,232.652,23.3537
6922.35,31.8646,34.8494,0,4.90021,8.06643,-2.31359,-2.37805,-7.62195,-24.2988,-34.6464,0.838257,14.7102,-35.2134,231.677,24.7561
6922.36,31.5934,34.294,0,4.68705,8.05445,-2.44531,-2.5,-8.29268,-24.2683,-35.02,0.799937,14.1258,-37.378,231.037,23.75
6922.37,31.325,33.7278,0,4.68945,8.05206,-2.36388,-4.29878,-8.14024,-24.5732,-35.6139,0.464634,13.7618,-39.8171,228.506,22.7134
6922.38,31.0962,33.1869,0,4.905,7.82213,-2.22737,-2.2561,-7.95732,-24.9085,-35.8439,0.493374,13.8767,-38.0793,221.372,21.4634
6922.39,30.8778,32.5839,0,5.00799,7.89638,-2.23216,1.55488,-6.12805,-24.9085,-36.0163,0.349673,12.4302,-36.5854,218.415,21.6159
6922.4,30.6516,31.9979,0,5.11576,8.23168,-2.42136,1.61585,-2.10366,-25.0915,-35.8439,0.608335,12.2481,-34.7256,218.323,22.7439
6922.41,30.4276,31.4616,0,4.95769,8.27479,-2.49801,0.914634,0.792683,-23.4146,-36.2079,0.761616,12.8421,-35.8232,216.616,25.7012
6922.42,30.1952,30.9063,0,4.76369,8.39933,-2.70398,-1.67683,0.670732,-21.9512,-36.4187,0.780776,12.1715,-37.4085,210.64,27.6524
6922.43,29.9476,30.3245,0,4.44995,8.29395,-2.62015,-1.67683,0.701219,-21.2195,-36.8306,0.866997,11.4338,-34.939,208.598,27.1646
6922.44,29.693,29.7592,0,4.28229,8.3179,-2.46687,0.762195,-3.35366,-20.4573,-37.1468,0.771196,11.4051,-33.2012,205.854,25.9756
6922.45,29.424,29.2136,0,4.27511,8.63405,-2.53872,-3.01829,-3.78049,-20.6098,-37.0031,0.847837,11.3093,-34.0244,204.451,24.5122
6922.46,29.1223,28.7238,0,3.96136,8.52148,-2.2585,-3.78049,-4.93902,-21.6159,-37.1947,1.12566,11.9799,-40.2134,203.963,23.2012
6922.47,28.8129,28.193,0,3.8488,8.47597,-2.10762,-0.396341,-5.79268,-21.9817,-37.4246,1.0586,10.9548,-45.7927,200.884,22.1341
6922.48,28.4845,27.6097,0,3.86317,8.63405,-2.3567,0.457317,-3.23171,-23.9024,-37.6641,0.914897,9.69983,-46.189,197.835,21.6768
6922.49,28.137,27.0805,0,3.72426,8.66039,-2.47406,1.85976,-3.17073,-24.8171,-38.0185,0.838257,10.3321,-43.9634,193.384,22.5305
6922.5,27.8119,26.5494,0,3.8967,8.74661,-2.53633,0.152439,-7.43902,-24.7561,-38.2293,0.828677,9.94891,-44.4817,185.823,23.7805
6922.51,27.5423,26.0515,0,4.2775,8.71787,-2.46448,-5.27439,-8.71951,-24.0854,-38.009,1.02028,10.0926,-42.5915,180.518,25.8232
6922.52,27.3286,25.581,0,4.51701,8.53345,-2.39023,-6.92073,-10.1524,-22.5305,-38.0377,1.2023,10.2172,-44.6341,174.756,27.9573
6922.53,27.1418,25.0842,0,4.4715,8.38257,-2.36867,-6.7378,-9.35976,-20.5793,-37.8174,1.0586,9.34537,-46.7988,170.823,29.3598
6922.54,26.9648,24.5712,0,4.36612,8.22689,-2.55549,-3.81098,-5.09146,-19.7256,-37.9515,0.895737,8.73224,-43.0488,167.195,27.3171
6922.55,26.7778,24.0674,0,4.11464,8.19815,-2.48124,-0.304878,-2.2561,-18.4451,-37.8557,0.292192,8.50232,-36.5549,163.659,25.7317
6922.56,26.569,23.5944,0,3.86317,8.44963,-2.6944,-1.12805,-1.43293,-16.7988,-37.9994,0.253872,8.71308,-33.3232,160.122,22.378
6922.57,26.3591,23.1096,0,3.78413,8.56219,-2.49082,-3.14024,-1.82927,-15.8537,-38.1048,-0.167651,8.19576,-29.878,158.506,19.6037
6922.58,26.1637,22.6401,0,3.90867,8.48555,-2.43334,-2.95732,-3.47561,-16.6159,-38.1814,-0.0718506,8.13828,-26.9207,157.561,16.5244
6922.59,25.9842,22.1543,0,4.07872,8.48555,-2.50759,-1.79878,-5.97561,-17.3171,-38.1527,0.177231,7.51557,-24.5732,155.701,15.6707
6922.6,25.8229,21.6671,0,4.35175,8.48555,-2.51238,-2.83537,-6.15854,-18.8415,-38.1431,0.627495,7.15153,-20.9146,155.061,15.4573
6922.61,25.6603,21.2286,0,4.23439,8.5119,-2.43334,-3.23171,-5.73171,-17.8659,-38.2772,0.953218,7.67843,-19.7866,151.646,16.7378
6922.62,25.4848,20.7719,0,4.01405,8.62686,-2.45729,-2.16463,-3.35366,-16.4634,-38.6796,1.00112,7.12279,-18.2012,149.299,17.0122
6922.63,25.2936,20.2939,0,3.74581,8.57896,-2.60339,-0.426829,-0.487805,-15.6402,-38.9765,1.4897,6.48092,-18.1707,149.116,16.9512
6922.64,25.0842,19.8368,0,3.49433,8.52387,-2.44531,0.853659,-1.0061,-15.2439,-39.1298,1.61424,6.52882,-18.5061,145.671,16.5244
6922.65,24.8836,19.4062,0,3.55421,8.64602,-2.24413,0.823171,-3.59756,-14.878,-39.1681,1.49928,6.66294,-16.7378,139.817,17.0427
6922.66,24.7006,18.9782,0,3.80329,8.89271,-2.18426,0.365854,-2.16463,-15.1524,-39.1873,1.45138,6.3947,-16.0976,135.274,16.5549
6922.67,24.513,18.5402,0,3.78653,8.95258,-2.4501,1.55488,0.731707,-15.5183,-39.1969,1.27894,5.9157,-16.7073,134.421,16.311
6922.68,24.3206,18.1144,0,3.63324,8.93103,-2.77583,3.56707,3.2622,-14.7866,-39.0915,1.07776,5.81032,-14.4817,134.726,14.3902
6922.69,24.1193,17.6645,0,3.43206,8.85439,-2.61536,3.10976,0.213415,-14.1463,-39.2448,0.819097,5.11097,-14.7256,134.726,12.622
6922.7,23.9137,17.2038,0,3.33866,8.84241,-2.51956,-0.365854,-3.2622,-13.9634,-39.3406,0.732876,4.61281,-12.5,132.53,10.6707
6922.71,23.7054,16.7944,0,3.30034,8.78254,-2.43573,-2.77439,-3.81098,-14.4817,-39.2065,1.02986,5.15887,-11.8293,127.47,8.9939
6922.72,23.5293,16.384,0,3.51589,8.59573,-2.27287,-1.95122,-4.57317,-15,-39.5322,1.50886,4.88105,-10.8841,122.774,10.5488
6922.73,23.3838,15.9987,0,3.72905,8.56938,-2.34233,-1.12805,-4.72561,-14.8171,-39.6567,1.66214,5.03433,-9.69512,117.53,10.8232
6922.74,23.2774,15.6133,0,3.96855,8.54064,-2.44531,0.152439,-4.29878,-13.9939,-39.5226,1.91123,4.73735,-8.59756,114.909,12.1951
6922.75,23.1741,15.1867,0,3.86317,8.67237,-2.61536,-0.701219,-2.89634,-12.0427,-39.4172,1.75794,3.73144,-7.13415,114.695,12.3476
6922.76,23.0432,14.7978,0,3.56379,8.8975,-2.79259,-4.14634,-0.701219,-10.6098,-39.4556,1.38432,4.09548,-6.12805,112.957,11.2195
6922.77,22.8862,14.4265,0,3.21412,8.46879,-2.50519,-2.9878,-0.396341,-11.4024,-39.1681,1.25978,4.09548,-4.02439,110.793,9.26829
6922.78,22.7766,14.0428,0,3.64522,8.92624,-2.53154,-0.213415,0.823171,-9.81707,-38.9191,1.1065,3.59732,-0.823171,109.695,6.61585
6922.79,22.6382,13.6327,0,3.4608,8.97414,-2.33993,-3.87195,-6.82927,-10.6707,-38.9382,0.819097,2.87881,0.670732,109.695,3.56707
6922.8,22.5217,13.2387,0,3.58534,8.74422,-2.20821,-5.03049,-5.79268,-11.189,-38.967,1.12566,2.87881,3.04878,109.146,3.84146
6922.81,22.405,12.8941,0,3.47996,8.56699,-2.15312,-0.701219,-5.06098,-11.0671,-39.0915,0.886157,3.4632,1.95122,106.28,2.89634
6922.82,22.2849,12.5476,0,3.44643,8.77775,-2.48364,-0.853659,-3.56707,-10.2744,-39.3789,1.346,3.20454,1.4939,102.774,2.86585
6922.83,22.1656,12.1891,0,3.10634,8.3203,-2.14115,7.07317,-3.17073,-8.47561,-39.2831,1.86333,2.75427,-0.670732,104.543,3.84146
6922.84,21.9704,11.8642,0,2.75906,9.5226,-2.69679,-3.62805,-8.84146,-7.65244,-39.446,2.31359,3.10874,-1.28049,105.427,5.94512
6922.85,21.8718,11.5519,0,3.30992,8.80649,-2.66805,-14.3902,-10.8841,-7.2561,-39.4939,2.43813,3.08958,-4.84756,99.7561,8.07927
6922.86,21.8611,11.2203,0,3.81048,7.97781,-1.99026,-0.396341,-5.85366,-8.56707,-39.7334,2.39023,2.53393,-8.38415,95.1829,7.68293
6922.87,21.7991,10.9212,0,3.81527,8.75619,-2.33514,7.95732,-2.89634,-9.7561,-39.743,1.97829,2.85965,-10.9451,90.3659,5.73171
6922.88,21.7034,10.6253,0,3.63085,9.40764,-2.74469,-0.457317,-4.26829,-8.35366,-39.6855,1.62382,2.68721,-13.4451,86.2805,2.10366
6922.89,21.6607,10.3249,0,3.7027,8.94061,-2.5483,-6.92073,-7.22561,-5.97561,-39.5226,1.4418,2.39023,-14.1768,85,-0.182927
6922.9,21.6439,9.9924,0,3.83922,8.6556,-2.52914,-5.82317,-6.0061,-6.34146,-38.9765,1.26936,1.60466,-13.2012,86.5854,-0.640244
6922.91,21.6234,9.67363,0,3.73623,8.37299,-2.41897,-0.945122,-2.34756,-7.0122,-39.0149,0.962798,1.62382,-9.81707,89.0549,0.335366
6922.92,21.576,9.34461,0,3.48236,8.42328,-2.52914,2.13415,-2.40854,-6.55488,-39.0436,1.02986,1.23104,-9.72561,89.0549,1.58537
6922.93,21.5153,9.00279,0,3.39135,8.50711,-2.68721,1.09756,-0.365854,-6.52439,-39.3214,1.28852,0.780776,-10.0915,85.8537,1.64634
6922.94,21.4442,8.67811,0,3.25723,8.5119,-2.51717,0.945122,1.52439,-6.06707,-39.0819,1.75794,0.838257,-10.9756,85.8537,5.06098
6922.95,21.3776,8.39691,0,3.37698,8.77775,-2.32556,-0.396341,-0.97561,-5.97561,-38.967,2.30401,1.346,-13.8415,81.0366,8.44512
6922.96,21.3516,8.13365,0,3.71707,8.71308,-2.4525,-1.64634,0.670732,-6.18902,-39.4076,2.48603,1.47054,-16.2805,78.4146,9.48171
6922.97,21.3265,7.86483,0,3.69791,8.62926,-2.40939,4.42073,2.77439,-6.34146,-39.5322,2.50519,1.18314,-20.6098,74.5732,10.8232
6922.98,21.268,7.59461,0,3.59732,9.137,-2.7423,3.84146,4.17683,-6.31098,-39.743,2.15073,0.972378,-23.1098,72.8049,7.62195
6922.99,21.1751,7.34247,0,3.32668,9.35734,-2.73272,-1.82927,1.89024,-6.0061,-39.9633,1.60466,1.09692,-23.9329,69.6951,4.08537
6923,21.0935,7.06433,0,3.29076,9.30465,-2.52196,-6.18902,-1.31098,-4.81707,-39.6088,1.52802,0.455054,-25.5183,68.5976,0.27439
6923.01,21.027,6.75746,0,3.34105,9.0388,-2.56267,-7.19512,-1.0061,-5.12195,-39.3119,1.25978,-0.234712,-27.3171,69.2378,-2.62195
6923.02,20.9357,6.44864,0,2.95066,8.57177,-2.39502,-5.67073,-3.41463,-5.09146,-39.4364,0.876577,-0.474214,-28.1098,71.1585,-2.56098
6923.03,20.8702,6.15334,0,3.21412,8.43047,-2.34712,-5.60976,-5.60976,-6.55488,-39.4843,1.2502,-0.464634,-26.4024,67.5305,0
6923.04,20.8285,5.883,0,3.3674,8.464,-2.48124,-6.76829,-4.96951,-5.94512,-39.3789,1.61424,-0.244292,-27.5305,64.2378,2.89634
6923.05,20.8047,5.6652,0,3.50152,8.50711,-2.59141,-5.7622,-1.85976,-5.60976,-39.1777,1.80584,0.464634,-29.5122,59.878,5.82317
6923.06,20.8024,5.46358,0,3.67875,8.76338,-2.48603,-2.7439,0.396341,-4.35976,-39.1681,1.71004,0.579595,-32.2866,55.3963,6.64634
6923.07,20.7991,5.24154,0,3.70031,8.96935,-2.71595,-0.853659,1.95122,-3.75,-38.8903,1.7292,0.0718506,-34.0854,50.3659,6.89024
6923.08,20.805,5.0097,0,3.95418,9.02683,-2.77343,-1.79878,4.29878,-5.27439,-39.1873,1.42264,-0.263452,-32.5,46.0061,3.81098
6923.09,20.7971,4.76886,0,3.96136,8.98851,-2.62973,-2.16463,6.70732,-6.89024,-39.5418,1.2023,-0.598755,-29.8476,41.3415,1.52439
6923.1,20.774,4.53586,0,3.8488,8.8975,-2.50519,0.243902,10.0915,-7.65244,-39.7046,1.49928,-0.637075,-28.872,39.5427,1.34146
6923.11,20.7191,4.27551,0,3.54223,8.68195,-2.39262,4.7561,12.5915,-8.5061,-39.8675,1.16398,-1.28852,-28.1402,37.8963,3.01829
6923.12,20.6216,3.99048,0,3.14945,8.56459,-2.39262,8.65854,16.0061,-8.87195,-39.9729,0.934058,-1.91123,-27.439,37.3476,3.14024
6923.13,20.5019,3.70895,0,2.97701,8.5598,-2.27287,11.4024,15.4573,-9.26829,-40.4998,0.493374,-2.06451,-26.6159,40.5488,4.02439
6923.14,20.3807,3.4354,0,2.89318,8.74901,-2.18186,10.8841,13.4451,-7.86585,-40.5668,0.445474,-2.12199,-27.8049,41.311,2.95732
6923.15,20.2877,3.19391,0,2.94587,8.77535,-2.34712,11.311,11.2195,-5.73171,-40.4519,0.991538,-1.73878,-27.2561,40.7012,4.78659
6923.16,20.2076,2.96867,0,2.96743,8.95498,-2.60578,12.2866,11.6768,-4.05488,-40.2699,1.22146,-1.62382,-26.8902,37.378,5.12195
6923.17,20.1245,2.7818,0,2.87163,8.96216,-2.70158,11.4634,8.90244,-2.9878,-39.8579,1.26936,-1.09692,-27.8354,35.0915,6.31098
6923.18,20.0489,2.62314,0,2.96024,9.20406,-2.75188,10.6707,4.72561,-2.28659,-39.5514,1.21188,-0.742456,-30.8841,30.1829,5.85366
6923.19,19.9857,2.43518,0,3.12311,9.40524,-2.85726,5.09146,2.9878,-2.77439,-39.5226,0.847837,-1.36516,-30.4573,29.3293,3.78049
6923.2,19.9278,2.22239,0,3.10874,9.11544,-2.53872,4.90854,2.56098,-3.41463,-39.5514,0.675395,-1.93039,-28.7805,29.0854,0.609756
6923.21,19.8844,2.01502,0,3.13029,8.90947,-2.53393,0.548781,0.426829,-3.17073,-39.7046,0.493374,-1.98787,-26.8293,29.939,-1.98171
6923.22,19.8528,1.80437,0,3.1279,8.64842,-2.29922,6.92073,0.335366,-3.23171,-39.446,0.780776,-2.16989,-22.1341,31.4634,-3.20122
6923.23,19.8121,1.61516,0,3.14466,9.01485,-2.56986,7.68293,1.76829,-2.7439,-39.3502,1.00112,-1.93997,-22.0427,30.5793,-2.31707
6923.24,19.7772,1.42687,0,3.23567,9.25436,-2.84289,-1.70732,1.76829,-2.31707,-39.264,0.943638,-2.04535,-18.7805,31.8293,-0.27439
6923.25,19.7661,1.22608,0,3.2237,8.86157,-2.57465,-3.07927,2.16463,-1.7378,-39.331,1.07776,-2.39981,-17.7744,30.7317,1.37195
6923.26,19.773,1.02381,0,3.25962,8.71548,-2.36388,2.19512,2.34756,-1.58537,-39.5801,0.752036,-2.58183,-16.3415,30.2134,2.9878
6923.27,19.7381,0.857707,0,3.15664,9.0388,-2.70637,1.46341,2.07317,-2.31707,-39.5035,0.550855,-2.09325,-15.3354,27.7744,3.9939
6923.28,19.6974,0.698654,0,3.09437,9.04838,-2.77104,-3.23171,0.914634,-2.0122,-39.7334,0.589175,-2.10283,-15.8841,26.128,5.15244
6923.29,19.6969,0.496769,0,3.2692,8.85439,-2.5028,-5.51829,-0.304878,-1.67683,-39.9346,0.627495,-2.98419,-14.5122,25.4268,4.81707
6923.3,19.709,0.298725,0,3.21651,8.66758,-2.43573,-5.21341,-1.43293,-1.18902,-40.1741,0.799937,-3.07042,-12.9878,27.0427,6.0061
6923.31,19.7589,0.124694,0,3.30273,8.58136,-2.38304,-3.17073,-1.43293,-0.853659,-40.3752,0.991538,-2.80217,-13.3537,25.4268,5.88415
6923.32,19.8176,-0.0786775,0,3.36261,8.63884,-2.37107,0.670732,-0.579268,-0.762195,-40.768,0.847837,-3.49194,-12.0427,23.2927,5.70122
6923.33,19.8544,-0.265266,0,3.3171,8.86157,-2.5962,3.35366,0.670732,-0.152439,-40.5381,0.914897,-3.3195,-11.4329,22.0732,5.42683
6923.34,19.873,-0.446665,0,3.33626,9.00527,-2.84528,2.34756,1.40244,-0.27439,-40.1932,1.02986,-3.32908,-10.6707,22.4695,6.76829
6923.35,19.8843,-0.603984,0,3.26681,8.86397,-2.6441,2.37805,2.07317,-0.487805,-39.9441,1.12566,-3.01293,-10.4573,21.372,6.37195
6923.36,19.8654,-0.779916,0,3.13987,8.79451,-2.50519,5.70122,2.2561,-1.09756,-39.5609,1.04902,-3.42488,-10.061,19.9695,8.07927
6923.37,19.8282,-0.916587,0,3.10395,8.94779,-2.56986,8.59756,3.44512,-1.82927,-39.5705,0.953218,-2.85965,-10.6707,19.7561,9.17683
6923.38,19.7852,-1.04581,0,3.11113,9.0891,-2.71356,8.14024,3.23171,-2.10366,-39.4843,0.847837,-2.82133,-11.189,18.75,8.75
6923.39,19.746,-1.17569,0,3.14945,9.13939,-2.64171,5.42683,1.58537,-2.13415,-39.6184,0.704136,-2.93629,-10.3659,17.5305,8.32317
6923.4,19.7271,-1.28636,0,3.21651,8.98611,-2.6465,2.65244,0.670732,-1.79878,-39.81,0.483794,-2.70637,-9.35976,16.4329,8.56707
6923.41,19.7182,-1.41596,0,3.25004,8.83762,-2.71835,3.44512,1.28049,-2.10366,-39.8771,0.627495,-3.1279,-10.3354,14.9695,9.29878
6923.42,19.7114,-1.54285,0,3.2213,8.8017,-2.71356,3.10976,0.762195,-1.76829,-39.8196,0.522114,-3.16622,-10.3659,14.939,9.32927
6923.43,19.7025,-1.68464,0,3.19735,8.86397,-2.65129,0.670732,-0.914634,-1.31098,-39.7334,0.598755,-3.5111,-9.39024,14.8476,7.43902
6923.44,19.7371,-1.81101,0,3.37937,8.74182,-2.56746,-1.4939,-2.89634,-1.25,-39.7525,0.522114,-3.33866,-10.122,15.1829,7.95732
6923.45,19.8398,-1.93799,0,3.53505,8.68674,-2.61776,-0.97561,-2.46951,-0.548781,-39.6759,0.455054,-3.43446,-7.95732,14.1463,7.92683
6923.46,19.9253,-2.06211,0,3.47757,8.79451,-2.69919,-1.21951,-2.19512,-0.243902,-39.513,0.589175,-3.4632,-7.7439,12.8049,7.7439
6923.47,19.9794,-2.18855,0,3.41769,8.84481,-2.77343,-1.92073,-1.4939,-0.304878,-39.0723,0.694556,-3.54942,-5.30488,13.0183,8.71951
6923.48,20.0116,-2.30362,0,3.3674,8.82804,-2.71595,-2.34756,-0.97561,-0.579268,-39.1107,0.943638,-3.44404,-4.72561,12.5305,7.86585
6923.49,20.0359,-2.40817,0,3.35782,8.87594,-2.73272,-2.37805,-1.37195,-0.548781,-39.3406,1.04902,-3.3674,-3.90244,10.3963,8.32317
6923.5,20.065,-2.49203,0,3.38895,8.81607,-2.70158,-2.34756,-1.43293,-0.823171,-39.2927,1.02028,-3.08,-2.04268,8.84146,9.35976
6923.51,20.11,-2.59745,0,3.40811,8.78254,-2.60578,-1.79878,-1.25,-0.548781,-39.5322,1.02028,-3.53984,-3.23171,7.56098,8.5061
6923.52,20.1566,-2.68696,0,3.36021,8.73464,-2.53393,-1.67683,-1.79878,-0.304878,-39.6951,1.00112,-3.34824,-4.26829,7.34756,7.0122
6923.53,20.2215,-2.79162,0,3.37219,8.69153,-2.47166,-0.0304878,-1.7378,0.152439,-39.8771,0.799937,-3.69312,-4.42073,7.80488,4.63415
6923.54,20.2444,-2.90024,0,3.30273,8.78014,-2.64889,0.518293,-2.7439,0.731707,-39.8004,1.07776,-3.82724,-3.53659,8.44512,4.96951
6923.55,20.2653,-3.02348,0,3.29794,8.8017,-2.76864,-1.46341,-3.07927,1.15854,-39.4556,0.991538,-4.12422,-3.23171,9.11585,3.75
6923.56,20.2981,-3.12405,0,3.31471,8.68674,-2.57465,0.0304878,-2.62195,1.06707,-39.2831,1.0586,-3.7985,-3.2622,8.04878,5.45732
6923.57,20.3209,-3.20591,0,3.34345,8.8496,-2.50519,1.03659,-2.46951,0.701219,-39.3023,1.03944,-3.53984,-4.32927,9.05488,4.93902
6923.58,20.356,-3.28449,0,3.4153,8.88313,-2.56267,-0.914634,-2.53049,0.548781,-39.1394,1.27894,-3.53026,-4.78659,7.31707,5.70122
6923.59,20.4264,-3.33786,0,3.50391,8.84002,-2.57704,-0.213415,-1.67683,-0.0609756,-39.4651,0.924478,-3.1758,-5.09146,6.34146,5.88415
6923.6,20.4806,-3.39686,0,3.52547,8.86157,-2.63213,0.182927,-0.731707,-0.365854,-39.513,0.771196,-3.3195,-5.27439,5.18293,4.48171
6923.61,20.5408,-3.48192,0,3.51828,8.89031,-2.67524,-1.43293,-0.670732,-0.0304878,-39.5035,0.972378,-3.81766,-5.45732,5.03049,3.53659
6923.62,20.5968,-3.5854,0,3.44643,8.74901,-2.69919,-2.62195,-0.152439,0.0914634,-39.8196,1.09692,-4.2296,-4.2378,6.46341,2.80488
6923.63,20.6319,-3.66945,0,3.38656,8.71308,-2.66087,-3.38415,-0.213415,0.457317,-39.9537,1.36516,-3.97094,-4.05488,6.43293,3.59756
6923.64,20.6416,-3.75371,0,3.27399,8.65081,-2.57465,-1.92073,-0.457317,0.518293,-39.8962,1.52802,-4.02842,-3.96341,6.37195,2.77439
6923.65,20.6302,-3.83012,0,3.23328,8.70829,-2.60578,-0.0304878,-1.12805,0.335366,-39.8388,1.51844,-3.9422,-5.67073,6.46341,2.80488
6923.66,20.6194,-3.91111,0,3.30034,8.85918,-2.63213,-2.04268,-2.22561,0.0609756,-39.8388,1.4897,-4.07632,-6.28049,6.67683,2.07317
6923.67,20.6595,-3.98058,0,3.40572,8.7514,-2.56507,-4.02439,-3.59756,0.0304878,-39.7238,1.6334,-3.92304,-7.71341,5.12195,2.10366
6923.68,20.7273,-4.03763,0,3.49433,8.70829,-2.54591,-2.83537,-2.53049,-0.152439,-39.5609,1.73878,-3.74102,-8.32317,3.87195,0.884146
6923.69,20.7745,-4.10272,0,3.45601,8.76577,-2.61536,-1.12805,-0.914634,-0.0304878,-39.446,1.70046,-3.91346,-10.2134,3.10976,1.61585
6923.7,20.7521,-4.13457,0,3.30752,8.90229,-2.55788,-1.37195,-1.52439,-0.182927,-39.2065,1.59508,-3.35782,-12.439,2.40854,2.04268
6923.71,20.7295,-4.17597,0,3.29555,8.94061,-2.5483,-2.10366,-2.19512,0.27439,-39.2256,1.42264,-3.54942,-13.5671,1.95122,2.10366
6923.72,20.6985,-4.20574,0,3.26681,8.90229,-2.59141,-2.19512,-1.58537,-0.335366,-39.4651,1.19272,-3.39614,-16.4024,1.85976,3.38415
6923.73,20.6679,-4.265,0,3.24046,8.8496,-2.54351,-1.31098,-1.21951,-0.731707,-39.5322,1.11608,-3.95178,-16.5244,-1.25,1.76829
6923.74,20.6526,-4.32223,0,3.30034,8.78972,-2.51477,-0.365854,-0.914634,-1.28049,-39.5322,1.22146,-3.96136,-16.372,-2.43902,2.53049
6923.75,20.6327,-4.37105,0,3.30992,8.82325,-2.56267,0.365854,0.335366,-1.79878,-39.628,1.25978,-3.86556,-16.9817,-3.29268,2.31707
6923.76,20.6285,-4.4294,0,3.39614,8.81607,-2.54112,0.487805,0.396341,-1.67683,-39.5226,1.36516,-4.05716,-17.7134,-3.38415,2.46951
6923.77,20.6467,-4.4624,0,3.53984,8.81607,-2.56986,-0.213415,0.182927,-1.64634,-39.5418,1.43222,-3.6548,-17.439,-3.59756,4.14634
6923.78,20.6601,-4.51829,0,3.47996,8.80409,-2.54112,-0.762195,0.579268,-1.43293,-39.3023,1.52802,-4.05716,-17.5,-4.08537,5.54878
6923.79,20.6606,-4.57065,0,3.40093,8.81367,-2.56028,-0.182927,0.945122,-1.34146,-39.3406,1.41306,-4.038,-18.9329,-3.9939,6.61585
6923.8,20.6498,-4.61222,0,3.38895,8.88073,-2.54351,0.0914634,1.28049,-1.7378,-39.3502,1.13524,-3.88472,-18.9939,-3.56707,7.10366
6923.81,20.6285,-4.65499,0,3.32908,8.88552,-2.61776,-0.121951,1.43293,-1.89024,-39.5035,1.03944,-3.95178,-17.8049,-4.11585,7.07317
6923.82,20.6022,-4.69138,0,3.26202,8.78014,-2.48843,0.213415,1.21951,-2.04268,-39.4076,1.17356,-3.85598,-20.1524,-2.95732,5.79268
6923.83,20.5823,-4.73315,0,3.30513,8.80888,-2.5028,1.15854,-0.0914634,-1.95122,-39.446,1.42264,-3.98052,-20.061,-3.23171,7.83537
6923.84,20.58,-4.76481,0,3.44164,8.90229,-2.63692,-0.914634,-0.213415,-1.7378,-39.5897,1.35558,-3.8464,-20.9146,-3.38415,7.65244
6923.85,20.5944,-4.82253,0,3.43206,8.72745,-2.52435,-2.07317,0.304878,-1.37195,-39.6376,1.08734,-4.33499,-20.6707,-3.84146,7.16463
6923.86,20.606,-4.86415,0,3.39853,8.61968,-2.36149,1.18902,1.46341,-1.64634,-39.8004,1.11608,-4.10506,-20.7622,-3.04878,6.43293
6923.87,20.5912,-4.89558,0,3.32189,8.83044,-2.55549,2.28659,1.64634,-1.55488,-39.6184,1.0586,-3.93262,-19.939,-2.19512,5.64024
6923.88,20.5551,-4.93934,0,3.23567,8.97653,-2.71356,-0.792683,0.335366,-1.4939,-39.5035,1.30768,-4.16254,-19.6037,-2.95732,5.64024
6923.89,20.5425,-4.95489,0,3.29794,8.78493,-2.53154,-1.4939,-0.457317,-1.37195,-39.5514,1.36516,-3.7027,-19.3598,-3.2622,6.21951
6923.9,20.5352,-4.98326,0,3.35782,8.74661,-2.49322,1.55488,0.365854,-1.98171,-39.3119,1.3939,-3.92304,-20.061,-5.57927,7.62195
6923.91,20.5249,-4.99612,0,3.38895,8.85918,-2.68961,1.85976,0.487805,-2.07317,-39.4843,1.0107,-3.69312,-20.122,-7.16463,6.79878
6923.92,20.5352,-4.99373,0,3.52547,8.88792,-2.63931,-0.609756,0.396341,-1.85976,-39.2927,1.2502,-3.42488,-22.1341,-9.26829,6.52439
6923.93,20.5544,-5.00244,0,3.52786,8.78014,-2.54112,-0.213415,1.7378,-1.76829,-39.2544,1.09692,-3.61648,-21.4634,-10.0915,7.13415
6923.94,20.5485,-5.04424,0,3.36979,8.80649,-2.48603,0.243902,1.34146,-1.70732,-39.0819,1.19272,-4.1817,-21.5549,-9.96951,7.37805
6923.95,20.538,-5.06768,0,3.33147,8.8017,-2.52435,-0.213415,1.7378,-1.61585,-39.0436,1.43222,-3.88472,-22.3171,-9.26829,8.68902
6923.96,20.5111,-5.08953,0,3.23567,8.80649,-2.57225,0.548781,1.12805,-1.7378,-39.1011,1.2981,-3.87514,-21.2805,-8.20122,9.05488
6923.97,20.5146,-5.11109,0,3.40572,8.77056,-2.58902,0.853659,-0.213415,-1.67683,-39.5226,0.809517,-3.92304,-19.8476,-7.0122,8.62805
6923.98,20.526,-5.15811,0,3.42488,8.81128,-2.55309,-0.304878,0.27439,-1.21951,-39.5801,0.914897,-4.39247,-19.1159,-6.89024,7.89634
6923.99,20.5493,-5.21119,0,3.4608,8.76817,-2.48843,-0.792683,0.213415,-1.12805,-39.5801,0.771196,-4.52659,-17.4085,-5.18293,4.90854
6924,20.5656,-5.25576,0,3.40811,8.77535,-2.51477,0.396341,0.884146,-0.914634,-39.7238,0.934058,-4.42121,-14.6646,-2.83537,5.79268
6924.01,20.5465,-5.294,0,3.30513,8.91666,-2.63692,0.426829,1.09756,-1.25,-39.4843,1.21188,-4.31582,-13.6585,-3.38415,5.30488
6924.02,20.5179,-5.30973,0,3.24525,8.91666,-2.58423,-0.701219,-0.243902,-1.06707,-39.5514,1.16398,-3.95178,-12.7134,-2.89634,5.79268
6924.03,20.5045,-5.30257,0,3.30752,8.85199,-2.52914,-0.243902,-0.97561,-1.28049,-39.5609,1.37474,-3.56858,-13.9329,-5.15244,5.97561
6924.04,20.5041,-5.30726,0,3.38656,8.82804,-2.53154,-0.0609756,-1.18902,-1.4939,-39.5035,1.33642,-3.76976,-14.4512,-6.12805,5.2439
6924.05,20.5086,-5.30423,0,3.40093,8.8496,-2.63692,-0.548781,0.0914634,-1.21951,-39.5993,1.4418,-3.6548,-15.4268,-8.56707,4.84756
6924.06,20.5044,-5.30162,0,3.35303,8.83523,-2.55309,-0.548781,0.518293,-1.31098,-39.4747,1.41306,-3.64522,-16.311,-7.56098,5.70122
6924.07,20.5192,-5.30539,0,3.41051,8.76338,-2.55549,-0.213415,-0.0304878,-1.12805,-39.5226,1.40348,-3.76976,-16.1585,-10.4878,5.85366
6924.08,20.5714,-5.30027,0,3.53744,8.69153,-2.53872,0.0914634,0.152439,-0.914634,-39.3406,1.35558,-3.59732,-16.1585,-9.78659,6.46341
6924.09,20.6016,-5.29659,0,3.4608,8.70829,-2.54351,-0.182927,0.0609756,-1.0061,-39.3598,1.27894,-3.62606,-14.8476,-11.372,7.07317
6924.1,20.6104,-5.29782,0,3.36021,8.71308,-2.51717,0.731707,0.152439,-0.97561,-39.4364,1.28852,-3.71228,-16.4939,-10.0915,7.04268
6924.11,20.6145,-5.29644,0,3.34824,8.80409,-2.60099,0.792683,0.457317,-0.548781,-39.4843,0.972378,-3.67396,-16.7683,-10.6707,5.21341
6924.12,20.5969,-5.31254,0,3.28357,8.85439,-2.66087,-0.487805,1.15854,-0.731707,-39.6184,0.981958,-3.9901,-15.5488,-9.72561,4.26829
6924.13,20.5682,-5.33046,0,3.24286,8.87834,-2.56986,-1.06707,0.518293,-1.18902,-39.5609,1.16398,-4.02842,-15.1524,-9.93902,3.17073
6924.14,20.5519,-5.34693,0,3.29555,8.85439,-2.48124,-0.152439,0,-1.15854,-39.3406,1.21188,-3.9901,-14.5122,-9.11585,3.9939
6924.15,20.5366,-5.35288,0,3.32429,8.90708,-2.50998,-0.518293,-0.762195,-1.31098,-39.4556,1.5855,-3.82724,-13.811,-8.75,4.48171
6924.16,20.5258,-5.35132,0,3.34584,8.92145,-2.60339,-1.58537,-1.21951,-1.18902,-39.4364,1.40348,-3.7027,-14.1463,-10.1524,5.97561
6924.17,20.5328,-5.34618,0,3.40093,8.80888,-2.54112,-1.31098,-1.18902,-1.21951,-39.4172,1.37474,-3.63564,-13.5061,-9.7561,6.95122
6924.18,20.5681,-5.33302,0,3.47757,8.72745,-2.4501,-0.365854,-0.579268,-0.945122,-39.5801,1.26936,-3.5111,-16.25,-11.189,6.58537
6924.19,20.6032,-5.33595,0,3.4632,8.77056,-2.51717,-0.396341,-0.518293,-0.640244,-39.4364,1.22146,-3.76976,-16.5854,-10.7927,6.06707
6924.2,20.6507,-5.33495,0,3.45601,8.80409,-2.57465,-0.97561,0.365854,-0.0609756,-39.3885,1.2502,-3.7027,-14.8171,-12.0427,6.82927
6924.21,20.6817,-5.33836,0,3.40572,8.75619,-2.55309,-0.335366,0.426829,-0.213415,-39.3214,1.33642,-3.76976,-14.5122,-11.1585,5.57927
6924.22,20.672,-5.35581,0,3.30273,8.79691,-2.51717,0.0609756,-0.243902,-0.518293,-39.2544,1.42264,-4.00926,-13.2927,-10.6098,7.07317
6924.23,20.6362,-5.37112,0,3.23807,8.89271,-2.56746,-1.40244,-1.43293,-0.304878,-39.3214,1.45138,-3.98052,-12.7439,-7.71341,6.61585
6924.24,20.6365,-5.3808,0,3.30992,8.72985,-2.52196,-0.701219,-1.0061,-0.579268,-39.4268,1.3939,-3.90388,-12.0122,-7.89634,4.90854
6924.25,20.6269,-5.39365,0,3.32429,8.8472,-2.58423,0.152439,-1.03659,-0.823171,-39.4747,1.19272,-3.97094,-13.2927,-7.89634,3.87195
6924.26,20.6027,-5.40735,0,3.27639,8.91426,-2.59381,-2.07317,-1.7378,-0.731707,-39.5609,1.14482,-3.99968,-13.9024,-6.76829,3.38415
6924.27,20.6229,-5.4212,0,3.40572,8.77056,-2.53633,-1.18902,-1.40244,-0.640244,-39.513,1.2502,-4.00926,-12.8659,-7.40854,4.39024
6924.28,20.6434,-5.42466,0,3.44164,8.83044,-2.56986,-0.579268,-0.884146,-0.670732,-39.5705,1.36516,-3.83682,-13.628,-5.97561,5.33537
6924.29,20.6476,-5.42013,0,3.40811,8.8975,-2.51238,-1.98171,-1.4939,-0.792683,-39.3598,1.27894,-3.68354,-11.7683,-7.34756,5.57927
6924.3,20.6753,-5.41425,0,3.42727,8.74182,-2.45729,-0.457317,-0.945122,-0.609756,-39.331,1.14482,-3.6548,-12.7744,-7.53049,6.21951
6924.31,20.7064,-5.41341,0,3.45601,8.8017,-2.5986,-0.27439,-1.03659,-0.426829,-39.1681,1.16398,-3.72186,-11.7378,-7.04268,6.58537
6924.32,20.7399,-5.42534,0,3.47757,8.82325,-2.5962,-2.2561,-1.18902,-0.396341,-39.3406,1.02028,-3.96136,-12.5915,-7.16463,6.25
6924.33,20.7847,-5.42808,0,3.43685,8.72027,-2.49082,-1.21951,-0.762195,-0.121951,-39.3406,1.0107,-3.80808,-10.8537,-6.92073,5.27439
6924.34,20.7857,-5.4147,0,3.36021,8.78014,-2.53393,0.762195,0.426829,-0.609756,-39.3598,1.22146,-3.53026,-10.0305,-7.07317,4.63415
6924.35,20.7677,-5.41014,0,3.33387,8.92624,-2.66805,-0.792683,-0.487805,-0.579268,-39.3693,1.37474,-3.67396,-9.5122,-6.46341,5.64024
6924.36,20.7707,-5.40834,0,3.39614,8.86876,-2.63692,-1.98171,-0.97561,-0.518293,-39.5035,1.56634,-3.73144,-9.63415,-6.31098,4.87805
6924.37,20.7874,-5.39882,0,3.45601,8.72985,-2.53872,-0.97561,-0.823171,-1.15854,-39.4939,1.42264,-3.58774,-11.128,-4.60366,5.60976
6924.38,20.7945,-5.40786,0,3.42009,8.76338,-2.53633,0.487805,-0.518293,-1.12805,-39.4843,1.41306,-3.90388,-10.6707,-3.93293,4.72561
6924.39,20.7779,-5.40453,0,3.32908,8.86876,-2.57225,-0.670732,-0.365854,-0.884146,-39.4843,1.5376,-3.69312,-12.4085,-4.02439,5.06098
6924.4,20.7526,-5.4126,0,3.29555,8.88792,-2.53154,-0.731707,-0.670732,-1.15854,-39.2735,1.46096,-3.87514,-13.9329,-5.39634,6.40244
6924.41,20.7326,-5.40226,0,3.31231,8.85439,-2.5507,-0.304878,-0.548781,-1.28049,-39.3406,1.18314,-3.559,-13.9634,-3.62805,6.64634
6924.42,20.7265,-5.41278,0,3.40572,8.8496,-2.58662,-0.701219,-0.731707,-1.55488,-39.4556,1.13524,-3.93262,-14.5732,-4.84756,5.79268
6924.43,20.7337,-5.41998,0,3.49912,8.82565,-2.58902,-1.25,-0.457317,-1.7378,-39.6184,1.09692,-3.90388,-14.3902,-6.64634,6.79878
6924.44,20.7612,-5.43269,0,3.53505,8.73703,-2.44531,-0.792683,-0.304878,-1.34146,-39.7046,1.1065,-4.01884,-13.1707,-7.86585,6.76829
6924.45,20.771,-5.4343,0,3.44643,8.72506,-2.47166,-0.487805,-0.670732,-1.46341,-39.5993,1.2502,-3.81766,-13.3537,-6.70732,6.82927
6924.46,20.7837,-5.42163,0,3.44883,8.76098,-2.52914,-0.304878,-0.487805,-1.15854,-39.4556,1.16398,-3.559,-12.9878,-8.10976,6.28049
6924.47,20.7929,-5.40185,0,3.43446,8.75859,-2.54112,-0.365854,-0.579268,-1.18902,-39.628,1.49928,-3.44404,-13.0488,-9.02439,6.95122
6924.48,20.8069,-5.40177,0,3.48475,8.78493,-2.5986,0.0609756,0.304878,-1.28049,-39.743,1.22146,-3.78892,-12.0427,-9.32927,6.12805
6924.49,20.8238,-5.40166,0,3.4608,8.7514,-2.57944,-0.182927,0.335366,-1.03659,-39.5514,1.13524,-3.76976,-12.8963,-9.20732,6.03659
6924.5,20.8111,-5.39309,0,3.34824,8.82804,-2.57225,0,1.09756,-1.12805,-39.5897,1.09692,-3.62606,-13.8415,-9.69512,5.33537
6924.51,20.7654,-5.39535,0,3.19017,8.88552,-2.58902,-0.0609756,0.701219,-1.28049,-39.2831,1.346,-3.77934,-13.7805,-9.11585,6.67683
6924.52,20.7214,-5.39045,0,3.19496,8.89271,-2.60339,-0.0304878,0.579268,-1.70732,-39.264,1.22146,-3.6548,-13.9939,-9.35976,6.18902
6924.53,20.6986,-5.38574,0,3.33626,8.89989,-2.64889,-0.792683,-0.213415,-1.89024,-39.4268,1.22146,-3.66438,-13.4451,-7.77439,7.34756
6924.54,20.6868,-5.37827,0,3.39135,8.85678,-2.51238,-0.914634,-1.18902,-1.89024,-39.5514,1.1544,-3.62606,-13.5061,-8.29268,7.83537
6924.55,20.6921,-5.37368,0,3.48475,8.78972,-2.45969,-0.335366,-1.03659,-1.95122,-39.6951,1.07776,-3.68354,-13.5976,-7.95732,7.2561
6924.56,20.7086,-5.36811,0,3.54223,8.74901,-2.53154,-0.731707,-1.18902,-1.92073,-39.743,1.06818,-3.67396,-13.6585,-9.78659,7.56098
6924.57,20.7486,-5.36081,0,3.58534,8.68674,-2.52435,-0.792683,-0.579268,-1.37195,-39.7621,1.09692,-3.64522,-12.7439,-10.9756,7.80488
6924.58,20.7766,-5.33166,0,3.46559,8.67476,-2.53872,-0.27439,0.0304878,-1.0061,-39.5418,1.02028,-3.23328,-13.2927,-10.0915,6.67683
6924.59,20.7925,-5.3217,0,3.4129,8.72027,-2.48603,-0.0304878,0.0914634,-0.823171,-39.3789,1.23104,-3.53984,-14.2378,-11.4024,6.21951
6924.6,20.7908,-5.31087,0,3.37458,8.80649,-2.59141,-0.0914634,0.182927,-0.853659,-39.3119,1.19272,-3.5111,-14.2378,-11.189,5.45732
6924.61,20.7771,-5.31224,0,3.34824,8.86157,-2.47645,-0.640244,-0.823171,-1.09756,-39.331,1.32684,-3.71228,-13.4756,-9.39024,5.12195
6924.62,20.7826,-5.31772,0,3.44883,8.82804,-2.57704,-0.884146,-0.884146,-1.25,-39.3598,1.24062,-3.78892,-13.2622,-9.72561,5.82317
6924.63,20.7728,-5.31583,0,3.39853,8.92863,-2.54351,-0.426829,-0.884146,-1.18902,-39.3119,1.13524,-3.6548,-12.7134,-8.38415,5.82317
6924.64,20.7565,-5.30748,0,3.35063,8.88792,-2.56507,-0.914634,-1.15854,-1.31098,-39.3789,1.18314,-3.54942,-13.1402,-9.14634,6.98171
6924.65,20.7399,-5.29965,0,3.34105,8.84002,-2.55309,-1.03659,-1.37195,-1.55488,-39.3693,1.24062,-3.54942,-11.9817,-8.5061,5.27439
6924.66,20.7324,-5.29393,0,3.3674,8.78254,-2.55309,-1.64634,-1.52439,-1.4939,-39.5322,1.21188,-3.59732,-12.5,-8.90244,5.36585
6924.67,20.7134,-5.28437,0,3.30513,8.79451,-2.52675,-0.914634,-0.97561,-1.55488,-39.5801,1.18314,-3.53026,-12.7134,-8.9939,4.5122
6924.68,20.6928,-5.2793,0,3.30992,8.83762,-2.56028,-1.31098,-0.731707,-1.58537,-39.5322,1.18314,-3.59732,-13.0793,-8.68902,5.42683
6924.69,20.6823,-5.27709,0,3.37458,8.82565,-2.49082,-0.853659,-1.12805,-1.7378,-39.446,1.41306,-3.63564,-13.9939,-8.59756,4.78659
6924.7,20.683,-5.25995,0,3.44404,8.80409,-2.53633,-0.762195,-1.28049,-1.79878,-39.7046,1.24062,-3.39614,-14.1768,-9.02439,5.54878
6924.71,20.6879,-5.25557,0,3.49673,8.82565,-2.52196,-1.58537,-1.89024,-1.95122,-39.446,1.40348,-3.58774,-14.6646,-9.60366,6.98171
6924.72,20.6984,-5.25299,0,3.52786,8.78733,-2.48603,-1.25,-1.43293,-2.0122,-39.5514,1.28852,-3.62606,-14.4817,-9.66463,5.64024
6924.73,20.7,-5.23527,0,3.45601,8.7993,-2.54112,-1.15854,-0.731707,-1.85976,-39.4747,1.26936,-3.34824,-14.5122,-8.62805,5.21341
6924.74,20.6865,-5.23109,0,3.35303,8.79212,-2.57225,-1.31098,-0.548781,-1.85976,-39.4268,1.2502,-3.56858,-14.8476,-8.47561,6.34146
6924.75,20.6735,-5.23318,0,3.37219,8.78014,-2.56267,-1.0061,-0.518293,-2.16463,-39.446,1.32684,-3.67396,-14.6341,-7.53049,5.79268
6924.76,20.66,-5.22681,0,3.3674,8.76817,-2.58662,-0.640244,-0.518293,-2.22561,-39.331,1.33642,-3.52068,-14.6037,-8.65854,5.2439
6924.77,20.6469,-5.2172,0,3.38177,8.83523,-2.66087,-1.46341,-0.914634,-2.07317,-39.2831,1.36516,-3.45362,-13.4451,-8.14024,5.67073
6924.78,20.6311,-5.19616,0,3.39614,8.84002,-2.56267,-2.16463,-1.18902,-2.5,-39.3885,1.24062,-3.26202,-14.6037,-9.7561,5.30488
6924.79,20.6228,-5.19034,0,3.42967,8.76817,-2.47166,-1.64634,-1.4939,-2.59146,-39.3789,1.14482,-3.5111,-15.4573,-9.29878,5.42683
6924.8,20.6172,-5.16391,0,3.44643,8.81607,-2.54351,-1.37195,-1.15854,-2.34756,-39.4556,1.03944,-3.15664,-16.9817,-10.3659,5.12195
6924.81,20.6072,-5.16198,0,3.42248,8.81607,-2.5004,-1.25,-0.579268,-2.46951,-39.264,0.991538,-3.54942,-16.6768,-10.122,6.40244
6924.82,20.5915,-5.15701,0,3.38656,8.81846,-2.52435,-1.09756,-0.121951,-2.56098,-39.3885,1.0586,-3.50152,-17.8659,-8.84146,6.09756
6924.83,20.5725,-5.15119,0,3.36979,8.82804,-2.52196,-0.914634,-0.426829,-2.65244,-39.4651,1.14482,-3.49194,-18.0793,-9.35976,6.58537
6924.84,20.5558,-5.13311,0,3.37937,8.82086,-2.57465,-1.06707,-0.0304878,-2.62195,-39.4556,1.16398,-3.2716,-17.7744,-9.14634,6.4939
6924.85,20.5386,-5.14146,0,3.37219,8.8017,-2.54112,-1.25,-0.365854,-2.71341,-39.4268,1.07776,-3.71228,-17.6829,-7.07317,5.94512
6924.86,20.5179,-5.134,0,3.38177,8.8496,-2.55309,-1.37195,-0.762195,-2.95732,-39.4172,1.1065,-3.44404,-17.5305,-8.17073,5.73171
6924.87,20.4971,-5.13714,0,3.38416,8.82804,-2.61536,-1.76829,-0.792683,-3.14024,-39.4651,1.0586,-3.62606,-16.7073,-7.31707,5.7622
6924.88,20.4866,-5.13365,0,3.43925,8.82086,-2.58423,-2.0122,-0.762195,-2.89634,-39.3885,1.02028,-3.5111,-16.5244,-9.08537,5.21341
6924.89,20.4791,-5.14467,0,3.44164,8.77535,-2.5028,-1.76829,-0.518293,-2.89634,-39.5035,1.00112,-3.76976,-17.1646,-7.92683,5.45732
6924.9,20.4714,-5.13687,0,3.42727,8.72266,-2.55549,-1.82927,-0.548781,-2.9878,-39.3981,0.627495,-3.43446,-16.4329,-6.95122,5.30488
6924.91,20.4694,-5.12469,0,3.47278,8.69871,-2.5483,-1.46341,0.0914634,-3.10976,-39.5514,0.847837,-3.3674,-17.3476,-7.46951,5.2439
6924.92,20.4606,-5.12973,0,3.42248,8.75859,-2.68482,-1.40244,0.945122,-2.89634,-39.3502,1.0107,-3.64522,-16.5854,-8.23171,5.33537
6924.93,20.4428,-5.13794,0,3.38656,8.83762,-2.55788,-1.82927,0.609756,-2.95732,-39.2544,0.924478,-3.69312,-14.7256,-7.59146,5.54878
6924.94,20.4274,-5.13955,0,3.38895,8.79212,-2.54351,-1.58537,0.0304878,-3.01829,-39.2927,1.14482,-3.58774,-14.3902,-7.7439,5.03049
6924.95,20.4012,-5.14002,0,3.365,8.89989,-2.5986,-2.31707,0,-3.29268,-39.4268,0.924478,-3.57816,-15.1524,-6.95122,5.39634
6924.96,20.374,-5.10904,0,3.30752,8.81128,-2.65368,-2.68293,0.365854,-3.17073,-39.4556,0.761616,-3.03209,-16.3415,-7.40854,6.28049
6924.97,20.3433,-5.09636,0,3.32908,8.81367,-2.53154,-2.46951,-0.0914634,-3.81098,-39.446,0.819097,-3.32908,-16.2195,-7.10366,5.73171
6924.98,20.3113,-5.09626,0,3.31471,8.78733,-2.47885,-1.92073,-0.121951,-3.96341,-39.4172,1.08734,-3.53984,-17.1341,-7.68293,5.33537
6924.99,20.2708,-5.0859,0,3.28118,8.88313,-2.47166,-1.70732,0.243902,-4.05488,-39.4364,0.866997,-3.3674,-17.8049,-9.2378,5.45732
6925,20.2357,-5.07322,0,3.30992,8.86876,-2.62734,-1.85976,0.304878,-3.9939,-39.6663,0.934058,-3.33866,-19.0244,-9.20732,6.58537
6925.01,20.2105,-5.06995,0,3.41051,8.87115,-2.63692,-2.40854,0.457317,-4.2378,-39.4364,0.943638,-3.48236,-18.3232,-11.2195,6.98171
6925.02,20.1834,-5.0701,0,3.39135,8.85439,-2.5483,-2.89634,0,-4.32927,-39.4556,0.752036,-3.53984,-18.6585,-10.7012,7.86585
6925.03,20.1587,-5.06379,0,3.37937,8.78972,-2.54591,-2.43902,0.884146,-4.29878,-39.5322,0.646655,-3.43446,-16.8902,-11.0061,8.71951
6925.04,20.1339,-5.06166,0,3.39853,8.79212,-2.51956,-2.43902,1.25,-4.57317,-39.4172,0.387993,-3.49194,-17.5305,-10.6402,7.59146
6925.05,20.1077,-5.06683,0,3.34824,8.78493,-2.5004,-2.16463,1.18902,-4.20732,-39.7334,0.311353,-3.64522,-16.5549,-10,6.61585
6925.06,20.073,-5.05843,0,3.31231,8.87594,-2.46687,-1.55488,1.70732,-4.29878,-39.5609,0.502954,-3.39614,-15.7012,-10.4878,5.27439
6925.07,20.0302,-5.0608,0,3.26441,8.92863,-2.62015,-1.79878,1.52439,-4.39024,-39.3502,0.617915,-3.559,-14.5732,-10.0305,7.46951
6925.08,19.9872,-5.07535,0,3.25244,8.89989,-2.5986,-2.40854,0.97561,-4.48171,-39.3502,0.752036,-3.77934,-14.6341,-11.7073,8.65854
6925.09,19.9415,-5.05393,0,3.24046,8.93103,-2.53872,-2.95732,0.426829,-4.57317,-39.4747,0.684976,-3.1758,-14.7256,-13.1707,10.0305
6925.1,19.8917,-5.04647,0,3.23088,8.90229,-2.5507,-3.53659,0.365854,-5.09146,-39.5609,0.761616,-3.4153,-14.6341,-13.8415,9.29878
6925.11,19.8445,-5.04793,0,3.24046,8.90468,-2.43813,-3.68902,-0.670732,-5.03049,-39.6472,0.732876,-3.57816,-15,-14.9085,10.2134
6925.12,19.8035,-5.05227,0,3.29555,8.88313,-2.42376,-3.75,-0.853659,-5.2439,-39.7525,0.790356,-3.64522,-15.2134,-16.4939,11.4329
6925.13,19.7612,-5.05531,0,3.23807,8.90947,-2.39262,-3.47561,-1.12805,-4.66463,-39.5322,0.847837,-3.6069,-16.8598,-17.0122,10.9146
6925.14,19.7205,-5.05641,0,3.26202,8.90947,-2.43334,-3.41463,-0.914634,-4.87805,-39.6472,0.637075,-3.58774,-16.5244,-17.6829,12.8354
6925.15,19.6848,-5.06694,0,3.30513,8.89031,-2.52435,-3.5061,-0.914634,-5.03049,-39.6184,0.531694,-3.76018,-16.0976,-20.0915,14.0244
6925.16,19.6482,-5.06727,0,3.30752,8.87355,-2.53154,-3.59756,-0.792683,-5.30488,-39.7717,0.282612,-3.59732,-16.4634,-18.811,13.2012
6925.17,19.6133,-5.06282,0,3.29794,8.81607,-2.52435,-3.93293,-0.914634,-5.33537,-39.7621,0.349673,-3.5111,-15.122,-18.4451,13.3537
6925.18,19.5791,-5.05891,0,3.29794,8.87355,-2.54591,-4.11585,-1.40244,-5.09146,-39.6567,0.646655,-3.5111,-14.3598,-19.2988,13.5061
6925.19,19.5354,-5.06352,0,3.30034,9.02204,-2.61536,-4.02439,-1.25,-5.51829,-39.5418,1.03944,-3.64522,-14.9695,-18.5366,14.1159
6925.2,19.4805,-5.04758,0,3.24046,9.04838,-2.54591,-4.69512,-1.09756,-5.94512,-39.6663,1.00112,-3.30034,-16.5244,-19.2073,15.4268
6925.21,19.4342,-5.03669,0,3.29315,8.92384,-2.51238,-4.87805,-1.67683,-6.31098,-39.628,0.847837,-3.37698,-17.2561,-19.8476,16.3415
6925.22,19.3951,-5.01933,0,3.35063,8.83283,-2.41178,-4.69512,-1.25,-6.7378,-39.7717,0.914897,-3.2716,-18.4756,-21.0976,17.6524
6925.23,19.3723,-5.01098,0,3.43685,8.74182,-2.36867,-5.15244,-1.21951,-6.55488,-39.5897,1.0107,-3.40572,-19.878,-21.8598,17.439
6925.24,19.3652,-5.00317,0,3.49673,8.66518,-2.3064,-5.09146,-0.97561,-6.06707,-39.5418,1.08734,-3.40572,-17.3476,-22.0122,19.939
6925.25,19.3605,-5.00519,0,3.49433,8.73224,-2.28964,-4.66463,-0.548781,-5.51829,-39.4651,1.02028,-3.56858,-14.878,-22.7439,21.189
6925.26,19.3533,-5.01539,0,3.48475,8.84002,-2.30161,-4.54268,-0.27439,-5.18293,-39.3406,1.0586,-3.7027,-13.7805,-23.0793,19.2988
6925.27,19.3406,-5.00243,0,3.45362,8.90708,-2.39981,-4.32927,0,-5.09146,-39.4843,0.866997,-3.3195,-14.1463,-23.7195,17.9878
6925.28,19.3347,-5.00397,0,3.51349,8.92863,-2.36628,-4.87805,-0.548781,-5.03049,-39.4172,1.11608,-3.559,-14.3902,-23.8415,18.0183
6925.29,19.3446,-4.98719,0,3.63324,8.82804,-2.27287,-5.45732,-1.03659,-5.2439,-39.5035,1.33642,-3.24286,-15.1524,-22.7439,17.5
6925.3,19.3835,-4.95696,0,3.77695,8.63644,-2.16749,-4.90854,-0.884146,-4.90854,-39.4651,1.31726,-2.99377,-15.7927,-23.1098,17.9268
6925.31,19.4527,-4.91249,0,3.94939,8.61489,-2.15791,-4.2378,0.121951,-4.05488,-39.4172,1.31726,-2.72553,-16.8598,-24.5427,17.5
6925.32,19.5737,-4.89515,0,4.15775,8.55501,-2.14594,-3.68902,0.121951,-2.71341,-39.6376,1.2502,-3.18538,-15.6402,-24.2378,18.8415
6925.33,19.9126,-4.87857,0,4.46911,8.43765,-2.03816,-4.26829,-0.121951,-0.670732,-39.3598,1.48012,-3.16622,-13.3232,-24.7561,18.9634
6925.34,20.1891,-4.84656,0,4.77806,8.18857,-2.03098,-4.87805,-0.518293,2.28659,-39.1586,1.80584,-2.87881,-9.26829,-27.1646,21.2805
6925.35,20.4865,-4.81961,0,5.03194,7.97781,-1.9232,-5.73171,-0.701219,5.51829,-39.0723,1.59508,-2.94587,-4.48171,-29.4512,20.8841
6925.36,20.8586,-4.80548,0,5.26665,7.6928,-1.94955,-5.09146,0.0914634,9.57317,-38.5646,1.37474,-3.10874,0.182927,-29.4512,20.2439
6925.37,21.265,-4.77641,0,5.28102,7.71436,-1.70286,-5.27439,0.518293,13.8415,-38.373,1.346,-2.83091,4.26829,-29.878,16.9817
6925.38,21.6628,-4.75135,0,5.06307,7.9323,-1.6837,-4.90854,2.43902,17.561,-38.3922,1.87291,-2.87881,8.68902,-29.2378,13.7195
6925.39,22.0421,-4.7109,0,4.77567,8.02571,-1.71962,-1.76829,3.44512,20.1524,-38.6987,2.10283,-2.62015,10.4268,-28.9939,9.66463
6925.4,22.4128,-4.67153,0,4.6631,8.27479,-1.94476,0.762195,3.78049,22.8049,-38.7179,2.51477,-2.61057,13.0488,-28.4146,6.28049
6925.41,22.781,-4.63379,0,4.64394,8.51669,-2.16989,-0.518293,4.7561,24.939,-38.8233,2.75427,-2.62015,13.3537,-28.811,3.2622
6925.42,23.1525,-4.57055,0,4.73735,8.66758,-2.27527,-3.35366,6.4939,25.9146,-39.1107,3.03209,-2.17947,11.8293,-30.8232,3.87195
6925.43,23.5451,-4.52402,0,4.89063,8.80888,-2.25371,-6.09756,7.04268,28.0488,-39.3598,2.93629,-2.44771,10.2744,-32.9268,2.43902
6925.44,23.9452,-4.49027,0,5.06068,8.92624,-2.19144,-7.53049,8.38415,28.5671,-39.2352,3.00335,-2.63931,9.39024,-35.7012,2.13415
6925.45,24.3547,-4.481,0,5.10858,8.85678,-2.28245,-7.71341,10.4268,29.4817,-39.3502,2.88839,-3.05125,10.2134,-35.9146,3.59756
6925.46,24.7758,-4.48308,0,5.19959,8.88552,-2.34233,-6.7378,13.2927,30.7622,-39.5418,3.14706,-3.26202,12.8963,-36.8598,4.87805
6925.47,25.2255,-4.47769,0,5.4798,8.92145,-2.57704,-6.4939,17.1951,32.0427,-39.7525,2.94587,-3.15664,17.4695,-39.0549,7.9878
6925.48,25.6955,-4.50557,0,5.69057,9.02443,-2.57225,-7.56098,19.7866,33.6585,-39.9346,2.51477,-3.76018,22.4085,-39.878,10.3659
6925.49,26.199,-4.55336,0,5.80553,8.87355,-2.36867,-8.56707,21.6768,36.0671,-40.0878,2.11241,-4.14338,28.6585,-38.0793,12.8049
6925.5,26.741,-4.60004,0,6.03545,8.69153,-2.15791,-8.20122,24.2378,37.8049,-40.289,1.70046,-4.16254,32.8963,-33.6585,11.2195
6925.51,27.2969,-4.63724,0,6.03305,8.57417,-1.87051,-6.52439,27.439,39.6037,-40.0208,2.01661,-3.9901,37.2256,-31.128,9.96951
6925.52,27.84,-4.68155,0,5.89893,8.658,-1.61903,-3.29268,32.1037,41.189,-39.6567,2.43813,-4.09548,39.0244,-28.3232,7.43902
6925.53,28.3578,-4.72864,0,5.51573,8.68674,-1.57353,-0.0304878,36.5549,43.5061,-39.4651,3.06083,-4.15296,40.2439,-27.561,8.96341
6925.54,28.8154,-4.78323,0,5.05828,8.87594,-1.70765,3.96341,37.0732,43.9939,-39.4556,3.62606,-4.31582,38.0793,-27.3171,8.62805
6925.55,29.2264,-4.80204,0,4.57928,8.86636,-1.74118,4.93902,37.7744,45,-39.8388,4.00926,-3.76018,35.7317,-27.0122,10.0305
6925.56,29.5824,-4.82723,0,4.06195,8.91426,-1.80105,7.62195,37.7744,45.9756,-40.1166,4.02842,-3.92304,33.7195,-29.7561,11.0366
6925.57,29.9024,-4.85639,0,3.9446,9.26154,-1.88249,10.7317,36.5244,45.9451,-40.5573,4.01884,-4.06674,31.0976,-32.7744,13.2927
6925.58,30.1586,-4.87238,0,3.54223,9.31902,-1.82021,14.1768,33.628,44.6951,-41.1512,3.7506,-3.91346,28.3841,-34.8171,15.122
6925.59,30.3725,-4.85051,0,3.37219,9.44117,-1.5879,18.2927,26.7683,43.2622,-41.362,3.76976,-3.26202,26.4634,-38.2317,16.6768
6925.6,30.5972,-4.83091,0,3.57097,9.35016,-1.36277,20.4878,18.0793,42.2561,-41.18,3.37698,-3.28118,24.9085,-40.4268,17.8659
6925.61,30.8816,-4.83079,0,4.14817,9.29986,-1.41546,19.7256,11.9512,42.4085,-40.5381,2.98419,-3.56858,24.7866,-40.9756,20.0915
6925.62,31.2177,-4.85864,0,4.67987,9.16334,-1.64777,18.1707,9.05488,42.1037,-39.7621,2.73511,-3.9901,24.6646,-39.6951,20.4268
6925.63,31.5932,-4.87728,0,5.17085,9.02443,-1.85375,15.8841,9.32927,41.189,-39.0149,2.70637,-3.76976,26.6463,-38.3232,21.8293
6925.64,31.9889,-4.87529,0,5.46064,8.81607,-2.04295,11.8293,12.3171,40,-38.8424,2.91713,-3.40572,26.6159,-37.1646,23.0793
6925.65,32.4054,-4.88686,0,5.74326,8.65321,-2.04774,7.37805,14.939,39.2683,-38.8233,3.21412,-3.63564,27.4085,-36.8293,23.1098
6925.66,32.8215,-4.8858,0,5.76002,8.43047,-1.89207,2.62195,15.7012,38.5061,-39.0532,3.15664,-3.44404,27.3171,-36.311,23.2317
6925.67,33.2572,-4.8902,0,5.85103,8.1263,-1.74118,0.518293,19.3598,38.4756,-39.1586,3.34824,-3.54942,26.1585,-36.8293,21.7988
6925.68,33.6829,-4.88034,0,5.78637,8.07361,-1.45138,2.95732,24.878,38.5976,-38.8041,3.53984,-3.28118,24.878,-38.811,20.9451
6925.69,34.0703,-4.88581,0,5.66183,8.20534,-1.25739,6.55488,28.689,37.6524,-39.0436,3.7506,-3.56858,24.0549,-41.2195,21.0366
6925.7,34.4587,-4.86886,0,5.82948,8.18618,-1.41546,7.40854,32.3476,36.7988,-39.2927,3.44404,-3.21412,23.0488,-44.1159,21.6159
6925.71,34.8581,-4.85596,0,5.94444,7.97542,-1.36756,6.21951,33.4146,36.189,-39.2927,3.13748,-3.28118,21.372,-46.5854,19.7256
6925.72,35.277,-4.83763,0,5.85822,7.69999,-1.2981,4.35976,30.4878,37.8354,-38.9191,3.11832,-3.15664,21.9207,-49.2683,18.1402
6925.73,35.7418,-4.81047,0,5.91091,7.39582,-1.16637,5.94512,28.8415,40.5793,-38.3059,3.08,-2.94587,23.0793,-49.6341,16.189
6925.74,36.2059,-4.78521,0,5.9612,7.47965,-0.989143,7.9878,30.3049,41.6159,-38.0185,3.20454,-2.93629,21.7073,-49.2683,15.0915
6925.75,36.6358,-4.7624,0,6.04024,7.60419,-1.00112,9.11585,32.7744,39.2683,-37.6832,3.59732,-2.93629,21.0061,-49.7561,13.2317
6925.76,37.0138,-4.7424,0,6.08095,7.75507,-1.12566,9.54268,36.3415,35.5793,-37.9227,3.45362,-2.98419,19.1768,-48.9024,12.378
6925.77,37.3583,-4.74015,0,6.05461,7.60179,-1.45857,8.96341,37.8354,32.0427,-38.0664,3.50152,-3.2716,14.7866,-45.8232,11.25
6925.78,37.6928,-4.75226,0,6.06419,7.30481,-1.90644,8.96341,37.2256,29.3598,-38.2293,3.74102,-3.52068,12.8659,-43.5671,8.23171
6925.79,38.0441,-4.77091,0,6.16478,6.95753,-2.05014,9.20732,39.2073,27.9878,-38.4496,4.17212,-3.6548,8.47561,-41.7683,7.86585
6925.8,38.4019,-4.81283,0,6.00431,6.54798,-1.65496,10.7317,38.75,27.378,-38.6125,4.14338,-4.07632,4.54268,-39.7866,7.68293
6925.81,38.7754,-4.84315,0,6.09053,6.61265,-0.998723,13.5976,33.5366,29.4512,-38.6317,4.36373,-3.90388,-0.701219,-38.75,5.82317
6925.82,39.1432,-4.85555,0,6.3013,6.95035,-0.57241,13.6585,30.9756,30.5488,-38.6317,4.41163,-3.61648,-6.06707,-38.75,5.60976
6925.83,39.5187,-4.87417,0,6.4929,6.93119,-0.785566,11.4024,32.7439,30.1829,-38.7179,4.63197,-3.73144,-13.8415,-36.2195,5.7622
6925.84,39.8828,-4.87237,0,6.31806,6.67492,-1.29092,11.4939,35.5183,29.1768,-38.7275,4.56491,-3.38656,-21.7988,-34.0854,3.90244
6925.85,40.2136,-4.88295,0,5.82469,6.52643,-1.46575,11.3415,33.0183,29.939,-38.4688,4.93853,-3.56858,-29.878,-32.4085,3.17073
6925.86,40.4952,-4.88401,0,5.59716,6.74198,-1.1065,7.53049,24.1463,29.7866,-38.3538,5.05349,-3.39614,-36.8293,-30.3963,2.46951
6925.87,40.7577,-4.89359,0,5.64746,6.97909,-0.59157,1.0061,16.6159,29.878,-38.67,5.17803,-3.56858,-44.6951,-29.6341,-0.0304878
6925.88,41.0255,-4.91516,0,5.6738,6.61983,-0.464634,-2.43902,13.4146,27.6524,-38.6604,5.10139,-3.77934,-52.9878,-29.2988,-2.80488
6925.89,41.2973,-4.98521,0,5.59477,6.23184,-0.795146,-1.52439,10.3963,25.9146,-38.555,4.80441,-4.61281,-58.5976,-27.9878,-6.64634
6925.9,41.572,-5.06766,0,5.58758,5.97797,-1.08015,1.79878,10.2744,24.4207,-37.9898,4.56491,-4.79483,-64.0854,-25.4878,-10.3354
6925.91,41.8166,-5.15443,0,5.39837,5.9612,-1.28373,6.0061,6.79878,23.75,-37.9036,4.54575,-4.90021,-67.3781,-21.7378,-12.622
6925.92,41.9817,-5.23864,0,5.52291,6.68689,-1.24541,5.33537,4.05488,21.4634,-37.6162,4.11464,-4.86189,-70.7622,-16.9207,-13.5671
6925.93,42.0931,-5.30867,0,5.7696,7.26888,-1.01549,-0.152439,0.0609756,18.5976,-38.009,3.74102,-4.71819,-75.7927,-13.9634,-15.1524
6925.94,42.1687,-5.39137,0,5.83427,6.93837,-1.02267,-4.20732,-4.72561,11.8598,-38.2197,3.59732,-5.00559,-80.7317,-12.9878,-15.7012
6925.95,42.2365,-5.4967,0,5.62351,6.19831,-1.0083,-4.60366,-10.2134,6.82927,-38.3059,3.59732,-5.45585,-85.2134,-11.0976,-16.7683
6925.96,42.3205,-5.58502,0,5.63309,5.81271,-1.13763,-6.31098,-10.6707,3.20122,-38.4592,3.74102,-5.25467,-87.6829,-10.7012,-16.7378
6925.97,42.5367,-5.66427,0,6.09532,5.68338,-0.996328,-7.95732,-3.04878,2.0122,-38.1527,3.98052,-5.12055,-88.6281,-11.7073,-16.7378
6925.98,42.9822,-5.75391,0,6.51445,5.72889,-0.742456,-6.09756,3.81098,0.853659,-38.2197,3.97094,-5.36005,-90.0305,-11.1585,-14.3902
6925.99,43.1819,-5.81954,0,7.22577,5.9133,-0.661025,-2.43902,6.12805,-2.0122,-38.5071,3.7506,-5.05349,-91.5244,-13.2317,-16.189
6926,43.3215,-5.90071,0,7.60658,5.88935,-0.862207,1.09756,7.89634,-4.66463,-39.1298,3.8943,-5.45585,-93.3841,-13.75,-16.7378
6926.01,43.4394,-5.96277,0,7.44372,5.82708,-0.986748,2.13415,10.3049,-5.73171,-39.513,4.01884,-5.22593,-95.6402,-13.3841,-16.9817
6926.02,43.5363,-6.01005,0,7.04615,5.81511,-0.694556,3.81098,10.122,-4.87805,-39.8196,4.06674,-5.04391,-98.5366,-12.6524,-19.2073
6926.03,43.6008,-6.07113,0,6.89526,6.02826,-0.687371,7.2561,7.16463,-4.63415,-39.992,4.02842,-5.34089,-101.433,-10.9451,-21.5854
6926.04,43.6184,-6.09301,0,6.924,6.28214,-0.831072,10,8.29268,-6.76829,-39.7621,2.40939,-4.65113,-97.6524,-9.72561,-22.9268
6926.05,43.5986,-6.28472,0,6.77791,6.3492,-1.12805,12.2256,6.52439,-8.65854,-39.0723,4.22002,-7.56347,-97.3171,-4.32927,-22.7134
6926.06,43.5393,-6.44507,0,6.80904,6.44979,-1.34121,11.0976,3.5061,-12.0732,-40.2124,4.14338,-7.35271,-94.3598,-5.64024,-21.8598
6926.07,43.5336,-6.59523,0,6.89287,5.6762,-1.19511,14.0854,2.34756,-14.8476,-40.9596,3.24286,-7.42935,-87.3171,-8.84146,-20.6402
6926.08,43.4288,-6.75842,0,6.67971,6.35638,-1.53521,9.5122,-2.65244,-16.5854,-41.4386,2.68721,-7.87961,-79.9085,-10.122,-20.8841
6926.09,43.368,-6.93196,0,6.65336,5.61393,-1.31008,10.8841,0.243902,-19.2988,-41.0267,2.51477,-8.11912,-74.6646,-10.7927,-20.6402
6926.1,43.2747,-7.11318,0,6.30369,5.37203,-1.152,27.6829,-0.426829,-22.1646,-40.7105,3.53984,-8.31072,-73.3841,-5.97561,-14.3293
6926.11,43.016,-7.26609,0,5.78876,6.03305,-1.45138,32.4085,1.7378,-27.5,-40.4423,4.64155,-7.84129,-74.6341,0.335366,-6.79878
6926.12,42.5788,-7.40964,0,4.48827,5.9133,-1.68849,30.7622,-6.67683,-32.7439,-40.6914,4.90021,-7.81255,-77.8049,4.60366,0.335366
6926.13,42.0354,-7.57079,0,3.65959,5.58279,-1.70046,37.4085,-22.3171,-36.4024,-40.8063,4.14338,-8.24366,-82.5915,11.7073,3.87195
6926.14,41.3582,-7.7158,0,3.38177,6.70605,-1.35798,43.5366,-28.1402,-37.9268,-41.6877,3.4153,-8.21492,-83.811,17.1646,2.59146
6926.15,40.5376,-7.79953,0,3.17101,8.47597,-1.19032,42.4085,-36.189,-41.189,-42.8756,2.97461,-7.37187,-79.6646,15,3.10976
6926.16,39.6739,-7.80438,0,3.57097,9.94891,-0.907712,34.7561,-46.8902,-45.7012,-43.7283,1.87291,-6.04982,-72.9573,9.14634,4.05488
