time,angle1,angle2,intgangle,accX1,accY1,accZ1,gyroX1,gyroY1,gyroZ1,accX2,accY2,accZ2,gyroX2,gyroY2,gyroZ2
6627.3,96.9913,-3.5845,0,9.62798,-1.26697,1.80824,-0.731707,0.182927,-1.4939,-9.91778,-0.107776,-0.641865,0.640244,0.0304878,6.58537
6627.31,96.9933,-3.60127,0,9.6663,-1.28373,1.83219,-0.701219,-0.243902,-1.46341,-9.88425,-0.0910107,-0.65384,0.823171,0.487805,6.21951
6627.32,96.9948,-3.60872,0,9.63995,-1.27655,1.81542,-0.579268,-0.213415,-1.46341,-9.91778,-0.0646655,-0.641865,0.97561,0.792683,6.18902
6627.33,96.9932,-3.58913,0,9.64235,-1.27415,1.88249,-0.579268,-0.396341,-1.64634,-9.93454,-0.0646655,-0.58199,1.06707,0.579268,6.12805
6627.34,96.9921,-3.57779,0,9.65672,-1.27655,1.81782,-0.640244,-0.396341,-1.61585,-9.94412,-0.0670605,-0.59636,0.335366,0.670732,6.21951
6627.35,96.9978,-3.6121,0,9.69983,-1.31008,1.89925,-0.548781,-0.0914634,-1.43293,-9.92975,-0.0622705,-0.706531,0.365854,0.823171,5.88415
6627.36,97.0041,-3.61886,0,9.69025,-1.3005,1.85135,-0.640244,0.121951,-1.31098,-9.9537,-0.0646655,-0.64426,0.335366,0.731707,6.06707
6627.37,97.0084,-3.62765,0,9.67109,-1.31247,1.82261,-0.518293,0.213415,-1.58537,-9.93933,-0.0694556,-0.64905,0.243902,0.701219,6.37195
6627.38,97.0142,-3.62164,0,9.64953,-1.31247,1.80105,-0.213415,-0.0609756,-1.52439,-9.92496,-0.0598755,-0.61552,-0.0609756,0.548781,6.37195
6627.39,97.0159,-3.67491,0,9.69025,-1.3005,1.7795,0.365854,-0.731707,-1.58537,-9.91778,-0.100591,-0.720901,0.243902,0.121951,6.79878
6627.4,97.0136,-3.68299,0,9.65672,-1.28613,1.75076,0.182927,-1.06707,-1.76829,-9.91778,-0.112566,-0.65384,0.426829,0.487805,7.2561
6627.41,97.0078,-3.70689,0,9.67109,-1.26457,1.79626,0.121951,-0.609756,-1.76829,-9.92017,-0.0790356,-0.696951,0.426829,0.792683,7.07317
6627.42,97.0049,-3.70587,0,9.63995,-1.2502,1.79866,-0.304878,0.0914634,-1.43293,-9.91778,-0.0958008,-0.63947,0.335366,0.731707,7.31707
6627.43,97.0125,-3.69848,0,9.62319,-1.3005,1.79626,-0.152439,0.762195,-1.34146,-9.93694,-0.0934058,-0.622705,0.304878,1.0061,6.76829
6627.44,97.0134,-3.70421,0,9.65432,-1.27415,1.90644,0.0914634,1.03659,-1.40244,-9.96328,-0.0934058,-0.65863,0.396341,0.945122,6.55488
6627.45,97.0174,-3.7179,0,9.67348,-1.29571,1.92799,-0.152439,0.426829,-1.40244,-9.96807,-0.0814307,-0.684976,0.27439,1.21951,6.79878
6627.46,97.0217,-3.72293,0,9.67348,-1.3005,1.86333,-0.213415,-0.0914634,-1.43293,-9.92975,-0.0958008,-0.65863,0.365854,1.15854,6.89024
6627.47,97.0208,-3.73941,0,9.63277,-1.27415,1.89207,-0.182927,-0.213415,-1.55488,-9.90101,-0.0526904,-0.692161,0.335366,1.31098,6.85976
6627.48,97.0095,-3.729,0,9.62798,-1.24302,1.87291,-0.518293,-0.0304878,-2.0122,-9.89622,-0.0790356,-0.617915,0.0914634,1.03659,6.95122
6627.49,97.0075,-3.72471,0,9.64953,-1.25739,1.89925,-0.396341,0.548781,-1.43293,-9.91538,-0.0574805,-0.632285,0.0609756,1.31098,7.10366
6627.5,97.0047,-3.73009,0,9.64953,-1.25499,1.86333,-0.609756,0.609756,-1.46341,-9.93694,-0.0574805,-0.66342,-0.182927,1.67683,7.28659
6627.51,97.0132,-3.75197,0,9.65911,-1.29571,1.90644,-0.182927,0.853659,-1.15854,-9.93454,-0.0550855,-0.716111,0,1.4939,7.34756
6627.52,97.0186,-3.74496,0,9.64953,-1.26457,1.86572,-0.243902,0.457317,-1.0061,-9.97286,-0.0383203,-0.62989,-0.0304878,1.52439,7.07317
6627.53,97.0164,-3.76058,0,9.66151,-1.25499,1.81542,0.27439,0.27439,-1.37195,-9.96568,-0.0694556,-0.699346,0.0609756,1.34146,7.2561
6627.54,97.0163,-3.77024,0,9.64953,-1.25978,1.84656,0.152439,-0.121951,-1.31098,-9.92736,-0.0694556,-0.680186,0.182927,1.28049,7.04268
6627.55,97.0226,-3.76381,0,9.67827,-1.29092,1.8753,-0.0914634,-0.0609756,-1.18902,-9.95849,-0.0215552,-0.637075,0.579268,1.09756,7.34756
6627.56,97.0228,-3.75113,0,9.71659,-1.26697,1.98068,-0.213415,0.640244,-1.21951,-9.92017,-0.0526904,-0.613125,0.457317,1.34146,7.2561
6627.57,97.0362,-3.74804,0,9.73096,-1.32684,1.97589,-0.426829,1.82927,-1.03659,-9.89862,-0.0311353,-0.637075,0.518293,1.76829,7.43902
6627.58,97.0497,-3.75497,0,9.7597,-1.31966,1.88728,0.0914634,2.46951,-0.884146,-9.88904,0.00718506,-0.670605,0.365854,2.0122,7.56098
6627.59,97.0612,-3.7542,0,9.74294,-1.31008,1.79387,0.396341,1.67683,-0.914634,-9.88425,-0.00239502,-0.64426,0.0609756,2.0122,7.59146
6627.6,97.0579,-3.75208,0,9.6639,-1.23583,1.76273,0.457317,0.548781,-1.09756,-9.92017,-0.00479004,-0.641865,-0.335366,1.92073,7.71341
6627.61,97.0622,-3.75272,0,9.59445,-1.26218,1.72681,0.0304878,0.0914634,-1.06707,-9.92257,-0.0383203,-0.651445,-0.579268,1.55488,7.56098
6627.62,97.079,-3.76564,0,9.52739,-1.3005,1.90165,-0.426829,0.97561,-0.914634,-9.94652,-0.0263452,-0.689766,-0.670732,1.25,7.86585
6627.63,97.1072,-3.7683,0,9.57529,-1.38432,1.99745,-0.213415,1.82927,-1.03659,-9.92017,-0.0167651,-0.65863,-1.09756,0.701219,7.7439
6627.64,97.1407,-3.76797,0,9.63756,-1.42983,1.87291,0.853659,1.67683,-1.03659,-9.87946,-0.0215552,-0.64905,-0.884146,0.945122,7.9878
6627.65,97.1465,-3.79442,0,9.68067,-1.34361,1.75555,1.82927,0.335366,-1.55488,-9.89383,-0.0502954,-0.730481,-1.06707,1.37195,8.07927
6627.66,97.147,-3.8097,0,9.65193,-1.29571,1.69088,2.0122,-0.792683,-1.43293,-9.86748,-0.0622705,-0.701741,-0.97561,1.58537,8.41463
6627.67,97.1348,-3.83974,0,9.61121,-1.21906,1.77471,1.55488,-1.18902,-1.4939,-9.89143,-0.0981958,-0.761616,-1.03659,1.92073,8.10976
6627.68,97.134,-3.85948,0,9.60403,-1.26218,1.825,0.579268,-0.365854,-1.21951,-9.91299,-0.129331,-0.737666,-0.670732,2.34756,8.47561
6627.69,97.1333,-3.87027,0,9.65193,-1.2526,1.93757,0.579268,0.518293,-0.97561,-9.92257,-0.0981958,-0.708926,-0.670732,2.53049,8.47561
6627.7,97.1415,-3.89136,0,9.74054,-1.29092,1.97829,0.914634,0.823171,-0.701219,-9.94173,-0.129331,-0.754431,-0.487805,2.80488,8.44512
6627.71,97.1481,-3.91543,0,9.8076,-1.27894,1.8753,1.40244,0.487805,-0.487805,-9.94412,-0.110171,-0.773591,-0.548781,3.32317,8.56707
6627.72,97.1471,-3.9412,0,9.84114,-1.24781,1.85854,1.43293,-0.182927,-0.426829,-9.94412,-0.114961,-0.783171,-0.304878,3.04878,8.59756
6627.73,97.1518,-3.96451,0,9.80281,-1.25978,1.75794,1.52439,-0.945122,-0.304878,-9.97526,-0.102986,-0.780776,-0.182927,3.14024,8.35366
6627.74,97.1682,-3.98211,0,9.74533,-1.29331,1.83698,1.15854,-0.670732,-0.243902,-9.98723,-0.0622705,-0.761616,-0.335366,2.9878,8.2622
6627.75,97.185,-4.00868,0,9.75491,-1.29331,1.94955,0.457317,0.182927,-0.152439,-10.0399,0.0167651,-0.804727,-0.396341,2.80488,8.32317
6627.76,97.2102,-4.04791,0,9.84593,-1.33163,2.02619,0.0304878,1.21951,0,-10.0471,0.0550855,-0.862207,-0.701219,2.83537,8.35366
6627.77,97.221,-4.07407,0,9.88664,-1.28373,1.96152,-0.0304878,1.89024,0.335366,-10.0112,0.100591,-0.809517,-0.945122,2.53049,8.38415
6627.78,97.2346,-4.12999,0,9.89622,-1.29092,1.81063,1.18902,1.31098,0.640244,-10.0399,0.122146,-0.931663,-0.884146,2.37805,8.47561
6627.79,97.2456,-4.20758,0,9.87946,-1.27894,1.68849,2.16463,-0.0304878,0.609756,-10.0375,0.122146,-1.01549,-0.792683,2.10366,8.38415
6627.8,97.2371,-4.25127,0,9.8603,-1.18793,1.67412,2.31707,-0.853659,0.579268,-10.0663,0.0359253,-0.883762,-0.609756,1.43293,7.89634
6627.81,97.2356,-4.25519,0,9.84593,-1.18314,1.61185,1.92073,-1.12805,1.06707,-10.1237,0.0479004,-0.761616,-0.396341,0.487805,7.92683
6627.82,97.247,-4.30506,0,9.88185,-1.26218,1.68609,1.76829,-0.609756,1.03659,-10.1142,0.0407153,-0.847837,-0.396341,-0.0304878,7.7439
6627.83,97.268,-4.39409,0,9.79803,-1.3005,1.76513,2.16463,0.243902,1.21951,-10.0519,0.00958008,-0.929268,0.121951,0.121951,8.07927
6627.84,97.3018,-4.4813,0,9.78605,-1.37953,1.73639,2.92683,1.70732,1.03659,-10.0208,-0.0886157,-0.993933,0.365854,0.731707,8.38415
6627.85,97.3437,-4.55787,0,9.65432,-1.40348,1.76992,2.95732,2.95732,0.97561,-10.0064,-0.0910107,-0.989143,1.18902,0.853659,8.38415
6627.86,97.388,-4.56399,0,9.47949,-1.38672,1.88249,2.86585,3.04878,1.0061,-9.98963,-0.136516,-0.809517,0.884146,0.457317,8.35366
6627.87,97.4451,-4.47872,0,9.24717,-1.3963,2.04295,2.04268,2.53049,0.914634,-10.0256,-0.100591,-0.63468,0.396341,-0.182927,8.14024
6627.88,97.5503,-4.45573,0,9.01006,-1.42025,2.08846,0.579268,0.670732,-0.213415,-9.99681,-0.0263452,-0.728086,-0.121951,-0.640244,8.01829
6627.89,97.6179,-4.48236,0,8.92145,-1.49928,2.10522,-0.0304878,-0.27439,-1.21951,-9.93933,0.0838257,-0.843047,-0.731707,-0.823171,7.89634
6627.9,97.6939,-4.62313,0,8.89271,-1.56155,2.09804,-0.0304878,0.152439,-1.34146,-9.84832,0.150886,-1.02028,-1.18902,0.182927,7.65244
6627.91,97.728,-4.67668,0,9.06036,-1.4897,2.0693,-0.0304878,0.0609756,-1.70732,-9.84114,0.193997,-0.890947,-0.945122,-0.213415,7.83537
6627.92,97.7301,-4.64518,0,9.35016,-1.36995,1.93997,0.27439,-1.28049,-1.61585,-9.93215,0.210762,-0.706531,-1.40244,-1.76829,7.56098
6627.93,97.7075,-4.59939,0,9.63516,-1.28134,1.9232,0.670732,-3.14024,-1.92073,-10.0112,0.146096,-0.6251,-1.31098,-3.23171,7.2561
6627.94,97.6768,-4.51587,0,9.75012,-1.27176,1.82021,1.31098,-2.68293,-2.5,-9.99442,0.0287402,-0.443079,-1.79878,-4.96951,7.04268
6627.95,97.6402,-4.43551,0,9.69025,-1.25978,1.79147,1.55488,-0.97561,-3.14024,-9.99681,-0.0838257,-0.440684,-1.58537,-6.09756,7.10366
6627.96,97.5951,-4.36044,0,9.46991,-1.23583,1.85375,0,1.0061,-4.17683,-9.89622,-0.174836,-0.445474,-0.945122,-6.79878,7.62195
6627.97,97.5462,-4.32038,0,9.19209,-1.21427,1.99984,-0.97561,4.05488,-4.84756,-9.7621,-0.215552,-0.5772,-0.0914634,-5.67073,8.10976
6627.98,97.5024,-4.32342,0,9.03641,-1.27655,2.05972,-2.07317,7.04268,-5.4878,-9.61361,-0.174836,-0.742456,1.06707,-4.29878,8.29268
6627.99,97.4635,-4.33537,0,8.97174,-1.31008,2.00942,-2.28659,7.31707,-5.64024,-9.63277,-0.0455054,-0.775986,1.92073,-2.89634,8.62805
6628,97.4169,-4.33738,0,9.00048,-1.3005,2.01182,-1.79878,5.09146,-6.31098,-9.67348,0.102986,-0.742456,2.68293,-2.34756,8.87195
6628.01,97.3783,-4.30031,0,9.2831,-1.42743,1.95194,-1.21951,0.121951,-6.64634,-9.93454,0.222737,-0.613125,2.71341,-2.46951,8.47561
6628.02,97.3422,-4.24723,0,9.7118,-1.48731,1.87291,-0.548781,-4.14634,-6.40244,-10.083,0.294587,-0.548459,2.40854,-2.53049,7.92683
6628.03,97.2991,-4.1563,0,10.107,-1.41067,1.80824,0.365854,-6.46341,-5.64024,-10.1429,0.342488,-0.366438,1.06707,-3.41463,7.34756
6628.04,97.2466,-4.09508,0,10.4183,-1.30529,1.75555,0.945122,-5.57927,-5.03049,-10.1142,0.411943,-0.471819,-0.670732,-3.96341,7.34756
6628.05,97.1943,-4.06423,0,10.4854,-1.18074,1.82261,1.4939,-2.16463,-3.62805,-10.0711,0.366438,-0.59157,-1.70732,-3.71951,7.31707
6628.06,97.1405,-4.06033,0,10.4016,-1.09452,1.92799,0.914634,1.55488,-2.95732,-9.96328,0.201182,-0.694556,-2.19512,-3.23171,7.28659
6628.07,97.0954,-4.05306,0,10.1693,-1.08973,1.9232,0.457317,3.90244,-2.28659,-9.9537,0.0814307,-0.680186,-2.22561,-2.65244,7.04268
6628.08,97.0556,-4.05808,0,9.81719,-1.07297,1.94955,0.487805,4.63415,-1.92073,-9.98723,-0.0119751,-0.730481,-1.95122,-2.86585,7.22561
6628.09,97.024,-4.06528,0,9.51781,-1.10171,1.98547,0.304878,2.71341,-2.07317,-10.0519,-0.0431104,-0.744851,-1.31098,-2.77439,6.70732
6628.1,96.9993,-4.05435,0,9.35016,-1.13045,1.98068,0.304878,0.853659,-2.19512,-10.107,-0.0359253,-0.675395,-0.914634,-2.95732,6.79878
6628.11,96.9784,-4.03721,0,9.33339,-1.13763,1.99266,0.304878,-0.823171,-2.0122,-10.0902,-0.00718506,-0.646655,-0.762195,-2.95732,6.55488
6628.12,96.9698,-4.00796,0,9.38608,-1.2023,2.00224,0.0609756,-1.40244,-1.79878,-10.0806,0.0383203,-0.59157,-0.335366,-3.14024,6.89024
6628.13,96.9673,-3.97831,0,9.50104,-1.23344,2.03337,-0.152439,-1.79878,-1.52439,-9.98963,0.0694556,-0.5772,-0.518293,-3.68902,6.95122
6628.14,96.961,-3.95598,0,9.63995,-1.22625,2.07409,-0.213415,-2.13415,-1.46341,-9.91059,0.100591,-0.598755,-0.396341,-3.62805,6.76829
6628.15,96.9554,-3.9279,0,9.73575,-1.24541,1.98547,-0.304878,-2.10366,-1.4939,-9.85072,0.0838257,-0.570015,-0.762195,-3.23171,6.4939
6628.16,96.9527,-3.91543,0,9.79803,-1.26936,2.01182,-0.335366,-1.40244,-1.46341,-9.82916,0.0742456,-0.627495,-0.548781,-3.10976,6.12805
6628.17,96.9481,-3.92294,0,9.86748,-1.27655,1.99026,-0.579268,-0.914634,-1.58537,-9.81,0.0431104,-0.701741,-0.457317,-2.5,5.54878
6628.18,96.9376,-3.91812,0,9.83635,-1.24781,2.00224,-0.853659,-0.365854,-1.79878,-9.83874,0.0910107,-0.65863,0.121951,-2.5,5.51829
6628.19,96.9317,-3.91212,0,9.77168,-1.27655,1.88009,-1.09756,-0.731707,-1.89024,-9.88425,0.100591,-0.656235,0.0304878,-2.5,5.30488
6628.2,96.9346,-3.90713,0,9.73815,-1.31966,1.85614,-1.43293,-0.487805,-1.76829,-9.86509,0.0766406,-0.65863,0.243902,-2.10366,5.2439
6628.21,96.9391,-3.91663,0,9.63995,-1.30529,1.83938,-1.52439,-0.213415,-1.67683,-9.92736,0.0502954,-0.713716,0.365854,-2.0122,5.51829
6628.22,96.9479,-3.91626,0,9.61361,-1.31008,1.89446,-1.4939,-0.365854,-1.4939,-9.92975,0.0191602,-0.680186,0.548781,-1.89024,5.42683
6628.23,96.962,-3.92236,0,9.56092,-1.30768,1.89207,-1.06707,-0.213415,-1.25,-9.97047,-0.0167651,-0.706531,0.97561,-2.04268,5.45732
6628.24,96.9701,-3.92427,0,9.54176,-1.27415,1.8777,-1.52439,-0.365854,-1.25,-10.0208,-0.00239502,-0.696951,1.0061,-2.62195,5.30488
6628.25,96.9765,-3.91888,0,9.51781,-1.27894,1.93757,-1.52439,-0.884146,-1.43293,-10.1022,0.0407153,-0.673001,1.58537,-3.32317,5.15244
6628.26,96.977,-3.93102,0,9.55134,-1.28134,1.99745,-1.25,-1.0061,-1.76829,-10.1429,0.126936,-0.749641,1.58537,-3.29268,4.63415
6628.27,96.9738,-3.93501,0,9.57768,-1.28613,1.97829,-1.25,-0.914634,-2.04268,-10.1309,0.174836,-0.716111,2.0122,-3.32317,4.54268
6628.28,96.9767,-3.92425,0,9.59684,-1.27894,2.00463,-1.0061,-0.914634,-1.4939,-10.0998,0.186812,-0.651445,1.79878,-3.87195,4.05488
6628.29,96.9677,-3.91922,0,9.69264,-1.21188,1.98787,-0.853659,-1.46341,-1.37195,-10.0782,0.126936,-0.673001,1.67683,-4.11585,3.75
6628.3,96.9666,-3.91096,0,9.70701,-1.24302,1.90883,-1.34146,-2.0122,-1.15854,-10.0471,0.143701,-0.656235,1.25,-4.7561,3.35366
6628.31,96.9682,-3.91142,0,9.70222,-1.24541,1.86572,-1.15854,-2.40854,-1.0061,-10.0303,0.0862207,-0.692161,1.28049,-5.09146,3.04878
6628.32,96.9756,-3.88871,0,9.69264,-1.26218,1.8753,-1.31098,-2.77439,-0.853659,-10.0495,0.0838257,-0.59157,1.06707,-5.51829,2.80488
6628.33,96.9938,-3.87743,0,9.70222,-1.33882,1.90883,-0.945122,-2.80488,-1.03659,-10.0687,0.0766406,-0.63947,0.945122,-5.82317,2.9878
6628.34,97.0089,-3.84956,0,9.65432,-1.33882,1.88488,-1.0061,-1.70732,-1.25,-10.0495,0.0910107,-0.56283,1.06707,-5.79268,2.92683
6628.35,97.019,-3.81683,0,9.64953,-1.31487,1.85375,-1.31098,-1.34146,-1.28049,-10.004,0.0790356,-0.534089,0.97561,-6.03659,2.89634
6628.36,97.0299,-3.77001,0,9.58008,-1.30289,1.88967,-1.21951,-0.853659,-1.21951,-9.96328,0.0718506,-0.464634,0.579268,-6.61585,2.86585
6628.37,97.0285,-3.73396,0,9.58726,-1.30289,1.88009,-1.61585,-1.09756,-1.98171,-9.90101,0.0455054,-0.500559,0.457317,-6.55488,2.86585
6628.38,97.0296,-3.70252,0,9.58487,-1.30768,1.87051,-1.28049,-1.52439,-1.85976,-9.86269,0.0694556,-0.512534,0.548781,-6.61585,2.86585
6628.39,97.0335,-3.66761,0,9.60163,-1.32924,1.88009,-1.43293,-1.61585,-1.85976,-9.89143,0.0718506,-0.493374,0.701219,-6.43293,2.71341
6628.4,97.0303,-3.63619,0,9.57529,-1.30529,1.86812,-0.914634,-2.19512,-2.16463,-9.90341,0.0407153,-0.502954,0.396341,-6.06707,2.65244
6628.41,97.0226,-3.59882,0,9.54655,-1.28613,1.85854,-1.18902,-2.56098,-2.34756,-9.95849,0.102986,-0.474214,0.121951,-6.06707,2.5
6628.42,97.018,-3.55316,0,9.53936,-1.30768,1.92799,-1.55488,-2.68293,-2.37805,-10.0088,0.0814307,-0.433499,-0.0914634,-6.09756,2.40854
6628.43,97.0094,-3.51017,0,9.64714,-1.32205,1.91362,-1.40244,-2.40854,-2.68293,-10.0327,0.0862207,-0.438289,-0.396341,-6.03659,2.56098
6628.44,96.997,-3.46452,0,9.70462,-1.28134,1.81303,-1.03659,-2.34756,-2.46951,-10.0327,0.0910107,-0.419128,-1.28049,-6.46341,2.53049
6628.45,96.9845,-3.40448,0,9.71659,-1.24302,1.84177,-0.884146,-2.86585,-2.0122,-10.016,0.0383203,-0.347278,-1.61585,-7.19512,2.68293
6628.46,96.9704,-3.34693,0,9.65911,-1.24781,1.83698,-0.518293,-3.17073,-2.34756,-10.0639,0.0502954,-0.349673,-1.92073,-7.59146,3.04878
6628.47,96.953,-3.30605,0,9.69504,-1.24062,1.79626,-0.701219,-3.23171,-2.53049,-10.0256,-0.0431104,-0.411943,-1.98171,-7.56098,3.14024
6628.48,96.9339,-3.28308,0,9.62079,-1.22146,1.75315,-0.823171,-2.95732,-2.62195,-10.0208,-0.0479004,-0.483794,-2.34756,-7.62195,3.07927
6628.49,96.921,-3.25305,0,9.67109,-1.28373,1.78189,-1.31098,-2.22561,-2.7439,-9.9537,-0.122146,-0.445474,-2.04268,-7.46951,3.17073
6628.5,96.903,-3.20332,0,9.70462,-1.23583,1.74118,-1.03659,-1.85976,-2.62195,-9.97526,-0.148491,-0.354463,-2.04268,-7.40854,3.35366
6628.51,96.8877,-3.14295,0,9.70462,-1.23104,1.74118,-1.15854,-2.04268,-2.34756,-9.97047,-0.143701,-0.299377,-1.76829,-8.10976,3.14024
6628.52,96.8745,-3.07953,0,9.68546,-1.26457,1.75794,-1.25,-1.61585,-2.62195,-9.96328,-0.210762,-0.275427,-2.19512,-8.41463,3.41463
6628.53,96.8654,-3.02844,0,9.69743,-1.25739,1.74836,-1.12805,-1.98171,-2.19512,-9.95849,-0.196392,-0.318538,-2.16463,-8.53659,3.32317
6628.54,96.8516,-2.96771,0,9.72378,-1.21188,1.78429,-0.640244,-2.19512,-2.0122,-9.98484,-0.237107,-0.268242,-1.89024,-8.78049,3.53659
6628.55,96.835,-2.90951,0,9.69743,-1.1999,1.81542,-0.792683,-2.34756,-2.19512,-9.96089,-0.170046,-0.268242,-1.7378,-8.93293,3.87195
6628.56,96.8236,-2.87069,0,9.6639,-1.24781,1.81063,-1.21951,-1.52439,-2.40854,-9.88664,-0.193997,-0.340093,-1.85976,-8.20122,3.68902
6628.57,96.8122,-2.83485,0,9.65672,-1.27894,1.76034,-1.61585,-1.03659,-2.80488,-9.84832,-0.172441,-0.344883,-1.28049,-7.95732,3.47561
6628.58,96.798,-2.78706,0,9.69983,-1.24062,1.77231,-1.43293,-0.640244,-2.56098,-9.86748,-0.167651,-0.287402,-1.15854,-7.9878,3.20122
6628.59,96.7823,-2.73312,0,9.68785,-1.24302,1.68849,-1.52439,-0.365854,-2.77439,-9.9058,-0.172441,-0.253872,-0.823171,-8.62805,3.47561
6628.6,96.7714,-2.66913,0,9.71899,-1.27894,1.71244,-1.28049,-0.701219,-2.7439,-9.92017,-0.191602,-0.201182,-1.0061,-8.96341,3.20122
6628.61,96.7605,-2.61229,0,9.73575,-1.26936,1.73399,-1.09756,-0.640244,-2.62195,-9.97047,-0.179626,-0.222737,-0.609756,-9.2378,3.14024
6628.62,96.756,-2.56012,0,9.67348,-1.2981,1.67172,-1.09756,-0.487805,-2.53049,-9.94173,-0.210762,-0.232317,-0.548781,-8.75,3.38415
6628.63,96.7465,-2.50433,0,9.65672,-1.2526,1.76273,-1.06707,-0.731707,-2.46951,-9.89622,-0.179626,-0.205972,-0.640244,-8.17073,3.84146
6628.64,96.7383,-2.46511,0,9.63995,-1.27655,1.76513,-0.853659,-0.548781,-2.68293,-9.88664,-0.196392,-0.268242,-0.640244,-7.95732,4.57317
6628.65,96.7239,-2.41693,0,9.69983,-1.22625,1.74357,-0.853659,-0.365854,-2.56098,-9.91059,-0.172441,-0.222737,-0.609756,-7.7439,4.54268
6628.66,96.7028,-2.34039,0,9.75491,-1.15919,1.71723,-0.97561,-0.548781,-2.28659,-9.92975,-0.167651,-0.0910107,-0.396341,-8.07927,4.7561
6628.67,96.6862,-2.27116,0,9.74054,-1.16637,1.7316,-0.792683,-0.518293,-2.0122,-9.96328,-0.186812,-0.110171,-0.457317,-8.14024,4.81707
6628.68,96.6776,-2.20085,0,9.68785,-1.21427,1.76513,-0.792683,-0.0304878,-2.04268,-9.97526,-0.162861,-0.0934058,-0.0914634,-8.07927,4.57317
6628.69,96.667,-2.11633,0,9.66869,-1.21667,1.7795,-0.426829,0.335366,-2.28659,-10.0184,-0.153281,-0.0191602,-0.457317,-8.56707,4.63415
6628.7,96.6605,-2.03293,0,9.67827,-1.21188,1.76273,-0.213415,0.335366,-1.89024,-10.0447,-0.124541,-0.00958008,-0.518293,-8.90244,4.39024
6628.71,96.6496,-1.95549,0,9.62558,-1.19751,1.825,-0.518293,-0.396341,-2.19512,-10.0303,-0.138911,-0.0215552,-0.823171,-9.14634,4.26829
6628.72,96.6413,-1.88166,0,9.63277,-1.22146,1.80824,-0.335366,-0.823171,-2.2561,-10.0136,-0.122146,-0.0239502,-0.731707,-9.20732,4.54268
6628.73,96.627,-1.81184,0,9.64953,-1.17835,1.85135,-0.548781,-0.487805,-2.2561,-9.92496,-0.131726,-0.0287402,-0.426829,-9.57317,4.84756
6628.74,96.6176,-1.72721,0,9.69743,-1.19032,1.76273,-0.182927,-0.0609756,-1.92073,-9.92257,-0.143701,0.0479004,-0.762195,-9.78659,5.15244
6628.75,96.6117,-1.65352,0,9.69983,-1.18074,1.80345,-0.518293,0.213415,-1.52439,-9.89622,-0.182021,0.0143701,-0.823171,-10.1829,5.57927
6628.76,96.5999,-1.58546,0,9.73096,-1.16637,1.79866,-0.731707,0.0914634,-1.79878,-9.88664,-0.189207,0.00239502,-0.853659,-10.3049,5.73171
6628.77,96.5938,-1.51407,0,9.7621,-1.21188,1.76992,-0.457317,0.182927,-1.85976,-9.92257,-0.213157,0.0287402,-0.609756,-10.3659,5.70122
6628.78,96.5899,-1.4351,0,9.74533,-1.18314,1.69807,-0.121951,0.0914634,-1.37195,-9.93454,-0.268242,0.0742456,-0.152439,-10.4573,5.57927
6628.79,96.5826,-1.3452,0,9.70462,-1.15919,1.81303,-0.0609756,-0.121951,-1.40244,-10.004,-0.273032,0.136516,0.0914634,-10.7622,5.45732
6628.8,96.5741,-1.2626,0,9.70222,-1.1544,1.81542,-0.182927,-0.213415,-1.46341,-9.99202,-0.256267,0.119751,0.0609756,-10.9146,5.60976
6628.81,96.5811,-1.19083,0,9.68546,-1.22146,1.74597,-0.152439,-0.335366,-1.21951,-10.0064,-0.304167,0.0862207,0.640244,-11.3415,5.15244
6628.82,96.588,-1.11906,0,9.63995,-1.22625,1.75794,-0.121951,-0.243902,-1.34146,-9.96568,-0.289797,0.0981958,0.457317,-11.4939,5.42683
6628.83,96.5873,-1.02611,0,9.68067,-1.2023,1.70765,-0.518293,0.304878,-1.4939,-9.96328,-0.287402,0.203577,0.914634,-11.6159,5.2439
6628.84,96.5874,-0.94249,0,9.68546,-1.19751,1.74836,-0.243902,0,-1.37195,-9.92017,-0.296982,0.177231,1.06707,-12.5305,5.39634
6628.85,96.5867,-0.849016,0,9.6663,-1.2023,1.75315,-0.457317,-0.487805,-1.52439,-9.93694,-0.244292,0.234712,0.97561,-13.1098,5.36585
6628.86,96.5869,-0.775087,0,9.70462,-1.21427,1.75076,-0.335366,-0.0914634,-1.52439,-9.93933,-0.239502,0.165256,1.28049,-13.2012,5.30488
6628.87,96.588,-0.692198,0,9.7621,-1.21188,1.72441,-0.0609756,-0.0914634,-1.34146,-9.99202,-0.232317,0.217947,1.34146,-13.8415,5.27439
6628.88,96.5898,-0.594362,0,9.74533,-1.17595,1.79387,0.304878,-0.213415,-0.853659,-10.0375,-0.186812,0.299377,1.31098,-14.1463,5.21341
6628.89,96.5988,-0.50339,0,9.72138,-1.21667,1.78668,0.0914634,-0.0914634,-0.945122,-10.0088,-0.150886,0.285007,0.97561,-14.5122,5.12195
6628.9,96.6096,-0.387584,0,9.65432,-1.1999,1.78189,0.152439,-0.0304878,-0.762195,-9.98963,-0.129331,0.409548,0.640244,-14.8171,5.09146
6628.91,96.6278,-0.299387,0,9.62079,-1.23344,1.78668,-0.152439,-0.0304878,-0.792683,-10.0327,-0.177231,0.308958,0.609756,-15.3049,5.27439
6628.92,96.6312,-0.204696,0,9.63277,-1.17835,1.78668,-0.670732,0.0914634,-0.914634,-10.0136,-0.170046,0.352068,0.335366,-15.7927,5.54878
6628.93,96.6499,-0.0854722,0,9.65672,-1.24302,1.7771,-0.243902,-0.0609756,-0.762195,-10.016,-0.141306,0.476609,-0.0914634,-16.4939,5.51829
6628.94,96.6679,0.0191879,0,9.60882,-1.21906,1.76034,0.27439,-0.0609756,-0.609756,-10.0399,-0.174836,0.433499,-0.0914634,-17.1951,5.45732
6628.95,96.6798,0.122103,0,9.6663,-1.23823,1.74836,-0.0304878,0.518293,-0.97561,-10.0256,-0.148491,0.443079,0.27439,-17.6829,5.45732
6628.96,96.6896,0.227202,0,9.65193,-1.24781,1.8274,-0.518293,0.243902,-1.18902,-10.0088,-0.189207,0.469424,-0.0914634,-18.3537,5.36585
6628.97,96.7078,0.330942,0,9.60642,-1.29331,1.79626,-0.152439,0.121951,-1.25,-9.96568,-0.198787,0.479004,-0.335366,-19.2073,5.18293
6628.98,96.7222,0.437599,0,9.62079,-1.31247,1.80824,-0.304878,-0.0914634,-1.55488,-9.92736,-0.179626,0.507744,-0.487805,-19.4817,5.15244
6628.99,96.736,0.530492,0,9.6639,-1.27894,1.78908,-0.27439,0.701219,-1.18902,-9.90101,-0.174836,0.464634,-0.182927,-19.5122,5.15244
6629,96.7409,0.632223,0,9.61361,-1.22625,1.75555,0.152439,0.670732,-1.21951,-9.82197,-0.162861,0.514929,-0.27439,-19.878,5.27439
6629.01,96.7555,0.727351,0,9.6184,-1.23583,1.79147,0.457317,0.487805,-0.762195,-9.8555,-0.162861,0.505349,-0.213415,-20.0305,5.57927
6629.02,96.7582,0.830384,0,9.65432,-1.21188,1.80824,0,0.823171,-1.06707,-9.89143,-0.213157,0.55804,-0.365854,-20.2439,5.82317
6629.03,96.7768,0.950704,0,9.58726,-1.26697,1.79147,-0.304878,0.27439,-0.914634,-10.0112,-0.203577,0.65863,-0.396341,-21.1585,5.7622
6629.04,96.7965,1.09993,0,9.56571,-1.28852,1.83938,0.0304878,-0.0914634,-1.06707,-10.0974,-0.268242,0.814307,-0.701219,-21.9207,5.91463
6629.05,96.8073,1.2487,0,9.60403,-1.29331,1.91841,0.0304878,-0.0304878,-1.46341,-10.1597,-0.282612,0.843047,-0.945122,-22.8354,5.97561
6629.06,96.8074,1.38443,0,9.63277,-1.25978,1.86093,0.152439,-0.243902,-1.7378,-10.119,-0.285007,0.807122,-1.18902,-23.4146,5.79268
6629.07,96.8059,1.45629,0,9.69743,-1.26936,1.80824,-0.182927,-0.121951,-1.85976,-10.0591,-0.356858,0.541274,-0.914634,-24.0549,5.73171
6629.08,96.8049,1.53013,0,9.71899,-1.29331,1.76273,-0.121951,-0.213415,-2.04268,-9.97286,-0.368833,0.55804,-0.0304878,-23.872,5.88415
6629.09,96.7952,1.65996,0,9.74533,-1.28613,1.75315,-0.731707,1.15854,-2.62195,-9.93454,-0.296982,0.814307,0.457317,-24.8171,5.79268
6629.1,96.7891,1.82792,0,9.73336,-1.35798,1.65017,-0.853659,1.12805,-3.14024,-9.92736,-0.364043,1.00351,0.27439,-26.0976,5.54878
6629.11,96.7832,1.99326,0,9.7142,-1.34361,1.68609,-0.640244,1.85976,-3.01829,-9.87467,-0.352068,1.01549,0.365854,-26.5854,5.54878
6629.12,96.7762,2.13157,0,9.61121,-1.37474,1.74597,-0.762195,1.61585,-3.62805,-9.77886,-0.304167,0.917292,0.640244,-25.7012,5.64024
6629.13,96.7659,2.27824,0,9.54655,-1.38672,1.7795,-0.670732,0.914634,-4.17683,-9.67109,-0.347278,0.967588,0.853659,-24.6037,6.03659
6629.14,96.75,2.42598,0,9.46991,-1.37953,1.84417,-1.43293,0.457317,-4.78659,-9.68067,-0.402363,0.998723,1.37195,-24.0244,6.06707
6629.15,96.7241,2.5933,0,9.43877,-1.35319,1.8274,-1.64634,0.27439,-5.54878,-9.68306,-0.414338,1.10889,1.06707,-23.9024,6.18902
6629.16,96.6955,2.78016,0,9.41961,-1.36756,1.81303,-1.12805,0.365854,-6.06707,-9.72138,-0.392783,1.22625,0.823171,-24.7866,5.94512
6629.17,96.6588,2.97563,0,9.5202,-1.33403,1.76034,-1.40244,0.670732,-6.37195,-9.77647,-0.332908,1.30289,0.426829,-25.3354,6.06707
6629.18,96.6156,3.17087,0,9.64474,-1.27176,1.80824,-1.40244,-0.152439,-6.15854,-9.80281,-0.285007,1.33882,0.0304878,-26.0366,6.28049
6629.19,96.5677,3.35315,0,9.7597,-1.25978,1.74118,-1.64634,-1.15854,-6.40244,-9.83156,-0.246687,1.31966,-0.0914634,-26.0671,6.06707
6629.2,96.5159,3.51184,0,9.84114,-1.23344,1.72202,-1.03659,-1.58537,-6.46341,-9.83395,-0.193997,1.24781,0.182927,-26.0366,6.12805
6629.21,96.4652,3.66443,0,9.90341,-1.1999,1.71244,-0.487805,-0.640244,-5.97561,-9.81958,-0.210762,1.24781,0.640244,-24.878,5.70122
6629.22,96.4132,3.76423,0,9.87946,-1.14242,1.6813,-0.213415,0.853659,-5.57927,-9.80042,-0.246687,1.04183,1.12805,-23.5671,5.70122
6629.23,96.3571,3.90155,0,9.73336,-1.09213,1.72441,-0.701219,1.70732,-5.70122,-9.80042,-0.239502,1.22386,1.64634,-22.9878,5.45732
6629.24,96.307,4.08248,0,9.64235,-1.12326,1.66214,-0.853659,2.5,-5.70122,-9.86988,-0.251477,1.44899,1.46341,-23.9939,5.12195
6629.25,96.252,4.30253,0,9.64953,-1.1065,1.6837,-1.12805,3.71951,-6.09756,-9.96328,-0.244292,1.66933,1.12805,-25.7927,5.03049
6629.26,96.2073,4.5513,0,9.60403,-1.19511,1.74836,-1.37195,4.20732,-6.28049,-10.0639,-0.196392,1.85614,0,-27.2256,4.69512
6629.27,96.1627,4.80977,0,9.62558,-1.18793,1.79866,-1.40244,3.90244,-6.25,-10.0375,-0.148491,1.93997,-0.182927,-28.1707,4.93902
6629.28,96.1342,5.07617,0,9.67109,-1.3005,1.83938,-0.823171,2.83537,-5.97561,-9.89383,-0.119751,1.99505,-0.731707,-27.5915,5.85366
6629.29,96.1009,5.37091,0,9.76449,-1.26936,1.88967,-0.426829,2.28659,-6.0061,-9.74773,-0.0981958,2.14115,-1.09756,-26.3415,6.58537
6629.3,96.0668,5.67123,0,9.76449,-1.29571,1.88488,-0.0609756,1.70732,-6.46341,-9.52739,-0.191602,2.16989,-1.76829,-25.1524,7.2561
6629.31,96.0185,5.82928,0,9.69025,-1.16637,1.92081,-0.396341,0.518293,-6.55488,-9.44356,-0.385598,1.5879,-1.46341,-23.75,7.43902
6629.32,95.9615,5.91171,0,9.62319,-1.07297,1.78668,0.487805,0.853659,-6.52439,-9.38848,-0.510139,1.28613,-0.213415,-22.3171,7.7439
6629.33,95.896,6.07616,0,9.67588,-0.929268,1.80584,1.12805,0.792683,-5.70122,-9.40045,-0.608335,1.64777,0.396341,-24.6951,7.04268
6629.34,95.8202,6.28882,0,9.75491,-0.811912,1.79866,0.579268,1.31098,-5.39634,-9.5705,-0.665815,1.91362,1.06707,-28.1402,6.4939
6629.35,95.7441,6.50083,0,9.81719,-0.713716,1.75315,0.457317,2.37805,-4.29878,-9.84832,-0.57241,2.00224,1.12805,-30.3963,5.70122
6629.36,95.6886,6.70111,0,9.89862,-0.816702,1.70286,0.213415,3.5061,-3.47561,-9.95849,-0.479004,2.00942,1.7378,-30.4268,5.4878
6629.37,95.6487,6.94708,0,9.96807,-0.924478,1.69088,0.670732,4.69512,-3.23171,-10.0016,-0.277822,2.26569,1.89024,-30.0305,6.0061
6629.38,95.6218,7.21298,0,9.90101,-1.00112,1.71004,1.34146,4.72561,-3.01829,-9.89622,-0.251477,2.37825,1.95122,-30.0305,6.67683
6629.39,95.6016,7.51016,0,9.88664,-1.05141,1.73639,1.34146,4.7561,-3.04878,-9.73096,-0.234712,2.52914,1.43293,-29.9695,7.5
6629.4,95.5872,7.82437,0,9.79563,-1.13045,1.71723,1.98171,4.32927,-3.56707,-9.58008,-0.273032,2.62015,0.97561,-29.9695,7.83537
6629.41,95.5762,8.02565,0,9.77407,-1.16158,1.80105,2.19512,4.5122,-3.65854,-9.43159,-0.323328,2.13636,0.945122,-29.1768,7.83537
6629.42,95.5465,8.10084,0,9.59684,-0.998723,1.77231,2.40854,5.18293,-3.81098,-9.2831,-0.342488,1.60227,2.13415,-26.6159,7.68293
6629.43,95.5264,8.24408,0,9.50344,-0.981958,1.83219,2.7439,4.26829,-2.86585,-9.27352,-0.347278,1.90165,3.38415,-26.128,7.37805
6629.44,95.5036,8.48348,0,9.57289,-0.955613,1.80824,2.28659,4.48171,-2.7439,-9.44596,-0.352068,2.38065,3.68902,-29.0854,6.61585
6629.45,95.4827,8.7489,0,9.61121,-0.938848,1.79866,2.28659,5.4878,-2.31707,-9.75012,-0.287402,2.61776,3.53659,-31.8293,5.42683
6629.46,95.476,9.01397,0,9.67588,-1.02986,1.7795,2.10366,6.15854,-2.16463,-10.016,-0.167651,2.73511,3.38415,-34.1159,4.57317
6629.47,95.4753,9.28313,0,9.62798,-1.07776,1.94715,1.89024,6.25,-2.28659,-10.1142,-0.146096,2.83091,2.89634,-35.2134,3.59756
6629.48,95.4742,9.56038,0,9.74054,-1.13284,1.91841,2.13415,6.55488,-2.7439,-10.0615,-0.0766406,2.90516,1.7378,-36.128,3.2622
6629.49,95.4682,9.86544,0,9.75012,-1.14721,1.98308,3.23171,7.04268,-3.29268,-9.81958,-0.0742456,3.01772,0.823171,-36.5244,4.05488
6629.5,95.4598,10.1806,0,9.79084,-1.19032,2.0214,3.5061,6.95122,-3.93293,-9.60403,-0.102986,3.05365,0.121951,-37.3476,4.87805
6629.51,95.4441,10.4469,0,9.64474,-1.14961,2.10522,3.96341,5.51829,-4.39024,-9.35974,-0.213157,2.81175,-0.609756,-37.2561,5.67073
6629.52,95.4226,10.5816,0,9.62798,-1.13524,2.12678,4.29878,5.45732,-4.84756,-9.11544,-0.328118,2.21779,0.335366,-35.5793,6.52439
6629.53,95.39,10.6489,0,9.63277,-1.04183,2.03098,3.96341,5.4878,-4.87805,-8.95019,-0.361648,1.92081,2.16463,-33.9329,7.43902
6629.54,95.3445,10.8265,0,9.65193,-0.922083,2.01421,3.75,6.21951,-4.78659,-9.04359,-0.373623,2.41657,3.23171,-34.7866,7.80488
6629.55,95.2938,11.1412,0,9.51541,-0.883762,2.09325,2.71341,5.94512,-5.09146,-9.32381,-0.352068,3.13508,3.23171,-38.2317,8.2622
6629.56,95.253,11.4248,0,9.41722,-0.934058,2.13157,1.98171,5.82317,-4.93902,-9.67827,-0.366438,3.16382,3.2622,-40.1829,7.43902
6629.57,95.2357,11.6989,0,9.41482,-1.09692,2.14594,2.19512,6.70732,-4.66463,-9.74773,-0.208367,3.19496,3.20122,-40.4878,6.58537
6629.58,95.2218,11.9895,0,9.51541,-1.11847,2.14115,2.9878,5.91463,-4.48171,-9.68785,-0.0981958,3.30513,3.38415,-40.4878,6.46341
6629.59,95.205,12.2839,0,9.50823,-1.10171,2.30401,3.9939,4.5122,-4.60366,-9.5202,-0.0958008,3.3195,3.01829,-40.3354,6.15854
6629.6,95.1905,12.5846,0,9.87946,-1.22146,2.21779,3.87195,8.32317,-5.27439,-9.3789,-0.198787,3.35542,3.04878,-39.1159,6.09756
6629.61,95.1779,12.9069,0,9.55852,-1.2502,2.27527,4.02439,3.84146,-5.91463,-9.21603,-0.270637,3.45122,2.22561,-38.7805,5.91463
6629.62,95.1632,13.1802,0,9.49146,-1.35558,2.28245,4.08537,1.70732,-7.53049,-9.06994,-0.404758,3.23328,1.82927,-37.9878,5.64024
6629.63,95.1198,13.4039,0,9.45314,-1.24541,2.23455,3.2622,1.03659,-9.20732,-8.92863,-0.498164,3.01293,1.64634,-37.1646,6.12805
6629.64,95.0662,13.6871,0,9.50823,-1.25499,2.07888,2.34756,1.31098,-10.3659,-8.86397,-0.538879,3.29076,1.64634,-38.0183,6.70732
6629.65,94.9929,13.9847,0,9.59445,-1.13045,1.98547,2.43902,2.31707,-10.8537,-8.94061,-0.517324,3.43206,2.10366,-40.4268,7.53049
6629.66,94.9022,14.2474,0,9.616,-0.931663,1.99505,2.65244,2.16463,-10.3659,-9.03401,-0.421523,3.36261,2.92683,-40.9451,7.92683
6629.67,94.8021,14.5561,0,9.68785,-0.835862,1.90165,2.59146,2.2561,-10.2744,-9.02922,-0.261057,3.61887,3.81098,-41.1585,8.41463
6629.68,94.7136,14.9127,0,9.84114,-0.888552,1.88488,2.22561,4.90854,-9.7561,-9.04599,-0.143701,3.90628,4.14634,-41.5244,8.47561
6629.69,94.6183,15.2732,0,9.7118,-0.869392,1.94236,1.58537,4.08537,-10.5488,-9.00048,-0.102986,3.97094,3.84146,-42.1646,8.2622
6629.7,94.5213,15.6169,0,9.5705,-0.917292,2.13157,-0.182927,2.65244,-11.6463,-8.96695,-0.0766406,3.9446,3.29268,-42.0122,7.43902
6629.71,94.4237,15.9973,0,9.44596,-0.986748,2.12678,1.28049,1.37195,-12.8963,-8.90468,-0.110171,4.15536,2.89634,-41.7073,6.82927
6629.72,94.3087,16.4013,0,9.75252,-0.898132,2.09325,1.0061,0.97561,-13.4451,-8.8472,-0.177231,4.31343,1.85976,-41.7988,6.09756
6629.73,94.1974,16.7927,0,9.72857,-0.871787,2.1148,2.28659,0.304878,-13.0183,-8.72027,-0.222737,4.26792,1.37195,-41.8293,5.21341
6629.74,94.0706,17.1809,0,9.8579,-0.63468,2.06211,1.64634,0.152439,-11.8902,-8.65321,-0.256267,4.29427,1.06707,-40.7927,5.54878
6629.75,93.9571,17.5467,0,9.89383,-0.60594,2.03337,0.945122,0.609756,-10.4268,-8.53345,-0.311353,4.20326,1.31098,-39.7866,5.70122
6629.76,93.8457,17.9416,0,9.80281,-0.6251,2.14354,0.243902,2.13415,-10.7317,-8.44723,-0.349673,4.36373,1.95122,-39.7561,6.28049
6629.77,93.7371,18.348,0,9.58966,-0.66342,2.08846,-0.335366,2.37805,-11.311,-8.46639,-0.359253,4.50264,2.2561,-40.3049,6.37195
6629.78,93.6357,18.7562,0,9.4723,-0.768801,2.08846,0.304878,1.4939,-12.1951,-8.5119,-0.385598,4.61281,2.71341,-41.0061,6.98171
6629.79,93.5241,19.1538,0,9.63277,-0.656235,2.09804,1.18902,0.731707,-11.9207,-8.42807,-0.373623,4.59365,3.20122,-41.25,7.19512
6629.8,93.3897,19.5247,0,9.68306,-0.450264,2.17947,1.12805,0.548781,-11.9512,-8.36341,-0.347278,4.50743,3.78049,-39.9695,7.10366
6629.81,93.2859,19.9478,0,9.85072,-0.584385,2.11241,2.07317,-0.243902,-10.6098,-8.31311,-0.340093,4.80201,4.08537,-39.4817,7.04268
6629.82,93.1413,20.3908,0,10.0782,-0.323328,2.01661,0.914634,3.96341,-11.7988,-8.27479,-0.387993,4.96009,4.35976,-39.4817,6.79878
6629.83,93.0756,20.8097,0,10.1908,-0.799937,1.8753,0.640244,4.54268,-9.45122,-8.24845,-0.354463,4.91219,4.69512,-39.1463,6.46341
6629.84,92.9553,21.1954,0,9.70462,-0.428708,2.0669,2.2561,2.95732,-11.1585,-8.19815,-0.318538,4.80201,5.12195,-38.3841,6.40244
6629.85,92.8453,21.6195,0,9.67348,-0.445474,2.03098,1.67683,2.92683,-10.5793,-8.13349,-0.222737,5.02715,5,-37.5915,6.31098
6629.86,92.7321,22.0792,0,9.80521,-0.387993,2.07648,1.61585,3.14024,-10.3659,-8.10475,-0.0814307,5.27144,4.93902,-37.8963,6.82927
6629.87,92.6188,22.4917,0,9.86509,-0.316143,2.11959,1.25,3.04878,-9.72561,-8.06403,0.00239502,5.099,5.12195,-38.4451,7.5
6629.88,92.5454,22.8072,0,9.59205,-0.58199,2.13396,1.06707,3.20122,-9.2378,-7.9826,0.0694556,4.66071,4.32927,-36.189,8.07927
6629.89,92.4452,23.1422,0,9.57768,-0.352068,2.09325,1.79878,3.04878,-9.32927,-7.89638,0.0143701,4.76369,3.78049,-33.6585,8.20122
6629.9,92.3383,23.6087,0,9.87467,-0.275427,2.17228,1.55488,4.84756,-9.17683,-7.90596,0.00479004,5.48459,2.43902,-34.6037,8.2622
6629.91,92.2634,24.0651,0,9.70701,-0.450264,2.08367,2.28659,3.84146,-8.29268,-8.02332,-0.0622705,5.60914,1.7378,-35.5793,8.14024
6629.92,92.2003,24.4638,0,9.75731,-0.423918,2.27048,2.62195,2.95732,-6.89024,-8.09277,-0.129331,5.45106,1.58537,-34.7866,7.95732
6629.93,92.1406,24.8548,0,9.75491,-0.428708,2.23455,1.64634,2.0122,-6.7378,-8.08319,-0.165256,5.48699,1.06707,-33.75,7.95732
6629.94,92.0902,25.2616,0,9.15856,-0.536484,2.43573,2.07317,-1.28049,-7.62195,-7.95146,-0.167651,5.56124,1.58537,-32.0732,8.23171
6629.95,92.0237,25.6916,0,9.48188,-0.505349,2.24892,1.89024,0.731707,-8.75,-7.85327,-0.134121,5.69775,0.97561,-31.8902,8.38415
6629.96,91.9519,26.13,0,9.87227,-0.402363,2.16989,1.89024,2.83537,-7.95732,-7.77663,-0.122146,5.77679,0.701219,-31.7073,8.62805
6629.97,91.8659,26.56,0,9.60403,-0.232317,2.14115,2.28659,0.0914634,-7.62195,-7.67125,-0.143701,5.74565,0.243902,-31.6159,8.93293
6629.98,91.8271,26.9733,0,9.81958,-0.447869,2.14115,1.70732,0.426829,-5.4878,-7.60179,-0.105381,5.69536,0,-31.4634,8.93293
6629.99,91.7515,27.3668,0,9.65432,-0.177231,2.24653,2.10366,0.579268,-6.12805,-7.54192,-0.0958008,5.63309,0.731707,-30.8232,8.78049
6630,91.6885,27.7485,0,9.60642,-0.304167,2.25132,1.28049,0.97561,-6.55488,-7.48204,-0.100591,5.60914,1.28049,-29.8476,8.96341
6630.01,91.6338,28.1455,0,9.65672,-0.392783,2.1627,1.12805,1.67683,-6.89024,-7.48444,-0.117356,5.7696,1.34146,-29.6341,8.68902
6630.02,91.5745,28.5386,0,9.52499,-0.344883,2.20581,1.82927,1.46341,-6.95122,-7.51557,-0.174836,5.85582,1.25,-29.6951,7.92683
6630.03,91.4887,28.9159,0,9.46512,-0.136516,2.34472,2.0122,0.640244,-7.22561,-7.54192,-0.196392,5.87498,1.46341,-30.122,7.40854
6630.04,91.419,29.2379,0,9.65193,-0.227527,2.26569,1.79878,0.0304878,-6.82927,-7.51557,-0.244292,5.64267,2.04268,-29.8171,6.7378
6630.05,91.3488,29.5307,0,9.9082,-0.158071,2.24413,1.09756,1.79878,-6.12805,-7.4557,-0.289797,5.51573,3.01829,-27.7744,6.34146
6630.06,91.3179,29.9247,0,9.28549,-0.507744,2.31598,1.28049,-1.58537,-6.79878,-7.3551,-0.253872,6.03066,3.47561,-26.6463,6.34146
6630.07,91.2457,30.3362,0,10.0136,-0.275427,2.18426,-0.243902,3.9939,-7.89634,-7.34792,-0.234712,6.2055,2.86585,-27.1037,6.21951
6630.08,91.1945,30.7089,0,9.61121,-0.438289,2.08606,0.457317,1.61585,-8.01829,-7.39822,-0.182021,6.12406,2.46951,-26.1585,6.18902
6630.09,91.1453,31.0731,0,9.63756,-0.440684,2.17468,1.03659,1.0061,-7.92683,-7.41498,-0.117356,6.17436,2.71341,-24.9085,6.40244
6630.1,91.1024,31.4173,0,9.66151,-0.469424,2.15552,1.52439,0,-7.71341,-7.41977,-0.0407153,6.14802,2.37805,-24.1463,6.82927
6630.11,91.0244,31.7783,0,9.68067,-0.158071,2.26569,1.95122,-1.7378,-7.62195,-7.32876,-0.0215552,6.24142,2.77439,-23.2622,6.82927
6630.12,90.9621,32.117,0,9.68067,-0.189207,2.13157,0.548781,-2.53049,-6.55488,-7.29283,0.00479004,6.16718,3.20122,-22.5915,6.70732
6630.13,90.8867,32.4611,0,9.76449,-0.160466,2.0693,1.21951,-1.67683,-7.65244,-7.22577,-0.0167651,6.21508,3.20122,-21.7073,6.89024
6630.14,90.822,32.8067,0,9.80042,-0.193997,2.09085,1.15854,-0.487805,-7.10366,-7.15632,-0.0790356,6.23903,3.14024,-21.25,6.79878
6630.15,90.7774,33.1632,0,9.83395,-0.304167,2.14833,0.914634,2.34756,-6.4939,-7.1156,-0.0694556,6.34201,2.9878,-20.0305,6.92073
6630.16,90.7379,33.5068,0,9.73815,-0.352068,2.22018,0.853659,1.06707,-6.67683,-7.12518,-0.105381,6.35878,2.86585,-18.5366,6.82927
6630.17,90.7007,33.8555,0,9.67588,-0.342488,2.14594,0.731707,0.762195,-6.43293,-7.05094,-0.0550855,6.39949,2.53049,-17.5915,6.37195
6630.18,90.6719,34.1897,0,9.78605,-0.320933,2.22737,0.426829,0.853659,-5.36585,-6.99825,-0.0455054,6.3492,2.59146,-16.0061,6.55488
6630.19,90.6533,34.5166,0,9.70222,-0.340093,2.24174,0,-0.0609756,-4.66463,-6.95993,-0.00239502,6.3492,2.5,-14.5427,6.82927
6630.2,90.647,34.8236,0,9.77168,-0.399968,2.28245,0.548781,-0.396341,-4.17683,-6.93598,0.0167651,6.28932,2.34756,-13.689,7.28659
6630.21,90.6453,35.0986,0,9.63756,-0.419128,2.33514,0.365854,0.0914634,-4.05488,-6.95035,0.0431104,6.19352,2.19512,-12.5305,7.53049
6630.22,90.6398,35.3691,0,9.56331,-0.376018,2.3064,-0.0914634,0.884146,-3.96341,-6.93837,0.0119751,6.21987,1.67683,-11.4634,7.59146
6630.23,90.6339,35.6443,0,9.61121,-0.371228,2.22737,-0.304878,1.58537,-3.93293,-7.01262,-0.0359253,6.37315,1.4939,-10.6707,7.22561
6630.24,90.6277,35.8948,0,9.6663,-0.340093,2.12678,-0.487805,1.92073,-3.59756,-7.03896,-0.0934058,6.32046,1.25,-9.69512,7.2561
6630.25,90.617,36.131,0,9.69025,-0.301772,2.19384,-0.243902,2.31707,-3.56707,-7.05812,-0.110171,6.31327,1.55488,-8.84146,7.31707
6630.26,90.6096,36.353,0,9.64474,-0.282612,2.21779,-0.701219,1.98171,-3.10976,-7.09884,-0.105381,6.32285,1.46341,-7.40854,7.19512
6630.27,90.5953,36.5748,0,9.56571,-0.273032,2.15073,-1.21951,1.0061,-3.65854,-7.09884,-0.114961,6.37075,2.13415,-6.76829,7.16463
6630.28,90.5708,36.7867,0,9.73096,-0.155676,2.1148,-1.61585,1.40244,-3.20122,-7.14195,-0.122146,6.40189,2.10366,-6.43293,7.59146
6630.29,90.5494,36.9904,0,9.74533,-0.153281,2.23216,-2.34756,2.0122,-2.92683,-7.15153,-0.102986,6.41147,2.31707,-6.40244,7.80488
6630.3,90.4704,37.1939,0,10.4447,0.385598,1.95913,-1.82927,6.09756,-1.21951,-7.20182,-0.00718506,6.50248,2.80488,-6.25,7.9878
6630.31,90.4332,37.3949,0,10.1884,-0.0766406,1.65017,-3.17073,6.43293,-3.71951,-7.25691,0.0502954,6.58391,2.07317,-6.18902,8.07927
6630.32,90.3948,37.5936,0,10.1405,-0.0119751,1.825,-5.15244,9.72561,-3.14024,-7.26649,0.0383203,6.62702,1.95122,-6.28049,7.95732
6630.33,90.3611,37.7584,0,10.174,-0.0383203,2.15552,-5.18293,10.7927,-3.04878,-7.31199,-0.0455054,6.51685,1.82927,-6.40244,7.31707
6630.34,90.3642,37.9312,0,9.78366,-0.323328,2.31359,-5.03049,9.90854,-3.04878,-7.26649,-0.0958008,6.55996,2.04268,-6.40244,7.07317
6630.35,90.3527,38.0852,0,9.78605,-0.253872,2.37107,-2.40854,8.10976,-3.56707,-7.23296,-0.134121,6.46176,1.89024,-6.4939,6.82927
6630.36,90.326,38.1956,0,9.84114,-0.0550855,2.07648,-0.640244,11.311,-2.65244,-7.20422,-0.141306,6.22466,1.76829,-6.40244,6.61585
6630.37,90.3134,38.3353,0,9.53936,-0.174836,2.34472,-0.304878,9.08537,-2.92683,-7.13955,-0.155676,6.35638,1.61585,-6.61585,6.64634
6630.38,90.2735,38.4864,0,9.52739,0.0143701,2.43813,-3.01829,8.23171,-3.20122,-7.17548,-0.179626,6.48571,1.61585,-7.83537,6.89024
6630.39,90.2301,38.6046,0,9.41003,0.00479004,2.41897,-3.47561,6.89024,-3.78049,-7.23535,-0.117356,6.38512,2.22561,-8.10976,7.04268
6630.4,90.2002,38.7225,0,9.35255,-0.124541,2.48124,-1.79878,5.06098,-4.17683,-7.26649,-0.148491,6.43781,2.34756,-8.5061,6.95122
6630.41,90.1637,38.8332,0,9.38129,-0.0742456,2.53872,0.518293,3.01829,-4.26829,-7.30002,-0.126936,6.45218,2.7439,-8.9939,7.19512
6630.42,90.1099,38.9485,0,9.49865,0.0766406,2.57704,1.25,1.70732,-4.17683,-7.26649,-0.105381,6.47374,3.38415,-9.35976,7.10366
6630.43,90.0322,39.0712,0,9.86269,0.359253,2.31598,1.37195,3.75,-3.17073,-7.25451,-0.129331,6.53122,3.62805,-10.3354,6.98171
6630.44,89.9661,39.2003,0,9.60163,0.148491,2.26569,1.21951,3.81098,-4.84756,-7.22338,-0.112566,6.56714,3.68902,-11.0671,6.55488
6630.45,89.8807,39.3273,0,9.92975,0.397573,2.18905,1.4939,6.31098,-3.9939,-7.17308,-0.0838257,6.5384,4.17683,-11.7988,6.7378
6630.46,89.817,39.4793,0,9.80521,0.0718506,2.39502,0.914634,4.35976,-5.88415,-7.12758,-0.0383203,6.67013,4.26829,-12.8963,6.67683
6630.47,89.7411,39.6451,0,9.74533,0.160466,2.33754,0.27439,2.07317,-6.18902,-7.10602,-0.119751,6.76593,4.57317,-14.0244,6.7378
6630.48,89.6642,39.7871,0,9.76928,0.186812,2.38783,-0.945122,3.35366,-6.12805,-7.18745,-0.0958008,6.73958,4.81707,-15.122,6.55488
6630.49,89.6011,39.9221,0,9.63277,0.114961,2.47166,-0.0304878,3.38415,-5.73171,-7.18506,-0.131726,6.72761,4.7561,-15.8537,6.15854
6630.5,89.541,40.0657,0,9.70701,0.155676,2.42136,0.701219,4.48171,-5.06098,-7.17069,-0.126936,6.79707,4.48171,-16.4939,6.18902
6630.51,89.4711,40.1945,0,9.66151,0.249082,2.47645,1.25,4.48171,-5.03049,-7.16111,-0.0670605,6.7324,4.96951,-17.1646,5.94512
6630.52,89.4087,40.3281,0,9.6663,0.213157,2.34712,1.06707,5.67073,-4.84756,-7.118,-0.0431104,6.74917,5.33537,-18.5671,6.0061
6630.53,89.3645,40.4568,0,9.64235,0.0694556,2.29922,1.37195,7.07317,-4.87805,-7.08926,0.0526904,6.72282,6.12805,-19.6951,6.43293
6630.54,89.2863,40.5676,0,9.21843,0.301772,2.41418,0.762195,5.39634,-5.42683,-7.12039,0.0239502,6.67492,6.64634,-20.7927,6.67683
6630.55,89.2318,40.6757,0,9.58247,0.100591,2.3567,1.98171,4.66463,-5.79268,-7.12279,-0.0335303,6.68689,7.19512,-21.3415,6.70732
6630.56,89.1899,40.794,0,9.70701,-0.00239502,2.42376,3.71951,5.97561,-5.88415,-7.14434,-0.0574805,6.79228,8.01829,-22.4085,6.61585
6630.57,89.1417,40.8919,0,9.65432,0.0622705,2.66087,3.44512,4.5122,-5.82317,-7.08447,-0.0526904,6.64139,8.62805,-23.0793,6.76829
6630.58,89.1472,41.0068,0,9.91538,-0.186812,2.54591,2.22561,9.45122,-3.53659,-7.0198,-0.0239502,6.70366,8.10976,-23.1707,6.25
6630.59,89.1042,41.1333,0,9.79323,0.0263452,2.31838,1.52439,7.86585,-5.82317,-6.93358,0.114961,6.71563,7.56098,-23.2927,5.79268
6630.6,89.0709,41.248,0,9.76449,-0.0335303,2.52914,1.40244,6.12805,-5.64024,-6.95274,0.213157,6.69408,7.10366,-23.628,5.64024
6630.61,89.0418,41.3737,0,9.72857,-0.0119751,2.7878,0.396341,6.12805,-5.03049,-7.04854,0.258662,6.8785,6.58537,-24.4512,5.30488
6630.62,89.0241,41.4711,0,9.64235,-0.0814307,2.7902,0.0914634,7.19512,-4.78659,-7.10842,0.263452,6.79467,7.04268,-25.2744,5.39634
6630.63,89.0272,41.5274,0,9.616,-0.160466,2.71835,-0.579268,9.78659,-3.78049,-7.12279,0.210762,6.5887,7.86585,-25.2439,5.4878
6630.64,89.0124,41.6092,0,9.43398,-0.124541,2.60578,0.0914634,5.18293,-5.09146,-7.14913,0.217947,6.77551,8.38415,-26.2195,5.64024
6630.65,88.987,41.716,0,9.6184,-0.124541,2.51238,2.10366,2.68293,-6.12805,-7.18745,0.222737,6.98148,8.20122,-27.7134,5.51829
6630.66,88.9603,41.7904,0,9.60642,-0.0910107,2.72074,1.95122,2.86585,-5.91463,-7.20422,0.198787,6.82581,8.62805,-28.4756,5.06098
6630.67,88.9457,41.8621,0,9.5705,-0.186812,2.84289,1.25,2.43902,-5.91463,-7.22098,0.196392,6.84257,9.08537,-28.628,4.57317
6630.68,88.9318,41.9775,0,9.18011,-0.213157,2.66326,1.89024,1.09756,-6.31098,-7.12039,0.263452,7.02938,9.42073,-29.5732,4.35976
6630.69,88.9092,42.1155,0,9.35255,-0.277822,2.67045,2.07317,-0.0609756,-7.95732,-6.94795,0.399968,7.02459,8.75,-29.9085,4.14634
6630.7,88.8703,42.3049,0,9.4747,-0.196392,2.81415,0.365854,0.426829,-8.62805,-6.74198,0.550855,7.1659,7.83537,-30.5793,4.60366
6630.71,88.8707,42.4984,0,9.70941,-0.311353,2.62494,0.884146,2.40854,-6.03659,-6.66055,0.617915,7.15153,6.98171,-31.4329,5.27439
6630.72,88.8262,42.6662,0,9.37411,-0.0742456,2.52196,0.365854,-0.701219,-7.77439,-6.62223,0.6251,6.99825,6.55488,-31.0366,5.57927
6630.73,88.7883,42.8243,0,9.50823,-0.158071,2.72074,2.86585,-2.34756,-8.20122,-6.57433,0.510139,6.93119,5.4878,-29.2378,5.36585
6630.74,88.7602,43.0285,0,9.51302,-0.229922,2.8357,3.96341,-2.71341,-8.17073,-6.49769,0.397573,7.17548,4.63415,-29.1768,4.54268
6630.75,88.7306,43.217,0,9.83635,-0.155676,2.71595,1.4939,3.68902,-7.40854,-6.48332,0.277822,7.11081,4.84756,-29.4207,3.84146
6630.76,88.7106,43.4174,0,9.75491,-0.205972,2.42615,-1.52439,9.5122,-7.10366,-6.45937,0.275427,7.20661,5.03049,-29.6951,3.2622
6630.77,88.6804,43.6459,0,9.40764,-0.174836,2.60578,-1.03659,6.85976,-7.89634,-6.35399,0.306563,7.31918,4.69512,-30.5488,3.32317
6630.78,88.6376,43.8857,0,9.23999,-0.201182,2.94348,2.68293,1.43293,-9.60366,-6.29411,0.55325,7.38145,4.2378,-31.1585,4.11585
6630.79,88.6157,44.1329,0,9.2831,-0.349673,2.86205,3.78049,1.95122,-9.42073,-6.30609,0.64426,7.50839,3.35366,-31.372,5
6630.8,88.6065,44.3664,0,10.1908,-0.301772,2.5483,1.34146,8.75,-7.22561,-6.27016,0.720901,7.43893,3.07927,-31.3415,5.42683
6630.81,88.5575,44.6151,0,9.5705,-0.143701,2.24892,1.64634,1.76829,-9.60366,-6.16478,0.768801,7.47725,2.16463,-30.6402,5.39634
6630.82,88.5156,44.8808,0,9.60882,-0.258662,2.64889,3.14024,-0.609756,-10.3659,-6.13125,0.821492,7.61856,0.945122,-30.5488,5.70122
6630.83,88.462,45.0875,0,9.62079,-0.196392,3.09197,1.95122,-2.59146,-10.8841,-6.14802,0.598755,7.31439,1.0061,-29.878,5.06098
6630.84,88.3981,45.3025,0,9.51541,-0.182021,2.61057,2.95732,-3.32317,-11.8902,-6.13125,0.289797,7.4054,1.64634,-28.3537,4.05488
6630.85,88.3348,45.5462,0,9.43638,-0.124541,2.74709,3.10976,-1.25,-11.2805,-6.09532,0.227527,7.61377,1.28049,-27.7744,2.86585
6630.86,88.2469,45.8017,0,9.29986,0.0742456,3.0297,0.97561,-3.17073,-11.4329,-5.98036,0.165256,7.61616,1.03659,-27.439,1.79878
6630.87,88.1476,46.072,0,9.29028,0.102986,2.57465,-0.152439,-6.40244,-12.4085,-5.88935,0.232317,7.67364,1.61585,-26.9512,1.4939
6630.88,88.0589,46.3655,0,9.54894,0.00239502,3.24765,-2.16463,-6.18902,-12.8049,-5.76002,0.316143,7.7431,2.43902,-25.9756,2.40854
6630.89,87.9487,46.6881,0,9.27352,0.0742456,2.70158,-3.17073,-7.65244,-14.2683,-5.71691,0.433499,7.9826,2.68293,-24.6646,3.75
6630.9,87.8636,47.0024,0,9.82197,-0.150886,2.51717,-3.53659,-5.18293,-14.6646,-5.75763,0.447869,8.07361,2.40854,-24.2378,4.45122
6630.91,87.7909,47.2592,0,9.59684,-0.349673,2.97701,-4.08537,-7.16463,-16.0366,-5.79595,0.435894,7.79579,1.95122,-23.2927,5.39634
6630.92,87.7055,47.4976,0,9.88425,-0.196392,2.37346,-2.46951,-6.55488,-15.5488,-5.81271,0.311353,7.76226,1.89024,-21.6159,5.12195
6630.93,87.5781,47.7562,0,9.72378,0.167651,2.56267,-3.59756,-5.88415,-15.6707,-5.74565,0.241897,7.8868,1.40244,-20.8537,5.15244
6630.94,87.4386,48.0434,0,9.74294,0.340093,2.91234,-5.12195,-5.18293,-15.0915,-5.69057,0.258662,8.09756,0.97561,-21.4634,4.54268
6630.95,87.3434,48.3469,0,9.78366,0.0311353,2.63692,-4.42073,-8.78049,-14.5732,-5.54208,0.289797,8.09277,0.823171,-22.2561,4.5122
6630.96,87.2315,48.6145,0,9.137,0.110171,2.77583,-4.20732,-11.0061,-15.4268,-5.53968,0.287402,7.91075,0.335366,-21.5549,4.45122
6630.97,87.1309,48.8688,0,9.12742,0.0359253,2.49082,-4.69512,-10.3354,-15.4573,-5.4798,0.217947,7.80776,-0.213415,-19.9695,4.32927
6630.98,87,49.1714,0,9.56331,0.237107,2.692,-8.04878,-9.63415,-16.311,-5.40556,0.289797,8.14067,-0.396341,-19.2073,4.05488
6630.99,86.8838,49.4839,0,9.96089,0.0958008,2.51477,-4.72561,-12.6829,-16.8598,-5.36245,0.294587,8.24605,0.0914634,-20.061,4.32927
6631,86.7024,49.77,0,9.88425,0.60594,2.98659,-6.34146,-11.5549,-17.7134,-5.43909,0.249082,8.25084,0.792683,-20.9146,3.9939
6631.01,86.5422,50.0292,0,9.86988,0.414338,2.33514,-6.79878,-17.3171,-18.1707,-5.46783,0.234712,8.17181,1.37195,-20.4573,3.90244
6631.02,86.3847,50.2687,0,9.96328,0.443079,1.86093,-2.65244,-17.0732,-17.9268,-5.4822,0.153281,8.12151,1.28049,-19.878,4.02439
6631.03,86.215,50.503,0,9.21125,0.529299,1.88249,-3.81098,-19.3902,-17.9878,-5.40077,0.0910107,8.03529,1.61585,-18.5976,4.05488
6631.04,86.0711,50.7763,0,10.1836,0.514929,1.70046,-0.823171,-15.4878,-16.4939,-5.28341,0.0455054,8.23408,2.04268,-18.0183,4.14634
6631.05,85.9273,51.0745,0,10.0016,0.565225,2.47645,-1.21951,-11.0976,-16.0976,-5.20198,-0.0119751,8.39454,1.03659,-18.7195,4.57317
6631.06,85.7941,51.3746,0,9.66151,0.421523,2.39502,-2.04268,-10.3963,-16.7988,-5.16127,-0.00239502,8.44244,0.701219,-18.811,5.12195
6631.07,85.6512,51.6743,0,9.38608,0.342488,2.06211,-0.609756,-10.3659,-18.9024,-5.10618,0.0838257,8.44723,1.37195,-18.9634,5.91463
6631.08,85.4782,51.9437,0,9.71659,0.593965,2.0669,0.0914634,-9.29878,-19.3902,-5.11816,0.239502,8.31551,1.52439,-18.1707,6.34146
6631.09,85.238,52.2029,0,9.98005,1.18553,2.13875,-1.98171,-11.189,-19.9085,-5.12534,0.320933,8.33227,1.58537,-17.3476,6.70732
6631.1,85.0236,52.4614,0,10.1118,1.07536,1.84656,0.335366,-9.26829,-19.2073,-5.15648,0.275427,8.4616,1.79878,-17.7744,6.31098
6631.11,84.7884,52.7279,0,9.74294,1.22146,2.11959,1.67683,-6.95122,-19.5732,-5.13492,0.193997,8.57896,1.61585,-18.872,5.82317
6631.12,84.5401,53.0019,0,9.70701,1.25499,1.96871,1.46341,-7.92683,-20.9451,-5.07984,0.0981958,8.64123,1.25,-19.939,5
6631.13,84.3191,53.2913,0,9.48188,1.01788,1.9711,0.548781,-8.32317,-21.189,-4.95051,0.122146,8.64842,0.335366,-19.7256,4.5122
6631.14,84.1248,53.5775,0,9.23759,0.754431,1.75555,2.7439,-6.79878,-21.8902,-4.86428,0.186812,8.56938,-0.213415,-19.6646,4.84756
6631.15,83.9421,53.8722,0,9.60163,0.65863,1.64538,2.59146,-9.5122,-22.622,-4.79243,0.289797,8.61728,-1.25,-20.0915,5.33537
6631.16,83.7593,54.1468,0,9.99442,0.692161,2.15312,5.64024,-13.7805,-22.9268,-4.8068,0.318538,8.56699,-1.37195,-21.0976,6.31098
6631.17,83.5262,54.4097,0,10.0519,1.21667,2.16989,7.9878,-15.0915,-22.439,-4.80441,0.285007,8.55262,-0.914634,-22.3476,7.22561
6631.18,83.2697,54.6727,0,10.2076,1.46815,2.0214,7.92683,-14.6341,-22.6829,-4.81399,0.277822,8.66039,0.152439,-23.9939,7.65244
6631.19,82.9821,54.8989,0,9.64953,1.65975,2.27527,8.29268,-12.1951,-23.1707,-4.87865,0.210762,8.54064,0.426829,-24.6951,8.23171
6631.2,82.6909,55.1191,0,9.64235,1.70286,2.21539,6.64634,-9.48171,-23.5976,-4.81878,0.205972,8.4616,0.792683,-23.9634,8.47561
6631.21,82.3965,55.3784,0,9.30705,1.57353,2.06451,5.42683,-6.09756,-25.3659,-4.68466,0.160466,8.64602,0.97561,-23.628,8.41463
6631.22,82.1243,55.6825,0,9.616,1.27894,2.04295,5.82317,-7.16463,-27.8354,-4.51461,0.193997,8.83762,1.0061,-24.0244,8.56707
6631.23,81.8408,55.9771,0,9.83874,1.24541,1.91602,5.03049,-5.88415,-30.2744,-4.53856,0.229922,8.90708,1.67683,-24.9085,8.59756
6631.24,81.5504,56.2647,0,10.1381,1.34361,1.59987,7.46951,-8.20122,-30.8841,-4.54335,0.445474,8.95977,1.28049,-25.7012,8.81098
6631.25,81.2464,56.5323,0,10.507,1.70525,1.67412,8.71951,-8.84146,-29.4512,-4.55772,0.598755,8.90468,0.945122,-25.5488,8.9939
6631.26,80.9529,56.8034,0,10.1094,1.76034,1.96631,7.95732,-8.62805,-27.6524,-4.53138,0.701741,8.9933,0.335366,-24.4512,9.26829
6631.27,80.6823,57.0653,0,9.70222,1.61424,1.65496,9.02439,-9.32927,-26.7988,-4.58646,0.65384,9.11784,-0.182927,-24.5732,9.96951
6631.28,80.3954,57.3128,0,9.4747,1.74597,1.97589,8.23171,-10.5183,-26.9817,-4.57928,0.505349,9.06275,-0.426829,-24.5122,10.4878
6631.29,80.1358,57.5601,0,9.55373,1.47054,1.75315,7.65244,-10.2744,-28.2317,-4.62239,0.368833,9.24478,-0.609756,-24.8171,10.5793
6631.3,79.8334,57.7906,0,9.43159,1.59508,1.56874,8.20122,-10.7317,-31.4024,-4.68945,0.313748,9.30705,-0.548781,-24.9085,10.7927
6631.31,79.5188,58.0276,0,9.69743,1.65017,1.73878,8.65854,-12.9573,-33.1402,-4.69663,0.376018,9.48188,-0.670732,-25.3963,11.0671
6631.32,79.1581,58.279,0,9.81958,1.85135,1.78908,8.59756,-14.7561,-36.4024,-4.65592,0.404758,9.65193,-1.46341,-25.8841,11.2805
6631.33,78.7759,58.5404,0,10.0208,1.93039,2.04056,7.10366,-13.9024,-38.872,-4.63915,0.344883,9.83395,-1.67683,-27.2561,11.2805
6631.34,78.3935,58.7879,0,10.2507,2.01182,1.67651,7.80488,-11.7683,-39.2683,-4.59125,0.251477,9.69264,-2.0122,-27.561,10.8232
6631.35,77.9813,59.018,0,9.86988,2.19863,1.93997,8.29268,-7.86585,-40.122,-4.48827,0.0263452,9.39566,-1.46341,-26.8293,10.5793
6631.36,77.5958,59.2705,0,9.99681,1.90883,1.81782,10.1829,-6.21951,-41.7988,-4.33978,-0.0550855,9.42201,-1.46341,-25.0305,11.25
6631.37,77.1717,59.5738,0,9.99202,2.16031,1.76513,10.2439,-4.32927,-43.689,-4.15775,0.0598755,9.70462,-1.4939,-24.3598,12.1646
6631.38,76.7398,59.8748,0,10.0256,2.20821,1.61664,10.3354,-4.35976,-44.9085,-4.1338,0.196392,9.76689,-1.09756,-23.4756,13.689
6631.39,76.2796,60.1384,0,9.99442,2.4022,1.71723,11.8293,-6.25,-46.4329,-4.27511,0.318538,9.79323,-0.335366,-23.1402,14.9085
6631.4,75.7768,60.3902,0,9.63516,2.72553,1.84417,12.9573,-6.76829,-47.0732,-4.35415,0.352068,9.96089,0.396341,-21.9817,15.9756
6631.41,75.2347,60.629,0,9.60403,3.05844,1.75794,12.3171,-5.30488,-48.2927,-4.40205,0.347278,10.0327,0.0914634,-22.1951,15.7927
6631.42,74.685,60.848,0,10.0423,3.2213,1.63819,12.3476,-5.79268,-49.939,-4.39965,0.275427,9.9082,-0.731707,-21.0366,15.3049
6631.43,74.1093,61.0644,0,9.9058,3.35063,1.72681,12.3476,-5.09146,-51.8598,-4.33499,0.112566,9.83395,-1.70732,-20.3659,13.8415
6631.44,73.5348,61.3077,0,9.73815,3.32668,2.00942,11.7378,-3.68902,-52.561,-4.21523,0.112566,9.98244,-2.19512,-20.4268,12.561
6631.45,72.9616,61.5796,0,9.81479,3.29315,2.13157,9.14634,-2.59146,-54.2378,-4.01884,0.265847,9.98244,-2.43902,-20.7927,12.561
6631.46,72.4077,61.8903,0,9.75252,3.06083,1.84896,8.71951,-0.670732,-55.7317,-3.86317,0.356858,10.2363,-3.65854,-20.4268,12.378
6631.47,71.8537,62.1938,0,9.8579,3.16861,1.27415,9.14634,-0.365854,-56.0671,-3.77216,0.450264,10.0663,-4.78659,-19.8476,12.7744
6631.48,71.2738,62.4656,0,9.38129,3.31471,1.36516,11.0976,0.823171,-56.4939,-3.72426,0.548459,9.68546,-4.39024,-17.9878,13.2622
6631.49,70.6803,62.7051,0,9.49386,3.5566,1.14961,13.1098,-1.09756,-56.8598,-3.78892,0.565225,9.58726,-3.81098,-15.8537,13.5366
6631.5,70.0437,62.9259,0,8.92863,3.83203,1.65735,14.5427,-5.06098,-56.9817,-3.92544,0.481399,9.81479,-4.14634,-15.8537,13.9634
6631.51,69.3951,63.1327,0,9.03162,3.96855,1.59029,14.5122,-3.10976,-58.5061,-3.9925,0.404758,9.91538,-4.93902,-16.3415,13.75
6631.52,68.7517,63.3247,0,9.22083,3.92304,1.6358,13.3232,-6.15854,-60.6707,-3.98292,0.323328,9.8076,-6.0061,-16.8598,13.2317
6631.53,68.135,63.5368,0,9.48188,3.75539,1.64059,13.9634,-7.77439,-62.1951,-3.79371,0.296982,9.68067,-6.70732,-16.4329,12.8659
6631.54,67.5549,63.7694,0,9.44596,3.53744,1.28852,14.8171,-9.57317,-61.9207,-3.60211,0.174836,9.54894,-7.65244,-15.5488,12.2866
6631.55,66.9396,64.0199,0,9.12502,3.78174,1.40109,15.122,-7.65244,-62.6524,-3.43685,0.0550855,9.45554,-7.86585,-14.1463,11.6463
6631.56,66.3325,64.2963,0,9.13939,3.78892,1.07776,14.4512,-8.01829,-63.0488,-3.2692,0.0167651,9.46033,-7.10366,-13.2317,11.4024
6631.57,65.7084,64.5969,0,8.95977,3.98531,1.36995,16.5854,-8.01829,-63.0488,-3.11113,0.0455054,9.47709,-7.04268,-12.1037,11.4024
6631.58,65.1018,64.8858,0,9.26154,4.17212,1.18793,18.2317,-5.21341,-61.9817,-3.04167,0.184417,9.27352,-6.67683,-10.4268,12.2561
6631.59,64.4848,65.1729,0,9.50104,4.69663,0.66821,18.5671,-3.07927,-60.0915,-2.99856,0.426313,9.27831,-6.25,-8.04878,13.0488
6631.6,63.8363,65.4454,0,9.08431,5.02715,1.11368,18.7805,3.78049,-59.1463,-3.08239,0.507744,9.49146,-6.25,-6.98171,13.7805
6631.61,63.2175,65.681,0,8.74422,4.74693,1.26697,19.5122,4.84756,-58.3841,-3.16622,0.450264,9.35734,-6.79878,-5.12195,13.5976
6631.62,62.6103,65.9149,0,8.4137,4.60562,1.27415,19.8171,4.32927,-58.0488,-3.16861,0.402363,9.17053,-7.53049,-2.89634,12.8963
6631.63,61.994,66.3647,0,8.00655,4.44037,0.931663,21.5549,0.731707,-59.5732,-3.12311,0.340093,9.19687,-7.77439,-0.640244,11.8598
6631.64,61.361,66.9238,0,8.14786,4.72777,0.869392,23.1707,-3.23171,-60.2744,-3.06083,0.256267,9.28549,-8.29268,0.213415,11.0366
6631.65,60.7856,67.2184,0,8.60291,4.87386,1.19272,23.4451,-7.16463,-56.8902,-3.02491,0.153281,9.15376,-8.87195,1.43293,9.81707
6631.66,60.177,67.4246,0,8.30593,5.1948,1.50407,21.4939,-8.14024,-56.372,-2.96503,0.0910107,9.09389,-9.66463,3.17073,9.17683
6631.67,59.6098,67.6271,0,8.34904,4.96727,1.13524,22.4695,-10.8537,-55.9756,-2.87642,0.0574805,9.11305,-10.7012,5.06098,8.29268
6631.68,59.0381,67.822,0,8.37778,5.1924,1.57832,21.3415,-11.9817,-55.4878,-2.78301,0.0934058,8.86636,-10.8537,7.28659,8.29268
6631.69,58.5225,68.0131,0,8.35622,4.79243,0.792751,20.9756,-13.4756,-54.9085,-2.692,0.167651,8.64363,-9.90854,10.8537,8.68902
6631.7,57.9479,68.1821,0,7.96823,5.01757,1.44659,23.0793,-10.7622,-57.1646,-2.74469,0.220342,8.62446,-9.42073,13.4146,9.57317
6631.71,57.3143,68.3302,0,7.71915,5.35766,1.3484,19.0244,-10.5793,-59.1159,-2.81654,0.225132,8.66758,-9.54268,15.4878,10.2744
6631.72,56.6909,68.4515,0,7.76226,5.44627,0.977168,16.372,-12.8659,-58.7805,-2.92432,0.162861,8.72745,-9.39024,16.7988,10.5183
6631.73,56.0735,68.5093,0,7.73831,5.47022,1.08494,16.9512,-16.311,-59.0244,-3.08479,0.0502954,8.47597,-9.29878,18.1098,10.4268
6631.74,55.4423,68.5459,0,7.62574,5.87498,1.19511,17.2256,-20.9756,-56.8902,-3.1758,-0.0742456,8.5095,-9.29878,20.4268,9.60366
6631.75,54.8336,68.5963,0,7.73352,6.09053,1.08494,16.7683,-21.4634,-54.6341,-3.19017,-0.182021,8.72985,-9.08537,21.6768,9.2378
6631.76,54.2787,68.6516,0,8.14546,6.13604,0.859812,16.4024,-23.3841,-52.8963,-3.10874,-0.213157,8.59093,-8.87195,22.7134,8.75
6631.77,53.8025,68.715,0,8.33946,5.89175,0.991538,15.0305,-21.8598,-49.5732,-2.99856,-0.191602,8.41131,-8.38415,25.7317,8.71951
6631.78,53.3546,68.792,0,8.25324,5.7217,1.00351,13.75,-21.372,-48.689,-2.87881,-0.117356,8.26761,-8.23171,28.9024,9.54268
6631.79,52.9257,68.8668,0,7.94188,5.50136,0.838257,12.8354,-18.0488,-47.7134,-2.83331,-0.0287402,8.15504,-8.20122,32.2866,10.3049
6631.8,52.4768,68.9094,0,7.61377,5.41274,0.608335,13.628,-13.811,-49.2073,-2.85726,0.0263452,7.90117,-7.56098,35.4268,11.3415
6631.81,52.0793,68.9243,0,7.91075,5.43909,0.459844,15.1524,-13.7195,-46.7073,-2.98659,0.0455054,7.97542,-6.70732,37.1951,11.9512
6631.82,51.7044,68.8973,0,8.11433,5.80313,0.253872,16.9817,-16.5854,-43.0488,-3.18777,-0.0790356,8.06403,-6.43293,38.3232,11.7378
6631.83,51.3155,68.8369,0,8.07601,6.16718,0.589175,18.689,-14.878,-41.5854,-3.30034,-0.167651,7.99458,-6.03659,39.7561,11.2805
6631.84,50.9242,68.7614,0,7.94188,6.24621,0.747246,16.5854,-11.9512,-40.9451,-3.45841,-0.225132,8.20055,-6.15854,40.9146,10.3659
6631.85,50.5804,68.6637,0,8.01134,5.85103,0.445474,16.7378,-12.9878,-41.0671,-3.51828,-0.258662,8.09277,-6.12805,41.9817,9.48171
6631.86,50.233,68.5357,0,7.83171,5.76481,0.713716,16.4024,-10.9756,-41.7073,-3.57576,-0.265847,7.90117,-6.28049,44.4817,8.44512
6631.87,49.8839,68.395,0,7.597,5.60914,0.538879,15.2134,-7.89634,-42.4085,-3.55181,-0.215552,7.6928,-6.21951,47.4695,8.20122
6631.88,49.5775,68.2401,0,7.77184,5.54208,0.215552,16.7988,-7.2561,-40.7012,-3.559,-0.117356,7.53952,-5.18293,50,8.35366
6631.89,49.2126,68.086,0,7.58742,5.99952,0.646655,17.6829,-4.63415,-41.4939,-3.62606,-0.0886157,7.63772,-5.60976,51.128,8.93293
6631.9,48.8257,67.8921,0,7.41977,6.1073,0.622705,16.7073,-0.945122,-42.1951,-3.77216,-0.129331,7.54671,-5.12195,51.372,9.60366
6631.91,48.4821,67.6865,0,7.44133,5.94444,0.356858,16.5854,2.80488,-40.2744,-3.86796,-0.162861,7.57784,-4.57317,52.0732,10.2744
6631.92,48.1057,67.4574,0,7.25691,6.20071,0.593965,16.2195,4.48171,-40.4573,-4.00926,-0.205972,7.59221,-3.65854,53.0183,10.4878
6631.93,47.6908,67.2153,0,7.01022,6.40428,0.498164,13.75,4.93902,-41.2805,-4.14578,-0.261057,7.67125,-3.20122,53.7805,10.7927
6631.94,47.3097,66.9295,0,7.11321,6.16718,0.213157,13.9939,-0.426829,-41.7073,-4.23439,-0.292192,7.41498,-2.83537,55.5183,10.9756
6631.95,46.9808,66.6683,0,7.29523,6.01868,0.100591,16.9817,-6.67683,-40.0305,-4.24876,-0.258662,7.54671,-2.16463,57.8963,10.9451
6631.96,46.5866,66.3784,0,7.03178,6.71563,0.340093,16.5549,-7.13415,-38.872,-4.35415,-0.196392,7.43414,-1.76829,59.4207,11.2195
6631.97,46.1929,66.0829,0,6.9719,6.74438,0.617915,14.3293,-6.79878,-38.872,-4.44755,-0.143701,7.46528,-1.46341,60.3963,11.0061
6631.98,45.7798,65.743,0,6.99585,6.86892,0.809517,10.9451,-7.89634,-40.7927,-4.60083,-0.114961,7.3072,-1.12805,61.7073,10.5488
6631.99,45.4204,65.3888,0,7.07968,6.57912,0.313748,9.05488,-11.0976,-39.3598,-4.7613,-0.0263452,7.36229,-0.884146,62.7744,10.0915
6632,45.0706,65.0076,0,7.00064,6.6366,0.229922,11.7683,-13.8415,-37.9573,-4.93374,0.0191602,7.33594,-0.457317,63.3537,9.35976
6632.01,44.6938,64.5574,0,6.93119,7.01262,0.483794,11.0976,-15,-37.622,-5.15887,-0.0263452,7.08926,-0.0609756,64.3598,9.17683
6632.02,44.3207,64.1129,0,6.9264,7.0222,0.246687,10.2134,-16.2195,-37.8963,-5.34808,-0.102986,7.26888,0.487805,65.2439,8.20122
6632.03,43.9417,63.6498,0,6.90963,7.15153,0.306563,10.3659,-15.1829,-38.0488,-5.50376,-0.165256,7.23535,0.640244,64.939,8.07927
6632.04,43.567,63.1619,0,6.99346,7.29044,0.277822,8.87195,-13.3537,-37.9573,-5.56603,-0.222737,7.03657,0.182927,65.9146,8.44512
6632.05,43.221,62.6787,0,6.97909,7.03417,0.229922,7.40854,-8.78049,-37.7744,-5.60914,-0.201182,6.99825,0.304878,66.25,9.05488
6632.06,42.8873,62.1627,0,6.91442,6.92161,0.107776,5.06098,-6.82927,-37.622,-5.64985,-0.0934058,6.72761,0.548781,66.5854,10.0305
6632.07,42.5685,61.6138,0,6.94316,6.7803,-0.143701,4.78659,-7.22561,-38.2317,-5.67141,-0.0407153,6.44021,1.15854,66.4024,10.9451
6632.08,42.2374,61.0776,0,6.66534,6.66773,-0.289797,6.28049,-9.45122,-38.7195,-5.8654,0.0215552,6.60546,2.07317,65.3354,12.0427
6632.09,41.893,60.4901,0,6.42105,6.64139,-0.390388,9.5122,-9.11585,-38.811,-6.12885,0.0143701,6.47134,2.92683,63.811,12.2866
6632.1,41.5213,59.9557,0,6.43063,6.80425,-0.261057,9.81707,-7.28659,-40.9756,-6.27974,0.0479004,6.80665,2.46951,62.5,11.9817
6632.11,41.1449,59.4352,0,6.64857,6.90484,-0.253872,9.42073,-6.82927,-43.2927,-6.26537,0.112566,6.74677,2.28659,62.0122,11.9207
6632.12,40.7576,58.8502,0,6.67492,6.90963,-0.296982,8.07927,-4.90854,-45.3659,-6.23424,0.160466,6.22945,2.22561,63.7195,12.1646
6632.13,40.3622,58.288,0,6.57912,6.63181,-0.261057,6.4939,0.762195,-48.5366,-6.18634,0.167651,6.18155,2.46951,65.7622,11.8902
6632.14,39.9643,57.7634,0,6.5887,6.52882,-0.191602,6.46341,6.43293,-50.6098,-6.13843,0.134121,6.21747,2.68293,65.9146,11.5244
6632.15,39.5692,57.2573,0,6.71803,6.86413,-0.0502954,6.15854,7.59146,-49.3293,-6.21508,0.122146,6.28214,2.0122,65.4573,11.3415
6632.16,39.1906,56.7996,0,6.66294,7.19703,-0.0742456,8.20122,7.13415,-45.2134,-6.3013,0.150886,6.52882,0.945122,64.2988,10.8232
6632.17,38.8174,56.2843,0,6.63899,7.47486,0.129331,8.41463,5.70122,-43.0183,-6.41626,0.146096,6.21987,0.0914634,65.0305,9.7561
6632.18,38.457,55.7311,0,6.3947,7.51078,-0.0239502,8.93293,2.83537,-40.0305,-6.52403,0.208367,6.0091,-0.243902,67.3476,8.68902
6632.19,38.0897,55.1854,0,6.13125,7.45809,-0.0981958,8.5061,3.62805,-39.4512,-6.60786,0.280217,6.0115,-0.365854,69.0854,7.86585
6632.2,37.7013,54.6571,0,5.93965,7.31439,0,7.95732,2.80488,-41.6463,-6.74438,0.301772,6.11209,-1.40244,68.9939,7.5
6632.21,37.3291,54.118,0,6.08574,7.05573,0.0550855,10.4878,2.22561,-44.2683,-6.84976,0.316143,6.03545,-1.7378,68.8415,7.43902
6632.22,36.9341,53.5116,0,6.19352,7.36469,0.0790356,10.7927,1.43293,-45.8841,-6.90005,0.289797,5.61872,-1.82927,70.5793,7.89634
6632.23,36.5333,52.897,0,6.22705,7.52276,0.0287402,11.0061,2.34756,-46.372,-7.02938,0.222737,5.56124,-1.58537,72.1341,8.90244
6632.24,36.133,52.2906,0,6.10011,7.72873,0.0622705,12.9878,0.97561,-44.4207,-7.08686,0.177231,5.52531,-1.06707,72.5915,9.90854
6632.25,35.7205,51.6885,0,5.93007,8.04008,0.275427,10.3659,1.03659,-42.6524,-7.22817,0.131726,5.53489,-1.28049,71.9207,11.4329
6632.26,35.3067,51.1252,0,5.70015,8.1263,0.268242,7.92683,-0.0304878,-40.8537,-7.28325,0.182021,5.65225,-1.76829,70.7622,12.7439
6632.27,34.8998,50.5367,0,5.55405,8.0305,0.0742456,4.93902,-1.89024,-40.2134,-7.28565,0.234712,5.41274,-2.62195,69.7561,13.872
6632.28,34.4743,49.9392,0,5.26425,7.92033,-0.0383203,5.79268,-5,-40.7927,-7.2593,0.330513,5.23551,-2.9878,70.9451,15
6632.29,34.0396,49.3657,0,5.07744,7.76226,-0.174836,7.2561,-6.21951,-41.7378,-7.37666,0.366438,5.32173,-3.75,71.0976,15.5793
6632.3,33.5587,48.7506,0,4.83315,7.97302,0.0359253,9.11585,-5.64024,-43.3232,-7.49641,0.323328,5.09181,-3.68902,71.0061,15.7317
6632.31,33.0529,48.1399,0,4.79962,8.2221,0.220342,7.07317,-6.55488,-44.9085,-7.61616,0.275427,5.07505,-4.2378,70.9146,15.3354
6632.32,32.5441,47.5567,0,4.90021,8.30832,0.0191602,4.57317,-9.35976,-46.7683,-7.68801,0.249082,5.13971,-5.06098,70.5793,14.2683
6632.33,32.0924,46.9335,0,5.36245,8.32509,-0.258662,1.98171,-13.3232,-46.5854,-7.72633,0.289797,4.85949,-5.33537,70.7622,13.9024
6632.34,31.696,46.3215,0,5.63309,8.3682,-0.404758,-0.365854,-14.7866,-44.2378,-7.7431,0.275427,4.8068,-6.06707,71.0061,12.9268
6632.35,31.3487,45.6912,0,5.74565,8.2724,-0.565225,-0.579268,-11.6159,-41.7378,-7.81255,0.232317,4.64873,-5.64024,70.7012,12.2561
6632.36,31.0323,45.0749,0,5.62351,8.10954,-0.579595,1.61585,-9.81707,-39.2073,-7.8868,0.251477,4.64155,-5.45732,70.3659,12.1341
6632.37,30.7168,44.478,0,5.30976,7.87482,-0.711321,6.12805,-10.0305,-38.2317,-7.97302,0.241897,4.66789,-5.30488,69.8476,11.2805
6632.38,30.3601,43.8809,0,5.01996,8.22689,-0.687371,10.8232,-8.87195,-37.7744,-8.13109,0.196392,4.64634,-6.18902,69.8476,11.128
6632.39,29.971,43.245,0,4.79962,8.52866,-0.387993,8.53659,-8.14024,-37.6829,-8.20773,0.174836,4.39486,-6.46341,69.4207,10.9146
6632.4,29.5862,42.5959,0,4.81638,8.63405,-0.392783,5.64024,-3.07927,-37.5915,-8.3203,0.160466,4.27511,-6.46341,69.0549,10.8232
6632.41,29.2039,41.9288,0,4.80441,8.64363,-0.524509,2.13415,-0.487805,-37.9573,-8.35383,0.117356,4.09069,-6.31098,68.7805,10.5488
6632.42,28.8391,41.2766,0,4.86428,8.53345,-0.443079,1.61585,2.04268,-38.2012,-8.36341,0.0981958,4.04279,-5.64024,68.6281,10.122
6632.43,28.4865,40.6351,0,4.83794,8.52148,-0.433499,3.84146,0.884146,-37.5,-8.39215,0.100591,3.98771,-5.39634,68.4756,10.2744
6632.44,28.1338,39.9898,0,4.71819,8.57417,-0.344883,7.22561,-2.77439,-36.6768,-8.43765,0.102986,3.87754,-5.70122,68.75,9.96951
6632.45,27.7775,39.3494,0,4.60323,8.71548,-0.150886,5.70122,-5.79268,-35.7622,-8.55022,0.153281,3.83443,-6.15854,68.3537,9.63415
6632.46,27.4251,38.7157,0,4.44276,8.53345,-0.328118,5.91463,-7.53049,-35.3963,-8.63884,0.131726,3.78892,-7.0122,67.3476,9.5122
6632.47,27.0631,38.1003,0,4.29187,8.67955,-0.165256,5.12195,-6.70732,-34.6646,-8.69871,0.232317,3.78174,-7.34756,65.2439,9.39024
6632.48,26.6928,37.5246,0,4.06674,8.74661,-0.229922,3.07927,-7.10366,-33.4451,-8.67237,0.311353,3.83922,-8.07927,63.872,9.84756
6632.49,26.3465,36.871,0,4.25834,8.74182,-0.481399,0.365854,-7.13415,-33.872,-8.66518,0.308958,3.38416,-8.10976,63.4451,9.90854
6632.5,26.0331,36.2224,0,4.43079,8.77296,-0.823887,-3.01829,-6.25,-32.8963,-8.65321,0.289797,3.28836,-7.31707,63.5061,10.2439
6632.51,25.7582,35.6029,0,4.52898,8.61249,-0.728086,0.121951,-5.18293,-31.5244,-8.71787,0.170046,3.32668,-6.76829,62.1341,10.8841
6632.52,25.4946,34.9528,0,4.5218,8.74661,-0.526904,2.40854,-2.68293,-30.122,-8.71548,0.0958008,3.08479,-5.94512,61.5549,10.9146
6632.53,25.1952,34.3361,0,4.14817,9.00048,-0.443079,4.93902,-1.82927,-29.0244,-8.73703,0.0479004,3.1255,-5.06098,61.5244,11.0061
6632.54,24.8902,33.7347,0,4.038,9.0867,-0.352068,3.35366,-3.65854,-28.5976,-8.86636,0.0622705,3.13269,-5.12195,62.561,10.9146
6632.55,24.589,33.1284,0,4.01405,8.89989,-0.579595,1.64634,-3.10976,-29.4817,-9.04599,0.0766406,3.06802,-6.52439,62.6829,10.6707
6632.56,24.2605,32.5168,0,3.78892,8.88313,-0.529299,2.77439,-5.85366,-30.4878,-9.19448,0.119751,2.98659,-6.55488,63.1402,10.5793
6632.57,23.9161,31.9212,0,3.7027,8.76817,-0.476609,4.54268,-5.03049,-32.3476,-9.42201,0.117356,3.02012,-6.52439,59.5732,10.3354
6632.58,23.5976,31.291,0,3.96615,9.12981,-0.555645,4.57317,-0.670732,-31.6159,-9.49146,0.165256,2.77343,-5.91463,57.2256,10.1829
6632.59,23.3017,30.67,0,3.94699,9.14658,-0.474214,0.914634,-1.09756,-29.6646,-9.48188,0.237107,2.69919,-5.97561,56.6159,10.3659
6632.6,23.0579,30.0822,0,4.14578,8.95737,-0.684976,0.243902,-0.426829,-28.0183,-9.51781,0.256267,2.74709,-6.55488,55.3049,10.4878
6632.61,22.8245,29.4986,0,4.06195,8.88552,-0.756826,1.15854,0.0609756,-26.8902,-9.46991,0.249082,2.6465,-7.16463,54.1463,10.5488
6632.62,22.5826,28.8841,0,3.90628,9.19927,-0.754431,1.4939,0.396341,-25.061,-9.38369,0.186812,2.38304,-8.04878,54.3293,10.4573
6632.63,22.3394,28.3112,0,3.75779,9.09389,-0.730481,1.46341,-1.67683,-24.5427,-9.47949,0.0646655,2.48364,-8.17073,53.4756,9.90854
6632.64,22.0774,27.741,0,3.57576,9.02204,-0.500559,3.96341,-2.0122,-25.2744,-9.4268,0.0239502,2.38065,-7.92683,52.8354,9.39024
6632.65,21.7632,27.1494,0,3.28118,8.76098,-0.708926,2.86585,0.0609756,-28.9024,-9.46751,0.0646655,2.19623,-7.95732,52.2561,9.42073
6632.66,21.4807,26.5561,0,3.61887,9.6639,-1.00351,1.64634,-0.304878,-26.311,-9.50344,0.0814307,2.09325,-8.20122,51.311,9.54268
6632.67,21.239,26.0078,0,3.69552,8.8975,-0.866997,0.853659,0.792683,-26.8598,-9.58487,0.117356,2.20581,-8.71951,50.6402,9.66463
6632.68,20.9902,25.4439,0,3.64043,8.88792,-0.759221,1.25,4.08537,-27.5,-9.63516,0.0934058,2.05014,-8.9939,49.2378,10.2439
6632.69,20.7899,24.8636,0,3.92544,9.23999,-0.720901,1.58537,8.17073,-24.5732,-9.64714,0.160466,1.88009,-8.65854,48.2317,10.122
6632.7,20.6163,24.2941,0,3.88233,9.02204,-0.58678,2.19512,8.32317,-22.8049,-9.60403,0.182021,1.81782,-8.14024,47.622,10.8537
6632.71,20.4541,23.7104,0,3.75539,9.12502,-0.364043,2.46951,7.28659,-20.122,-9.66151,0.136516,1.66693,-7.28659,47.2561,10.6707
6632.72,20.299,23.1352,0,3.6069,9.15137,-0.519719,1.46341,6.0061,-17.9878,-9.73815,0.0191602,1.61424,-7.13415,45.8232,10.3049
6632.73,20.1253,22.5731,0,3.39135,9.04838,-0.641865,1.43293,4.5122,-18.2317,-9.78366,-0.0742456,1.57832,-6.21951,45.2744,9.42073
6632.74,19.9173,22.0147,0,3.25004,9.11065,-0.828677,0.640244,4.08537,-20.2134,-9.75491,-0.0981958,1.4921,-5.54878,45.1829,8.41463
6632.75,19.723,21.4411,0,3.28836,9.38369,-0.991538,1.21951,2.0122,-18.5976,-9.74294,-0.134121,1.32684,-4.78659,45.5183,7.65244
6632.76,19.5126,20.9118,0,3.13508,9.07233,-0.958008,1.18902,3.07927,-20.122,-9.74054,-0.0431104,1.42025,-4.29878,44.5427,7.34756
6632.77,19.3275,20.4135,0,3.34824,9.57768,-0.692161,2.37805,3.44512,-18.3841,-9.74294,0.0646655,1.46336,-4.08537,43.2317,7.86585
6632.78,19.1661,19.8713,0,3.28118,9.15137,-0.61073,-0.304878,4.26829,-17.2866,-9.76928,0.119751,1.18793,-4.32927,42.5,8.2622
6632.79,19.0262,19.3247,0,3.27399,8.81607,-0.852627,0.0304878,4.96951,-16.7378,-9.82197,0.124541,1.08015,-3.75,42.1341,8.59756
6632.8,18.908,18.7733,0,3.45122,8.98132,-0.864602,2.2561,3.84146,-16.128,-9.83395,0.172441,0.965193,-2.9878,41.4024,8.75
6632.81,18.8025,18.2367,0,3.54942,9.3286,-0.699346,3.59756,5.82317,-14.6951,-9.88664,0.280217,0.938848,-2.37805,40.6402,9.29878
6632.82,18.6656,17.7518,0,3.23567,9.54415,-0.342488,4.42073,6.40244,-13.811,-9.92017,0.313748,1.07536,-2.86585,39.6646,9.7561
6632.83,18.4082,17.2853,0,2.32317,9.137,0.0838257,0.0304878,3.35366,-17.2866,-9.9561,0.186812,1.07536,-3.2622,38.8415,9.54268
6632.84,18.2016,16.7791,0,2.60339,9.71899,-0.598755,2.59146,3.07927,-14.1159,-9.96807,0.0502954,0.819097,-3.62805,39.4512,8.96341
6632.85,17.991,16.284,0,2.73032,9.79563,-0.371228,0.243902,-1.40244,-16.128,-9.9561,0.0359253,0.778381,-3.59756,39.3598,7.83537
6632.86,17.7773,15.8024,0,2.72553,9.46751,-0.687371,-0.731707,-2.28659,-17.8659,-9.93454,0.0934058,0.749641,-3.32317,38.7805,7.56098
6632.87,17.59,15.3365,0,2.83091,9.19927,-0.953218,-0.0609756,-0.609756,-17.7439,-9.88904,0.215552,0.730481,-3.10976,37.8963,7.80488
6632.88,17.447,14.8606,0,3.13029,9.09149,-1.11129,1.21951,2.62195,-17.4695,-9.8555,0.318538,0.603545,-2.71341,37.561,8.71951
6632.89,17.3292,14.3835,0,3.22849,8.95019,-0.926873,2.22561,5.88415,-16.8902,-9.88425,0.364043,0.517324,-2.77439,36.7378,9.26829
6632.9,17.1693,13.889,0,2.94587,8.8472,-0.632285,0.670732,5.79268,-18.5366,-10.0567,0.277822,0.364043,-2.0122,36.0366,9.66463
6632.91,17.0659,13.4182,0,3.30752,9.43398,-0.902922,2.16463,6.76829,-14.939,-10.2507,0.253872,0.387993,-1.55488,33.9939,9.17683
6632.92,16.9697,12.9666,0,3.24525,9.50823,-0.778381,3.29268,5.82317,-13.4451,-10.2746,0.201182,0.390388,-1.4939,32.439,8.84146
6632.93,16.8683,12.5457,0,3.1279,9.47949,-0.699346,2.92683,5.09146,-12.9878,-10.2219,0.160466,0.445474,-1.40244,31.6768,7.86585
6632.94,16.7614,12.1416,0,3.02251,9.45793,-0.699346,2.46951,6.98171,-12.6524,-10.107,0.148491,0.440684,-1.61585,31.4329,7.28659
6632.95,16.6526,11.7313,0,2.92911,9.33579,-0.699346,3.41463,7.80488,-12.439,-9.8579,0.205972,0.332908,-1.95122,31.189,7.86585
6632.96,16.5525,11.2879,0,2.94827,9.34058,-0.670605,2.95732,9.39024,-11.9817,-9.79323,0.220342,0.117356,-1.79878,30.9451,8.78049
6632.97,16.4541,10.8581,0,2.86923,9.0891,-0.514929,3.38415,9.54268,-12.0122,-9.8603,0.265847,0.100591,-1.85976,30.4268,9.63415
6632.98,16.3454,10.489,0,2.73511,9.12023,-0.60115,3.47561,10.1524,-11.5854,-9.94652,0.328118,0.292192,-1.92073,29.2073,10.2744
6632.99,16.2426,10.1263,0,2.71116,9.14897,-0.701741,4.60366,10.3049,-10.8232,-9.99442,0.330513,0.256267,-1.89024,27.8049,10.6402
6633,16.1196,9.77416,0,2.58183,8.6556,-0.749641,5.88415,11.6463,-13.2927,-10.0591,0.294587,0.239502,-1.89024,26.4329,10.3354
6633.01,16.0157,9.40859,0,3.06802,9.31423,-0.682581,2.89634,13.1098,-14.9085,-10.0758,0.390388,0.117356,-1.28049,25.1829,9.87805
6633.02,15.9336,9.02586,0,3.18059,10.1645,-0.529299,2.95732,10.0915,-11.1585,-10.0711,0.387993,-0.0239502,-1.03659,24.2988,9.32927
6633.03,15.8645,8.63565,0,2.81654,10.0663,-0.752036,3.01829,8.9939,-6.43293,-10.0998,0.344883,-0.124541,-0.884146,24.5122,8.78049
6633.04,15.7411,8.25284,0,2.22018,9.45793,-0.60115,1.52439,6.12805,-7.16463,-10.1118,0.234712,-0.160466,-1.12805,24.6646,7.92683
6633.05,15.6127,7.88431,0,2.213,9.51781,-0.63468,2.28659,4.2378,-7.68293,-10.0064,0.143701,-0.162861,-1.06707,24.4817,6.98171
6633.06,15.4916,7.51611,0,2.29682,9.47949,-0.66821,2.71341,1.95122,-8.29268,-9.87467,0.117356,-0.222737,-0.27439,24.5427,6.18902
6633.07,15.3966,7.13187,0,2.52914,9.52739,-0.708926,3.07927,0.396341,-8.41463,-9.83635,0.177231,-0.354463,0.548781,24.8476,5.94512
6633.08,15.3264,6.76761,0,2.692,9.37411,-0.802332,2.37805,1.0061,-8.44512,-9.88904,0.232317,-0.335303,0.701219,25.2134,6.43293
6633.09,15.2979,6.43002,0,2.94827,9.1825,-0.771196,1.25,4.05488,-7.95732,-9.98005,0.246687,-0.285007,1.25,24.5732,7.22561
6633.1,15.2998,6.09185,0,3.08239,9.18011,-0.766406,2.95732,7.22561,-6.4939,-10.0423,0.366438,-0.349673,1.76829,23.2927,7.80488
6633.11,15.3222,5.75824,0,3.14945,9.23999,-0.699346,3.47561,8.07927,-5,-10.004,0.462239,-0.387993,2.16463,22.5305,8.35366
6633.12,15.3508,5.44621,0,3.11353,9.28789,-0.55325,3.71951,7.16463,-3.90244,-9.99921,0.490979,-0.352068,2.04268,21.189,8.75
6633.13,15.385,5.15172,0,3.08958,9.31663,-0.66821,3.56707,6.37195,-3.14024,-10.0208,0.445474,-0.330513,1.7378,20.4573,8.71951
6633.14,15.4159,4.86533,0,3.02491,9.43398,-0.730481,4.08537,7.22561,-2.46951,-10.0878,0.292192,-0.349673,1.64634,19.2073,7.7439
6633.15,15.4329,4.55744,0,2.83091,9.48188,-0.723296,4.02439,9.57317,-1.61585,-10.0208,0.146096,-0.493374,1.98171,18.4146,6.37195
6633.16,15.4087,4.24426,0,2.5483,9.46991,-0.864602,3.59756,12.378,-1.34146,-9.82677,0.141306,-0.560435,2.46951,17.561,5.21341
6633.17,15.3495,3.94523,0,2.33035,9.44596,-0.857417,4.26829,11.2805,-1.76829,-9.69504,0.198787,-0.546064,3.53659,16.8293,5
6633.18,15.3017,3.64541,0,2.41178,9.54176,-0.787961,4.5122,9.17683,-1.31098,-9.69983,0.193997,-0.60115,3.71951,16.0671,5.18293
6633.19,15.2585,3.33756,0,2.41897,9.43638,-0.893342,4.72561,8.04878,-2.0122,-9.8076,0.153281,-0.694556,4.48171,15.7012,5.33537
6633.2,15.2352,3.02275,0,2.55788,9.36213,-0.778381,5.2439,7.37805,-2.43902,-9.84353,0.352068,-0.780776,4.39024,15.6098,5.82317
6633.21,15.2148,2.72328,0,2.5483,9.49146,-0.608335,3.29268,6.85976,-1.4939,-10.0064,0.529299,-0.780776,3.9939,15.7317,6.4939
6633.22,15.163,2.42266,0,2.3543,9.44596,-0.59636,1.92073,5.18293,-1.15854,-10.1214,0.58199,-0.847837,3.53659,16.128,7.16463
6633.23,15.108,2.14931,0,2.33514,9.5202,-0.55325,1.12805,2.04268,-1.34146,-10.2986,0.5772,-0.792751,2.16463,15.8537,7.22561
6633.24,15.0691,1.90052,0,2.42855,9.57529,-0.701741,0.701219,-0.823171,-1.34146,-10.392,0.546064,-0.737666,0.884146,14.7256,6.82927
6633.25,15.0495,1.65437,0,2.56028,9.62079,-0.783171,0.914634,-1.95122,-1.55488,-10.2938,0.447869,-0.764011,-0.27439,14.2683,5.7622
6633.26,15.054,1.38136,0,2.73751,9.62798,-0.795146,1.21951,-0.487805,-1.70732,-10.1357,0.409548,-0.917292,-0.518293,13.8415,5.03049
6633.27,15.057,1.10514,0,2.71356,9.57289,-1.0107,1.28049,2.40854,-1.7378,-10.0232,0.361648,-0.969983,-0.182927,13.4451,4.7561
6633.28,15.056,0.838912,0,2.69679,9.44596,-0.972378,1.61585,4.90854,-2.2561,-9.90101,0.332908,-0.962798,0.0609756,12.8354,4.63415
6633.29,15.0263,0.603063,0,2.56028,8.95737,-0.843047,2.56098,6.67683,-4.90854,-9.82916,0.251477,-0.869392,0.243902,12.561,4.57317
6633.3,14.9238,0.365249,0,2.39741,8.95737,-0.799937,1.15854,7.53049,-10.3659,-9.8076,0.225132,-0.917292,0.396341,11.9207,4.39024
6633.31,14.8449,0.0989595,0,2.76385,9.44356,-1.23823,3.47561,9.72561,-10.8841,-9.86509,0.153281,-1.08973,0.853659,11.2195,4.66463
6633.32,14.8159,-0.170981,0,2.78062,9.63037,-0.538879,4.54268,11.6159,-5.54878,-9.96568,0.201182,-1.16398,0.853659,11.25,4.17683
6633.33,14.7812,-0.445581,0,2.48603,9.83874,-0.435894,3.01829,9.78659,-2.0122,-9.99681,0.380808,-1.23583,0.914634,11.7073,4.7561
6633.34,14.7812,-0.695709,0,2.62734,9.45554,-0.737666,2.2561,10.2744,-1.95122,-10.0256,0.505349,-1.17835,0.823171,11.7988,5.36585
6633.35,14.807,-0.91577,0,2.76385,9.39806,-0.713716,2.9878,10.3963,-1.76829,-10.0615,0.438289,-1.09213,-0.365854,11.6768,5.85366
6633.36,14.8332,-1.11952,0,2.78062,9.46991,-0.673001,3.53659,8.87195,-1.64634,-10.107,0.409548,-1.06339,-1.46341,11.0366,5.97561
6633.37,14.8572,-1.3315,0,2.73272,9.53457,-0.708926,2.77439,9.66463,-1.18902,-10.1094,0.361648,-1.13763,-1.64634,10.4573,5.42683
6633.38,14.8529,-1.54117,0,2.56986,9.45075,-0.680186,4.02439,10.2134,-1.4939,-10.0136,0.376018,-1.1544,-2.10366,10.0305,5.06098
6633.39,14.8207,-1.75435,0,2.42136,9.51062,-0.632285,4.14634,8.81098,-1.7378,-9.9537,0.416733,-1.1999,-1.79878,10.1829,5.15244
6633.4,14.7919,-1.956,0,2.44771,9.5226,-0.613125,2.31707,8.17073,-1.89024,-9.88664,0.416733,-1.17835,-1.85976,9.93902,5.54878
6633.41,14.7799,-2.14372,0,2.51717,9.38848,-0.799937,2.92683,7.56098,-1.82927,-9.88425,0.356858,-1.152,-1.4939,9.72561,5.27439
6633.42,14.7734,-2.31814,0,2.58662,9.40764,-0.737666,3.44512,7.31707,-2.16463,-9.87706,0.323328,-1.12566,-1.52439,9.2378,5
6633.43,14.7711,-2.49501,0,2.67045,9.46033,-0.754431,2.92683,7.37805,-2.56098,-9.9082,0.325723,-1.17116,-1.37195,8.44512,5.33537
6633.44,14.7775,-2.69426,0,2.66326,9.45554,-0.65863,2.86585,7.2561,-1.89024,-9.89862,0.359253,-1.3005,-1.18902,7.80488,5.70122
6633.45,14.7686,-2.92166,0,2.51717,9.4723,-0.684976,2.13415,6.70732,-1.25,-9.93454,0.340093,-1.46575,-1.28049,8.38415,5.85366
6633.46,14.7459,-3.1433,0,2.44292,9.43398,-0.728086,1.76829,5.03049,-1.61585,-9.93454,0.340093,-1.48012,-1.76829,8.75,6.31098
6633.47,14.7225,-3.35763,0,2.45969,9.48667,-0.730481,1.28049,2.89634,-1.82927,-9.93933,0.316143,-1.48731,-1.67683,8.93293,6.64634
6633.48,14.7094,-3.56664,0,2.54351,9.45075,-0.735271,1.15854,2.31707,-2.19512,-9.9082,0.261057,-1.49689,-1.28049,8.71951,6.85976
6633.49,14.7064,-3.74684,0,2.66805,9.44835,-0.766406,1.31098,2.40854,-2.7439,-9.96089,0.246687,-1.41306,-1.64634,8.32317,6.82927
6633.5,14.7256,-3.91208,0,2.77822,9.45793,-0.761616,1.64634,3.53659,-2.16463,-10.0208,0.184417,-1.38672,-1.76829,7.71341,6.0061
6633.51,14.7724,-4.07478,0,2.85486,9.34776,-0.711321,1.95122,4.66463,-1.64634,-10.0112,0.210762,-1.40348,-1.31098,6.95122,5.88415
6633.52,14.8294,-4.23614,0,2.81894,9.38848,-0.670605,2.34756,5.94512,-1.0061,-10.0016,0.232317,-1.42504,-1.31098,6.64634,5.42683
6633.53,14.9015,-4.39963,0,2.76625,9.40045,-0.771196,2.19512,7.04268,-0.335366,-9.92017,0.244292,-1.45138,-0.945122,6.79878,5
6633.54,14.9644,-4.55384,0,2.75427,9.31902,-0.833467,2.92683,7.62195,-0.579268,-9.8603,0.225132,-1.42983,-0.426829,6.34146,5.2439
6633.55,15.0212,-4.71519,0,2.75427,9.32381,-0.847837,2.95732,8.62805,-0.640244,-9.81,0.213157,-1.48012,-0.365854,5.94512,5
6633.56,15.0705,-4.88101,0,2.74948,9.34297,-0.759221,2.92683,8.14024,-0.701219,-9.81958,0.222737,-1.52323,0.0304878,4.7561,5.33537
6633.57,15.1008,-5.03179,0,2.692,9.41243,-0.737666,2.71341,7.46951,-0.640244,-9.87706,0.239502,-1.4921,0.487805,4.39024,5.36585
6633.58,15.1118,-5.216,0,2.61297,9.44356,-0.684976,3.10976,6.79878,-0.518293,-9.89622,0.285007,-1.65975,0.640244,3.90244,5.82317
6633.59,15.121,-5.37949,0,2.64171,9.48188,-0.780776,2.19512,6.40244,-0.792683,-9.92257,0.349673,-1.60227,0.579268,3.68902,6.09756
6633.6,15.137,-5.51632,0,2.65847,9.41961,-0.771196,1.64634,5.85366,-0.823171,-9.96568,0.364043,-1.52084,0.213415,3.56707,6.28049
6633.61,15.153,-5.64882,0,2.66087,9.45314,-0.866997,1.76829,5.82317,-0.701219,-10.0711,0.402363,-1.53042,-0.0914634,3.01829,6.89024
6633.62,15.1779,-5.78784,0,2.69679,9.46751,-0.857417,1.58537,5.7622,-0.579268,-10.095,0.395178,-1.56395,-0.304878,2.5,7.13415
6633.63,15.2041,-5.93287,0,2.692,9.43638,-0.857417,1.4939,5.73171,-0.548781,-10.119,0.344883,-1.58071,-0.670732,1.95122,7.22561
6633.64,15.2584,-6.06066,0,2.73272,9.35495,-0.773591,1.89024,5.2439,-0.243902,-10.1621,0.253872,-1.54718,-1.28049,1.92073,7.04268
6633.65,15.3213,-6.21526,0,2.78062,9.43159,-0.785566,2.22561,5.79268,-0.0914634,-10.0878,0.162861,-1.60227,-1.46341,1.43293,6.70732
6633.66,15.3524,-6.41214,0,2.70637,9.47709,-0.802332,1.18902,5.57927,0.457317,-9.96568,0.186812,-1.76513,-1.12805,1.58537,6.43293
6633.67,15.3306,-6.58969,0,2.5004,9.4747,-0.833467,0.548781,4.57317,0.426829,-9.86988,0.268242,-1.80105,-0.701219,2.43902,6.79878
6633.68,15.2463,-6.73879,0,2.33275,9.52978,-0.716111,0.579268,2.68293,-0.182927,-9.88664,0.270637,-1.74597,-0.731707,2.80488,7.16463
6633.69,15.1835,-6.87974,0,2.34472,9.59205,-0.742456,-0.609756,0.731707,-0.792683,-9.91778,0.239502,-1.74597,-0.548781,2.80488,7.2561
6633.7,15.1465,-7.0081,0,2.44531,9.54415,-0.792751,-1.37195,-1.06707,-1.21951,-9.94891,0.203577,-1.71723,-0.335366,2.62195,7.16463
6633.71,15.1355,-7.12467,0,2.5962,9.45554,-0.790356,-1.15854,-2.71341,-1.70732,-9.97047,0.189207,-1.68609,-0.0914634,2.40854,6.79878
6633.72,15.1563,-7.23698,0,2.80696,9.39806,-0.790356,-0.884146,-2.83537,-1.85976,-9.96089,0.150886,-1.65496,0.0609756,1.89024,6.4939
6633.73,15.2025,-7.34029,0,2.89558,9.35495,-0.749641,-1.0061,-2.83537,-1.43293,-9.99442,0.174836,-1.61903,0.213415,1.4939,6.4939
6633.74,15.2803,-7.4565,0,2.95066,9.33579,-0.790356,-0.792683,-1.7378,-0.853659,-9.99921,0.213157,-1.64538,0.396341,1.12805,6.18902
6633.75,15.4016,-7.60231,0,2.91474,9.31423,-0.852627,-0.609756,-0.945122,-0.0609756,-9.9561,0.244292,-1.71483,0.823171,0.914634,5.94512
6633.76,15.5151,-7.74589,0,2.90037,9.32142,-0.893342,-0.579268,-0.487805,0,-9.86748,0.244292,-1.72441,1.03659,1.03659,6.31098
6633.77,15.5999,-7.88035,0,2.85726,9.35974,-0.857417,-0.457317,0.609756,-0.0304878,-9.81479,0.299377,-1.70286,1.52439,1.0061,5.94512
6633.78,15.6489,-7.9924,0,2.79259,9.3789,-0.833467,-0.518293,0.853659,-0.213415,-9.78605,0.273032,-1.6837,1.55488,1.25,5.73171
6633.79,15.6786,-8.10258,0,2.75667,9.40524,-0.799937,-0.457317,0.823171,-0.335366,-9.86269,0.258662,-1.65256,1.4939,0.670732,6.06707
6633.8,15.6992,-8.19956,0,2.75906,9.44596,-0.809517,-0.0609756,0.762195,-0.518293,-9.88185,0.225132,-1.63819,1.61585,0.609756,5.79268
6633.81,15.72,-8.30126,0,2.77583,9.44596,-0.740061,-0.304878,0.457317,-0.640244,-9.92975,0.208367,-1.66693,1.61585,0.487805,5.60976
6633.82,15.755,-8.39329,0,2.84528,9.41243,-0.783171,-0.396341,0.0914634,-0.731707,-9.95131,0.265847,-1.66214,1.43293,0.426829,5.33537
6633.83,15.8136,-8.46822,0,2.85965,9.36453,-0.831072,-0.579268,1.15854,-0.27439,-9.9058,0.311353,-1.64298,1.40244,0.609756,5.39634
6633.84,15.8855,-8.55057,0,2.86923,9.32142,-0.764011,0.0914634,1.21951,-0.121951,-9.84832,0.330513,-1.62382,1.37195,0.213415,5.57927
6633.85,15.9312,-8.6307,0,2.81894,9.37411,-0.792751,0.182927,1.95122,0.243902,-9.85072,0.304167,-1.64059,1.25,-0.27439,6.03659
6633.86,15.956,-8.70923,0,2.75188,9.36692,-0.759221,-0.0914634,0.97561,0.335366,-9.8579,0.273032,-1.66693,1.18902,-0.426829,6.06707
6633.87,15.9796,-8.77247,0,2.75188,9.34776,-0.684976,-0.0304878,-0.0609756,-0.152439,-9.89622,0.328118,-1.69328,1.15854,-0.945122,6.06707
6633.88,15.9823,-8.84648,0,2.70398,9.42201,-0.819097,-0.27439,0,0.0914634,-9.93215,0.320933,-1.72202,1.18902,-0.670732,6.64634
6633.89,15.9952,-8.8791,0,2.7399,9.43159,-0.737666,-1.03659,-0.609756,0.152439,-9.93694,0.337698,-1.64298,1.25,-1.03659,6.25
6633.9,16.0056,-8.90348,0,2.7423,9.41003,-0.809517,-0.670732,0.182927,-0.243902,-9.95849,0.313748,-1.62861,0.792683,-1.03659,6.43293
6633.91,16.0159,-8.93799,0,2.75667,9.45075,-0.807122,-0.487805,0.487805,-0.243902,-9.9537,0.282612,-1.66214,0.640244,-1.03659,6.31098
6633.92,16.0298,-8.97772,0,2.77343,9.42201,-0.809517,-0.518293,0.884146,-0.396341,-9.88904,0.287402,-1.67891,0.426829,-1.25,6.52439
6633.93,16.0527,-8.99753,0,2.81654,9.38369,-0.804727,-0.0304878,0.97561,-0.579268,-9.89622,0.296982,-1.62622,0.0304878,-1.28049,6.61585
6633.94,16.0902,-9.0144,0,2.85726,9.3789,-0.732876,-0.0304878,0.152439,-0.396341,-9.86988,0.280217,-1.61424,0.396341,-1.18902,6.67683
6633.95,16.1183,-9.02945,0,2.80936,9.37411,-0.696951,-0.823171,-0.457317,-0.243902,-9.86509,0.241897,-1.61185,0.396341,-1.25,6.7378
6633.96,16.159,-9.05367,0,2.8381,9.36453,-0.754431,-0.945122,-0.213415,0.213415,-9.84832,0.210762,-1.65017,0.152439,-1.7378,7.04268
6633.97,16.2128,-9.06027,0,2.8836,9.31902,-0.680186,-0.97561,-0.426829,0.365854,-9.86988,0.237107,-1.59748,0.243902,-1.79878,7.16463
6633.98,16.2555,-9.06376,0,2.90516,9.39566,-0.749641,-1.21951,0.548781,0.97561,-9.86748,0.232317,-1.5879,0.335366,-1.98171,7.04268
6633.99,16.2871,-9.07479,0,2.84768,9.3765,-0.859812,-1.76829,0.27439,0.792683,-9.84593,0.225132,-1.61424,0.213415,-2.22561,7.07317
6634,16.2878,-9.11113,0,2.72314,9.39566,-0.780776,-0.853659,0.213415,0.609756,-9.83156,0.268242,-1.70046,0.213415,-1.85976,6.98171
6634.01,16.2658,-9.13308,0,2.68482,9.44117,-0.711321,-0.853659,-0.640244,0.0914634,-9.79084,0.308958,-1.64777,0.121951,-1.82927,6.95122
6634.02,16.247,-9.16928,0,2.69679,9.43398,-0.764011,-1.0061,-1.12805,-0.640244,-9.85072,0.323328,-1.70525,-0.0914634,-1.55488,6.76829
6634.03,16.2513,-9.19447,0,2.80936,9.39087,-0.718506,-1.37195,-1.98171,-1.0061,-9.8555,0.325723,-1.66933,0.304878,-1.28049,7.34756
6634.04,16.2642,-9.22816,0,2.87163,9.4268,-0.742456,-1.03659,-1.46341,-1.03659,-9.89143,0.344883,-1.69807,0.335366,-1.0061,6.95122
6634.05,16.2891,-9.23753,0,2.87163,9.34776,-0.754431,-1.03659,-0.670732,-0.731707,-9.95849,0.337698,-1.65017,0.304878,-1.40244,7.10366
6634.06,16.3208,-9.23629,0,2.92911,9.35734,-0.790356,-1.09756,-0.365854,-0.853659,-9.97286,0.268242,-1.61903,0.121951,-1.85976,7.04268
6634.07,16.3722,-9.24325,0,2.95785,9.32142,-0.752036,-0.945122,-0.335366,-0.518293,-9.96568,0.251477,-1.65017,0.182927,-2.34756,7.0122
6634.08,16.4346,-9.25737,0,2.9818,9.29028,-0.764011,-0.914634,-0.457317,-0.426829,-9.90341,0.261057,-1.66933,-0.121951,-2.40854,6.95122
6634.09,16.4976,-9.27229,0,2.9818,9.25915,-0.819097,-0.457317,0.0914634,-0.426829,-9.8579,0.277822,-1.66693,0.0609756,-2.40854,7.40854
6634.1,16.5309,-9.29611,0,2.89797,9.34537,-0.716111,-0.426829,1.12805,-0.304878,-9.78844,0.258662,-1.68849,0.0304878,-2.19512,7.56098
6634.11,16.53,-9.32166,0,2.79259,9.3765,-0.696951,-0.426829,0.853659,-0.365854,-9.78366,0.246687,-1.69088,0,-1.79878,7.56098
6634.12,16.5068,-9.35282,0,2.71356,9.39087,-0.728086,-0.579268,0.426829,-0.487805,-9.79563,0.268242,-1.71244,0.27439,-1.61585,7.59146
6634.13,16.4787,-9.39777,0,2.69919,9.43877,-0.778381,-1.12805,0.27439,-0.853659,-9.80521,0.222737,-1.75076,0.579268,-1.25,7.28659
6634.14,16.466,-9.42348,0,2.7902,9.44356,-0.775986,-0.914634,-0.548781,-1.25,-9.86269,0.227527,-1.70046,0.670732,-0.823171,7.22561
6634.15,16.4657,-9.41102,0,2.87642,9.38608,-0.744851,-0.914634,-0.945122,-1.64634,-9.91299,0.296982,-1.61424,0.609756,-0.701219,7.40854
6634.16,16.4759,-9.40228,0,2.95066,9.34058,-0.747246,-1.25,-0.945122,-1.82927,-9.94891,0.280217,-1.62622,0.792683,-0.792683,6.95122
6634.17,16.5063,-9.3849,0,3.01772,9.36692,-0.787961,-1.34146,-0.548781,-1.25,-9.97047,0.280217,-1.59987,0.365854,-1.06707,7.0122
6634.18,16.5388,-9.37891,0,3.03449,9.31902,-0.728086,-0.823171,0.213415,-1.37195,-9.93694,0.282612,-1.62622,0.518293,-0.945122,6.89024
6634.19,16.586,-9.36056,0,3.04407,9.34776,-0.708926,-1.15854,0.945122,-0.823171,-9.89383,0.292192,-1.57592,0.243902,-1.43293,6.85976
6634.2,16.6032,-9.35715,0,2.89318,9.3765,-0.780776,-1.18902,1.52439,-0.609756,-9.81479,0.282612,-1.60945,0.0914634,-1.0061,6.92073
6634.21,16.5956,-9.35997,0,2.7878,9.35016,-0.807122,-1.12805,1.43293,-0.792683,-9.78366,0.287402,-1.62143,0.121951,-1.21951,7.19512
6634.22,16.5804,-9.35532,0,2.77104,9.35974,-0.783171,-0.792683,0.731707,-1.21951,-9.81479,0.285007,-1.60706,0.213415,-0.731707,7.16463
6634.23,16.5623,-9.33739,0,2.78541,9.36213,-0.787961,-1.03659,0.0609756,-1.82927,-9.82677,0.277822,-1.58311,0.304878,-0.335366,7.07317
6634.24,16.5541,-9.30608,0,2.85007,9.35734,-0.771196,-1.28049,-0.213415,-1.85976,-9.93933,0.263452,-1.57113,0.121951,-0.213415,7.19512
6634.25,16.5516,-9.28336,0,2.91234,9.36932,-0.701741,-1.06707,-0.27439,-2.07317,-9.9537,0.253872,-1.56874,0.0914634,-0.884146,6.82927
6634.26,16.5686,-9.26726,0,3.01293,9.331,-0.752036,-0.853659,0.365854,-1.85976,-9.97765,0.256267,-1.58311,0.0914634,-1.09756,6.61585
6634.27,16.6111,-9.25445,0,3.07281,9.25436,-0.665815,-0.731707,0.884146,-1.34146,-9.97286,0.256267,-1.5855,0.121951,-1.46341,6.61585
6634.28,16.6628,-9.25106,0,3.08718,9.27352,-0.761616,-1.06707,1.4939,-1.03659,-9.91299,0.277822,-1.60466,0.304878,-1.82927,6.67683
6634.29,16.7274,-9.23803,0,3.03928,9.32621,-0.780776,-0.731707,2.0122,-0.304878,-9.87706,0.289797,-1.56395,0.426829,-1.85976,6.43293
6634.3,16.7435,-9.22199,0,2.89318,9.34058,-0.802332,-1.15854,2.65244,-0.518293,-9.85311,0.277822,-1.54479,0.365854,-2.13415,6.7378
6634.31,16.7293,-9.21009,0,2.79259,9.3789,-0.754431,-0.853659,2.95732,-0.853659,-9.86988,0.285007,-1.56155,0.121951,-1.89024,6.52439
6634.32,16.7066,-9.20241,0,2.76864,9.41722,-0.754431,-0.670732,2.43902,-1.21951,-9.89622,0.325723,-1.57832,0.152439,-1.95122,6.28049
6634.33,16.6885,-9.19536,0,2.79499,9.38129,-0.756826,-0.762195,1.79878,-1.52439,-9.9058,0.285007,-1.58071,0.182927,-1.95122,6.34146
6634.34,16.673,-9.20639,0,2.79738,9.36932,-0.699346,-0.884146,0.823171,-1.40244,-9.94652,0.268242,-1.65256,0.396341,-1.92073,6.61585
6634.35,16.6468,-9.20032,0,2.74948,9.38369,-0.61073,-0.97561,0.243902,-1.7378,-9.9537,0.239502,-1.59269,0.518293,-1.89024,6.58537
6634.36,16.6202,-9.2137,0,2.7423,9.41003,-0.718506,-1.40244,-0.640244,-1.58537,-9.9058,0.201182,-1.65496,0.548781,-1.92073,6.58537
6634.37,16.5988,-9.21783,0,2.77822,9.43638,-0.725691,-1.21951,-1.15854,-1.58537,-9.8603,0.186812,-1.61664,0.945122,-2.10366,6.67683
6634.38,16.5906,-9.20272,0,2.86205,9.39806,-0.65384,-1.58537,-1.12805,-1.76829,-9.87706,0.177231,-1.54958,0.518293,-1.98171,6.85976
6634.39,16.5856,-9.18893,0,2.89558,9.42919,-0.682581,-1.70732,-0.396341,-1.79878,-9.91299,0.189207,-1.55676,0.609756,-2.0122,7.19512
6634.4,16.574,-9.17925,0,2.85726,9.40285,-0.708926,-2.0122,-0.762195,-2.0122,-9.9058,0.196392,-1.56874,0.914634,-1.95122,6.7378
6634.41,16.5718,-9.18237,0,2.91713,9.32381,-0.63468,-1.64634,-1.15854,-2.22561,-9.88904,0.198787,-1.61185,0.762195,-2.22561,6.7378
6634.42,16.5791,-9.18341,0,2.94108,9.35255,-0.732876,-1.7378,-0.335366,-1.70732,-9.90341,0.227527,-1.60706,1.18902,-2.40854,6.7378
6634.43,16.6105,-9.17101,0,3.01293,9.29747,-0.673001,-1.70732,-0.884146,-1.25,-9.8603,0.277822,-1.54958,1.34146,-2.16463,7.0122
6634.44,16.6484,-9.164,0,2.96743,9.2807,-0.694556,-1.4939,-1.0061,-0.731707,-9.79084,0.265847,-1.55676,1.28049,-2.16463,7.0122
6634.45,16.6525,-9.16588,0,2.87881,9.331,-0.723296,-1.76829,-0.792683,-1.21951,-9.77886,0.244292,-1.5855,1.61585,-1.79878,6.85976
6634.46,16.6506,-9.16852,0,2.84289,9.38848,-0.713716,-1.76829,-0.853659,-0.914634,-9.76449,0.253872,-1.5855,1.58537,-1.61585,6.89024
6634.47,16.6411,-9.15708,0,2.80696,9.35495,-0.699346,-2.07317,-0.152439,-1.15854,-9.80521,0.251477,-1.54718,1.7378,-1.52439,6.79878
6634.48,16.6171,-9.14559,0,2.76146,9.4244,-0.725691,-1.89024,-0.853659,-1.58537,-9.84353,0.287402,-1.54958,1.82927,-1.64634,6.89024
6634.49,16.5997,-9.1308,0,2.83331,9.41722,-0.680186,-1.67683,-1.25,-2.10366,-9.89862,0.227527,-1.54479,1.92073,-1.61585,6.7378
6634.5,16.5866,-9.11478,0,2.87402,9.40764,-0.641865,-1.89024,-1.43293,-2.28659,-9.9058,0.208367,-1.5376,1.79878,-1.7378,6.7378
6634.51,16.5874,-9.11676,0,2.93869,9.35255,-0.661025,-2.5,-2.04268,-2.10366,-9.96089,0.220342,-1.60706,1.85976,-1.89024,6.61585
6634.52,16.5949,-9.128,0,2.94587,9.3286,-0.694556,-2.9878,-1.4939,-1.79878,-9.96328,0.208367,-1.64059,1.82927,-1.7378,6.58537
6634.53,16.6068,-9.13603,0,2.94108,9.29747,-0.696951,-2.80488,-2.04268,-1.58537,-9.93215,0.275427,-1.62622,2.16463,-1.79878,6.61585
6634.54,16.6455,-9.12753,0,3.00096,9.28549,-0.687371,-2.53049,-2.13415,-0.914634,-9.92017,0.282612,-1.56634,2.04268,-1.85976,6.79878
6634.55,16.6762,-9.11897,0,2.99138,9.29986,-0.720901,-2.59146,-1.18902,-1.03659,-9.87706,0.234712,-1.55676,2.40854,-2.13415,7.10366
6634.56,16.6784,-9.1076,0,2.90037,9.331,-0.804727,-2.53049,-0.304878,-1.52439,-9.9058,0.253872,-1.54958,2.07317,-2.04268,6.98171
6634.57,16.6783,-9.09218,0,2.91234,9.40764,-0.754431,-2.65244,-0.731707,-1.52439,-9.90341,0.253872,-1.53281,2.28659,-1.98171,6.92073
6634.58,16.6665,-9.07443,0,2.87642,9.38129,-0.787961,-2.43902,0.213415,-2.13415,-9.89862,0.241897,-1.51844,2.07317,-2.22561,6.95122
6634.59,16.6399,-9.06416,0,2.78301,9.4244,-0.696951,-2.04268,0.548781,-2.19512,-9.93215,0.246687,-1.54958,1.89024,-2.07317,6.85976
6634.6,16.6069,-9.05321,0,2.77583,9.42919,-0.66821,-2.5,-0.670732,-2.83537,-9.93933,0.263452,-1.54718,1.82927,-1.92073,6.61585
6634.61,16.5781,-9.0406,0,2.80217,9.4244,-0.773591,-2.9878,-0.670732,-2.83537,-9.91538,0.237107,-1.53521,1.52439,-1.98171,6.61585
6634.62,16.5605,-9.02497,0,2.8836,9.37171,-0.632285,-2.71341,-0.335366,-2.9878,-9.9058,0.270637,-1.51844,1.31098,-2.22561,7.0122
6634.63,16.5536,-9.00519,0,2.94348,9.38369,-0.560435,-2.80488,-0.670732,-2.68293,-9.88185,0.217947,-1.49449,1.06707,-2.43902,7.04268
6634.64,16.5398,-8.9985,0,2.86444,9.36213,-0.65863,-2.89634,0.365854,-2.5,-9.87227,0.232317,-1.54,1.18902,-2.71341,7.5
6634.65,16.5355,-8.99612,0,2.90995,9.35016,-0.646655,-2.86585,-0.487805,-2.28659,-9.89143,0.205972,-1.55916,1.46341,-2.71341,7.5
6634.66,16.5356,-8.99412,0,2.95545,9.32381,-0.64426,-2.77439,-0.548781,-2.5,-9.88425,0.170046,-1.55916,1.79878,-2.62195,7.68293
6634.67,16.5366,-8.98484,0,2.94587,9.35016,-0.622705,-3.20122,-0.609756,-2.2561,-9.89383,0.193997,-1.53042,1.70732,-2.89634,7.7439
6634.68,16.5244,-8.96752,0,2.88121,9.3765,-0.646655,-3.07927,-0.518293,-2.53049,-9.88185,0.170046,-1.49449,1.82927,-2.83537,7.65244
6634.69,16.5097,-8.93944,0,2.85965,9.3789,-0.603545,-3.23171,-0.945122,-2.53049,-9.88904,0.198787,-1.44659,1.58537,-3.10976,7.62195
6634.7,16.5029,-8.92056,0,2.93629,9.3789,-0.735271,-2.59146,-0.914634,-2.71341,-9.87946,0.172441,-1.47773,1.55488,-3.2622,7.10366
6634.71,16.4923,-8.90999,0,2.92192,9.40524,-0.632285,-2.86585,-0.457317,-2.80488,-9.89143,0.182021,-1.51126,1.09756,-3.14024,7.04268
6634.72,16.4788,-8.88442,0,2.90276,9.39087,-0.62031,-2.71341,0.457317,-2.92683,-9.86988,0.189207,-1.4442,1.55488,-3.10976,7.0122
6634.73,16.4597,-8.89326,0,2.85247,9.40764,-0.62989,-3.01829,1.0061,-2.83537,-9.82916,0.170046,-1.57592,1.55488,-3.20122,7.31707
6634.74,16.4277,-8.89454,0,2.75667,9.45554,-0.550855,-3.53659,0.914634,-2.80488,-9.83635,0.141306,-1.54718,1.92073,-3.14024,7.37805
6634.75,16.3878,-8.90934,0,2.70877,9.43398,-0.526904,-3.78049,-0.0914634,-3.17073,-9.85072,0.134121,-1.60466,2.5,-2.92683,7.56098
6634.76,16.3503,-8.90514,0,2.73511,9.44356,-0.536484,-3.90244,-1.46341,-3.32317,-9.88664,0.155676,-1.53521,2.89634,-2.86585,8.07927
6634.77,16.3207,-8.899,0,2.79259,9.44356,-0.524509,-4.42073,-2.28659,-3.29268,-9.92975,0.162861,-1.53281,2.86585,-3.20122,7.89634
6634.78,16.2945,-8.88596,0,2.82373,9.36692,-0.598755,-4.5122,-3.01829,-3.65854,-9.88904,0.198787,-1.49689,2.80488,-3.10976,7.95732
6634.79,16.2816,-8.87849,0,2.92192,9.35974,-0.64905,-4.11585,-2.80488,-3.56707,-9.92736,0.184417,-1.52323,2.68293,-3.44512,8.04878
6634.8,16.2711,-8.86344,0,2.92911,9.35255,-0.65863,-3.96341,-1.89024,-3.47561,-9.89622,0.225132,-1.48491,2.83537,-3.5061,8.2622
6634.81,16.2618,-8.85526,0,2.92911,9.31902,-0.64426,-4.05488,-1.95122,-3.5061,-9.89622,0.237107,-1.51126,2.56098,-3.84146,8.10976
6634.82,16.2518,-8.86254,0,2.95785,9.32142,-0.677791,-4.14634,-1.43293,-3.87195,-9.89622,0.203577,-1.57592,2.53049,-3.5061,8.62805
6634.83,16.2354,-8.87225,0,2.90516,9.35495,-0.694556,-4.08537,-1.09756,-3.81098,-9.89862,0.220342,-1.5879,2.7439,-3.47561,8.81098
6634.84,16.2149,-8.8751,0,2.89318,9.39327,-0.627495,-4.78659,-0.853659,-3.96341,-9.92017,0.210762,-1.56395,2.5,-3.59756,8.81098
6634.85,16.1874,-8.86814,0,2.85247,9.40764,-0.66342,-4.63415,-0.823171,-4.17683,-9.91059,0.208367,-1.52084,2.37805,-3.65854,9.11585
6634.86,16.1597,-8.85717,0,2.87642,9.36932,-0.59636,-4.60366,-1.46341,-4.66463,-9.92257,0.170046,-1.50407,2.62195,-3.81098,8.81098
6634.87,16.1471,-8.84581,0,2.96743,9.33818,-0.608335,-4.72561,-1.52439,-4.35976,-9.93215,0.136516,-1.50168,2.0122,-4.2378,8.84146
6634.88,16.1311,-8.83277,0,2.94587,9.34537,-0.58199,-4.72561,-0.884146,-4.45122,-9.89862,0.160466,-1.48731,2.10366,-4.2378,9.26829
6634.89,16.1243,-8.82422,0,2.99377,9.331,-0.584385,-4.35976,-1.06707,-4.17683,-9.87946,0.217947,-1.50168,2.2561,-4.29878,9.54268
6634.9,16.1166,-8.81479,0,2.99138,9.34537,-0.536484,-4.20732,-0.762195,-4.20732,-9.89862,0.205972,-1.49928,2.37805,-4.7561,9.45122
6634.91,16.1049,-8.79395,0,2.95306,9.35495,-0.548459,-4.08537,-0.701219,-4.14634,-9.87467,0.220342,-1.4442,2.31707,-4.45122,9.39024
6634.92,16.0886,-8.77087,0,2.94348,9.36932,-0.57241,-4.2378,-1.03659,-4.45122,-9.92017,0.179626,-1.43701,2.28659,-4.84756,9.63415
6634.93,16.072,-8.7524,0,2.91713,9.331,-0.584385,-4.48171,-1.18902,-4.35976,-9.87467,0.213157,-1.44659,2.10366,-4.84756,9.5122
6634.94,16.0606,-8.70973,0,2.95066,9.29507,-0.55325,-4.29878,-1.55488,-4.39024,-9.86988,0.244292,-1.33642,1.25,-5.09146,9.7561
6634.95,16.0494,-8.67951,0,2.96982,9.35495,-0.574805,-4.17683,-1.46341,-4.39024,-9.87467,0.253872,-1.38432,1.09756,-4.93902,9.69512
6634.96,16.0454,-8.63917,0,3.02491,9.33579,-0.622705,-4.5122,-1.98171,-4.39024,-9.94412,0.237107,-1.34361,0.701219,-5.33537,9.81707
6634.97,16.0626,-8.613,0,3.18538,9.34537,-0.62989,-4.05488,-2.07317,-4.08537,-9.9058,0.253872,-1.3939,0.27439,-5.51829,9.81707
6634.98,16.0944,-8.59135,0,3.29315,9.331,-0.55325,-4.11585,-1.0061,-3.90244,-9.94891,0.229922,-1.41546,-0.0914634,-5.60976,10.1524
6634.99,16.1463,-8.57976,0,3.32189,9.15376,-0.543669,-3.93293,0.0304878,-3.23171,-9.88185,0.265847,-1.44659,-0.304878,-5.64024,10.5488
6635,16.2217,-8.55075,0,3.39374,8.95258,-0.445474,-2.95732,0.152439,-2.95732,-9.89862,0.285007,-1.36995,-0.731707,-5.97561,10.6707
6635.01,16.2624,-8.51931,0,3.10874,9.2352,-0.479004,-3.17073,3.2622,-2.04268,-9.83874,0.325723,-1.346,-1.46341,-5.97561,10.6402
6635.02,16.2732,-8.48313,0,2.9315,9.47709,-0.61073,-2.43902,4.14634,-1.52439,-9.83874,0.392783,-1.31966,-1.89024,-6.09756,10.7927
6635.03,16.2819,-8.46595,0,3.05365,9.48907,-0.617915,-2.56098,3.65854,-2.68293,-9.88664,0.435894,-1.40348,-2.86585,-5.64024,10.7317
6635.04,16.3036,-8.45158,0,3.24525,9.41482,-0.665815,-1.92073,4.90854,-3.62805,-9.92257,0.526904,-1.41785,-2.77439,-5.15244,11.2805
6635.05,16.3365,-8.42152,0,3.41051,9.38369,-0.632285,-1.31098,6.12805,-4.29878,-9.99442,0.531694,-1.35558,-2.92683,-5.36585,11.6463
6635.06,16.3778,-8.38909,0,3.42727,9.35255,-0.524509,-0.548781,7.2561,-3.81098,-10.0591,0.517324,-1.3484,-3.68902,-5.85366,12.4085
6635.07,16.4566,-8.35522,0,3.60929,9.35974,-0.395178,-0.518293,6.82927,-2.65244,-10.0591,0.510139,-1.33642,-3.75,-6.52439,13.1098
6635.08,16.6664,-8.30764,0,3.85119,9.29747,-0.337698,-1.85976,6.46341,-0.670732,-10.0591,0.479004,-1.26936,-3.2622,-7.62195,13.811
6635.09,16.8716,-8.26869,0,4.1841,9.17772,-0.270637,-3.10976,5.57927,2.16463,-10.0208,0.399968,-1.29571,-2.07317,-8.71951,14.4512
6635.1,17.1468,-8.23062,0,4.70142,8.97414,-0.0958008,-5.51829,3.44512,6.0061,-9.96328,0.395178,-1.28613,-0.762195,-9.69512,14.878
6635.11,17.5518,-8.20298,0,5.2882,8.47597,0.150886,-7.40854,1.34146,11.0976,-9.87227,0.445474,-1.31487,1.03659,-10.8841,15.7317
6635.12,18.0811,-8.19453,0,5.6259,7.81734,0.407153,-5.21341,1.37195,16.8902,-9.72617,0.483794,-1.37474,2.89634,-11.2195,16.2195
6635.13,18.6251,-8.18514,0,5.30497,7.82453,0.392783,-3.29268,6.34146,22.7439,-9.64235,0.579595,-1.35798,5.2439,-11.9207,16.6768
6635.14,19.1349,-8.18496,0,4.76609,8.12391,0.00479004,0.609756,11.189,27.9878,-9.56092,0.725691,-1.38432,6.89024,-11.7073,17.1951
6635.15,19.5974,-8.18188,0,4.34457,8.70829,-0.261057,0.792683,11.6768,32.1341,-9.58247,0.802332,-1.37474,9.20732,-11.5549,16.8293
6635.16,20.0591,-8.16761,0,4.3302,8.9933,-0.323328,0.0609756,8.29268,34.6341,-9.67348,0.845442,-1.33882,11.372,-11.7378,16.128
6635.17,20.5495,-8.12883,0,4.57449,9.14897,-0.359253,-1.70732,6.64634,36.7683,-9.73336,0.819097,-1.23823,12.5,-12.4695,15.0915
6635.18,21.056,-8.09475,0,4.77806,9.33339,-0.349673,-2.10366,9.26829,38.2927,-9.65911,0.831072,-1.24302,14.4207,-13.0793,14.6037
6635.19,21.5504,-8.06122,0,4.74453,9.60163,-0.160466,-1.85976,14.1463,39.7561,-9.77407,0.835862,-1.25499,15.1829,-13.872,13.6585
6635.2,21.993,-8.01483,0,4.34457,9.94412,0.289797,-2.16463,18.2927,40.9756,-9.86748,0.845442,-1.20469,15.6707,-14.3293,13.5671
6635.21,22.3925,-7.96375,0,3.93981,10.21,0.490979,-2.9878,18.5671,42.5915,-9.98963,0.828677,-1.19032,15.9146,-14.1463,12.8354
6635.22,22.7619,-7.92897,0,3.6548,10.4159,0.613125,-4.20732,15,43.9329,-10.0351,0.833467,-1.25978,16.0366,-14.1159,12.3171
6635.23,23.1278,-7.90538,0,3.58295,10.4375,0.522114,-6.06707,9.60366,45.122,-10.1237,0.819097,-1.31487,16.2195,-13.5366,11.7683
6635.24,23.5388,-7.91212,0,3.93981,10.2866,0.215552,-7.13415,5.79268,46.372,-10.1812,0.787961,-1.45617,16.6768,-12.8963,11.4024
6635.25,23.9587,-7.93085,0,4.1817,10.2483,0.0502954,-7.2561,3.47561,45.5793,-10.2411,0.754431,-1.52084,17.1646,-12.5,11.5854
6635.26,24.3924,-7.96647,0,4.31104,10.0615,-0.155676,-8.14024,3.01829,45.8232,-10.38,0.682581,-1.62382,18.3841,-12.2866,12.0732
6635.27,24.8572,-7.99483,0,4.45234,9.74054,-0.217947,-7.40854,2.28659,47.0732,-10.5237,0.64426,-1.61903,19.5122,-12.8049,11.8293
6635.28,25.3541,-7.99999,0,4.57449,9.50104,-0.174836,-6.21951,1.95122,48.9634,-10.5956,0.632285,-1.52563,20.8537,-13.8415,11.7988
6635.29,25.8904,-7.98268,0,4.87865,9.52739,-0.0646655,-6.06707,4.2378,51.128,-10.5764,0.701741,-1.41785,21.8902,-14.6646,11.4329
6635.3,26.472,-7.93114,0,5.21635,9.45314,0.0790356,-4.72561,7.40854,53.2317,-10.4495,0.807122,-1.23823,21.6159,-15.4878,10.8537
6635.31,27.0682,-7.87768,0,5.3361,9.43398,0.304167,-3.87195,10.4268,54.6646,-10.2148,0.943638,-1.19272,20.8841,-15.9451,9.87805
6635.32,27.6571,-7.82992,0,5.22114,9.43159,0.512534,-4.11585,12.561,56.2195,-9.99921,1.04183,-1.18314,19.7866,-15.3963,9.84756
6635.33,28.238,-7.78765,0,5.06068,9.20646,0.447869,-3.9939,15.4268,56.9512,-9.82916,1.18074,-1.17835,18.689,-14.9085,9.90854
6635.34,28.8035,-7.71811,0,4.88824,8.90947,0.249082,-4.7561,16.7683,56.6463,-9.78844,1.27176,-1.04662,17.561,-14.4512,10.1829
6635.35,29.3431,-7.63338,0,4.79722,8.81607,0.308958,-5.33537,16.4634,55.5793,-9.77647,1.32445,-0.967588,15.7622,-14.878,10.3963
6635.36,29.8494,-7.5437,0,4.56012,8.8951,0.340093,-3.65854,12.9573,56.1585,-9.72378,1.33642,-0.926873,14.0854,-15.4268,10.2134
6635.37,30.3414,-7.46303,0,4.55533,8.85918,0.371228,-4.66463,12.8963,55.5793,-9.64953,1.35798,-0.943638,12.2866,-15.9146,10.1829
6635.38,30.8232,-7.3823,0,4.50264,8.71069,0.409548,-6.52439,14.1463,55.3049,-9.59445,1.35798,-0.924478,10.3354,-16.0061,9.96951
6635.39,31.3305,-7.31472,0,4.76369,8.39215,0.299377,-7.22561,15.3049,54.2988,-9.50583,1.346,-0.958008,8.71951,-16.0061,9.78659
6635.4,31.8378,-7.26677,0,4.78525,8.25324,0.294587,-8.01829,17.1341,54.2683,-9.49146,1.26697,-1.02746,7.59146,-15.0305,9.32927
6635.41,32.3311,-7.2108,0,4.79722,8.18618,0.280217,-8.81098,18.2622,53.3232,-9.46272,1.24302,-0.981958,6.12805,-14.3598,8.5061
6635.42,32.8332,-7.16575,0,4.95051,8.02571,0.323328,-10.6098,16.5854,52.5915,-9.48428,1.2023,-1.02028,5.09146,-13.5366,7.68293
6635.43,33.3518,-7.11915,0,5.1948,7.80776,0.364043,-12.4085,13.0488,51.2805,-9.48667,1.16398,-1.00591,4.08537,-12.8659,6.82927
6635.44,33.8854,-7.07392,0,5.47022,7.68562,0.306563,-16.4939,10.5488,50.1829,-9.48667,1.1544,-1.00351,2.80488,-12.378,6.0061
6635.45,34.4398,-7.05537,0,5.48459,7.03417,-0.0383203,-13.2622,7.37805,48.2927,-9.49386,1.15919,-1.10889,1.25,-11.4024,4.69512
6635.46,35.0043,-7.04116,0,5.68338,6.85934,-0.141306,-7.22561,6.21951,46.9817,-9.45314,1.10171,-1.11847,-0.0914634,-10.3659,4.14634
6635.47,35.5208,-7.05151,0,5.72649,7.2593,-0.107776,-4.29878,9.54268,46.0366,-9.45314,1.03225,-1.21906,-1.06707,-9.2378,3.32317
6635.48,36.0152,-7.07649,0,5.78397,7.53713,0.0838257,-3.2622,14.3598,46.4024,-9.46751,0.979563,-1.28373,-1.7378,-8.07927,2.95732
6635.49,36.5052,-7.10543,0,5.93007,7.58024,0.402363,-3.07927,16.0976,45.8841,-9.49625,0.989143,-1.30768,-2.59146,-7.04268,2.56098
6635.5,37.0124,-7.13784,0,6.22945,7.44133,0.574805,-2.19512,13.9024,44.7561,-9.60163,1.00351,-1.34121,-3.71951,-6.31098,2.62195
6635.51,37.5271,-7.18622,0,6.31567,7.24014,0.421523,-1.15854,11.9512,44.1768,-9.7118,1.00351,-1.43222,-4.48171,-6.58537,2.68293
6635.52,38.0262,-7.22622,0,6.22226,7.04615,0.469424,-0.762195,13.3232,42.9268,-9.72857,1.06099,-1.40588,-5.51829,-6.15854,2.80488
6635.53,38.5198,-7.27173,0,6.32764,7.0198,0.684976,-1.25,13.8415,42.1951,-9.73096,1.09452,-1.43701,-6.25,-6.03659,2.40854
6635.54,39.0285,-7.29969,0,6.52643,6.83299,0.352068,-0.335366,13.9939,41.372,-9.77407,1.13524,-1.37474,-7.31707,-6.21951,1.92073
6635.55,39.513,-7.31949,0,6.52882,6.81862,0.340093,0.701219,15.3049,39.7866,-9.75491,1.14961,-1.34121,-7.83537,-6.21951,1.58537
6635.56,39.9576,-7.35423,0,6.43781,6.86892,0.500559,1.18902,14.4512,37.9573,-9.74533,1.13524,-1.40827,-8.9939,-6.0061,0.823171
6635.57,40.3579,-7.40543,0,6.29651,6.8761,0.299377,1.67683,16.9512,35.7012,-9.71899,1.10171,-1.48012,-9.93902,-5.15244,0.396341
6635.58,40.6861,-7.45205,0,5.78876,6.83299,0.376018,2.34756,19.2988,33.6585,-9.70941,1.09931,-1.46336,-11.0061,-4.17683,0.152439
6635.59,40.9612,-7.47944,0,5.49178,6.74677,0.711321,3.10976,17.5,31.2195,-9.72617,1.13284,-1.39151,-12.0427,-4.02439,-0.365854
6635.6,41.2046,-7.49199,0,5.35047,6.60786,1.21667,1.79878,10.8232,28.8415,-9.78126,1.07776,-1.34121,-13.2012,-4.11585,-0.731707
6635.61,41.4492,-7.53367,0,5.64267,6.53361,1.1041,1.31098,6.46341,25.7622,-9.72378,1.03465,-1.46096,-14.4207,-4.45122,-1.34146
6635.62,41.6938,-7.58478,0,6.01868,6.57433,1.09931,1.70732,4.72561,22.8659,-9.64714,1.02507,-1.49449,-15.4268,-4.14634,-1.55488
6635.63,41.9416,-7.62481,0,6.46416,6.76114,0.965193,0.426829,3.93293,21.1585,-9.61121,1.03944,-1.44899,-16.0366,-3.87195,-1.67683
6635.64,42.1952,-7.63777,0,6.70605,6.75156,1.03944,0.548781,3.93293,20.0305,-9.60403,1.08734,-1.34361,-17.1951,-4.26829,-1.67683
6635.65,42.4532,-7.64995,0,6.74198,6.50727,0.874182,3.47561,3.14024,18.5366,-9.65672,1.02507,-1.35079,-18.4146,-4.69512,-1.55488
6635.66,42.6552,-7.68072,0,6.52164,6.65336,0.768801,3.62805,4.20732,16.5854,-9.68546,0.993933,-1.43462,-19.2073,-4.17683,-1.43293
6635.67,42.8105,-7.73309,0,6.20071,6.58151,0.5772,3.35366,5.70122,14.5427,-9.68546,0.986748,-1.52323,-20.0915,-3.35366,-1.52439
6635.68,42.917,-7.8069,0,6.03305,6.51445,0.546064,4.39024,7.71341,10.8841,-9.63995,0.969983,-1.57832,-21.128,-2.28659,-1.37195
6635.69,42.9786,-7.89683,0,5.82948,6.36117,0.60115,5.27439,9.39024,7.13415,-9.63756,1.02507,-1.60945,-21.7378,-1.67683,-1.37195
6635.7,42.9967,-8.01269,0,5.78158,6.38273,0.943638,4.90854,8.65854,3.75,-9.65672,1.05381,-1.71244,-22.6524,-1.64634,-1.31098
6635.71,42.9968,-8.07426,0,6.07137,6.54559,0.943638,4.20732,5.36585,0.914634,-9.78126,1.02746,-1.59748,-23.0793,-1.95122,-1.21951
6635.72,43.1009,-8.143,0,6.62702,6.4905,0.967588,3.59756,0.823171,-1.0061,-9.87706,0.998723,-1.68849,-23.6585,-2.9878,-1.64634
6635.73,43.1673,-8.22841,0,7.52755,6.96472,0.756826,2.13415,-1.43293,-2.5,-9.88185,0.974773,-1.78429,-23.628,-3.62805,-1.79878
6635.74,43.2929,-8.35488,0,8.12391,6.77551,0.402363,0.609756,2.62195,-2.53049,-9.86269,1.03944,-1.98068,-23.2012,-3.96341,-1.64634
6635.75,43.5216,-8.47592,0,8.27479,5.87498,-0.0215552,1.7378,10.6707,-2.5,-9.86748,0.943638,-1.98547,-22.561,-4.35976,-1.46341
6635.76,43.7273,-8.5788,0,7.68562,5.40077,-0.155676,6.58537,22.3476,-3.81098,-9.93933,0.785566,-1.94476,-21.7683,-4.87805,-1.06707
6635.77,43.8343,-8.6639,0,6.98627,5.54687,0.179626,12.5305,33.5976,-5.39634,-10.0351,0.66342,-1.90404,-21.9207,-5.4878,-1.03659
6635.78,43.8439,-8.72712,0,6.44021,5.73607,0.60594,15.9451,39.6646,-8.17073,-10.0591,0.646655,-1.825,-22.0122,-5.82317,-0.97561
6635.79,43.8112,-8.77182,0,6.18155,5.56842,0.704136,17.3171,41.4634,-11.7988,-10.0782,0.701741,-1.75555,-22.1646,-5.91463,-0.640244
6635.8,43.7198,-8.81555,0,5.87259,5.52052,0.792751,21.311,41.6463,-15.3659,-10.004,0.821492,-1.74597,-22.8354,-5.7622,0
6635.81,43.5657,-8.88141,0,5.6259,5.5804,0.969983,25.1829,39.1768,-18.811,-9.91059,1.05141,-1.83458,-23.9939,-5,1.06707
6635.82,43.3655,-8.99141,0,5.37682,5.39598,0.941243,28.1402,35.5488,-23.1402,-9.86988,1.14482,-2.02379,-25.5183,-3.75,2.56098
6635.83,43.0577,-9.15589,0,5.06307,5.64027,1.04183,31.6159,30.4573,-28.4451,-9.96089,1.23344,-2.20821,-26.372,-1.89024,2.83537
6635.84,42.6581,-9.40249,0,4.97685,6.06419,1.1544,31.128,24.1768,-33.2622,-10.0854,1.25978,-2.27766,-27.3171,0.365854,3.47561
6635.85,42.1142,-9.5185,0,4.70861,6.79946,0.876577,32.561,16.6463,-39.2683,-10.2842,1.36995,-2.09085,-27.8963,0.823171,3.56707
6635.86,41.4158,-9.61963,0,4.35175,7.53473,0.926873,33.75,8.07927,-46.5549,-10.5141,1.40109,-2.04295,-28.2622,0,4.29878
6635.87,40.5745,-9.69315,0,3.74342,8.06643,1.25499,33.4451,-0.121951,-52.1341,-10.7441,1.152,-2.09325,-27.4695,-0.609756,4.90854
6635.88,39.6655,-9.81814,0,3.49433,8.47597,1.7292,32.2256,-11.9512,-55.6707,-10.8207,0.785566,-2.34233,-24.3598,-0.762195,6.21951
6635.89,38.8372,-9.92621,0,4.45474,9.00527,2.29443,33.0488,-28.0488,-57.2866,-10.9069,0.249082,-2.28964,-20.5793,0.426829,7.46951
6635.9,38.1928,-9.89199,0,6.50248,9.57529,2.63452,31.0671,-43.8415,-56.25,-11.2949,-0.129331,-1.84896,-16.311,-0.0304878,8.71951
6635.91,37.731,-9.8394,0,8.77775,10.2938,2.52914,26.9207,-61.4634,-51.7378,-11.7308,-0.692161,-1.80105,-10.8232,-0.579268,10.6402
6635.92,37.3629,-9.73501,0,10.8878,11.4817,2.76864,21.0671,-78.5671,-49.2988,-12.3032,-1.39151,-1.57113,-5.03049,-1.67683,10.4268
6635.93,37.0614,-9.62142,0,12.3679,12.4541,3.30034,16.6463,-81.9817,-45.9451,-12.6744,-2.07409,-1.53521,2.7439,-2.13415,9.17683
6635.94,36.8566,-9.53268,0,13.7426,13.0553,3.33147,10.7317,-76.4329,-40.0915,-12.7176,-2.58423,-1.65256,12.2866,-2.9878,8.32317
6635.95,36.7532,-9.424,0,13.5319,12.4876,1.29571,4.72561,-71.4939,-31.8598,-12.2553,-2.23216,-1.48012,20.7622,-1.31098,9.11585
6635.96,36.6702,-9.36489,0,10.198,10.6483,-0.534089,3.2622,-65.7622,-22.7744,-11.2183,-1.7771,-1.55916,27.4695,4.78659,12.0732
6635.97,36.4376,-9.19491,0,5.8199,8.9454,-1.42025,0.884146,-53.4756,-16.3415,-10.6794,-0.723296,-0.938848,30.2439,9.78659,15.1829
6635.98,35.8293,-8.92949,0,1.91362,7.72873,-1.41067,-5.18293,-38.7195,-16.0976,-10.2195,0.352068,-0.433499,29.7866,12.8354,15.9756
6635.99,34.7987,-8.44507,0,-0.467029,6.99106,-1.18553,-8.96341,-28.9329,-24.2378,-10.2698,0.737666,0.603545,29.3598,12.1341,16.7378
6636,33.5291,-8.02154,0,-1.31008,6.72521,-1.12566,-5.36585,-28.1402,-36.0366,-10.8063,2.98898,0.435894,21.9817,12.0732,14.2073
6636.01,32.1756,-7.47391,0,-1.22146,6.68929,-1.46815,0.731707,-42.378,-48.5671,-11.1632,2.73272,1.14242,18.3841,7.68293,11.5244
6636.02,30.9756,-6.90751,0,0.124541,7.29283,-2.35909,7.71341,-58.5976,-58.7805,-11.1464,3.36021,1.33882,11.0671,6.03659,8.44512
6636.03,29.9567,-6.23932,0,1.83458,8.49034,-3.06562,13.2317,-70.7622,-65.6402,-10.9548,3.37698,1.88728,4.32927,3.2622,5.27439
6636.04,29.1015,-5.1128,0,3.63564,9.9561,-3.24046,15.061,-70.4573,-67.0732,-10.4255,2.91713,2.33754,-2.56098,0.0914634,2.56098
6636.05,28.3813,-4.30597,0,4.91698,10.7704,-2.81175,12.5,-55.8232,-64.1768,-9.91778,2.04774,2.42136,-8.44512,-2.59146,0.792683
6636.06,27.8158,-3.5726,0,5.7241,10.4734,-2.08606,12.7439,-35.0305,-58.2622,-9.59924,1.03944,2.37586,-12.439,-4.69512,-1.28049
6636.07,27.2771,-2.9274,0,5.30018,10.2267,-0.953218,10.9146,-21.9817,-54.1159,-9.26633,0.0670605,2.05972,-14.9695,-5.60976,-2.92683
6636.08,26.7249,-2.32912,0,4.54096,9.82916,-0.0886157,6.25,-10.7012,-51.2805,-9.27112,-0.56762,1.99026,-15.2744,-7.2561,-3.32317
6636.09,26.1014,-1.82634,0,3.45362,9.4723,0.213157,1.67683,-6.89024,-49.9695,-8.99569,-1.07776,1.62861,-14.8476,-6.43293,-2.31707
6636.1,25.4011,-1.43037,0,2.52196,9.16095,0.0646655,2.0122,-9.26829,-49.6037,-8.97174,-1.04183,1.24062,-13.5671,-4.93902,-0.121951
6636.11,24.6061,-1.09122,0,1.55916,8.98851,-0.246687,-0.182927,-13.4756,-49.3598,-8.69392,-1.13763,0.917292,-10.7622,-3.59756,3.04878
6636.12,23.7401,-0.531871,0,1.00112,8.71548,-0.811912,-0.0609756,-23.0488,-51.5244,-8.61489,-0.938848,0.747246,-7.56098,-1.4939,6.18902
6636.13,22.8769,0.197345,0,1.12805,8.69153,-1.22386,1.79878,-34.6951,-54.7256,-8.72027,-0.699346,0.680186,-3.75,-0.701219,9.17683
6636.14,22.0647,0.962655,0,1.64298,8.96935,-1.54,1.79878,-42.2866,-57.378,-8.89031,-0.507744,0.6251,0,0.121951,10.6707
6636.15,21.3251,1.30461,0,2.25132,9.30226,-1.78668,2.80488,-43.7195,-58.2012,-9.21843,-0.416733,0.570015,2.83537,0.365854,10.4878
6636.16,20.631,1.48587,0,2.56986,9.7597,-1.82979,2.22561,-43.4451,-57.4085,-9.56331,-0.337698,0.570015,6.09756,0.731707,8.75
6636.17,19.9664,1.55314,0,2.63213,9.83874,-1.93039,2.31707,-43.9329,-56.2805,-10.0232,-0.285007,0.447869,9.29878,0.97561,5.54878
6636.18,19.2768,1.57457,0,2.3088,9.8555,-1.58311,-0.518293,-46.8902,-56.5244,-10.289,-0.196392,0.364043,11.128,1.98171,2.2561
6636.19,18.5381,1.56942,0,1.88967,9.87946,-1.50407,-2.07317,-55.9756,-58.1402,-10.2914,0.0239502,0.263452,11.8598,3.2622,-0.762195
6636.2,17.8608,1.54039,0,2.43573,9.76928,-1.33163,-4.63415,-62.9268,-59.8476,-10.0806,0.217947,0.153281,12.0122,4.45122,-2.83537
6636.21,17.2419,1.54431,0,2.94587,9.38129,-1.54479,-5.70122,-61.5549,-62.2866,-9.82437,0.301772,0.285007,11.0366,4.81707,-3.68902
6636.22,16.7289,1.55651,0,3.79132,8.86876,-1.8753,-3.84146,-56.9207,-64.3902,-9.63277,0.392783,0.313748,9.32927,4.39024,-2.95732
6636.23,16.1665,1.58109,0,3.3195,8.89031,-1.96392,-1.21951,-54.3293,-65.0305,-9.4723,0.387993,0.359253,7.13415,4.14634,-2.43902
6636.24,15.5907,1.61855,0,3.03928,8.87834,-2.04056,-0.670732,-52.0427,-64.3293,-9.43398,0.383203,0.395178,5.06098,2.77439,-1.46341
6636.25,15.0763,1.71722,0,3.48954,8.60291,-2.5483,1.28049,-42.5,-65.7317,-9.41482,0.452659,0.419128,2.16463,0.518293,-0.27439
6636.26,14.6364,1.78529,0,4.0859,8.64842,-2.63213,3.65854,-30.7927,-65.7317,-9.47709,0.438289,0.433499,0,-1.09756,0.609756
6636.27,14.2407,1.79212,0,4.29906,8.90947,-2.52435,6.40244,-19.7866,-63.0793,-9.44835,0.423918,0.313748,-2.10366,-2.04268,1.0061
6636.28,13.8481,1.74262,0,4.02842,9.13939,-2.14833,8.01829,-10.6402,-59.5427,-9.40524,0.273032,0.126936,-3.17073,-2.5,1.09756
6636.29,13.4795,1.66945,0,3.92544,9.14897,-1.89207,7.46951,-2.62195,-56.7378,-9.38369,0.00479004,0.0311353,-3.5061,-2.71341,0.548781
6636.3,13.1429,1.58239,0,3.76976,8.95258,-1.85854,6.43293,4.84756,-53.4451,-9.331,-0.352068,-0.0550855,-2.77439,-3.41463,-0.182927
6636.31,12.7829,1.47222,0,3.22849,8.65081,-1.91362,6.98171,8.14024,-51.6768,-9.27591,-0.617915,-0.162861,-1.12805,-3.68902,-1.40244
6636.32,12.4086,1.27603,0,2.79499,8.69392,-2.00703,9.96951,8.04878,-48.4756,-9.09628,-0.747246,-0.433499,0.518293,-3.04878,-2.71341
6636.33,11.9902,0.994807,0,2.34951,8.84002,-1.8753,10.8537,7.71341,-47.7439,-8.91905,-0.862207,-0.61073,2.83537,-2.5,-3.01829
6636.34,11.5595,0.591507,0,2.19623,9.10347,-1.85375,10.4573,8.23171,-47.1646,-8.76338,-0.807122,-0.792751,4.29878,-2.07317,-2.77439
6636.35,11.0203,-0.141046,0,1.55676,8.63405,-1.53521,10,7.16463,-52.2866,-8.7035,-0.637075,-0.993933,5.97561,-1.21951,-2.19512
6636.36,10.4698,-1.04707,0,1.6334,9.40764,-1.20469,11.9817,2.19512,-53.7805,-8.77535,-0.421523,-0.979563,6.85976,-0.640244,-0.548781
6636.37,9.98805,-1.74451,0,2.04535,10.0998,-0.716111,8.59756,-6.18902,-51.1585,-8.94779,-0.316143,-0.991538,8.10976,-0.609756,1.09756
6636.38,9.51908,-2.21412,0,2.13396,9.84114,-0.579595,3.93293,-15.0305,-52.439,-9.11065,-0.246687,-0.905317,8.53659,-0.609756,3.10976
6636.39,9.09274,-2.56571,0,2.44052,9.69025,-0.680186,1.89024,-19.6646,-52.9268,-9.16095,-0.249082,-0.912502,8.44512,-0.823171,4.96951
6636.4,8.67455,-2.88853,0,2.56986,8.82325,-0.974773,-1.43293,-20,-57.2561,-9.11305,-0.217947,-1.05381,9.14634,-1.28049,6.40244
6636.41,8.32655,-3.50297,0,3.05604,9.43877,-1.49689,2.89634,-19.6951,-54.4207,-9.05557,-0.179626,-1.28852,9.63415,-0.640244,7.71341
6636.42,7.99209,-4.22243,0,2.90516,9.38848,-1.57592,3.71951,-18.9939,-52.2256,-8.97653,-0.0622705,-1.346,10.1829,0.426829,8.96341
6636.43,7.57047,-4.59027,0,2.15073,8.78493,-1.45857,4.11585,-21.5244,-54.7866,-8.90468,-0.0287402,-1.26936,10,1.15854,9.84756
6636.44,7.10834,-4.86286,0,2.04535,8.84002,-1.42264,2.22561,-17.8963,-58.2927,-8.83762,-0.0526904,-1.346,9.84756,1.92073,10.8232
6636.45,6.71085,-5.16107,0,2.55788,9.29986,-1.66933,4.45122,-14.2378,-57.439,-8.7514,-0.110171,-1.74357,10.4573,3.32317,11.4939
6636.46,6.28318,-5.48788,0,2.28245,8.86157,-1.28373,1.12805,-15.5183,-59.4207,-8.76098,-0.148491,-2.03337,12.3476,4.69512,11.9512
6636.47,5.86256,-5.76168,0,2.19623,8.76338,-1.42264,2.46951,-14.1463,-58.811,-8.96456,-0.239502,-1.95194,15.122,5.64024,12.5
6636.48,5.46966,-5.9343,0,2.25611,8.73464,-1.6837,3.47561,-11.2805,-57.6829,-9.2304,-0.426313,-1.6334,16.372,5.39634,12.378
6636.49,5.13599,-6.07581,0,2.68482,9.45314,-2.05253,8.07927,-2.83537,-55.2439,-9.49625,-0.488584,-1.57592,16.2195,4.90854,11.9207
6636.5,4.81763,-6.2356,0,2.66805,9.82197,-2.0693,7.83537,0.243902,-53.0183,-9.72138,-0.519719,-1.72441,16.4634,5.73171,11.3415
6636.51,4.46067,-6.36979,0,2.33514,9.16574,-1.69328,3.20122,1.67683,-55.7622,-10.0279,-0.526904,-1.69328,16.8293,6.25,10.9451
6636.52,4.12626,-6.46775,0,2.74469,9.62558,-1.65017,2.92683,-0.762195,-57.5,-10.3561,-0.486189,-1.60466,16.8598,6.06707,10.7317
6636.53,3.85917,-6.50916,0,3.23567,9.82437,-1.57832,1.21951,-0.182927,-56.0366,-10.6123,-0.416733,-1.3939,15.7927,4.84756,10.3049
6636.54,3.62195,-6.51316,0,3.39853,10.1046,-1.47294,-0.731707,-2.92683,-54.2683,-10.677,-0.349673,-1.23344,13.9939,3.78049,9.63415
6636.55,3.50448,-6.55829,0,3.90388,11.3141,-1.40588,0.670732,-3.90244,-43.4451,-10.5357,-0.251477,-1.40827,11.9512,3.87195,9.02439
