time,angle1,angle2,intgangle,accX1,accY1,accZ1,gyroX1,gyroY1,gyroZ1,accX2,accY2,accZ2,gyroX2,gyroY2,gyroZ2
6878.58,95.2944,-3.39821,0,9.8076,-1.00351,0.234712,-0.335366,0.762195,-1.31098,-9.91059,-0.00718506,-0.622705,-0.487805,-0.762195,7.2561
6878.59,95.3055,-3.39553,0,9.8076,-1.01788,0.263452,-0.0914634,0.487805,-1.03659,-9.89862,-0.0119751,-0.58199,-0.609756,-0.762195,7.43902
6878.6,95.3106,-3.39055,0,9.77168,-1.0107,0.237107,0.243902,0.335366,-1.34146,-9.9058,-0.0335303,-0.579595,-0.701219,0.0304878,7.13415
6878.61,95.3185,-3.40659,0,9.8076,-1.01788,0.244292,-0.548781,-0.27439,-1.18902,-9.91299,-0.0574805,-0.61552,-0.548781,0.152439,7.16463
6878.62,95.3168,-3.3553,0,9.8124,-0.991538,0.282612,-0.0914634,-0.0304878,-1.4939,-9.9537,-0.0574805,-0.507744,-0.609756,0,7.2561
6878.63,95.3136,-3.34254,0,9.79803,-0.977168,0.263452,-0.0304878,0.213415,-1.46341,-9.98005,-0.0479004,-0.56283,-0.640244,-0.0609756,7.31707
6878.64,95.3087,-3.33985,0,9.81719,-0.960403,0.222737,-0.304878,0.121951,-1.34146,-9.96328,-0.0455054,-0.5772,-0.518293,0.0609756,7.04268
6878.65,95.2975,-3.35218,0,9.79084,-0.929268,0.222737,0.0304878,0.213415,-1.4939,-9.94173,-0.0455054,-0.60594,-0.731707,-0.396341,7.28659
6878.66,95.2997,-3.36522,0,9.78366,-0.991538,0.210762,-0.27439,0.243902,-1.31098,-9.95131,-0.0383203,-0.61073,-0.365854,-0.426829,7.04268
6878.67,95.2866,-3.37801,0,9.81,-0.907712,0.241897,-0.335366,0.243902,-1.31098,-9.93215,-0.0455054,-0.61552,-0.182927,-0.731707,7.2561
6878.68,95.2849,-3.35195,0,9.78366,-0.965193,0.244292,-0.121951,0.182927,-1.28049,-9.94652,-0.0311353,-0.524509,-0.609756,-0.731707,7.43902
6878.69,95.2852,-3.35896,0,9.81,-0.967588,0.237107,-0.27439,-0.0304878,-1.12805,-9.97526,-0.0694556,-0.60115,-0.396341,-0.609756,7.37805
6878.7,95.2793,-3.36075,0,9.81719,-0.955613,0.217947,-0.121951,-0.0914634,-1.43293,-9.98963,-0.0814307,-0.59157,-0.243902,-0.792683,7.46951
6878.71,95.2771,-3.34202,0,9.78844,-0.948428,0.323328,-0.0304878,-0.335366,-1.09756,-9.98963,-0.0502954,-0.546064,0,-0.457317,7.2561
6878.72,95.2765,-3.32872,0,9.77647,-0.953218,0.268242,-0.213415,-0.0914634,-1.06707,-9.97526,-0.0502954,-0.55325,-0.335366,-0.518293,7.46951
6878.73,95.275,-3.32064,0,9.78844,-0.962798,0.208367,-0.0304878,-0.365854,-1.25,-9.97047,-0.0359253,-0.56283,0,-0.457317,6.98171
6878.74,95.2812,-3.33237,0,9.82677,-0.989143,0.258662,0.0609756,-0.182927,-1.0061,-9.97286,-0.0383203,-0.60115,-0.243902,-0.213415,6.92073
6878.75,95.276,-3.33251,0,9.8124,-0.931663,0.270637,-0.396341,0,-1.03659,-9.91059,-0.0598755,-0.5772,-0.0609756,0.121951,6.82927
6878.76,95.2759,-3.32555,0,9.82197,-0.974773,0.232317,-0.731707,0.121951,-1.25,-9.87946,-0.0814307,-0.56283,-0.0304878,-0.243902,7.13415
6878.77,95.2771,-3.31468,0,9.80521,-0.972378,0.289797,-0.213415,0.243902,-1.15854,-9.92496,-0.0383203,-0.55325,-0.0914634,-0.548781,7.07317
6878.78,95.2837,-3.29512,0,9.82197,-0.998723,0.215552,-0.27439,-0.0304878,-1.09756,-9.94652,-0.0742456,-0.531694,0.243902,-0.609756,7.0122
6878.79,95.2863,-3.29452,0,9.75491,-0.972378,0.246687,-0.304878,-0.121951,-1.12805,-9.91538,-0.0167651,-0.570015,0.0914634,-0.457317,7.16463
6878.8,95.2938,-3.30863,0,9.77647,-0.993933,0.234712,-0.182927,-0.0609756,-1.03659,-9.93454,-0.0191602,-0.60115,0.243902,-0.396341,7.10366
6878.81,95.2972,-3.32415,0,9.78126,-0.989143,0.239502,-0.152439,-0.182927,-1.21951,-9.93694,0.0143701,-0.608335,0.0914634,-0.487805,6.98171
6878.82,95.3023,-3.33344,0,9.78126,-0.993933,0.265847,-0.457317,-0.548781,-1.15854,-9.9537,0,-0.598755,0,-0.487805,6.92073
6878.83,95.301,-3.32384,0,9.7597,-0.974773,0.201182,-0.335366,-0.487805,-1.37195,-9.94652,-0.0335303,-0.560435,0.152439,-0.335366,6.79878
6878.84,95.3009,-3.31866,0,9.84832,-0.981958,0.234712,-0.335366,-0.548781,-1.25,-10.0136,-0.00479004,-0.570015,0.0304878,-0.548781,6.82927
6878.85,95.2978,-3.32526,0,9.83395,-0.974773,0.220342,-0.243902,-0.579268,-1.40244,-9.98005,-0.00239502,-0.593965,-0.121951,-0.518293,7.13415
6878.86,95.2988,-3.2962,0,9.82197,-0.977168,0.198787,-0.0914634,-0.213415,-1.15854,-9.99442,-0.0263452,-0.505349,-0.0914634,-0.853659,7.13415
6878.87,95.3002,-3.28532,0,9.8579,-0.972378,0.165256,-0.152439,-0.213415,-1.0061,-10.0327,-0.0167651,-0.546064,0,-1.18902,6.79878
6878.88,95.2896,-3.28889,0,9.82916,-0.917292,0.167651,0.182927,-0.304878,-1.18902,-10.0591,-0.0407153,-0.59157,0.182927,-1.76829,6.76829
6878.89,95.2905,-3.27798,0,9.82197,-0.953218,0.237107,0.121951,-0.0304878,-0.853659,-10.0543,-0.0335303,-0.541274,-0.213415,-1.70732,6.98171
6878.9,95.2958,-3.28229,0,9.78605,-0.991538,0.253872,-0.27439,-0.0609756,-1.12805,-10.016,-0.0191602,-0.59157,-0.182927,-2.13415,6.98171
6878.91,95.3033,-3.29353,0,9.82437,-1.01309,0.217947,-0.0914634,0.121951,-1.15854,-10.0088,-0.0287402,-0.61552,-0.0914634,-1.85976,6.79878
6878.92,95.3026,-3.30251,0,9.85072,-0.979563,0.213157,-0.182927,-0.213415,-1.25,-10.0064,0.00479004,-0.613125,-0.182927,-2.5,6.70732
6878.93,95.3061,-3.30668,0,9.83156,-1.00351,0.184417,0.121951,-0.548781,-1.28049,-9.96807,-0.0167651,-0.593965,-0.0609756,-2.65244,6.58537
6878.94,95.3052,-3.31258,0,9.77886,-0.972378,0.237107,0.0304878,-0.27439,-1.28049,-9.91538,-0.0383203,-0.598755,0.213415,-2.83537,6.4939
6878.95,95.3175,-3.30574,0,9.79323,-1.01788,0.172441,-0.304878,0.0914634,-0.97561,-9.95849,-0.0407153,-0.550855,0.0609756,-3.35366,6.67683
6878.96,95.3259,-3.29098,0,9.78366,-0.996328,0.220342,0,0.0914634,-0.945122,-9.97047,-0.0359253,-0.517324,-0.0914634,-3.35366,6.31098
6878.97,95.3435,-3.29858,0,9.77886,-1.07297,0.229922,-0.487805,0.0304878,-1.21951,-9.98723,-0.00718506,-0.608335,-0.426829,-3.14024,6.12805
6878.98,95.3629,-3.31157,0,9.77886,-1.11129,0.273032,-0.152439,0.121951,-1.43293,-9.92496,-0.0119751,-0.627495,-0.213415,-3.07927,6.21951
6878.99,95.3793,-3.31657,0,9.82677,-1.16637,0.203577,-0.518293,0.213415,-1.95122,-9.92017,0.0431104,-0.59636,-0.152439,-2.83537,5.82317
6879,95.3756,-3.31566,0,9.84832,-1.04423,0.172441,-0.0304878,-0.0609756,-2.07317,-9.89862,0.0670605,-0.57241,-0.304878,-2.80488,6.06707
6879.01,95.3703,-3.2984,0,9.84593,-1.03465,0.222737,0.0304878,-0.457317,-2.10366,-9.87706,0.0407153,-0.507744,-0.426829,-2.65244,6.40244
6879.02,95.3626,-3.28345,0,9.8076,-1.02507,0.162861,-0.518293,-0.243902,-2.2561,-9.93694,0.0239502,-0.514929,-0.762195,-2.95732,6.21951
6879.03,95.3521,-3.25031,0,9.77647,-1.03465,0.146096,-0.243902,0.335366,-2.65244,-9.97047,0.0287402,-0.438289,-1.03659,-3.17073,6.46341
6879.04,95.3378,-3.22433,0,9.72617,-0.969983,0.201182,-0.304878,0.0304878,-2.31707,-9.93454,0.0287402,-0.459844,-1.18902,-3.29268,6.40244
6879.05,95.3189,-3.19991,0,9.73815,-0.965193,0.165256,-0.304878,-0.0914634,-2.68293,-9.96089,0.0143701,-0.464634,-1.28049,-2.9878,6.7378
6879.06,95.3057,-3.17366,0,9.74773,-0.967588,0.225132,-0.457317,-1.03659,-2.22561,-9.91299,-0.0239502,-0.450264,-1.34146,-3.10976,6.85976
6879.07,95.2865,-3.15754,0,9.79803,-0.936453,0.237107,-0.304878,-1.06707,-2.34756,-9.88185,-0.0287402,-0.488584,-1.52439,-2.53049,6.55488
6879.08,95.2646,-3.12944,0,9.82437,-0.871787,0.227527,0.304878,-1.4939,-1.64634,-9.89862,-0.0718506,-0.440684,-1.40244,-2.53049,6.67683
6879.09,95.2391,-3.09456,0,9.83635,-0.828677,0.217947,0.426829,-1.15854,-1.15854,-9.90101,-0.0958008,-0.411943,-1.37195,-2.40854,6.67683
6879.1,95.2158,-3.05206,0,9.87706,-0.831072,0.292192,0.640244,-0.792683,-0.823171,-9.90101,-0.0934058,-0.376018,-1.0061,-2.46951,6.64634
6879.11,95.2005,-3.01202,0,9.87227,-0.855022,0.232317,0.548781,-0.884146,-0.304878,-9.92496,-0.100591,-0.378413,-0.609756,-2.46951,6.52439
6879.12,95.1835,-2.9641,0,9.89383,-0.843047,0.268242,0.853659,-0.701219,0.0609756,-9.98005,-0.126936,-0.340093,-0.457317,-2.56098,6.76829
6879.13,95.1724,-2.92676,0,9.87227,-0.828677,0.270637,0.701219,-0.579268,0.518293,-9.95849,-0.112566,-0.371228,-0.213415,-2.65244,6.82927
6879.14,95.1746,-2.89392,0,9.82197,-0.866997,0.220342,0.701219,0.213415,0.731707,-9.94173,-0.0934058,-0.383203,-0.0304878,-2.56098,7.04268
6879.15,95.1814,-2.84672,0,9.78126,-0.888552,0.234712,0.609756,-0.27439,0.640244,-9.9082,-0.0790356,-0.320933,0.304878,-2.59146,6.85976
6879.16,95.1941,-2.80875,0,9.8124,-0.905317,0.270637,0.579268,-0.27439,1.0061,-9.90341,-0.0790356,-0.352068,0.27439,-2.37805,6.64634
6879.17,95.2145,-2.76439,0,9.75731,-0.943638,0.296982,0.609756,-0.701219,0.823171,-9.91299,-0.0670605,-0.332908,0.762195,-1.95122,6.70732
6879.18,95.2592,-2.71274,0,9.59205,-1.03465,0.296982,-0.243902,-0.701219,-0.396341,-9.91778,-0.0574805,-0.306563,0.945122,-1.76829,7.04268
6879.19,95.2784,-2.6913,0,9.57289,-1.13763,0.234712,-1.15854,-0.731707,-2.07317,-9.86509,-0.0479004,-0.399968,0.670732,-1.64634,7.04268
6879.2,95.2789,-2.66834,0,9.76689,-1.09931,0.167651,-1.09756,-1.12805,-2.62195,-9.8603,-0.0431104,-0.399968,0.945122,-1.21951,6.67683
6879.21,95.2738,-2.64461,0,9.89862,-1.05381,0.263452,-1.58537,-1.64634,-2.40854,-9.88664,0.00479004,-0.399968,1.03659,-0.97561,6.85976
6879.22,95.267,-2.62647,0,9.9082,-1.04902,0.215552,-1.28049,-0.945122,-2.5,-9.87467,0.0191602,-0.409548,0.97561,-1.0061,6.7378
6879.23,95.253,-2.62691,0,9.86988,-0.986748,0.261057,-1.0061,-0.823171,-2.46951,-9.88664,0.0143701,-0.455054,0.792683,-0.640244,7.31707
6879.24,95.2383,-2.63789,0,9.81958,-0.960403,0.150886,-1.0061,-0.762195,-2.31707,-9.86988,0.0502954,-0.476609,0.548781,-0.548781,7.31707
6879.25,95.2364,-2.65192,0,9.8076,-1.01309,0.172441,-0.945122,-0.701219,-1.92073,-9.88904,0.0694556,-0.481399,0.487805,-0.243902,6.95122
6879.26,95.2372,-2.6387,0,9.81,-1.0107,0.124541,-0.945122,-0.518293,-1.70732,-9.92257,0.0886157,-0.438289,0.213415,0,7.13415
6879.27,95.2443,-2.62662,0,9.79563,-1.03465,0.114961,-0.823171,-0.121951,-1.55488,-9.93933,0.0407153,-0.435894,0.0609756,-0.213415,7.31707
6879.28,95.2497,-2.63296,0,9.83156,-1.01549,0.0958008,-0.27439,-0.426829,-1.40244,-9.96328,0.0574805,-0.469424,-0.213415,-0.243902,7.22561
6879.29,95.2596,-2.66254,0,9.88425,-1.03225,0.0981958,0.0609756,-0.518293,-1.21951,-10.0064,-0.0143701,-0.519719,-0.365854,-0.27439,7.16463
6879.3,95.2669,-2.64423,0,9.88664,-1.02267,0.0239502,0.0914634,-0.0914634,-1.25,-9.98723,-0.0167651,-0.421523,-0.396341,-0.640244,7.2561
6879.31,95.2772,-2.62948,0,9.83156,-1.03944,0.0407153,0.518293,0.0609756,-1.31098,-9.98963,-0.0119751,-0.428708,-0.457317,-0.518293,7.40854
6879.32,95.2823,-2.62261,0,9.80521,-0.996328,0.122146,0.823171,-0.121951,-1.18902,-9.9537,-0.0263452,-0.443079,-0.518293,-0.426829,7.37805
6879.33,95.2868,-2.58009,0,9.78366,-0.996328,0.141306,0.27439,-0.304878,-1.25,-9.91299,-0.0215552,-0.380808,-0.701219,0.121951,7.53049
6879.34,95.293,-2.5641,0,9.81958,-1.00112,0.160466,0.213415,0.121951,-1.12805,-9.87227,-0.0143701,-0.419128,-0.579268,-0.0609756,7.28659
6879.35,95.3006,-2.54412,0,9.83635,-1.03465,0.162861,0.365854,0.182927,-1.37195,-9.87467,-0.0143701,-0.399968,-0.365854,0.518293,7.22561
6879.36,95.3058,-2.5306,0,9.83874,-1.03944,0.155676,0.579268,0.304878,-1.55488,-9.85311,-0.0119751,-0.404758,-0.213415,0.823171,7.16463
6879.37,95.3009,-2.52357,0,9.82677,-0.993933,0.234712,0.609756,0.243902,-1.76829,-9.8603,-0.00718506,-0.421523,-0.701219,0.426829,7.10366
6879.38,95.2967,-2.47352,0,9.8579,-1.00591,0.160466,0.670732,0.365854,-1.82927,-9.92496,-0.0191602,-0.342488,0.0304878,0.27439,6.92073
6879.39,95.2917,-2.45284,0,9.84832,-0.996328,0.203577,0.640244,0.27439,-1.79878,-9.92975,-0.0311353,-0.376018,-0.365854,0.853659,7.16463
6879.4,95.2868,-2.43918,0,9.8555,-0.977168,0.234712,0.792683,0.914634,-1.55488,-9.95849,-0.0383203,-0.390388,-0.152439,0.884146,6.98171
6879.41,95.2843,-2.43905,0,9.84353,-0.979563,0.131726,0.670732,1.06707,-1.43293,-9.92736,-0.0287402,-0.421523,-0.365854,1.15854,7.07317
6879.42,95.2812,-2.43986,0,9.92736,-1.00112,0.299377,0.701219,1.95122,-1.61585,-9.92257,-0.0287402,-0.423918,-0.0609756,1.52439,7.16463
6879.43,95.2726,-2.44481,0,10.0279,-0.948428,0.443079,0.762195,3.29268,-1.25,-9.92496,-0.0431104,-0.438289,0.182927,1.82927,6.89024
6879.44,95.2602,-2.44718,0,10.1573,-0.912502,0.548459,-0.304878,5.64024,-0.823171,-9.93933,-0.0431104,-0.431104,-0.27439,2.04268,6.89024
6879.45,95.2518,-2.44674,0,10.1237,-0.922083,0.376018,-0.426829,6.92073,-0.670732,-9.93694,0.0287402,-0.421523,-0.0914634,1.89024,6.58537
6879.46,95.2713,-2.45294,0,9.93454,-1.0586,0.0646655,0.457317,6.58537,-0.884146,-9.93694,0.0502954,-0.445474,-0.121951,2.16463,6.92073
6879.47,95.291,-2.45386,0,9.6184,-1.02267,0.0167651,1.15854,4.02439,-1.0061,-9.91538,0.0742456,-0.426313,-0.0914634,1.92073,6.67683
6879.48,95.3192,-2.45111,0,9.62798,-1.03465,0.0479004,1.55488,3.29268,-0.731707,-9.92496,0.0934058,-0.414338,-0.487805,1.82927,7.10366
6879.49,95.3432,-2.4483,0,9.66151,-1.03465,0.258662,1.82927,3.29268,-0.792683,-9.90341,0.0694556,-0.411943,-0.731707,2.13415,6.95122
6879.5,95.3559,-2.43605,0,9.64714,-1.02507,0.246687,1.85976,3.65854,-1.18902,-9.89143,0.00479004,-0.378413,-0.640244,1.98171,6.7378
6879.51,95.3618,-2.43599,0,9.63516,-1.04183,0.148491,2.16463,1.52439,-1.7378,-9.84353,-0.00718506,-0.416733,-0.762195,2.13415,6.85976
6879.52,95.3604,-2.44361,0,9.65432,-1.04902,0.0646655,2.71341,-1.06707,-2.2561,-9.87227,0.0239502,-0.445474,-0.762195,2.13415,6.76829
6879.53,95.357,-2.45373,0,9.68546,-1.0586,0.0838257,2.92683,-2.2561,-2.46951,-9.82197,0.00718506,-0.455054,-0.518293,2.53049,7.10366
6879.54,95.3619,-2.47619,0,9.65432,-1.11368,0.182021,2.9878,-1.79878,-2.46951,-9.7621,0.00718506,-0.505349,-0.487805,3.2622,7.07317
6879.55,95.3615,-2.51789,0,9.89143,-1.10889,0.387993,3.35366,2.10366,-2.46951,-9.75012,-0.0359253,-0.589175,0.182927,3.65854,7.22561
6879.56,95.3476,-2.56033,0,9.89862,-0.986748,0.455054,2.07317,1.61585,-2.22561,-9.75252,-0.0838257,-0.603545,0.487805,4.39024,7.10366
6879.57,95.3324,-2.5898,0,10.004,-1.0083,0.308958,2.37805,1.67683,-2.5,-9.77168,-0.0718506,-0.55804,0.792683,4.78659,7.31707
6879.58,95.3192,-2.5887,0,10.0351,-0.996328,0.203577,2.5,1.28049,-2.16463,-9.88185,-0.0718506,-0.438289,0.945122,4.63415,7.28659
6879.59,95.3034,-2.57797,0,9.92257,-0.967588,0.167651,2.89634,1.25,-2.22561,-9.9561,0.0311353,-0.399968,0.914634,4.48171,7.13415
6879.6,95.2962,-2.56823,0,9.8579,-1.01549,0.258662,3.23171,1.43293,-2.16463,-10.0232,0.146096,-0.404758,0.518293,4.69512,7.07317
6879.61,95.2731,-2.5545,0,9.78605,-0.890947,0.249082,3.35366,0.0914634,-2.13415,-10.0399,0.172441,-0.385598,0.0609756,5.09146,6.82927
6879.62,95.2408,-2.53496,0,9.83395,-0.821492,0.318538,3.23171,-0.426829,-2.04268,-10.0782,0.141306,-0.359253,-0.640244,4.96951,7.04268
6879.63,95.1985,-2.50717,0,9.75012,-0.735271,0.402363,2.65244,-0.487805,-1.76829,-10.0878,0.0910107,-0.320933,-1.34146,4.5122,7.16463
6879.64,95.1688,-2.49364,0,9.66869,-0.795146,0.459844,2.77439,-0.640244,-1.55488,-10.083,0.0119751,-0.378413,-1.43293,4.45122,7.13415
6879.65,95.146,-2.50233,0,9.72378,-0.852627,0.541274,3.32317,0.426829,-1.92073,-10.0519,-0.0766406,-0.471819,-1.25,4.45122,6.79878
6879.66,95.1148,-2.51219,0,9.8124,-0.780776,0.565225,4.02439,1.06707,-1.43293,-9.96568,-0.0502954,-0.474214,-0.609756,4.35976,7.16463
6879.67,95.0761,-2.52183,0,10.0303,-0.735271,0.364043,3.62805,1.46341,-1.15854,-9.94891,-0.00479004,-0.474214,-0.121951,4.26829,7.40854
6879.68,95.0279,-2.53607,0,10.095,-0.684976,0.273032,2.77439,1.28049,-0.670732,-9.95131,0.0167651,-0.495769,0.396341,4.35976,7.31707
6879.69,94.9886,-2.55092,0,9.92975,-0.744851,0.241897,1.7378,0.365854,-0.0609756,-9.94412,0.0191602,-0.500559,0.701219,4.39024,6.89024
6879.7,94.9885,-2.56338,0,9.80521,-0.864602,0.294587,0.97561,-0.27439,-0.27439,-9.9082,0.0694556,-0.490979,0.640244,4.2378,7.04268
6879.71,95.0124,-2.5601,0,9.69983,-0.912502,0.328118,0.762195,-1.12805,0.0304878,-9.91299,0.0263452,-0.426313,1.06707,4.11585,6.61585
6879.72,95.038,-2.54903,0,9.67827,-0.929268,0.335303,1.40244,-1.4939,-0.152439,-9.89622,0.0143701,-0.392783,1.03659,3.78049,6.52439
6879.73,95.0547,-2.53879,0,9.67588,-0.912502,0.270637,1.12805,-1.21951,-0.243902,-9.89622,0.0335303,-0.395178,0.579268,3.47561,6.03659
6879.74,95.0794,-2.55595,0,9.70941,-0.931663,0.141306,0.762195,-0.579268,0.304878,-9.83635,0.112566,-0.505349,0.426829,4.54268,6.18902
6879.75,95.1147,-2.58617,0,9.69025,-0.965193,0.170046,0.487805,0.182927,0.213415,-9.84593,0.126936,-0.565225,-0.243902,5.18293,6.15854
6879.76,95.1584,-2.63425,0,9.71659,-1.00591,0.143701,0.27439,0.487805,0.27439,-9.75491,0.0479004,-0.641865,-0.853659,6.09756,6.03659
6879.77,95.2114,-2.68271,0,9.70462,-1.04423,0.112566,0.213415,-0.396341,0.304878,-9.8579,0.0550855,-0.65863,-1.18902,6.4939,5.4878
6879.78,95.2711,-2.75932,0,9.71659,-1.09452,0.0886157,1.15854,-1.46341,0.487805,-9.86748,-0.00239502,-0.790356,-0.853659,6.18902,5.33537
6879.79,95.3186,-2.84493,0,9.88425,-1.08255,0.193997,1.7378,-2.13415,-0.152439,-9.89622,-0.0335303,-0.845442,-0.152439,6.25,5.12195
6879.8,95.3277,-2.90064,0,10.0495,-0.998723,0.174836,1.40244,-2.16463,-0.487805,-9.97526,-0.0718506,-0.735271,0.243902,5.60976,5.03049
6879.81,95.3241,-2.95637,0,10.1621,-0.943638,0.179626,0.670732,-1.67683,-0.27439,-10.004,-0.0622705,-0.747246,0.365854,5.4878,4.69512
6879.82,95.3345,-3.03443,0,10.095,-0.993933,0.131726,-0.121951,0.304878,-0.243902,-10.0495,-0.0646655,-0.859812,0.579268,5.88415,4.45122
6879.83,95.3839,-3.11392,0,9.78126,-1.0586,0.294587,-1.28049,2.77439,0,-9.98244,-0.0215552,-0.874182,0.731707,6.70732,4.29878
6879.84,95.4848,-3.16262,0,9.56331,-1.16398,0.411943,-1.76829,4.93902,0.0609756,-10.0447,0.0383203,-0.756826,0.243902,6.43293,4.26829
6879.85,95.5758,-3.20826,0,9.43877,-1.12805,0.411943,-1.95122,4.90854,-0.0914634,-10.1094,0.0550855,-0.756826,-0.518293,5.85366,4.14634
6879.86,95.652,-3.26398,0,9.46512,-1.14961,0.342488,-1.34146,4.39024,-0.304878,-10.2219,0.141306,-0.819097,-0.823171,5.88415,4.17683
6879.87,95.6904,-3.35233,0,9.48188,-1.11129,0.186812,-0.731707,2.22561,-0.762195,-10.2674,0.193997,-0.979563,-1.79878,4.81707,4.39024
6879.88,95.7029,-3.50629,0,9.51781,-1.06818,0.256267,-0.609756,0.0914634,-1.25,-10.277,0.129331,-1.29092,-2.37805,4.29878,4.39024
6879.89,95.7058,-3.64327,0,9.50104,-1.10171,0.337698,-0.823171,-1.25,-2.13415,-10.2603,-0.0550855,-1.21667,-2.31707,3.01829,4.66463
6879.9,95.6987,-3.81673,0,9.49625,-1.09931,0.502954,-0.914634,-1.37195,-2.83537,-10.3106,-0.153281,-1.24541,-1.82927,1.15854,5.27439
6879.91,95.6789,-3.95338,0,9.5681,-1.08494,0.565225,-0.579268,-0.609756,-3.68902,-10.2986,-0.268242,-1.08734,-1.46341,-0.701219,5.4878
6879.92,95.6516,-4.0151,0,9.78605,-1.09213,0.498164,-0.121951,0.670732,-4.2378,-10.4231,-0.258662,-0.998723,-0.914634,-3.32317,6.06707
6879.93,95.609,-4.09715,0,9.75012,-0.991538,0.443079,0.213415,1.64634,-4.66463,-10.4638,-0.239502,-1.11368,-0.213415,-4.11585,6.70732
6879.94,95.5568,-4.19685,0,9.57529,-0.998723,0.376018,-0.670732,2.34756,-6.03659,-10.3824,-0.201182,-1.2023,0.396341,-4.42073,6.85976
6879.95,95.5119,-4.28918,0,9.24957,-1.04662,0.308958,-1.21951,1.92073,-6.43293,-10.3106,-0.158071,-1.18074,0.518293,-4.87805,6.92073
6879.96,95.4676,-4.34292,0,9.03162,-1.07057,0.414338,-1.82927,0.945122,-7.07317,-10.2674,-0.167651,-1.02028,1.06707,-6.37195,6.61585
6879.97,95.4107,-4.37347,0,9.05557,-1.05141,0.452659,-2.13415,0.152439,-8.17073,-10.2698,-0.136516,-0.926873,1.37195,-8.65854,6.64634
6879.98,95.3488,-4.38991,0,9.24478,-1.06339,0.467029,-2.10366,-1.03659,-8.65854,-10.2387,-0.0934058,-0.866997,0.97561,-10.3963,6.40244
6879.99,95.2874,-4.42371,0,9.7118,-1.09931,0.450264,-1.67683,-2.46951,-8.53659,-10.0926,-0.0814307,-0.936453,0.701219,-11.6463,6.64634
6880,95.2285,-4.44078,0,10.1261,-1.09452,0.270637,-1.25,-2.92683,-7.80488,-10.0519,-0.0431104,-0.864602,0.457317,-12.378,6.79878
6880.01,95.1735,-4.49088,0,10.495,-1.10889,0.165256,-0.457317,-3.07927,-7.2561,-9.86748,-0.0910107,-0.996328,0.243902,-12.0732,6.7378
6880.02,95.1285,-4.52982,0,10.5668,-1.08015,0.160466,-0.914634,-2.86585,-5.94512,-9.83395,-0.122146,-0.953218,0.0914634,-12.5915,6.79878
6880.03,95.0903,-4.5748,0,10.4399,-1.08494,0.282612,-2.10366,-3.10976,-5.54878,-9.83635,-0.119751,-0.986748,0.335366,-12.6829,6.85976
6880.04,95.0702,-4.61871,0,10.1693,-1.19272,0.153281,-2.13415,-2.62195,-5.33537,-9.92736,-0.0407153,-0.998723,0.518293,-12.378,6.76829
6880.05,95.0438,-4.6071,0,9.81719,-1.11608,0.0383203,-1.37195,-1.61585,-5.60976,-10.1405,0,-0.778381,0.731707,-12.9268,7.13415
6880.06,94.9982,-4.53916,0,9.60882,-0.965193,0.0598755,-0.0304878,-0.97561,-6.06707,-10.3656,0.129331,-0.536484,1.15854,-14.3902,7.7439
6880.07,94.9314,-4.45785,0,9.64714,-0.811912,0.0694556,1.15854,-0.762195,-6.43293,-10.5213,0.162861,-0.471819,1.15854,-16.4939,8.10976
6880.08,94.834,-4.36765,0,9.77168,-0.5772,0.114961,1.28049,-1.46341,-6.76829,-10.4974,0.158071,-0.416733,1.03659,-18.872,8.59756
6880.09,94.7308,-4.31493,0,9.86269,-0.500559,0.285007,0.853659,-1.79878,-6.58537,-10.3609,0.0143701,-0.56762,1.12805,-20.122,8.87195
6880.1,94.6292,-4.30715,0,9.84114,-0.495769,0.263452,0.487805,-1.98171,-6.58537,-10.2219,-0.124541,-0.754431,1.4939,-20.7012,8.65854
6880.11,94.5393,-4.23907,0,9.90101,-0.58678,0.265847,0.609756,-1.79878,-6.64634,-10.0687,-0.229922,-0.474214,2.22561,-21.9207,8.44512
6880.12,94.4725,-4.14346,0,10.0112,-0.761616,0.167651,0.548781,-1.12805,-6.43293,-10.107,-0.251477,-0.342488,2.9878,-23.5061,7.71341
6880.13,94.4164,-4.03802,0,10.1573,-0.790356,0.122146,0.792683,-0.121951,-5.67073,-10.1956,-0.174836,-0.285007,2.62195,-24.2988,7.77439
6880.14,94.3845,-3.89016,0,10.1381,-0.912502,0.162861,0.640244,0.121951,-4.7561,-10.2411,-0.100591,-0.0766406,2.83537,-25.1524,7.37805
6880.15,94.3602,-3.7421,0,10.0351,-0.912502,0.215552,1.0061,-0.579268,-4.17683,-10.2746,-0.0167651,-0.0502954,2.53049,-26.128,7.10366
6880.16,94.3344,-3.619,0,9.96328,-0.862207,0.258662,1.28049,-0.152439,-3.87195,-10.1932,0.0981958,-0.136516,1.85976,-27.0427,7.37805
6880.17,94.298,-3.52453,0,9.81719,-0.773591,0.373623,1.21951,0.0304878,-4.08537,-10.0279,0.165256,-0.239502,1.58537,-27.1951,7.68293
6880.18,94.2487,-3.4342,0,9.72857,-0.708926,0.371228,0.914634,0.457317,-4.7561,-9.87227,0.153281,-0.237107,1.67683,-26.7683,8.04878
6880.19,94.1779,-3.35045,0,9.62079,-0.570015,0.361648,0.487805,0.335366,-5.45732,-9.81958,0.0550855,-0.249082,1.52439,-27.0427,8.32317
6880.2,94.1152,-3.23333,0,9.66869,-0.60115,0.337698,-0.182927,-0.243902,-5.12195,-9.85072,-0.0934058,-0.0910107,1.67683,-27.561,7.86585
6880.21,94.0687,-3.06802,0,9.65911,-0.720901,0.229922,-0.731707,0.365854,-5.06098,-9.98963,-0.107776,0.138911,1.76829,-29.1768,7.68293
6880.22,94.0391,-2.89905,0,9.72857,-0.780776,0.308958,-0.579268,0.518293,-4.11585,-10.0471,-0.114961,0.184417,1.58537,-29.7866,7.28659
6880.23,94.029,-2.74054,0,9.78844,-0.893342,0.373623,-0.396341,-0.0304878,-3.56707,-10.0519,-0.0718506,0.167651,1.28049,-29.939,6.55488
6880.24,94.0271,-2.60808,0,9.84353,-0.967588,0.435894,-0.0914634,-1.03659,-3.59756,-9.93454,0.00958008,0.0790356,1.12805,-30,6.70732
6880.25,94.0115,-2.50625,0,9.90341,-0.898132,0.440684,0.457317,-2.2561,-4.02439,-9.81719,0.0790356,-0.0311353,0.731707,-29.3293,6.46341
6880.26,93.9839,-2.41364,0,9.97047,-0.823887,0.440684,-0.365854,-2.95732,-4.29878,-9.78126,0.119751,-0.0526904,0.670732,-28.4756,6.43293
6880.27,93.9402,-2.29583,0,9.94891,-0.701741,0.378413,-0.640244,-1.98171,-4.57317,-9.73575,0.110171,0.0718506,0.243902,-27.9878,6.18902
6880.28,93.8896,-2.18186,0,9.89622,-0.617915,0.397573,-0.945122,0,-4.39024,-9.9082,0.0263452,0.0766406,0.213415,-28.0793,6.25
6880.29,93.8294,-2.01957,0,9.90101,-0.510139,0.407153,-1.28049,0.884146,-4.17683,-10.1357,0,0.313748,0.762195,-28.9939,6.40244
6880.3,93.7702,-1.81727,0,9.79563,-0.519719,0.431104,-1.7378,1.46341,-4.39024,-10.3656,0.0287402,0.531694,1.03659,-30.8232,7.0122
6880.31,93.7197,-1.62461,0,9.82197,-0.57241,0.340093,-1.52439,0.884146,-4.2378,-10.483,0.0383203,0.529299,0.823171,-31.7988,7.56098
6880.32,93.6755,-1.40218,0,9.88664,-0.632285,0.328118,-0.97561,-1.15854,-4.39024,-10.4519,0.114961,0.699346,1.06707,-33.2317,8.07927
6880.33,93.6304,-1.17596,0,9.9058,-0.598755,0.244292,-0.365854,-2.2561,-4.14634,-10.3225,0.131726,0.747246,0.213415,-34.3293,7.95732
6880.34,93.5884,-0.958705,0,9.90341,-0.584385,0.174836,-0.121951,-3.07927,-3.75,-10.1381,0.126936,0.732876,-0.121951,-35.4878,8.10976
6880.35,93.5471,-0.771942,0,9.85311,-0.529299,0.186812,-0.457317,-3.04878,-3.07927,-9.9537,0.0958008,0.622705,-0.487805,-35.9146,8.2622
6880.36,93.5095,-0.572921,0,9.80042,-0.493374,0.222737,-0.518293,-2.56098,-2.19512,-9.85072,0,0.701741,-0.914634,-36.189,7.83537
6880.37,93.4865,-0.339346,0,9.78366,-0.548459,0.332908,-1.64634,-2.31707,-1.46341,-9.92736,-0.0502954,0.893342,-1.06707,-37.0427,7.62195
6880.38,93.4833,-0.0733964,0,9.73815,-0.711321,0.268242,-1.82927,-2.40854,-2.10366,-10.0327,-0.0502954,1.08734,-1.18902,-38.5976,7.22561
6880.39,93.4929,0.152788,0,9.8076,-0.783171,0.126936,-1.09756,-1.95122,-1.89024,-10.0543,-0.0981958,0.958008,-1.09756,-39.4817,6.82927
6880.4,93.4904,0.360028,0,9.91059,-0.711321,0.0790356,-0.762195,-0.884146,-1.85976,-10.0471,-0.00958008,0.912502,-0.731707,-39.7256,6.79878
6880.41,93.4567,0.596908,0,9.34297,-0.486189,0.60115,1.18902,-1.31098,-1.95122,-9.94652,0.0191602,1.07057,-0.243902,-40.122,7.22561
6880.42,93.4493,0.860707,0,9.93215,-0.651445,0.186812,0.518293,-0.792683,-1.58537,-9.91059,0.0407153,1.22625,0,-41.4329,7.43902
6880.43,93.4417,1.12858,0,10.119,-0.63468,0.122146,0.121951,1.61585,-1.18902,-9.82437,0.0598755,1.27894,-0.365854,-42.0427,7.65244
6880.44,93.4328,1.36426,0,9.94652,-0.622705,0.0790356,0.121951,2.68293,-1.34146,-9.77647,0.0814307,1.17835,-0.304878,-41.9207,7.89634
6880.45,93.4277,1.61476,0,10.0016,-0.64905,0.117356,-0.335366,3.78049,-1.34146,-9.71899,0.0335303,1.27655,-0.426829,-41.8902,7.71341
6880.46,93.4418,1.89681,0,9.59924,-0.775986,0.0622705,0.304878,1.92073,-1.89024,-9.69743,0.0167651,1.45378,-0.487805,-42.6829,7.95732
6880.47,93.4535,2.19796,0,9.616,-0.809517,0.182021,0,0.884146,-2.28659,-9.72617,0.00718506,1.59029,-0.853659,-43.5366,7.71341
6880.48,93.4579,2.4918,0,9.63995,-0.811912,0.158071,-0.213415,-0.243902,-2.7439,-9.75012,-0.0670605,1.61424,-1.09756,-43.9329,7.43902
6880.49,93.4707,2.77047,0,9.69025,-0.914897,0.0981958,0.304878,0.304878,-3.04878,-9.73096,-0.0838257,1.59508,-0.97561,-44.4512,7.19512
6880.5,93.4814,3.06261,0,9.72378,-0.881367,0.0910107,1.25,1.09756,-2.83537,-9.73096,-0.148491,1.70286,-0.884146,-44.8171,7.10366
6880.51,93.4746,3.35244,0,9.87467,-0.790356,0.110171,1.15854,0.823171,-3.10976,-9.69264,-0.119751,1.73639,-0.27439,-45.4573,7.13415
6880.52,93.467,3.6381,0,10.0184,-0.764011,0.162861,1.4939,0.762195,-2.77439,-9.68785,-0.110171,1.76752,-0.304878,-45.7317,6.70732
6880.53,93.4587,3.89453,0,10.0495,-0.766406,0.141306,1.70732,1.18902,-2.83537,-9.62798,-0.100591,1.67891,0.457317,-44.8476,7.04268
6880.54,93.4403,4.15848,0,10.0208,-0.704136,0.217947,1.85976,1.64634,-3.10976,-9.64714,-0.0981958,1.76034,1.4939,-44.1768,6.98171
6880.55,93.4322,4.44954,0,9.91538,-0.807122,0.174836,1.79878,1.92073,-3.44512,-9.63277,-0.119751,1.9232,1.55488,-44.0244,7.07317
6880.56,93.4168,4.76068,0,9.8124,-0.804727,0.246687,1.61585,1.98171,-4.20732,-9.64235,-0.131726,2.06451,1.82927,-44.7561,7.40854
6880.57,93.3976,5.07227,0,9.76689,-0.845442,0.244292,0.792683,2.22561,-5.12195,-9.62319,-0.0886157,2.1172,2.13415,-44.6951,7.40854
6880.58,93.3711,5.39055,0,9.70222,-0.857417,0.191602,1.18902,2.77439,-6.09756,-9.57529,-0.0574805,2.19144,2.46951,-44.1768,7.5
6880.59,93.3356,5.72902,0,9.79803,-0.792751,0.258662,1.55488,3.07927,-6.18902,-9.53457,0.0335303,2.32796,2.28659,-43.811,7.37805
6880.6,93.2832,6.08527,0,9.87706,-0.64905,0.280217,1.61585,2.68293,-6.21951,-9.46751,0.0550855,2.4501,2.34756,-43.628,7.71341
6880.61,93.2365,6.45362,0,9.96568,-0.680186,0.249082,1.25,2.83537,-6.03659,-9.47949,0.0742456,2.56986,2.13415,-44.2378,7.71341
6880.62,93.191,6.82672,0,9.92975,-0.687371,0.320933,1.06707,2.7439,-6.12805,-9.46991,0.0742456,2.65368,2.0122,-44.6951,7.56098
6880.63,93.1472,7.17912,0,9.96089,-0.694556,0.371228,1.09756,3.17073,-6.09756,-9.39327,0.0646655,2.60578,1.64634,-44.6951,7.7439
6880.64,93.1033,7.53619,0,9.78605,-0.747246,0.342488,1.03659,2.37805,-6.98171,-9.34297,0.00239502,2.67524,1.7378,-43.9634,7.19512
6880.65,93.0533,7.89556,0,9.77168,-0.718506,0.464634,1.21951,1.61585,-7.34756,-9.35255,-0.0359253,2.75188,2.16463,-43.5061,7.16463
6880.66,92.9918,8.27238,0,9.88904,-0.708926,0.469424,0.152439,2.9878,-8.41463,-9.34058,-0.0526904,2.89079,2.13415,-43.3537,7.13415
6880.67,92.9388,8.63706,0,9.59205,-0.768801,0.385598,0.27439,2.16463,-8.65854,-9.30705,-0.0455054,2.89318,2.31707,-43.0793,6.89024
6880.68,92.8662,8.9916,0,9.6184,-0.687371,0.251477,1.4939,1.98171,-9.7561,-9.26633,-0.0119751,2.90037,2.56098,-42.4085,6.92073
6880.69,92.7789,9.35527,0,9.82677,-0.548459,0.184417,1.76829,2.46951,-9.57317,-9.2831,0.0550855,3.01054,3.35366,-41.8293,6.95122
6880.7,92.6818,9.75732,0,9.92257,-0.476609,0.138911,2.04268,3.10976,-9.84756,-9.2328,0.138911,3.23328,3.14024,-42.0427,7.43902
6880.71,92.5937,10.1864,0,10.004,-0.479004,0.165256,1.82927,3.20122,-9.11585,-9.19687,0.160466,3.41769,3.04878,-41.7378,7.13415
6880.72,92.5018,10.6047,0,9.94412,-0.462239,0.318538,1.43293,3.78049,-9.5122,-9.12023,0.210762,3.41769,2.53049,-42.0122,7.13415
6880.73,92.4169,11.0318,0,9.84114,-0.493374,0.328118,1.31098,2.65244,-9.42073,-9.02683,0.162861,3.49912,2.28659,-40.7622,6.85976
6880.74,92.3329,11.4165,0,9.75731,-0.534089,0.440684,1.0061,3.29268,-10.0305,-8.92624,0.0958008,3.34584,2.19512,-39.8171,6.28049
6880.75,92.2534,11.7946,0,9.77407,-0.546064,0.390388,0.914634,2.28659,-9.87805,-8.92863,0.0598755,3.38656,1.70732,-39.2073,5.82317
6880.76,92.1833,12.2151,0,9.83874,-0.593965,0.325723,1.79878,2.5,-9.60366,-8.943,-0.0718506,3.6524,2.5,-40.0915,5.42683
6880.77,92.0996,12.64,0,9.84832,-0.462239,0.225132,2.92683,3.29268,-9.57317,-9.00527,-0.0694556,3.77455,2.07317,-41.0976,5.42683
6880.78,92.0047,13.0675,0,9.56571,-0.471819,0.522114,1.15854,1.70732,-11.1585,-8.9909,-0.0526904,3.85838,1.67683,-42.3171,5.73171
6880.79,91.9063,13.5058,0,9.63516,-0.462239,0.368833,-0.121951,0.243902,-11.5549,-8.92863,0.0191602,3.96136,1.4939,-42.4695,6.34146
6880.8,91.8051,13.9698,0,9.80521,-0.486189,0.129331,0.792683,1.40244,-12.2256,-8.84002,0.0886157,4.12422,1.0061,-42.622,7.2561
6880.81,91.6902,14.4442,0,9.95131,-0.361648,0.107776,1.55488,1.70732,-12.2866,-8.79691,0.114961,4.24158,0.97561,-42.2561,8.14024
6880.82,91.5746,14.8759,0,9.99202,-0.289797,0,2.68293,1.4939,-11.7378,-8.69632,0.150886,4.08111,1.25,-41.4024,8.47561
6880.83,91.4642,15.2715,0,10.1405,-0.256267,0.0479004,3.2622,0.914634,-11.0061,-8.67716,0.124541,3.98531,2.16463,-39.8476,8.5061
6880.84,91.3594,15.595,0,10.0806,-0.234712,0.00479004,3.44512,1.06707,-10.4268,-8.72027,0.0598755,3.74581,2.40854,-39.2378,8.29268
6880.85,91.2493,15.9522,0,10.0064,-0.165256,0.0526904,3.17073,2.0122,-10.3963,-8.7993,-0.0550855,3.99489,2.56098,-40.122,8.07927
6880.86,91.1427,16.3873,0,9.82677,-0.229922,0.170046,2.40854,2.62195,-11.0671,-8.92624,-0.182021,4.49306,2.0122,-44.4207,7.62195
6880.87,91.0406,16.7802,0,9.76928,-0.280217,0.160466,2.13415,3.65854,-11.4329,-9.05078,-0.138911,4.42839,1.92073,-47.9268,7.34756
6880.88,90.9474,17.1343,0,9.8076,-0.318538,0.0981958,3.29268,4.32927,-11.189,-8.97893,-0.0670605,4.2799,2.37805,-48.1098,7.86585
6880.89,90.8518,17.5433,0,9.88904,-0.244292,0.210762,4.87805,4.29878,-10.7012,-8.80649,0.0598755,4.53138,2.5,-46.9512,8.9939
6880.9,90.7661,17.9845,0,10.0711,-0.213157,0.296982,6.21951,6.09756,-9.48171,-8.58136,0.186812,4.65113,2.28659,-46.1585,10.061
6880.91,90.6777,18.4335,0,10.0423,-0.134121,0.502954,5.73171,3.78049,-9.02439,-8.39933,0.208367,4.67508,2.16463,-44.939,10.1524
6880.92,90.6019,18.9109,0,9.92736,-0.229922,0.749641,4.48171,2.89634,-9.05488,-8.23168,0.184417,4.80441,1.15854,-43.9939,10.061
6880.93,90.5316,19.3874,0,9.83874,-0.253872,0.637075,4.08537,2.68293,-8.96341,-8.13349,0.141306,4.83554,0.213415,-42.8659,9.69512
6880.94,90.4651,19.8173,0,9.84353,-0.251477,0.59636,5.33537,3.87195,-8.68902,-8.06882,0.0958008,4.6655,-0.152439,-41.7988,9.11585
6880.95,90.3962,20.1777,0,9.83874,-0.162861,0.732876,4.78659,3.93293,-8.01829,-7.97302,0.0526904,4.36852,0.121951,-40.122,8.5061
6880.96,90.3269,20.5908,0,9.76449,-0.134121,0.756826,3.68902,3.23171,-7.86585,-8.00176,0.0526904,4.69663,1.06707,-40.2134,8.14024
6880.97,90.2488,21.0396,0,9.64235,-0.0838257,0.673001,3.04878,3.44512,-8.32317,-8.15265,0.0143701,5.03912,0.97561,-41.4024,7.95732
6880.98,90.1623,21.4783,0,9.73096,-0.0383203,0.5772,3.41463,5.2439,-8.78049,-8.1766,0.0574805,5.09181,0.518293,-41.25,7.37805
6880.99,90.0876,21.9049,0,9.93694,0.0670605,0.502954,3.62805,4.35976,-6.4939,-8.19336,0.160466,5.13013,-0.0914634,-40.2134,6.95122
6881,90.0108,22.3577,0,9.82677,0.110171,0.66342,3.17073,4.20732,-6.34146,-8.11193,0.244292,5.29778,-0.121951,-38.5976,6.7378
6881.01,89.944,22.8255,0,9.77168,0,0.768801,2.71341,3.62805,-6.79878,-8.01853,0.234712,5.40556,-0.182927,-37.5915,6.95122
6881.02,89.8981,23.305,0,9.8555,-0.0910107,0.816702,2.16463,1.85976,-5.88415,-7.90117,0.210762,5.4822,-0.426829,-36.4634,6.92073
6881.03,89.8456,23.7844,0,9.67109,-0.0838257,0.787961,1.70732,1.70732,-6.58537,-7.85327,0.0910107,5.54687,-0.426829,-35.8232,6.76829
6881.04,89.7871,24.2677,0,9.63756,-0.110171,0.761616,1.82927,-0.609756,-7.62195,-7.75986,0.0359253,5.59956,-0.487805,-34.9085,6.70732
6881.05,89.7144,24.6739,0,9.68306,-0.0263452,0.740061,0.853659,-1.09756,-8.17073,-7.70717,-0.00479004,5.26904,0.27439,-34.0549,6.76829
6881.06,89.6377,25.0858,0,9.74773,0.00239502,0.61552,0.243902,-1.0061,-8.38415,-7.59461,0.0239502,5.30018,1.21951,-33.3232,7.22561
6881.07,89.5615,25.5478,0,9.93454,0.0886157,0.428708,0.548781,0.670732,-7.46951,-7.597,0.0191602,5.63788,1.58537,-34.4817,7.92683
6881.08,89.4881,26.0056,0,9.88425,0.136516,0.316143,0.97561,1.31098,-6.76829,-7.67125,0.0455054,5.76721,1.92073,-35.2744,8.2622
6881.09,89.4008,26.4438,0,9.97765,0.296982,0.58199,1.09756,1.52439,-6.46341,-7.65927,0.131726,5.75044,2.28659,-34.878,8.59756
6881.1,89.339,26.8908,0,9.77168,0.117356,0.531694,0.762195,-0.27439,-6.12805,-7.59461,0.282612,5.84145,2.37805,-33.4451,8.93293
6881.11,89.2693,27.3367,0,9.68306,0.122146,0.541274,0.365854,0.457317,-6.98171,-7.55868,0.244292,5.90372,2.31707,-32.1037,9.08537
6881.12,89.2072,27.7785,0,9.82437,0.110171,0.447869,0.884146,0.701219,-6.52439,-7.53473,0.347278,5.95881,1.70732,-31.128,8.90244
6881.13,89.166,28.2303,0,9.55613,0.0407153,0.399968,1.0061,1.85976,-5.33537,-7.45809,0.361648,6.04742,1.21951,-30.4573,8.87195
6881.14,89.1042,28.6892,0,9.84114,0.189207,0.416733,2.07317,-0.640244,-5.7622,-7.44851,0.337698,6.17676,0.396341,-30.3963,8.84146
6881.15,89.0597,29.1398,0,10.0567,0.138911,0.275427,2.04268,0.884146,-4.7561,-7.37427,0.285007,6.16957,-0.335366,-30.5488,8.9939
6881.16,89.0146,29.5593,0,9.99442,0.191602,0.402363,1.79878,1.09756,-4.26829,-7.33355,0.201182,6.06419,-0.243902,-29.5732,8.96341
6881.17,88.9847,29.9343,0,9.98963,0.114961,0.483794,0.97561,0.670732,-3.75,-7.29283,0.0862207,5.88217,0.213415,-28.5366,9.39024
6881.18,88.9762,30.3332,0,9.89383,-0.0694556,0.536484,1.09756,0.670732,-3.87195,-7.20661,-0.0335303,6.01868,0.762195,-27.9573,9.63415
6881.19,88.9476,30.742,0,9.75012,0.0239502,0.550855,0.487805,0.0914634,-4.7561,-7.23296,-0.0814307,6.18155,0.609756,-28.2927,9.66463
6881.2,88.9226,31.1114,0,9.57529,-0.0287402,0.486189,0.243902,2.62195,-5.09146,-7.31678,-0.0455054,6.12406,0.457317,-28.2622,9.78659
6881.21,88.8651,31.4859,0,9.7621,0.184417,0.201182,3.23171,0.731707,-5.85366,-7.29523,0.00718506,6.21508,1.34146,-28.0488,10.1829
6881.22,88.8106,31.8633,0,10.0375,0.249082,0.282612,3.29268,1.0061,-4.96951,-7.28804,0.122146,6.30848,2.2561,-28.1098,10.2134
6881.23,88.7473,32.2335,0,10.1429,0.349673,0.399968,3.04878,1.4939,-4.84756,-7.23535,0.229922,6.30609,2.56098,-27.6829,11.0061
6881.24,88.6943,32.591,0,10.1237,0.320933,0.479004,2.34756,1.18902,-4.2378,-7.18745,0.186812,6.27735,2.83537,-25.9756,11.311
6881.25,88.6492,32.9514,0,9.90341,0.225132,0.627495,1.34146,1.52439,-4.60366,-7.17308,0.174836,6.36117,3.17073,-25.122,11.1585
6881.26,88.615,33.3031,0,9.77647,0.134121,0.62989,1.15854,2.53049,-4.66463,-7.13716,0.191602,6.36117,2.68293,-24.5732,10.6402
6881.27,88.5895,33.6444,0,9.84593,0.0862207,0.522114,1.79878,3.75,-4.45122,-7.05094,0.229922,6.30609,2.2561,-22.9268,10.0915
6881.28,88.5565,33.99,0,9.96089,0.198787,0.5772,1.55488,3.75,-3.93293,-7.0198,0.234712,6.38033,1.67683,-21.128,9.08537
6881.29,88.6241,34.339,0,10.6818,-0.126936,0.522114,0.152439,12.7744,-0.243902,-6.98627,0.251477,6.44739,1.46341,-20.061,8.07927
6881.3,88.5991,34.6526,0,9.80042,0.275427,0.138911,1.76829,3.35366,-1.95122,-6.97909,0.280217,6.32046,0.762195,-19.1159,7.31707
6881.31,88.5842,34.9646,0,9.93694,0.227527,0.57241,1.18902,3.96341,-1.76829,-6.96472,0.308958,6.36836,1.0061,-18.4451,7.13415
6881.32,88.5772,35.2684,0,9.80281,0.148491,0.694556,0.457317,4.14634,-2.10366,-6.91442,0.318538,6.3468,1.09756,-17.5915,6.79878
6881.33,88.5846,35.5564,0,9.78844,0.0455054,0.541274,0.97561,4.54268,-2.16463,-6.98867,0.325723,6.3947,0.701219,-16.9817,7.04268
6881.34,88.5953,35.8397,0,9.84832,0.0550855,0.548459,1.4939,4.39024,-1.82927,-6.99106,0.285007,6.43542,1.03659,-16.2195,7.04268
6881.35,88.5964,36.1191,0,9.89622,0.0718506,0.419128,1.46341,4.87805,-2.28659,-7.01741,0.313748,6.50248,0.701219,-15.4878,6.58537
6881.36,88.5952,36.3901,0,9.81958,0.0981958,0.570015,1.34146,5.45732,-2.19512,-7.03417,0.325723,6.53361,0.823171,-14.878,6.55488
6881.37,88.5818,36.6483,0,9.74533,0.141306,0.735271,0.243902,4.90854,-2.71341,-7.07968,0.289797,6.56475,0.792683,-14.7866,6.31098
6881.38,88.5739,36.8956,0,9.76689,0.0766406,0.680186,0.365854,5.09146,-2.9878,-7.06052,0.347278,6.54319,0.548781,-14.1768,6.4939
6881.39,88.5703,37.132,0,9.79323,0.0622705,0.56762,1.21951,5.60976,-2.80488,-7.0198,0.373623,6.50008,0.152439,-13.2927,6.7378
6881.4,88.5537,37.3964,0,9.84593,0.136516,0.64905,1.18902,5.12195,-3.10976,-6.94077,0.452659,6.64378,0.0304878,-12.7134,7.19512
6881.41,88.5373,37.659,0,9.83635,0.129331,0.728086,0.884146,3.75,-3.20122,-6.91203,0.414338,6.66773,-0.304878,-11.5244,7.68293
6881.42,88.5152,37.9035,0,9.85311,0.167651,0.833467,-0.396341,2.7439,-3.32317,-6.89766,0.399968,6.61025,-0.609756,-10.4573,7.9878
6881.43,88.5275,38.1514,0,10.2243,0.0718506,0.821492,-3.04878,5.18293,-1.55488,-6.85934,0.409548,6.65097,-1.12805,-9.54268,7.77439
6881.44,88.5289,38.3885,0,9.35255,-0.0263452,0.380808,-1.06707,4.08537,-3.5061,-6.90005,0.416733,6.6845,-1.18902,-8.93293,7.43902
6881.45,88.4927,38.6286,0,9.79803,0.217947,0.56283,-1.34146,3.07927,-4.11585,-6.88808,0.335303,6.74677,-1.43293,-8.87195,7.22561
6881.46,88.455,38.8536,0,10.0926,0.196392,0.483794,-3.04878,4.29878,-4.66463,-6.90484,0.304167,6.73,-1.52439,-8.56707,7.65244
6881.47,88.4052,39.0748,0,10.2052,0.237107,0.519719,-5.30488,5.94512,-5.51829,-6.88808,0.263452,6.74438,-1.37195,-8.29268,7.28659
6881.48,88.3466,39.2859,0,10.0399,0.251477,0.797541,-6.85976,6.95122,-6.31098,-6.84018,0.217947,6.68929,-1.28049,-7.95732,7.56098
6881.49,88.3039,39.5076,0,9.89862,0.0502954,1.02507,-6.95122,7.28659,-7.13415,-6.78988,0.191602,6.75156,-0.853659,-7.04268,7.56098
6881.5,88.2677,39.7172,0,9.78366,-0.00239502,0.876577,-4.20732,7.68293,-7.19512,-6.79228,0.138911,6.73,-0.609756,-5.97561,7.31707
6881.51,88.2089,39.9243,0,9.67588,0.198787,1.02507,-2.37805,6.06707,-7.13415,-6.77791,0.150886,6.74198,-0.243902,-5.18293,7.2561
6881.52,88.1475,40.1364,0,9.7621,0.273032,0.756826,-2.0122,7.62195,-6.64634,-6.77072,0.167651,6.80904,-0.121951,-4.90854,7.2561
6881.53,88.0929,40.3388,0,9.87946,0.205972,0.804727,-1.82927,9.20732,-6.92073,-6.81383,0.198787,6.85215,0.0914634,-5.2439,6.89024
6881.54,88.0106,40.5367,0,9.89862,0.495769,0.974773,-4.26829,8.84146,-6.43293,-6.80904,0.189207,6.86413,0.457317,-4.93902,6.64634
6881.55,87.9532,40.7231,0,9.83874,0.273032,1.00591,-4.26829,5.64024,-6.67683,-6.80425,0.186812,6.84018,0.152439,-5.06098,6.46341
6881.56,87.8876,40.9046,0,9.8076,0.320933,0.673001,-1.21951,4.7561,-7.04268,-6.73958,0.193997,6.79228,0.365854,-5.27439,6.4939
6881.57,87.8041,41.0964,0,9.66869,0.524509,0.950823,-1.18902,2.34756,-6.4939,-6.68689,0.167651,6.84018,0.365854,-5.09146,6.31098
6881.58,87.739,41.2826,0,9.98005,0.488584,0.706531,-2.0122,3.10976,-5.39634,-6.71563,0.126936,6.88089,0.426829,-4.96951,6.34146
6881.59,87.6702,41.4596,0,9.85311,0.579595,0.833467,-3.23171,2.62195,-4.72561,-6.71803,0.0670605,6.86652,0.701219,-4.63415,5.70122
6881.6,87.6186,41.6242,0,9.62558,0.447869,0.919688,-4.5122,2.92683,-4.57317,-6.71324,0.126936,6.81623,1.34146,-4.14634,5.82317
6881.61,87.5863,41.7827,0,9.57289,0.268242,0.804727,-2.80488,3.04878,-4.90854,-6.64378,0.182021,6.7324,1.70732,-3.84146,5.70122
6881.62,87.5469,41.9645,0,9.62319,0.359253,0.855022,-2.28659,3.07927,-4.60366,-6.56475,0.217947,6.79467,1.37195,-3.47561,5.88415
6881.63,87.5241,42.1342,0,9.54415,0.263452,0.893342,-2.86585,3.44512,-4.17683,-6.62223,0.277822,6.81862,1.40244,-3.2622,6.12805
6881.64,87.4964,42.2808,0,9.57768,0.294587,0.775986,-2.07317,3.9939,-4.32927,-6.67492,0.320933,6.77791,1.67683,-3.14024,6.52439
6881.65,87.4809,42.434,0,9.78844,0.268242,0.960403,-2.22561,4.08537,-3.59756,-6.73719,0.376018,6.85694,1.46341,-2.5,5.97561
6881.66,87.4485,42.5853,0,10.0112,0.387993,0.958008,-3.32317,4.57317,-3.93293,-6.76833,0.347278,6.90245,0.884146,-2.34756,5.82317
6881.67,87.4401,42.7147,0,9.97286,0.234712,1.0083,-3.93293,4.63415,-3.44512,-6.76114,0.344883,6.72521,1.03659,-1.76829,5.67073
6881.68,87.4403,42.872,0,9.91538,0.124541,0.823887,-3.38415,3.75,-3.87195,-6.71084,0.371228,6.79228,0.945122,-1.61585,5.97561
6881.69,87.4235,43.0111,0,9.79084,0.280217,0.948428,-3.2622,2.2561,-3.68902,-6.7324,0.347278,6.82341,0.426829,-1.82927,6.09756
6881.7,87.4162,43.145,0,9.62798,0.234712,0.993933,-3.41463,2.9878,-3.35366,-6.75156,0.342488,6.72761,0.914634,-1.18902,6.12805
6881.71,87.3961,43.2952,0,9.64953,0.301772,0.910107,-3.17073,2.9878,-3.75,-6.79467,0.344883,6.77791,0.670732,-0.762195,6.46341
6881.72,87.3718,43.4358,0,9.76928,0.368833,0.807122,-3.04878,-0.701219,-3.44512,-6.84018,0.308958,6.77551,1.09756,-0.457317,6.4939
6881.73,87.3533,43.5037,0,9.81719,0.359253,0.831072,-2.31707,-1.37195,-3.07927,-6.89526,0.237107,6.71084,1.12805,-0.701219,6.37195
6881.74,87.3482,43.5529,0,9.82437,0.318538,0.869392,-0.945122,-1.4939,-2.40854,-6.92161,0.232317,6.72282,1.46341,-0.97561,6.7378
6881.75,87.348,43.6025,0,9.88664,0.344883,0.917292,-0.518293,-1.98171,-1.76829,-6.89526,0.294587,6.7324,1.85976,-1.31098,7.0122
6881.76,87.3614,43.6365,0,9.96089,0.263452,0.890947,0.335366,-0.426829,-1.67683,-6.90245,0.359253,6.70366,2.0122,-1.52439,7.37805
6881.77,87.3657,43.676,0,9.98484,0.342488,0.878972,0.0914634,1.7378,-1.46341,-6.91921,0.390388,6.75635,1.40244,-1.61585,7.5
6881.78,87.3657,43.7036,0,9.92496,0.378413,0.922083,0.152439,2.80488,-1.34146,-6.98627,0.390388,6.79467,1.09756,-1.95122,7.5
6881.79,87.3699,43.7191,0,9.84114,0.294587,0.955613,0.243902,2.46951,-1.95122,-7.04854,0.380808,6.81623,0.640244,-2.80488,6.89024
6881.8,87.3899,43.7132,0,9.80042,0.265847,0.874182,1.18902,1.95122,-1.31098,-7.06291,0.347278,6.71803,0.579268,-3.10976,6.58537
6881.81,87.4026,43.7074,0,9.7118,0.273032,0.852627,0.670732,1.98171,-1.61585,-7.02699,0.299377,6.6821,0.457317,-3.47561,6.34146
6881.82,87.4158,43.7013,0,9.73815,0.244292,0.775986,0.884146,1.55488,-1.82927,-7.07728,0.198787,6.72521,0.640244,-4.14634,6.12805
6881.83,87.4125,43.6864,0,9.83395,0.263452,0.761616,1.34146,0.426829,-2.7439,-7.03896,0.205972,6.6342,1.28049,-5.06098,6.12805
6881.84,87.4096,43.6653,0,9.82916,0.263452,1.02028,1.31098,-0.152439,-2.71341,-7.03896,0.162861,6.59588,1.18902,-4.87805,5.85366
6881.85,87.4088,43.6525,0,9.89862,0.241897,1.09692,0.823171,0.213415,-2.77439,-7.05333,0.165256,6.65097,1.4939,-5.64024,6.0061
6881.86,87.404,43.621,0,9.84114,0.210762,1.03704,0.884146,0.609756,-3.44512,-7.17069,0.122146,6.64618,1.70732,-6.58537,6.25
6881.87,87.3884,43.5858,0,9.7621,0.294587,1.14242,0.0304878,0.0304878,-3.47561,-7.26888,0.136516,6.70605,2.07317,-7.92683,5.85366
6881.88,87.3648,43.5424,0,9.79563,0.320933,1.0586,-0.640244,0.335366,-3.96341,-7.3096,0.124541,6.6845,2.62195,-9.26829,5.88415
6881.89,87.342,43.4902,0,9.80281,0.287402,0.718506,-0.243902,0.304878,-4.32927,-7.33355,0.0455054,6.64378,2.71341,-10.3354,5.97561
6881.9,87.3145,43.4648,0,9.84593,0.344883,1.01309,-0.487805,0.640244,-4.17683,-7.22098,0.138911,6.6845,2.92683,-11.5854,6.25
6881.91,87.2853,43.4471,0,9.97526,0.323328,0.972378,-1.18902,0.884146,-4.69512,-7.18266,0.198787,6.68689,3.5061,-13.0183,6.92073
6881.92,87.2554,43.4175,0,10.1261,0.299377,0.871787,-0.97561,-0.0914634,-5.15244,-7.25212,0.126936,6.67492,4.08537,-14.6951,6.82927
6881.93,87.2139,43.3585,0,9.93454,0.320933,0.950823,-0.853659,0.0914634,-6.06707,-7.30002,0.0383203,6.5384,4.63415,-15.7622,6.25
6881.94,87.1611,43.2873,0,9.72857,0.366438,0.883762,-0.0914634,-0.457317,-6.67683,-7.36947,-0.0143701,6.51445,6.12805,-16.9817,5.79268
6881.95,87.1097,43.2,0,9.86988,0.337698,0.768801,-0.0914634,1.82927,-7.04268,-7.44372,0.0143701,6.46895,7.80488,-18.689,5.60976
6881.96,87.0479,43.1325,0,9.87706,0.457449,0.706531,0.670732,2.92683,-6.79878,-7.4054,0.0455054,6.52643,8.35366,-21.0976,5.4878
6881.97,86.9889,43.1226,0,10.107,0.519719,0.771196,1.06707,3.90244,-6.03659,-7.4054,0.138911,6.84976,8.5061,-23.2622,5.70122
6881.98,86.9357,43.1148,0,10.2219,0.526904,1.05141,1.28049,3.44512,-5.54878,-7.32397,0.217947,6.7827,8.68902,-24.9085,5.85366
6881.99,86.8907,43.142,0,10.1118,0.421523,1.17116,0.548781,2.71341,-5.97561,-7.18985,0.280217,6.86413,9.32927,-26.189,5.88415
6882,86.8504,43.1823,0,9.82677,0.251477,1.03944,-0.182927,3.90244,-7.46951,-7.18985,0.299377,6.94795,9.45122,-27.9268,5.91463
6882.01,86.8186,43.1814,0,9.59924,0.0263452,1.17835,0.0914634,2.7439,-9.35976,-7.19943,0.294587,6.72042,8.07927,-26.7988,4.7561
6882.02,86.766,43.2194,0,9.78844,0.193997,1.32684,-2.56098,3.41463,-9.54268,-7.12279,0.246687,6.88089,6.52439,-26.189,4.08537
6882.03,86.6892,43.2561,0,9.41243,0.356858,0.831072,-2.10366,-0.243902,-10,-7.26409,0.256267,7.01741,6.67683,-27.5305,3.68902
6882.04,86.5954,43.2913,0,9.94652,0.65384,0.852627,-1.82927,-0.243902,-8.65854,-7.18745,0.294587,6.94077,7.9878,-29.0244,3.41463
6882.05,86.5077,43.3461,0,10.1309,0.723296,1.02746,-0.579268,-0.945122,-7.56098,-7.04615,0.301772,6.93119,9.87805,-30,4.05488
6882.06,86.4227,43.4116,0,9.97286,0.761616,1.36277,-1.09756,-0.914634,-6.89024,-6.88089,0.366438,6.84497,10.0915,-30.2439,4.72561
6882.07,86.3674,43.5131,0,9.55852,0.337698,1.26457,-6.03659,-0.731707,-8.81098,-6.7324,0.390388,6.92879,10.8537,-30.2134,4.84756
6882.08,86.3553,43.6173,0,8.75619,-0.165256,1.23344,-13.5976,1.0061,-10.8537,-6.7803,0.517324,7.0198,12.1951,-30.3963,4.57317
6882.09,86.3046,43.7199,0,9.14418,-0.261057,1.08734,-8.35366,-5.30488,-15.9451,-6.86652,0.65863,7.12518,12.3476,-30,4.11585
6882.1,86.1454,43.8421,0,8.92624,0.359253,1.52323,-8.90244,-9.66463,-19.0854,-6.95514,0.732876,7.36947,11.6159,-30.1829,3.2622
6882.11,85.9993,43.9342,0,10.0567,0.519719,1.71723,-10.9451,-6.4939,-16.7378,-6.94556,0.912502,7.19703,10.7317,-30.4573,2.65244
6882.12,85.8715,44.0534,0,9.75731,0.495769,1.44899,-10.9756,-6.89024,-15.2744,-6.8306,1.09692,7.27367,7.86585,-29.3293,1.92073
6882.13,85.7436,44.2585,0,9.41243,0.438289,1.10171,-10.8232,-9.20732,-16.0366,-6.77791,1.1544,7.81974,4.72561,-30.4268,1.67683
6882.14,85.632,44.5045,0,9.5226,0.124541,0.811912,-6.89024,-10.0305,-18.5366,-6.64139,1.20709,8.00176,2.19512,-32.5915,1.40244
6882.15,85.519,44.7039,0,9.8555,0.112566,1.1544,-14.3902,-3.35366,-19.1159,-6.54559,1.18314,7.63053,1.28049,-32.9878,1.82927
6882.16,85.4729,44.9182,0,11.1871,-0.0167651,1.54958,-25,8.38415,-14.0244,-6.3947,1.08734,7.60898,0.701219,-32.5,2.43902
6882.17,85.485,45.1681,0,10.7872,-0.505349,0.134121,-22.4085,9.26829,-13.4756,-6.28453,0.967588,7.77902,0.304878,-32.8659,3.01829
6882.18,85.4397,45.4097,0,10.4207,0.0239502,-0.517324,-13.7805,-8.96341,-13.5671,-6.21508,0.785566,7.70238,0.731707,-34.2683,3.56707
6882.19,85.3899,45.6674,0,10.3106,0.411943,1.52563,-11.0976,-4.45122,-9.72561,-6.16718,0.6251,7.82213,1.25,-34.4207,3.59756
6882.2,85.2834,45.973,0,9.24238,0.426313,0.759221,-6.12805,-14.5122,-14.878,-6.07616,0.493374,8.1263,0.945122,-34.6037,3.56707
6882.21,85.1422,46.3124,0,9.8124,0.471819,1.0107,-9.69512,-11.0061,-18.4146,-5.95402,0.414338,8.30832,0.823171,-34.2378,3.17073
6882.22,85.0065,46.6762,0,9.74294,0.0215552,0.376018,-9.08537,-7.80488,-23.5061,-5.78397,0.330513,8.36341,0.701219,-33.5061,2.65244
6882.23,84.8803,47.0741,0,10.2962,0.0981958,0.479004,-5.06098,-11.5549,-21.9512,-5.60674,0.306563,8.49034,1.40244,-32.9878,2.9878
6882.24,84.6625,47.4733,0,9.89143,1.18074,1.93997,-17.5915,-1.46341,-18.7805,-5.46304,0.251477,8.41131,1.89024,-31.9207,3.75
6882.25,84.4801,47.8315,0,10.2746,0.778381,0.433499,-8.20122,-3.56707,-20.6707,-5.41274,0.208367,8.13828,2.0122,-29.5122,4.78659
6882.26,84.312,48.198,0,10.4135,0.840652,0.256267,-4.87805,-6.4939,-18.9939,-5.32413,0.234712,8.18378,2.16463,-27.2561,5.18293
6882.27,84.1376,48.58,0,10.2555,0.996328,1.11608,-10,-10.0305,-18.0793,-5.27862,0.411943,8.35383,2.43902,-26.6768,5.94512
6882.28,83.9934,48.9554,0,10.3656,0.622705,0.811912,-12.8049,-5.54878,-19.6646,-5.2427,0.531694,8.3682,2.46951,-25.6402,6.85976
6882.29,83.8776,49.3095,0,9.87706,0.383203,0.936453,-13.5976,-7.07317,-19.5427,-5.23072,0.428708,8.29874,2.80488,-24.3598,7.22561
6882.3,83.7061,49.6625,0,9.00048,0.433499,0.0407153,-9.35976,-5.45732,-24.3598,-5.1445,0.275427,8.26761,3.78049,-23.1402,6.61585
6882.31,83.4644,50.0047,0,10.2555,1.22386,0.651445,-4.78659,-8.35366,-23.628,-5.099,0.261057,8.2221,4.05488,-22.5,6.64634
6882.32,83.1872,50.3384,0,9.79803,1.64777,0.474214,-5.15244,-8.20122,-22.1341,-5.09421,0.380808,8.25563,4.17683,-21.8293,6.82927
6882.33,82.8959,50.679,0,10.2195,1.91123,0.328118,-2.80488,-6.70732,-22.0122,-5.14211,0.593965,8.49992,3.29268,-22.3476,7.43902
6882.34,82.6082,50.9918,0,9.70701,1.85854,0.62989,-5.09146,-7.40854,-21.7378,-5.23072,0.764011,8.52387,2.16463,-22.9878,7.31707
6882.35,82.3425,51.2821,0,9.45314,1.55437,0.773591,-8.14024,-7.07317,-23.1402,-5.22833,0.859812,8.43526,1.03659,-23.1707,6.82927
6882.36,82.1523,51.5838,0,10.2818,1.28613,1.3963,-17.561,-2.65244,-20.4878,-5.08223,0.864602,8.38736,0.457317,-22.9573,6.12805
6882.37,82.0116,51.9007,0,8.33706,0.308958,0.100591,-1.79878,-10.6402,-26.0366,-4.88344,0.747246,8.28198,0.640244,-22.5,5.30488
6882.38,81.7332,52.2116,0,9.66151,1.52563,1.01549,-8.10976,-7.62195,-26.4024,-4.77567,0.522114,8.15504,1.58537,-21.4024,4.7561
6882.39,81.4698,52.5529,0,9.8579,1.49689,0.661025,-2.2561,-13.5061,-26.128,-4.7589,0.529299,8.48795,1.18902,-21.7683,4.66463
6882.4,81.1727,52.8566,0,10.598,2.08606,0.565225,-5.94512,-11.8598,-25,-4.77806,0.411943,8.31551,1.79878,-21.2805,5.2439
6882.41,80.9084,53.1662,0,10.1094,1.8777,0.570015,-5.4878,-9.84756,-23.5061,-4.78525,0.423918,8.48316,2.10366,-20.5183,6.03659
6882.42,80.6634,53.4927,0,9.97526,1.79147,0.589175,-7.7439,-5,-22.7744,-4.79722,0.5772,8.76338,1.76829,-21.7378,6.67683
6882.43,80.4888,53.8096,0,9.8579,1.40109,0.203577,-7.46951,-6.64634,-20.3659,-4.77327,0.687371,8.74901,1.55488,-22.3476,7.13415
6882.44,80.2757,54.1127,0,9.7621,1.58071,0.335303,-6.70732,-2.07317,-22.378,-4.78046,0.852627,8.7514,0.548781,-21.8902,7.86585
6882.45,80.0509,54.4035,0,9.4268,1.60945,0.273032,-7.83537,-4.20732,-23.0183,-4.87626,0.874182,8.92624,-0.579268,-21.0366,8.01829
6882.46,79.774,54.6658,0,9.49386,1.61903,0.519719,-2.5,-4.39024,-28.811,-4.96727,0.931663,8.93342,-2.28659,-20.7927,7.77439
6882.47,79.4879,54.9122,0,9.50583,1.61903,0.112566,-2.95732,-5.15244,-30.3354,-5.0008,0.953218,8.94061,-3.59756,-21.6159,7.43902
6882.48,79.1788,55.1724,0,9.97286,1.80345,-0.00958008,-2.92683,-6.25,-32.0732,-5.01517,0.936453,9.18729,-4.87805,-22.9878,7.43902
6882.49,78.9075,55.4355,0,9.08431,1.72441,0.0934058,-2.22561,-15.1829,-27.8354,-4.97925,0.878972,9.24717,-5.70122,-23.6585,7.0122
6882.5,78.5809,55.7188,0,9.32621,1.98547,0.172441,-1.06707,-17.439,-31.4329,-4.8547,0.914897,9.31423,-6.76829,-23.9024,6.95122
6882.51,78.2716,56.003,0,10.0208,1.93518,-0.0407153,2.59146,-15.2134,-32.561,-4.81159,0.799937,9.35255,-8.23171,-24.1463,7.19512
6882.52,77.922,56.2676,0,10.2579,2.12678,-0.0455054,6.64634,-9.7561,-35.7012,-4.82357,0.704136,9.29268,-8.68902,-23.7195,6.76829
6882.53,77.5445,56.5122,0,10.1501,2.52196,-0.102986,4.69512,-7.83537,-34.6951,-4.84033,0.646655,9.2304,-9.2378,-23.5366,6.31098
6882.54,77.1736,56.7603,0,9.98005,2.63213,-0.0670605,6.98171,-9.48171,-33.1098,-4.78525,0.735271,9.25675,-9.87805,-23.1707,6.28049
6882.55,76.818,57.0048,0,9.8603,2.77104,0.598755,7.46951,-8.04878,-30.4268,-4.75651,0.771196,9.26154,-10.5793,-23.7805,6.25
6882.56,76.4641,57.262,0,9.99202,2.82852,0.364043,4.96951,-6.43293,-30.7622,-4.75651,0.673001,9.48907,-11.4024,-24.878,6.15854
6882.57,76.1366,57.4732,0,9.88425,2.55788,0.361648,7.10366,-8.87195,-31.4329,-4.79004,0.366438,9.18969,-11.0671,-25.4878,6.0061
6882.58,75.8404,57.6863,0,10.016,2.39023,-0.0263452,4.87805,-12.7439,-31.128,-4.73256,0.0479004,9.18011,-10.4268,-25.5488,4.87805
6882.59,75.4956,57.8956,0,9.28549,2.4046,0.150886,10,-16.189,-34.4512,-4.68945,-0.110171,9.14179,-9.11585,-25.7927,4.39024
6882.6,75.0828,58.1076,0,9.19927,2.61536,0.502954,9.69512,-15.9451,-39.3293,-4.59604,-0.150886,9.06754,-7.65244,-25.9756,4.05488
6882.61,74.5943,58.3687,0,9.65193,2.99377,0.713716,9.54268,-13.872,-45.122,-4.42121,0.0455054,9.29747,-6.46341,-26.7683,5.51829
6882.62,74.0863,58.6498,0,10.1333,3.2213,0.598755,9.32927,-7.7439,-47.2866,-4.28229,0.220342,9.32381,-6.43293,-27.3476,6.52439
6882.63,73.5594,58.9237,0,10.0471,3.65959,0.924478,7.22561,-5.7622,-45.3963,-4.20805,0.383203,9.20646,-6.70732,-26.6768,7.59146
6882.64,73.1083,59.2009,0,9.79323,3.58055,0.584385,0.182927,-13.7195,-38.5976,-4.12422,0.541274,9.17532,-7.28659,-25.3354,7.95732
6882.65,72.7134,59.4483,0,9.38848,3.28118,0.708926,4.60366,-12.8354,-35.4573,-4.14338,0.505349,9.01964,-8.2622,-24.8171,7.62195
6882.66,72.2914,59.6844,0,9.41243,3.40572,0.682581,0.243902,-7.9878,-37.7439,-4.15296,0.342488,9.02443,-8.2622,-24.4512,6.70732
6882.67,71.888,59.9154,0,9.86269,3.21172,0.102986,2.2561,-6.85976,-40.4878,-4.1841,0.184417,9.137,-8.35366,-24.9085,5.91463
6882.68,71.5168,60.1246,0,9.69504,2.97222,-0.138911,4.87805,-12.5915,-40.061,-4.22721,0.0191602,9.09389,-7.92683,-25.9146,5.60976
6882.69,71.1475,60.3165,0,9.85072,3.09676,-0.222737,7.65244,-7.22561,-39.7866,-4.17931,-0.0550855,8.89989,-7.16463,-25.3049,5.70122
6882.7,70.6907,60.5251,0,9.70222,3.47996,-0.299377,4.35976,2.83537,-44.8171,-4.10027,-0.0838257,8.98132,-6.76829,-24.7256,5.82317
6882.71,70.236,60.7515,0,8.7035,3.2237,0.280217,4.5122,-2.71341,-44.3293,-3.97334,0.0598755,8.97414,-5.7622,-24.9085,6.06707
6882.72,69.7135,61.0075,0,9.15137,3.64282,0.773591,1.64634,-3.78049,-49.3598,-3.78413,0.189207,8.95498,-5.2439,-24.7866,6.55488
6882.73,69.1731,61.308,0,9.14179,3.48715,0.306563,-0.884146,0.426829,-53.9329,-3.64282,0.337698,9.2352,-5.30488,-25.2134,6.92073
6882.74,68.6874,61.6199,0,9.40764,2.90755,-0.61552,-3.01829,-2.28659,-57.0122,-3.58295,0.325723,9.36213,-5.39634,-25.4573,6.79878
6882.75,68.2532,61.8909,0,9.81719,2.7423,0.182021,4.81707,-8.71951,-55.9451,-3.55181,0.229922,8.9454,-5.39634,-23.9939,7.04268
6882.76,67.8508,62.1575,0,9.92975,3.44164,0.0670605,5.36585,-10.2744,-46.4329,-3.56139,0.0838257,9.04599,-4.90854,-22.6829,6.92073
6882.77,67.3545,62.4161,0,10.2291,4.29187,0.282612,9.32927,3.78049,-49.3902,-3.61408,-0.0574805,9.20885,-3.96341,-23.2317,6.67683
6882.78,66.8167,62.6686,0,9.98484,4.65113,0.141306,7.7439,5.39634,-50.122,-3.61169,-0.0694556,9.25196,-3.41463,-23.7195,6.89024
6882.79,66.308,62.9058,0,9.19448,4.51701,0.502954,5.18293,1.21951,-45.8232,-3.559,0,9.05796,-3.01829,-22.1951,7.34756
6882.8,65.8218,63.1516,0,8.13349,4.16254,0.65863,-0.640244,0.426829,-42.6524,-3.43206,0.129331,8.94779,-2.83537,-19.939,8.29268
6882.81,65.2733,63.4028,0,7.33594,3.82245,0.311353,-3.32317,0.213415,-49.1463,-3.34105,0.249082,8.89031,-2.13415,-18.3841,9.32927
6882.82,64.7821,63.6678,0,8.40412,3.25483,-0.641865,0.396341,-7.65244,-57.378,-3.29794,0.378413,9.06275,-2.77439,-18.3841,9.90854
6882.83,64.3214,63.9159,0,9.48907,3.49912,-0.524509,9.26829,-13.2317,-57.1646,-3.31231,0.435894,9.02443,-3.84146,-17.8659,10.5488
6882.84,63.8857,64.1284,0,10.0854,3.91586,-0.153281,11.5854,-8.47561,-53.5671,-3.35542,0.502954,8.83283,-5.21341,-16.6159,10.9451
6882.85,63.4269,64.3087,0,9.99442,4.49306,-0.689766,10.5183,0.731707,-50.7012,-3.39853,0.560435,8.67476,-6.18902,-15.0915,11.0366
6882.86,62.9156,64.5116,0,9.45554,4.7613,-0.301772,8.81098,10.8841,-51.8598,-3.40332,0.55325,9.03401,-7.31707,-15.3049,11.1585
6882.87,62.407,64.7221,0,8.83044,4.28709,0.174836,8.29268,8.10976,-54.3293,-3.45122,0.383203,9.35255,-9.14634,-16.5244,10.6098
6882.88,61.901,64.9318,0,8.3203,4.06674,-0.328118,6.92073,6.18902,-54.7866,-3.33147,0.143701,9.12023,-10.6707,-16.9207,10.5488
6882.89,61.3769,65.1612,0,8.01374,4.09548,-0.311353,11.8902,4.02439,-55.5793,-3.12311,-0.100591,8.89031,-9.87805,-16.4024,9.78659
6882.9,60.948,65.4184,0,8.76817,4.28229,-0.330513,14.939,-3.62805,-49.0549,-2.93629,-0.258662,8.81607,-8.5061,-15.7317,9.5122
6882.91,60.3957,65.6819,0,8.38257,5.66422,-0.399968,15.7012,-4.87805,-46.1585,-2.85486,-0.416733,8.78733,-7.10366,-14.0549,9.14634
6882.92,59.8514,65.9417,0,8.12151,5.57561,-0.313748,16.25,-0.609756,-45.6098,-2.80696,-0.447869,8.73224,-6.03659,-12.8354,8.9939
6882.93,59.2814,66.191,0,8.52627,5.78397,0.208367,16.189,0.579268,-50,-2.80217,-0.354463,8.71787,-5.39634,-10.8232,9.14634
6882.94,58.7377,66.4498,0,8.67476,5.66183,0.512534,7.5,0.945122,-50.5488,-2.82373,-0.167651,9.05317,-4.78659,-9.78659,9.32927
6882.95,58.2498,66.6943,0,8.18378,4.73495,0.294587,9.29878,-2.95732,-52.2561,-2.87881,0.00958008,9.17292,-4.66463,-9.29878,10.2134
6882.96,57.7378,66.924,0,7.92033,4.8092,0.603545,9.96951,-5.4878,-53.2317,-2.87163,0.112566,9.07952,-5.09146,-7.46951,10.8232
6882.97,57.2529,67.1625,0,7.99697,4.88344,0.447869,5.88415,-1.12805,-51.2195,-2.79259,0.155676,9.07233,-5.2439,-6.4939,11.0671
6882.98,56.7809,67.3869,0,8.10475,5.07505,0.0311353,9.93902,-4.78659,-49.5732,-2.77104,0.117356,8.90947,-4.87805,-5.42683,11.2805
6882.99,56.2673,67.6133,0,7.8868,5.54926,0.0886157,13.4451,-14.6951,-48.5061,-2.71356,-0.0814307,8.80888,-4.87805,-4.57317,10.8232
6883,55.762,67.8503,0,8.35622,6.0594,0.234712,12.6524,-10.4268,-47.0427,-2.71116,-0.210762,8.91187,-4.90854,-3.56707,10.1829
6883.01,55.2737,68.1002,0,8.25084,6.23663,0.196392,8.62805,-6.82927,-44.0244,-2.70637,-0.332908,8.86397,-5.30488,-2.7439,10.0305
6883.02,54.79,68.3501,0,7.8365,6.11448,-0.00479004,9.81707,-5.94512,-42.7439,-2.70637,-0.191602,8.98132,-5.18293,-2.59146,10.0915
6883.03,54.1985,68.6621,0,7.46049,6.65576,0.696951,2.10366,-6.82927,-47.0427,-2.65847,-0.0622705,9.01725,-5.06098,-1.76829,10.6402
6883.04,53.5832,69.1348,0,7.25212,6.31806,0.409548,-5.85366,-2.83537,-52.0427,-2.61776,-0.00239502,8.90947,-5.18293,-0.853659,10.7012
6883.05,53.0639,69.8634,0,7.66646,5.67141,-0.6251,-1.67683,-4.84756,-52.8354,-2.60818,0.0287402,8.76817,-4.5122,-0.121951,11.0976
6883.06,52.7096,70.4073,0,7.84608,4.98404,-0.816702,-0.518293,-3.29268,-45.3659,-2.64889,-0.0191602,8.79691,-3.93293,0.152439,10.9146
6883.07,52.2732,70.6739,0,7.75268,6.30848,-0.797541,-0.335366,-13.75,-40.7622,-2.7423,-0.143701,8.89271,-4.35976,0.609756,10.2439
6883.08,51.8024,70.8452,0,7.66885,6.51924,-0.589175,1.43293,-9.45122,-42.6524,-2.81894,-0.253872,8.95258,-4.63415,0.792683,9.32927
6883.09,51.3177,70.9277,0,7.5994,6.44979,-0.299377,2.86585,-7.10366,-45.122,-2.88121,-0.239502,8.95737,-3.93293,1.61585,8.62805
6883.1,50.8794,71.0011,0,7.57066,5.99952,-0.150886,-0.243902,-9.60366,-45.3049,-2.886,-0.182021,9.11544,-3.81098,2.34756,8.01829
6883.11,50.4398,71.1042,0,7.66167,5.98994,-0.320933,-2.80488,-6.89024,-47.1037,-2.7399,-0.0215552,9.13939,-3.56707,2.95732,8.14024
6883.12,49.9912,71.2346,0,7.42456,5.88217,-0.845442,-2.28659,-7.65244,-48.1707,-2.54112,0.150886,9.01246,-3.90244,4.08537,9.32927
6883.13,49.5613,71.3808,0,7.65448,5.99713,-0.814307,4.39024,-12.3476,-47.8049,-2.41897,0.134121,8.9454,-4.20732,5,10.3659
6883.14,49.1269,71.5108,0,7.70717,6.41386,-0.373623,9.78659,-14.3293,-45.7012,-2.43334,0.0718506,8.86157,-4.72561,5.51829,11.0061
6883.15,48.6576,71.6062,0,7.46288,6.7348,-0.124541,4.84756,-11.4024,-45.4573,-2.50998,-0.0287402,8.71069,-5.54878,6.06707,10.9146
6883.16,48.2085,71.6937,0,7.36947,6.37554,-0.376018,1.92073,-5.97561,-46.7988,-2.51956,-0.0359253,8.69632,-6.06707,7.07317,10.5183
6883.17,47.767,71.7574,0,7.30241,6.14562,-0.687371,0.670732,-3.71951,-48.5366,-2.60339,-0.0550855,8.70111,-6.85976,8.14024,10.1524
6883.18,47.3743,71.8134,0,7.46288,5.89654,-0.886157,4.35976,-3.14024,-48.0793,-2.64171,-0.0886157,8.75859,-7.2561,9.48171,9.93902
6883.19,47.0239,71.8754,0,7.74789,5.93486,-0.63468,8.07927,-5.33537,-46.311,-2.66087,-0.122146,8.943,-8.41463,10.122,9.81707
6883.2,46.6668,71.9537,0,7.80537,6.17436,-0.443079,9.14634,-3.2622,-45.8841,-2.55549,-0.158071,8.85678,-9.05488,10.6707,10.1524
6883.21,46.2791,72.036,0,7.40061,6.39231,-0.246687,8.04878,1.58537,-44.6951,-2.40699,-0.158071,8.44484,-8.41463,11.9817,11.25
6883.22,45.8759,72.131,0,6.85934,6.41626,-0.380808,6.37195,6.37195,-42.439,-2.29922,-0.172441,8.29156,-7.34756,13.628,12.561
6883.23,45.4676,72.2047,0,6.94795,6.78988,-0.641865,10.5183,10.7012,-41.2195,-2.37825,-0.311353,8.32988,-6.89024,14.8171,13.2927
6883.24,45.0286,72.232,0,6.87371,7.15871,-0.65384,8.59756,9.35976,-41.4634,-2.54591,-0.502954,8.31311,-5.97561,15.8232,13.7195
6883.25,44.6404,72.2261,0,7.14913,6.85455,-0.519719,10.4268,9.32927,-42.0122,-2.72553,-0.608335,8.47118,-4.93902,16.6159,13.5061
6883.26,44.27,72.212,0,7.40061,6.84976,-0.411943,10.3354,7.68293,-43.0488,-2.82133,-0.526904,8.66039,-4.2378,17.1951,13.5366
6883.27,43.8908,72.2069,0,7.1635,6.79228,0.0574805,10.4573,9.05488,-43.2927,-2.79499,-0.344883,8.69153,-3.32317,18.2317,13.5976
6883.28,43.5215,72.1936,0,7.14674,6.91682,0.225132,8.78049,11.9817,-41.8598,-2.71595,-0.0766406,8.34425,-2.5,20.1524,14.1463
6883.29,43.1501,72.2077,0,6.88568,6.88568,0.320933,5.73171,16.128,-40.9146,-2.61057,0.134121,8.36341,-2.28659,22.9878,14.5732
6883.3,42.7289,72.2251,0,6.38512,7.17308,0.0838257,3.78049,18.75,-39.9695,-2.67524,0.229922,8.62686,-2.80488,25.0305,15.3659
6883.31,42.3152,72.1955,0,6.37075,7.14195,-0.421523,2.40854,23.6585,-40.1829,-2.86684,0.208367,8.62207,-4.42073,26.4329,15.1524
6883.32,41.9124,72.1292,0,6.2989,6.90484,-0.603545,4.11585,19.6341,-41.2195,-3.0273,0.158071,8.62686,-5.85366,28.689,14.2378
6883.33,41.5346,72.0506,0,6.50727,7.18985,-0.476609,7.07317,14.1159,-39.0244,-3.16622,0.143701,8.83762,-6.89024,29.4512,12.9573
6883.34,41.2075,71.9542,0,6.7348,7.24493,-0.342488,7.56098,8.20122,-36.189,-3.25004,0.0479004,8.81846,-7.28659,30.7012,12.1951
6883.35,40.9041,71.8644,0,6.90484,7.23056,-0.320933,8.81098,6.55488,-36.0061,-3.20933,-0.0670605,8.74661,-7.40854,32.9268,11.6463
6883.36,40.6267,71.773,0,7.118,7.23296,-0.387993,8.56707,4.26829,-35.7317,-3.2237,-0.256267,8.72745,-7.5,34.939,11.6768
6883.37,40.363,71.645,0,7.17069,7.32636,-0.126936,7.7439,6.61585,-34.5732,-3.2213,-0.392783,8.27479,-6.37195,37.9878,12.1341
6883.38,40.0704,71.5052,0,6.99106,7.39103,-0.0526904,4.39024,13.6585,-36.0671,-3.22849,-0.464634,8.11912,-5.39634,40.3354,12.7134
6883.39,39.7578,71.3222,0,6.76833,7.41738,-0.531694,1.06707,18.7805,-36.6159,-3.32908,-0.598755,7.87722,-4.32927,41.9512,13.3841
6883.4,39.4672,71.1353,0,6.5863,7.23296,-0.63468,2.07317,18.9634,-34.878,-3.45841,-0.62031,8.07601,-3.07927,43.5671,13.7805
6883.41,39.1371,70.9617,0,6.24142,7.46767,-0.65384,5.60976,14.7561,-34.5427,-3.61887,-0.61073,8.5119,-2.07317,43.2927,14.2073
6883.42,38.851,70.7629,0,6.49769,7.5515,-0.661025,8.62805,12.5305,-32.4085,-3.72665,-0.526904,8.43286,-1.21951,43.9329,14.2988
6883.43,38.5417,70.5431,0,6.36836,7.86045,-0.383203,8.84146,11.3415,-31.8902,-3.81048,-0.378413,8.33946,-0.579268,46.4939,14.7561
6883.44,38.2496,70.3208,0,6.45697,7.46049,-0.0694556,10.2439,16.0061,-34.5732,-3.81527,-0.246687,8.24605,0.121951,49.1159,15.1829
6883.45,37.9645,70.0394,0,6.46416,7.36708,0.237107,8.56707,17.1646,-35.2439,-3.90867,-0.225132,7.82932,0,51.5854,15.061
6883.46,37.685,69.7056,0,6.49529,7.31918,0.0958008,5.7622,20.0915,-35.9146,-3.93023,-0.220342,7.35271,1.0061,53.3537,14.6341
6883.47,37.4224,69.398,0,6.50966,7.34313,-0.205972,2.71341,21.7378,-34.6951,-4.10027,-0.196392,7.77663,1.37195,52.7744,14.3598
6883.48,37.1415,69.1,0,6.251,7.46528,-0.534089,0.731707,23.0183,-33.811,-4.29187,-0.208367,8.11433,0.579268,50.5488,14.1463
6883.49,36.8537,68.7612,0,6.01629,7.38864,-0.426313,3.87195,17.2561,-33.4756,-4.48108,-0.170046,8.01374,0.213415,49.3293,13.4756
6883.5,36.5193,68.3954,0,5.55884,7.69759,-0.160466,6.21951,11.4024,-32.0427,-4.54814,-0.0479004,7.80776,-0.0609756,51.128,13.5976
6883.51,36.1608,68.0226,0,5.23312,7.5994,-0.0646655,6.06707,9.87805,-32.561,-4.59125,0.0981958,7.71436,-0.609756,52.8659,13.9634
6883.52,35.82,67.6029,0,5.60435,7.89398,-0.0215552,7.40854,8.20122,-33.1707,-4.67029,0.112566,7.38624,-0.762195,54.4512,14.7256
6883.53,35.4813,67.1643,0,5.64746,7.92751,0.241897,5.21341,6.95122,-33.8415,-4.74693,0.0550855,7.25451,-0.548781,55.4878,14.939
6883.54,35.1827,66.765,0,5.88696,7.94428,0.0215552,1.98171,5.60976,-32.622,-4.86907,0.00718506,7.5994,-1.18902,54.939,14.878
6883.55,34.9054,66.3725,0,5.80313,7.86524,-0.196392,1.0061,5.03049,-30.8232,-4.99601,-0.0838257,7.72873,-2.19512,53.628,14.9085
6883.56,34.6377,65.9498,0,5.64746,7.92991,-0.0383203,-0.182927,-4.02439,-28.4451,-5.10379,-0.146096,7.55629,-3.04878,53.872,14.4817
6883.57,34.4007,65.5339,0,5.73607,7.90117,0.186812,1.67683,-12.7134,-26.9207,-5.12534,-0.119751,7.51797,-2.95732,54.1768,14.1768
6883.58,34.2244,65.1235,0,5.80313,7.68083,0.0790356,-0.182927,-21.5244,-23.4451,-5.11576,-0.0694556,7.42696,-2.65244,54.5427,13.8415
6883.59,34.1176,64.679,0,6.30369,7.71436,-0.162861,0.670732,-22.9878,-21.1585,-5.05828,-0.102986,7.00783,-1.64634,56.6463,13.7195
6883.6,33.9905,64.2411,0,6.04742,7.70478,-0.0622705,1.0061,-21.2805,-21.1585,-5.07505,-0.129331,6.96232,0.0914634,58.2927,13.811
6883.61,33.8914,63.8164,0,6.06419,7.66167,-0.203577,-0.548781,-20.7317,-19.0244,-5.00799,-0.172441,6.84497,1.70732,59.3293,13.7195
6883.62,33.8208,63.3971,0,6.26058,7.58982,-0.268242,-1.15854,-19.4817,-18.689,-5.05828,-0.244292,6.84257,2.40854,60.3963,13.3232
6883.63,33.7493,62.9576,0,6.09772,7.55389,-0.203577,-4.26829,-22.1341,-17.6829,-5.11816,-0.301772,6.69408,3.20122,60.7317,13.2927
6883.64,33.7181,62.516,0,6.28932,7.4557,-0.447869,-3.38415,-20.8537,-16.25,-5.22114,-0.356858,6.70845,3.90244,60.7317,13.3841
6883.65,33.7004,62.0793,0,6.19352,7.49402,-0.60115,-2.2561,-22.0732,-13.75,-5.43909,-0.368833,6.90724,4.08537,59.2073,13.1098
6883.66,33.6432,61.6126,0,5.63069,7.53473,-0.720901,-0.97561,-27.378,-12.1037,-5.66901,-0.323328,6.89766,3.87195,58.5671,12.439
6883.67,33.5683,61.1177,0,5.41993,7.57784,-0.64426,0.640244,-25,-11.5854,-5.8654,-0.289797,6.84497,3.78049,59.1159,11.9512
6883.68,33.4585,60.5964,0,5.27383,7.69041,-0.651445,-1.34146,-22.8049,-12.9878,-6.03784,-0.179626,6.76593,3.84146,60.7012,11.25
6883.69,33.3538,60.0534,0,5.37442,7.56347,-0.926873,-4.81707,-24.6951,-14.6341,-6.20071,-0.0311353,6.69408,3.29268,61.9207,10.9146
6883.7,33.261,59.5207,0,5.39119,7.41498,-1.14721,-4.48171,-22.0122,-14.9085,-6.39231,0.0670605,6.83299,2.83537,62.0732,10.0915
6883.71,33.1708,58.9954,0,5.54447,7.49641,-1.0586,-5.64024,-21.0061,-15.7927,-6.60307,0.155676,6.9719,2.34756,60.8537,9.2378
6883.72,33.0661,58.4139,0,5.74086,7.8365,-0.809517,-6.4939,-20,-16.9207,-6.77551,0.170046,6.6845,2.10366,60.7012,8.41463
6883.73,32.946,57.8596,0,5.92049,7.90835,-0.850232,-6.28049,-13.811,-19.9085,-6.89526,0.205972,6.8282,1.98171,61.2805,7.92683
6883.74,32.8182,57.3151,0,5.99234,7.96584,-1.13524,-5.79268,-8.84146,-21.2195,-7.03896,0.186812,6.89526,1.06707,60.5793,7.28659
6883.75,32.6245,56.7391,0,5.65704,8.24845,-1.20469,-3.32317,-6.7378,-23.0793,-7.12997,0.138911,6.66534,-0.0914634,60.8537,7.10366
6883.76,32.4525,56.1671,0,5.75763,8.40173,-1.09213,0.213415,-7.0122,-21.2195,-7.25451,0.0981958,6.67013,-0.792683,61.3415,6.95122
6883.77,32.2933,55.5681,0,5.73368,8.15504,-1.27894,1.37195,0.914634,-21.6768,-7.3551,0.0886157,6.47134,-0.670732,61.0061,7.0122
6883.78,32.184,54.9651,0,6.12885,8.18139,-1.89925,14.3902,13.872,-20.4268,-7.36229,0.0431104,6.32046,-0.0609756,61.6768,7.53049
6883.79,32.0041,54.3866,0,5.54447,7.70478,-1.11368,23.4451,14.6646,-25.6098,-7.34073,0.0502954,6.30609,0.579268,61.8902,8.53659
6883.8,31.6989,53.8043,0,5.0487,8.90708,-0.285007,12.2561,9.93902,-26.128,-7.29762,0.0574805,6.12167,1.31098,62.561,9.81707
6883.81,31.3851,53.2355,0,5.08463,8.7035,0.141306,-5.30488,6.61585,-29.1463,-7.22098,0.0191602,6.00671,1.82927,63.4451,11.0976
6883.82,31.1405,52.6993,0,5.57082,8.43765,-1.38432,1.52439,14.6951,-29.1463,-7.19943,-0.0407153,6.04263,1.40244,63.3232,12.439
6883.83,30.819,52.1788,0,5.01038,8.93342,0.507744,-5.33537,0.762195,-29.0244,-7.21859,-0.0479004,6.02826,1.25,62.8049,12.8659
6883.84,30.3809,51.6273,0,4.27271,8.89989,0.890947,-25.4878,-2.56098,-34.1463,-7.25691,-0.131726,5.78637,1.46341,63.689,12.4085
6883.85,30.314,51.0526,0,6.90245,7.84369,-0.948428,-53.9329,-23.9024,-29.2073,-7.32397,-0.107776,5.60674,1.58537,64.4512,11.9512
6883.86,29.9938,50.4768,0,4.76848,7.55389,-1.89925,-13.689,-12.9573,-36.6463,-7.44133,-0.0742456,5.57321,2.28659,64.8171,11.6159
6883.87,29.6959,49.9066,0,5.32413,8.79451,-0.797541,7.19512,-6.58537,-32.8354,-7.56587,-0.0502954,5.578,2.28659,64.939,11.4024
6883.88,29.3865,49.3214,0,5.23072,9.44835,0.141306,-0.701219,-4.66463,-30.0915,-7.70717,0.0191602,5.48699,2.62195,64.6646,11.25
6883.89,29.0363,48.6862,0,4.58167,9.1346,-0.203577,-5.82317,-3.65854,-30.122,-7.85566,0.0958008,5.22114,2.5,66.0671,11.372
6883.9,28.6657,48.0859,0,4.27511,8.62446,-0.486189,-4.84756,-4.20732,-32.378,-7.93709,0.119751,5.32413,2.53049,66.25,11.3415
6883.91,28.3211,47.444,0,4.45234,8.54782,-0.526904,-3.53659,-5.79268,-32.8049,-8.00416,0.0766406,5.04152,3.59756,66.0671,11.5549
6883.92,27.9949,46.7923,0,4.60083,8.60052,-0.376018,-4.54268,-6.79878,-32.9268,-8.01134,0.0694556,4.87386,4.72561,66.4634,11.2805
6883.93,27.7053,46.1949,0,4.84033,8.65081,-0.313748,-3.87195,-7.07317,-32.0732,-8.05924,0.117356,5.04152,4.2378,65.2439,11.189
6883.94,27.4356,45.5666,0,4.88344,8.79451,-0.349673,-6.43293,-7.10366,-30.2439,-8.05924,0.196392,4.77567,4.29878,64.6341,10.7012
6883.95,27.1968,44.9963,0,4.80201,8.68434,-0.471819,-9.39024,-11.25,-27.439,-8.10235,0.246687,4.96248,3.35366,64.8171,10.2134
6883.96,26.9428,44.3811,0,4.51222,8.65321,-0.440684,-10.4573,-8.68902,-26.6159,-8.16941,0.318538,4.67508,3.44512,64.7866,10.1524
6883.97,26.6948,43.7587,0,4.40444,8.69392,-0.670605,-10.4573,-7.89634,-25.1524,-8.18857,0.378413,4.53617,4.20732,64.7561,10.2439
6883.98,26.4748,43.1193,0,4.51461,8.49992,-0.902922,-5.21341,-7.56098,-25.061,-8.27958,0.332908,4.39007,4.93902,65.0915,10
6883.99,26.246,42.5215,0,4.52659,8.62686,-0.617915,-2.68293,-7.95732,-25.8232,-8.37778,0.304167,4.5194,5.12195,64.939,10
6884,26.0077,41.9005,0,4.54335,8.72506,-0.510139,-2.68293,-6.09756,-26.8902,-8.45442,0.359253,4.33738,4.93902,64.5732,9.63415
6884.02,25.7866,41.3039,0,4.57449,8.49753,-0.534089,-2.62195,-6.82927,-27.2256,-8.44723,0.330513,4.33259,4.66463,64.1768,9.17683
6884.02,25.6035,40.7,0,4.78046,8.5095,-0.598755,-0.335366,-4.2378,-25.9146,-8.37778,0.407153,4.15296,4.90854,63.5366,8.81098
6884.03,25.4174,40.0849,0,4.711,8.65321,-0.574805,0.518293,-0.396341,-25.0305,-8.31072,0.450264,3.96136,5,64.3293,8.41463
6884.04,25.2173,39.4786,0,4.4739,8.8017,-0.598755,-0.457317,3.96341,-23.5366,-8.45202,0.445474,3.95897,4.54268,65.6098,8.07927
6884.05,24.9893,38.9009,0,4.14578,8.74422,-0.589175,-1.70732,5.39634,-23.5671,-8.66758,0.433499,4.08111,3.93293,65.3049,7.22561
6884.06,24.7465,38.3212,0,3.96855,8.97174,-0.574805,-1.03659,1.7378,-22.4695,-8.82804,0.459844,4.038,2.95732,64.2073,6.67683
6884.07,24.5168,37.7522,0,4.12183,8.77296,-0.335303,0.396341,1.79878,-24.2988,-8.92624,0.486189,4.02363,2.13415,62.9268,6.12805
6884.08,24.2846,37.1699,0,4.1338,8.86157,-0.253872,-0.609756,0.426829,-24.6951,-8.95258,0.574805,3.86556,0.97561,62.0122,6.52439
6884.09,24.058,36.5687,0,4.05477,8.84241,-0.474214,-0.823171,-0.731707,-23.8415,-8.91426,0.593965,3.6548,0.945122,61.2805,7.22561
6884.1,23.8677,35.9487,0,4.16254,8.67716,-0.517324,-0.823171,-2.7439,-22.622,-8.8472,0.538879,3.43446,0.762195,61.4329,8.14024
6884.11,23.7038,35.3724,0,4.31822,8.76817,-0.862207,0.548781,2.80488,-21.5244,-8.74422,0.488584,3.47996,0.609756,61.9512,8.56707
6884.12,23.5605,34.8194,0,4.43318,8.91187,-0.845442,1.31098,4.54268,-20.2134,-8.74661,0.407153,3.48236,0.0304878,60.8841,8.87195
6884.13,23.4035,34.2168,0,4.2799,8.92863,-0.704136,3.2622,9.63415,-20.2134,-8.80409,0.332908,3.18777,0.579268,61.128,8.87195
6884.14,23.2458,33.6204,0,4.22242,8.96695,-0.706531,4.11585,14.2073,-19.7866,-8.89989,0.323328,3.14466,1.06707,61.128,9.05488
6884.15,23.071,33.0779,0,4.05477,8.76338,-0.538879,6.28049,16.5244,-21.0671,-9.01725,0.390388,3.32189,0.853659,61.0671,8.62805
6884.16,22.8719,32.5029,0,3.77934,8.7993,-0.222737,7.9878,13.2927,-20.6707,-9.17292,0.409548,3.13269,1.21951,60.2744,8.87195
6884.17,22.6868,31.9326,0,3.91586,8.92624,-0.143701,8.23171,12.8963,-20.5488,-9.33339,0.519719,3.10395,1.31098,59.6037,8.2622
6884.18,22.4724,31.3593,0,3.58774,9.12263,0.00479004,6.18902,8.75,-19.3902,-9.331,0.543669,2.98659,0.457317,59.3902,8.07927
6884.19,22.2817,30.7909,0,3.65719,9.19448,-0.253872,4.7561,7.7439,-17.8659,-9.36692,0.5772,2.91713,0.152439,58.8415,7.9878
6884.2,22.0691,30.2073,0,3.42967,9.29268,-0.481399,5.03049,10.3963,-17.561,-9.41003,0.61073,2.75906,-0.579268,58.0183,7.77439
6884.21,21.8223,29.6395,0,3.10395,9.32621,-0.481399,3.56707,12.0122,-17.7134,-9.36692,0.627495,2.71356,-1.09756,57.9878,7.5
6884.22,21.5668,29.0771,0,2.97461,9.21364,-0.404758,6.25,9.2378,-18.0488,-9.35974,0.56762,2.63452,-1.76829,57.3476,7.28659
6884.23,21.3178,28.5312,0,3.01293,9.08431,-0.275427,7.31707,4.93902,-18.8415,-9.38608,0.526904,2.61536,-2.28659,56.1585,7.53049
6884.24,21.0985,28.0004,0,3.25962,9.06515,-0.172441,7.13415,1.89024,-19.2378,-9.40764,0.56283,2.59141,-2.80488,55.3049,7.68293
6884.25,20.9366,27.4629,0,3.61169,8.92624,-0.251477,6.03659,0.27439,-18.4146,-9.45314,0.574805,2.47885,-3.47561,53.9634,8.14024
6884.26,20.8068,26.9165,0,3.71947,9.0412,-0.359253,4.02439,0.884146,-16.1585,-9.54176,0.617915,2.36628,-3.71951,53.0183,7.9878
6884.27,20.6675,26.382,0,3.41051,9.07712,-0.419128,2.80488,2.19512,-13.7805,-9.6639,0.584385,2.35191,-4.42073,52.4695,8.14024
6884.28,20.4753,25.8056,0,2.96743,9.08191,-0.438289,6.18902,4.60366,-14.3598,-9.75491,0.510139,2.08846,-4.48171,51.8902,7.34756
6884.29,20.2752,25.214,0,3.00575,9.30705,-0.285007,8.10976,2.2561,-15.1524,-9.77886,0.455054,1.9232,-4.63415,52.5915,6.61585
6884.3,20.0813,24.6842,0,3.19496,9.57529,-0.208367,5.88415,-0.701219,-16.0671,-9.7597,0.416733,2.09085,-4.63415,51.8902,5.91463
6884.31,19.9198,24.2096,0,3.48715,9.65911,-0.534089,2.89634,2.16463,-16.0061,-9.6663,0.416733,2.22258,-5.94512,50.2744,5.45732
6884.32,19.7692,23.6918,0,3.39374,9.41243,-0.744851,2.5,7.0122,-15.1829,-9.62558,0.366438,1.93757,-6.95122,49.9085,5.91463
6884.33,19.648,23.1032,0,3.45362,9.07473,-0.790356,5.2439,11.5854,-14.5427,-9.56092,0.347278,1.52802,-6.52439,51.2195,6.09756
6884.34,19.5152,22.5398,0,3.26681,9.03401,-0.771196,5.73171,13.2927,-14.0244,-9.58487,0.371228,1.54,-5.12195,51.0061,6.55488
6884.35,19.3912,21.9786,0,3.27639,9.05796,-0.723296,7.37805,17.2561,-13.4146,-9.60882,0.459844,1.45617,-4.32927,50.1524,7.46951
6884.36,19.2454,21.4204,0,3.09437,9.24238,-0.490979,6.95122,16.4634,-13.0793,-9.62319,0.476609,1.37474,-4.45122,50.2439,8.17073
6884.37,19.0674,20.9438,0,2.79499,9.4268,-0.433499,6.4939,13.5366,-12.5915,-9.83874,0.474214,1.66933,-4.84756,48.9329,8.38415
6884.38,18.8629,20.4511,0,2.60099,9.50823,-0.340093,6.12805,9.96951,-13.1707,-9.97286,0.328118,1.53281,-5.57927,47.8963,7.92683
6884.39,18.6546,19.9106,0,2.62973,9.51302,-0.352068,6.12805,9.5122,-14.2988,-10.0327,0.167651,1.23823,-5.15244,47.4085,6.82927
6884.4,18.4583,19.392,0,2.86205,9.69743,-0.397573,4.45122,10.3659,-15.5183,-9.97765,0.136516,1.23344,-5.36585,47.0122,5.54878
6884.41,18.2565,18.9077,0,2.79978,9.62079,-0.63947,3.65854,10.7622,-16.0366,-9.91059,0.251477,1.28613,-5.79268,46.4329,5.09146
6884.42,18.0632,18.4339,0,2.78062,9.30944,-0.900527,5.54878,10.8232,-16.4024,-9.86748,0.328118,1.24062,-6.0061,45.122,5.45732
6884.43,17.8729,17.9598,0,2.73272,9.20166,-0.807122,6.61585,10.4573,-16.311,-9.8555,0.349673,1.1544,-6.4939,44.4817,6.40244
6884.44,17.6772,17.4835,0,2.56507,9.02204,-0.613125,6.89024,7.10366,-15.8841,-9.94412,0.366438,1.07057,-7.07317,42.8049,7.28659
6884.45,17.4968,17.0096,0,2.60578,8.93342,-0.579595,5.21341,6.79878,-15.5183,-9.97526,0.366438,0.998723,-7.37805,40.7012,7.95732
6884.46,17.3553,16.52,0,2.9339,9.10347,-0.826282,4.39024,8.14024,-15.1829,-9.9561,0.455054,0.843047,-7.13415,39.2988,8.44512
6884.47,17.2536,16.0656,0,3.21412,9.26873,-0.780776,5.09146,9.26829,-13.9939,-10.0208,0.493374,0.917292,-6.92073,37.4695,8.62805
6884.48,17.2,15.63,0,3.58055,9.57529,-0.787961,6.70732,13.3841,-12.1037,-10.0758,0.426313,0.924478,-7.19512,35.6098,8.90244
6884.49,17.1045,15.1715,0,3.15424,9.82916,-0.62031,5.21341,13.9329,-10.9451,-10.1166,0.318538,0.747246,-7.68293,34.6646,8.5061
6884.5,17.0191,14.7123,0,3.14706,9.55852,-0.598755,4.84756,16.3415,-11.0061,-10.0663,0.155676,0.65863,-7.68293,34.1159,7.9878
6884.51,16.913,14.265,0,2.91953,9.38848,-0.711321,6.03659,19.1159,-11.3415,-10.0998,0.0335303,0.632285,-7.43902,33.2622,7.22561
6884.52,16.7556,13.8286,0,2.49561,9.44835,-0.63468,8.35366,19.7256,-11.7378,-10.119,-0.0263452,0.60115,-7.22561,31.4329,6.76829
6884.53,16.5824,13.3874,0,2.37346,9.50344,-0.608335,8.5061,20.2744,-12.1037,-10.0974,0.0215552,0.500559,-6.28049,30.4573,6.89024
6884.54,16.3851,12.9586,0,2.11001,9.27591,-0.673001,8.53659,18.7805,-12.439,-10.0375,0.0431104,0.474214,-5.36585,29.4817,7.80488
6884.55,16.2145,12.5121,0,2.3088,9.46272,-0.538879,7.40854,15.9451,-11.9512,-9.99681,0.148491,0.318538,-4.93902,28.75,8.78049
6884.56,16.0541,12.0632,0,2.28485,9.39087,-0.505349,5.51829,12.6524,-11.189,-10.0016,0.210762,0.229922,-5.30488,28.1402,9.35976
6884.57,15.875,11.6548,0,2.04774,9.5226,-0.593965,5.30488,8.47561,-10.2744,-10.0543,0.244292,0.330513,-5.64024,26.8293,9.87805
6884.58,15.7146,11.2251,0,2.25371,9.8124,-0.598755,3.96341,5.18293,-10.3659,-10.0423,0.239502,0.162861,-5.73171,25.4573,9.84756
6884.59,15.5678,10.804,0,2.38544,9.80281,-0.574805,3.10976,4.93902,-10.8232,-10.0064,0.196392,0.124541,-5.30488,24.7866,9.45122
6884.6,15.4243,10.3975,0,2.44771,9.81,-0.708926,4.08537,6.58537,-11.4634,-10.0423,0.146096,0.114961,-4.60366,23.6585,9.08537
6884.61,15.3031,9.97792,0,2.61536,9.75252,-0.66342,4.29878,7.2561,-11.5244,-10.0112,0.0718506,-0.0143701,-3.87195,23.2317,8.78049
6884.62,15.1968,9.54311,0,2.70877,9.56331,-0.5772,3.9939,7.9878,-11.8902,-10.0543,0.0670605,-0.155676,-2.19512,23.2012,8.81098
6884.63,15.0822,9.1423,0,2.58183,9.50104,-0.550855,3.44512,8.62805,-11.7073,-10.0543,0.0550855,-0.0814307,-1.15854,23.1098,9.26829
6884.64,14.971,8.7564,0,2.48364,9.41243,-0.675395,2.89634,7.92683,-10.7317,-10.0687,0.143701,-0.0862207,-1.15854,22.622,10
6884.65,14.8644,8.37374,0,2.46687,9.36213,-0.754431,3.62805,7.34756,-10.4573,-10.1166,0.158071,-0.141306,-0.97561,21.5244,10.1829
6884.66,14.7421,7.98418,0,2.37107,9.28549,-0.881367,2.95732,5.85366,-11.372,-10.1693,0.198787,-0.241897,-1.09756,20.4268,10.1524
6884.67,14.6385,7.61254,0,2.49322,9.33339,-0.766406,2.92683,3.59756,-11.0061,-10.198,0.239502,-0.232317,-1.18902,19.2988,9.93902
6884.68,14.5422,7.24031,0,2.47406,9.35734,-0.804727,3.84146,3.14024,-10.1829,-10.1142,0.292192,-0.299377,-1.0061,18.5671,9.90854
6884.69,14.4425,6.89813,0,2.51238,9.47709,-0.61073,2.9878,2.28659,-10.7927,-10.0256,0.359253,-0.229922,-0.609756,17.5305,9.84756
6884.7,14.3712,6.55268,0,2.61776,9.65911,-0.826282,1.98171,3.23171,-8.75,-9.99681,0.354463,-0.304167,-0.487805,16.7073,9.66463
6884.71,14.3145,6.22356,0,2.63692,9.43638,-0.843047,2.37805,3.71951,-8.32317,-9.98963,0.296982,-0.292192,-0.152439,16.7378,9.29878
6884.72,14.2513,5.88881,0,2.54351,9.35974,-0.816702,2.65244,4.84756,-8.2622,-10.0184,0.258662,-0.376018,0,16.2195,8.41463
6884.73,14.1996,5.56336,0,2.65129,9.25436,-0.799937,3.56707,6.28049,-8.81098,-9.99681,0.244292,-0.392783,-0.0609756,16.0671,7.62195
6884.74,14.1571,5.25025,0,2.70637,9.24717,-0.720901,4.08537,7.5,-8.65854,-9.97765,0.294587,-0.395178,0.213415,15.2439,7.07317
6884.75,14.1375,4.93687,0,2.85007,9.36692,-0.838257,4.84756,7.07317,-7.65244,-9.94652,0.385598,-0.450264,-0.0914634,14.4207,7.10366
6884.76,14.1281,4.62996,0,2.84289,9.25915,-0.862207,6.0061,8.07927,-6.95122,-9.94891,0.431104,-0.476609,-0.396341,14.2988,7.65244
6884.77,14.131,4.32847,0,2.92671,9.25436,-0.835862,5.94512,9.48171,-6.70732,-10.0232,0.443079,-0.510139,-0.792683,14.0854,8.23171
6884.78,14.1188,4.04193,0,2.79738,9.41722,-0.785566,5.42683,9.81707,-6.18902,-9.99681,0.450264,-0.495769,-1.21951,13.811,8.59756
6884.79,14.0996,3.77267,0,2.71116,9.51062,-0.838257,4.81707,10.2134,-5.64024,-9.99442,0.431104,-0.469424,-2.04268,13.811,8.75
6884.8,14.0616,3.50398,0,2.53872,9.49146,-0.766406,5.12195,10.5488,-5.67073,-9.95849,0.397573,-0.512534,-2.62195,13.3537,8.47561
6884.81,14.033,3.26015,0,2.5962,9.35016,-0.938848,6.43293,10.3963,-5.91463,-9.90101,0.390388,-0.447869,-2.53049,12.8354,8.2622
6884.82,14.0378,3.02988,0,2.85726,9.50823,-0.840652,6.82927,9.48171,-5.06098,-9.83635,0.385598,-0.428708,-2.04268,11.9207,8.38415
6884.83,14.0613,2.75775,0,2.886,9.51062,-0.843047,6.25,9.5122,-3.65854,-9.91299,0.337698,-0.656235,-1.67683,11.0061,8.17073
6884.84,14.0742,2.47832,0,2.69919,9.38369,-0.876577,7.0122,11.4939,-3.10976,-10.0064,0.344883,-0.742456,-1.55488,11.0671,7.89634
6884.85,14.0556,2.18555,0,2.44771,9.48667,-0.723296,6.40244,10.4573,-2.80488,-10.0327,0.299377,-0.852627,-1.06707,11.5549,7.2561
6884.86,14.0057,1.90939,0,2.16989,9.30465,-0.792751,7.34756,7.10366,-2.95732,-10.0136,0.352068,-0.828677,-1.21951,11.6159,7.13415
6884.87,13.9412,1.63595,0,2.12438,9.42919,-0.646655,6.0061,5.21341,-3.78049,-10.0375,0.397573,-0.866997,-1.28049,11.8902,7.04268
6884.88,13.8682,1.38016,0,2.10283,9.57529,-0.661025,4.48171,3.71951,-4.17683,-10.0591,0.467029,-0.838257,-1.89024,12.0732,6.92073
6884.89,13.8041,1.12959,0,2.16989,9.53218,-0.807122,4.93902,2.13415,-4.35976,-10.0303,0.510139,-0.857417,-2.65244,12.378,6.85976
6884.9,13.7598,0.874804,0,2.39741,9.58008,-0.773591,2.5,0.670732,-5.03049,-10.0232,0.474214,-0.919688,-3.07927,12.5,6.7378
6884.91,13.7315,0.63672,0,2.5028,9.45554,-0.859812,1.09756,1.37195,-5.09146,-9.97526,0.546064,-0.886157,-3.10976,12.2866,6.92073
6884.92,13.7449,0.415135,0,2.74948,9.50104,-0.950823,1.82927,4.11585,-3.75,-9.86269,0.5772,-0.845442,-3.10976,11.9817,7.22561
6884.93,13.7743,0.215006,0,2.85965,9.46751,-0.938848,3.14024,6.64634,-3.56707,-9.83635,0.541274,-0.787961,-2.71341,11.8293,7.16463
6884.94,13.7768,0.0235142,0,2.63213,9.41961,-0.886157,3.07927,7.10366,-3.68902,-9.8124,0.457449,-0.783171,-2.62195,11.5549,7.28659
6884.95,13.763,-0.166934,0,2.56986,9.46512,-0.871787,3.78049,8.17073,-4.35976,-9.83635,0.361648,-0.814307,-2.37805,10.7317,7.43902
6884.96,13.7515,-0.382574,0,2.58183,9.58008,-0.804727,5.4878,10.9756,-3.96341,-9.91778,0.332908,-0.965193,-2.10366,10.8537,7.65244
6884.97,13.7047,-0.604623,0,2.28006,9.5202,-0.768801,5.51829,10.8841,-4.17683,-9.9537,0.292192,-1.03465,-2.40854,11.189,7.2561
6884.98,13.6491,-0.801189,0,2.18426,9.59205,-0.718506,4.78659,9.7561,-3.81098,-10.0016,0.282612,-0.965193,-1.79878,11.3415,7.22561
6884.99,13.5914,-1.00532,0,2.1627,9.53697,-0.749641,4.17683,8.10976,-4.05488,-9.98963,0.325723,-1.03225,-1.4939,11.4024,7.10366
6885,13.5484,-1.20558,0,2.23455,9.52978,-0.821492,4.08537,7.34756,-3.53659,-9.99202,0.354463,-1.05141,-1.25,11.189,7.2561
6885.01,13.4985,-1.39346,0,2.1651,9.5681,-0.802332,4.05488,6.89024,-3.35366,-9.94891,0.387993,-1.02746,-1.25,10.8232,7.5
6885.02,13.4516,-1.58319,0,2.19863,9.58008,-0.969983,3.38415,6.70732,-3.56707,-9.89622,0.376018,-1.06339,-1.0061,10.3659,8.14024
6885.03,13.402,-1.76399,0,2.14833,9.53936,-0.855022,3.32317,4.93902,-3.41463,-9.88425,0.371228,-1.0562,-0.792683,9.90854,8.01829
6885.04,13.378,-1.93978,0,2.32796,9.52978,-0.881367,2.43902,3.75,-3.17073,-9.83874,0.385598,-1.06099,-0.701219,9.63415,7.89634
6885.05,13.3644,-2.10645,0,2.40939,9.48907,-0.847837,1.28049,2.9878,-3.29268,-9.90101,0.373623,-1.0586,0.0609756,9.11585,8.14024
6885.06,13.3668,-2.27063,0,2.48124,9.40524,-0.941243,1.09756,2.59146,-2.95732,-9.91059,0.306563,-1.07776,0.548781,9.11585,7.89634
6885.07,13.3898,-2.43126,0,2.57225,9.43398,-0.931663,1.40244,3.47561,-2.28659,-9.98723,0.246687,-1.09931,0.762195,9.05488,7.46951
6885.08,13.4103,-2.59086,0,2.5028,9.47949,-0.907712,1.4939,3.35366,-1.7378,-10.0088,0.229922,-1.12566,0.945122,8.87195,6.95122
6885.09,13.4452,-2.74529,0,2.54351,9.43159,-0.974773,1.55488,4.11585,-1.46341,-9.98484,0.308958,-1.12805,1.18902,8.87195,6.82927
6885.1,13.4747,-2.90845,0,2.54591,9.41482,-0.969983,2.77439,5.33537,-1.70732,-9.91059,0.349673,-1.18553,1.70732,8.68902,6.76829
6885.11,13.4855,-3.07504,0,2.37346,9.40285,-0.943638,3.20122,4.72561,-1.21951,-9.94173,0.376018,-1.23344,1.4939,8.32317,7.04268
6885.12,13.482,-3.24968,0,2.3567,9.5226,-0.998723,2.95732,4.14634,-1.55488,-9.93694,0.399968,-1.2981,1.4939,8.23171,7.34756
6885.13,13.4522,-3.42322,0,2.18426,9.38608,-0.943638,3.53659,2.40854,-2.04268,-9.9561,0.414338,-1.32684,1.43293,7.59146,7.40854
6885.14,13.4391,-3.58891,0,2.34712,9.55852,-0.888552,2.10366,1.67683,-2.19512,-10.0423,0.428708,-1.33403,1.15854,7.46951,7.5
6885.15,13.4543,-3.75023,0,2.5004,9.51062,-0.984353,1.18902,1.21951,-1.85976,-10.0399,0.426313,-1.34361,0.609756,7.31707,7.31707
6885.16,13.4612,-3.91665,0,2.46208,9.34537,-0.845442,-0.213415,2.16463,-2.46951,-10.0974,0.455054,-1.40348,0.182927,7.04268,7.5
6885.17,13.4783,-4.07623,0,2.47166,9.56571,-0.967588,1.12805,3.23171,-1.34146,-10.0711,0.488584,-1.39869,0,6.79878,7.46951
6885.18,13.4992,-4.2217,0,2.42855,9.5226,-0.941243,1.31098,3.23171,-0.884146,-10.0663,0.579595,-1.36277,-0.426829,6.43293,7.68293
6885.19,13.503,-4.34608,0,2.40699,9.53936,-0.960403,1.09756,3.07927,-1.52439,-10.0088,0.538879,-1.28613,-1.28049,6.18902,7.71341
6885.2,13.5076,-4.47396,0,2.44531,9.51302,-0.950823,0.701219,2.65244,-1.92073,-10.0136,0.495769,-1.32445,-1.64634,6.06707,7.59146
6885.21,13.5092,-4.60152,0,2.38304,9.52739,-0.936453,0.457317,2.53049,-1.43293,-9.96568,0.443079,-1.33882,-2.22561,5.79268,7.46951
6885.22,13.5079,-4.72598,0,2.36149,9.46512,-0.993933,0.701219,2.5,-1.58537,-9.96328,0.443079,-1.346,-2.2561,5.27439,7.07317
6885.23,13.5151,-4.84162,0,2.4022,9.44356,-0.953218,0.426829,2.22561,-1.52439,-9.97526,0.380808,-1.32924,-2.28659,4.93902,6.98171
6885.24,13.5516,-4.97036,0,2.53154,9.35016,-0.972378,0.487805,1.89024,-1.40244,-9.97047,0.359253,-1.40348,-1.79878,4.42073,6.55488
6885.25,13.6171,-5.12044,0,2.62734,9.32621,-0.996328,0.548781,2.31707,-1.06707,-9.97286,0.414338,-1.51365,-1.61585,3.90244,6.46341
6885.26,13.7185,-5.24348,0,2.57704,9.31184,-0.931663,0.762195,2.56098,-0.213415,-9.98723,0.419128,-1.42264,-0.945122,3.78049,6.43293
6885.27,13.8167,-5.38335,0,2.57465,9.35016,-0.931663,0.670732,2.19512,0.121951,-9.95849,0.447869,-1.51126,-0.579268,3.68902,6.70732
6885.28,13.8431,-5.51237,0,2.41897,9.48188,-0.936453,1.55488,2.10366,0.518293,-9.97286,0.426313,-1.4921,-0.823171,3.71951,6.58537
6885.29,13.8008,-5.63473,0,2.22737,9.58008,-0.835862,1.15854,1.95122,0.0304878,-9.98963,0.486189,-1.45857,-0.640244,2.68293,6.92073
6885.3,13.7589,-5.76342,0,2.20821,9.616,-0.811912,0.27439,0.518293,-0.457317,-9.98244,0.479004,-1.48491,-0.97561,2.31707,6.64634
6885.31,13.7666,-5.89174,0,2.38304,9.52739,-0.862207,0.27439,0.182927,-0.487805,-10.0351,0.510139,-1.44659,-0.731707,1.46341,6.70732
6885.32,13.7848,-6.04163,0,2.42136,9.54176,-0.802332,0,-0.121951,-0.365854,-9.99202,0.546064,-1.46815,-1.15854,1.0061,6.7378
6885.33,13.8438,-6.22979,0,2.53633,9.46512,-0.902922,-1.21951,-0.365854,-0.243902,-9.97526,0.55325,-1.51126,-1.4939,0.548781,6.89024
6885.34,13.9083,-6.4369,0,2.55788,9.41722,-0.895737,-0.670732,0.518293,0.518293,-9.9537,0.570015,-1.47773,-1.28049,0.0914634,6.79878
6885.35,13.9395,-6.65794,0,2.4525,9.47709,-0.866997,-0.335366,1.34146,0.487805,-9.9537,0.514929,-1.53521,-1.15854,-0.0609756,6.70732
6885.36,13.96,-6.86801,0,2.41657,9.48428,-0.950823,0.243902,0.853659,0.121951,-9.99681,0.464634,-1.5855,-0.853659,0.121951,6.79878
6885.37,13.9716,-7.0434,0,2.40699,9.50823,-0.972378,0.27439,0.731707,-0.152439,-10.0663,0.443079,-1.61424,-0.853659,0.304878,6.43293
6885.38,13.9733,-7.26007,0,2.38065,9.48428,-0.948428,0.121951,0.243902,-0.396341,-10.0639,0.421523,-1.6837,-0.365854,-0.0609756,6.15854
6885.39,13.9649,-7.42324,0,2.36149,9.49386,-0.840652,-0.182927,-0.640244,-0.853659,-10.0543,0.514929,-1.65496,0.243902,-0.304878,6.25
6885.4,13.9761,-7.57512,0,2.47166,9.49386,-0.847837,-1.52439,-2.07317,-1.03659,-9.96328,0.637075,-1.62861,-0.0304878,-0.304878,6.92073
6885.41,13.9931,-7.66699,0,2.47406,9.48667,-0.840652,-1.76829,-2.92683,-0.762195,-9.97047,0.62989,-1.55676,-0.335366,-0.609756,7.56098
6885.42,14.0141,-7.70122,0,2.47645,9.52499,-0.838257,-2.04268,-1.82927,-0.457317,-9.98963,0.565225,-1.42983,-1.0061,-0.579268,7.86585
6885.43,13.9993,-7.72936,0,2.34712,9.55852,-0.850232,-1.55488,-1.46341,-0.640244,-9.93215,0.546064,-1.42504,-2.04268,-1.03659,7.80488
6885.44,13.9703,-7.77242,0,2.29203,9.54894,-0.845442,-1.4939,-2.46951,-1.52439,-9.83874,0.510139,-1.46336,-2.5,-1.21951,7.9878
6885.45,13.9496,-7.79253,0,2.37107,9.52739,-0.910107,-1.43293,-2.28659,-2.13415,-9.77168,0.589175,-1.40109,-2.71341,-1.67683,7.7439
6885.46,13.9351,-7.82025,0,2.4501,9.4268,-0.943638,-1.12805,-1.25,-2.89634,-9.75252,0.538879,-1.42983,-2.62195,-1.82927,7.62195
6885.47,13.9282,-7.86017,0,2.5507,9.39327,-0.962798,-0.97561,-0.487805,-3.44512,-9.77168,0.543669,-1.47773,-2.83537,-1.76829,7.37805
6885.48,13.9407,-7.90691,0,2.65608,9.34058,-0.960403,-0.823171,-0.0609756,-3.07927,-9.84114,0.505349,-1.53042,-2.19512,-2.04268,7.43902
6885.49,13.9725,-7.95907,0,2.75667,9.30944,-0.828677,-0.579268,0.609756,-2.71341,-9.89143,0.428708,-1.56155,-1.79878,-1.85976,7.0122
6885.5,14.0299,-7.99827,0,2.82373,9.27591,-0.888552,-0.762195,0.914634,-1.98171,-9.92975,0.392783,-1.5376,-1.58537,-2.10366,7.04268
6885.51,14.0991,-8.02179,0,2.82852,9.29986,-0.967588,-0.182927,2.0122,-1.52439,-9.97526,0.354463,-1.49689,-1.15854,-2.40854,6.70732
6885.52,14.1876,-8.0378,0,2.77343,9.30465,-0.931663,-0.152439,3.17073,-0.823171,-9.9537,0.344883,-1.46815,-1.06707,-2.43902,6.58537
6885.53,14.2842,-8.06017,0,2.75188,9.31902,-0.989143,0.396341,3.81098,-0.518293,-9.91538,0.349673,-1.4897,-1.09756,-2.40854,6.40244
6885.54,14.3336,-8.08546,0,2.56507,9.4723,-0.857417,0.396341,3.96341,-0.0304878,-9.85311,0.371228,-1.4897,-1.21951,-2.07317,6.03659
6885.55,14.3256,-8.11825,0,2.42855,9.5705,-0.914897,-0.0304878,1.92073,-0.396341,-9.82916,0.399968,-1.52084,-1.15854,-2.22561,6.06707
6885.56,14.3103,-8.16301,0,2.39502,9.53218,-0.855022,-0.0914634,0.701219,-0.701219,-9.80042,0.488584,-1.55916,-0.97561,-1.98171,6.03659
6885.57,14.2721,-8.18475,0,2.28724,9.53936,-0.847837,-0.27439,-0.670732,-0.914634,-9.78126,0.536484,-1.48252,-1.34146,-2.04268,6.03659
6885.58,14.2343,-8.1993,0,2.30401,9.63277,-0.883762,-1.37195,-0.853659,-1.61585,-9.80042,0.56762,-1.45857,-1.15854,-1.61585,6.37195
6885.59,14.2079,-8.20186,0,2.36388,9.5202,-0.893342,-1.43293,-1.40244,-1.95122,-9.85311,0.565225,-1.42983,-1.52439,-1.67683,6.37195
6885.6,14.2043,-8.20479,0,2.49561,9.46991,-0.905317,-1.09756,-1.7378,-1.85976,-9.90341,0.507744,-1.43941,-1.61585,-1.82927,6.28049
6885.61,14.2178,-8.20717,0,2.61057,9.4723,-0.977168,-1.55488,-1.46341,-1.82927,-9.92496,0.502954,-1.4418,-1.89024,-2.10366,6.06707
6885.62,14.2474,-8.22295,0,2.66805,9.35495,-0.869392,-1.18902,-1.79878,-1.7378,-9.93215,0.452659,-1.4921,-1.67683,-1.95122,5.67073
6885.63,14.3025,-8.26687,0,2.71356,9.30465,-0.917292,-0.792683,-0.426829,-1.18902,-9.93454,0.426313,-1.59029,-1.40244,-1.67683,5.39634
6885.64,14.3535,-8.31657,0,2.67763,9.39806,-0.874182,-0.609756,0.487805,-0.853659,-9.88425,0.440684,-1.59508,-0.914634,-1.37195,5.4878
6885.65,14.4035,-8.35513,0,2.62734,9.36932,-0.910107,-0.914634,0.670732,-0.609756,-9.86509,0.411943,-1.54,-0.365854,-0.762195,5.33537
6885.66,14.42,-8.38468,0,2.52914,9.43638,-0.866997,-0.426829,0.701219,-0.731707,-9.8603,0.395178,-1.52802,0.304878,-0.914634,5.51829
6885.67,14.428,-8.38521,0,2.52435,9.48188,-0.833467,-0.518293,0.609756,-0.945122,-9.85072,0.481399,-1.45378,0.396341,-0.670732,5.85366
6885.68,14.4289,-8.35563,0,2.52435,9.49146,-0.826282,-0.97561,0.609756,-1.34146,-9.85072,0.505349,-1.37474,0.0914634,-0.914634,5.97561
6885.69,14.4332,-8.33221,0,2.54591,9.48667,-0.948428,-1.0061,1.12805,-1.37195,-9.88904,0.505349,-1.38193,0.0304878,-1.28049,5.97561
6885.7,14.4438,-8.30809,0,2.59141,9.46512,-0.905317,-0.823171,1.31098,-1.4939,-9.9082,0.510139,-1.36995,-0.152439,-1.67683,6.12805
6885.71,14.4602,-8.2723,0,2.63452,9.44596,-0.895737,-0.640244,2.07317,-1.58537,-9.89383,0.536484,-1.33642,-0.426829,-1.28049,6.31098
6885.72,14.4604,-8.26489,0,2.53393,9.44596,-0.831072,-0.213415,2.2561,-1.58537,-9.84593,0.538879,-1.41067,-0.548781,-1.21951,6.46341
6885.73,14.4369,-8.24053,0,2.36149,9.40524,-0.797541,0.152439,2.31707,-1.15854,-9.81479,0.505349,-1.36037,-0.426829,-1.03659,6.55488
6885.74,14.3875,-8.23728,0,2.23695,9.50583,-0.771196,-0.213415,1.64634,-1.40244,-9.8124,0.481399,-1.41306,-0.518293,-1.06707,6.61585
6885.75,14.3434,-8.25609,0,2.25611,9.47949,-0.773591,-0.914634,0.213415,-1.70732,-9.84593,0.445474,-1.47533,-0.579268,-0.884146,6.52439
6885.76,14.3061,-8.27146,0,2.3543,9.52739,-0.737666,-1.34146,0.335366,-2.7439,-9.89383,0.428708,-1.48012,-0.426829,-1.03659,6.46341
6885.77,14.2539,-8.30011,0,2.25371,9.5202,-0.673001,-1.76829,-0.640244,-3.14024,-9.9537,0.431104,-1.52323,-0.152439,-0.762195,6.18902
6885.78,14.2138,-8.31337,0,2.33275,9.4723,-0.670605,-2.28659,-2.62195,-3.17073,-9.99921,0.450264,-1.50168,0.0914634,-1.21951,6.12805
6885.79,14.2161,-8.31033,0,2.57225,9.44117,-0.917292,-2.0122,-3.20122,-2.28659,-10.0279,0.493374,-1.45617,0.243902,-1.52439,6.61585
6885.8,14.2498,-8.28717,0,2.7423,9.40285,-1.01788,-2.07317,-1.46341,-1.92073,-10.0279,0.481399,-1.38432,0.27439,-1.64634,6.85976
6885.81,14.289,-8.26816,0,2.73751,9.43159,-0.871787,-0.853659,0.457317,-1.55488,-10.004,0.426313,-1.38911,0.396341,-1.85976,7.46951
6885.82,14.3077,-8.24107,0,2.56746,9.48428,-0.809517,-1.25,0.640244,-1.03659,-9.99202,0.419128,-1.3484,0.27439,-2.28659,7.19512
6885.83,14.2932,-8.21793,0,2.43334,9.51781,-0.816702,-1.58537,-1.06707,-1.58537,-9.94652,0.421523,-1.35079,0.0914634,-2.53049,7.37805
6885.84,14.2728,-8.19361,0,2.4046,9.5226,-0.965193,-1.61585,-1.37195,-1.76829,-9.87227,0.433499,-1.33642,-0.182927,-2.22561,6.95122
6885.85,14.2338,-8.17184,0,2.31359,9.58726,-0.900527,-1.46341,-0.121951,-2.28659,-9.87706,0.423918,-1.34121,-0.304878,-2.31707,7.04268
6885.86,14.2023,-8.16649,0,2.38065,9.53936,-0.919688,-1.79878,-0.152439,-2.71341,-9.82197,0.450264,-1.39151,-0.0609756,-2.80488,7.22561
6885.87,14.188,-8.16037,0,2.48124,9.46751,-0.826282,-1.67683,-0.365854,-2.59146,-9.86748,0.490979,-1.3939,0.243902,-2.7439,7.22561
6885.88,14.1927,-8.15225,0,2.56986,9.4244,-0.792751,-1.76829,-1.15854,-2.19512,-9.86269,0.443079,-1.38432,0.548781,-2.68293,7.07317
6885.89,14.2044,-8.14678,0,2.56507,9.39087,-0.828677,-2.10366,-0.884146,-1.79878,-9.88425,0.419128,-1.3963,0.487805,-2.80488,7.46951
6885.9,14.219,-8.13202,0,2.58662,9.43398,-0.826282,-2.0122,-1.25,-1.67683,-9.86748,0.409548,-1.35558,1.0061,-2.80488,7.22561
6885.91,14.2574,-8.12887,0,2.67763,9.41003,-0.790356,-1.70732,-1.92073,-1.31098,-9.87706,0.407153,-1.40109,0.884146,-2.86585,6.92073
6885.92,14.2973,-8.11761,0,2.67524,9.41482,-0.833467,-1.58537,-0.548781,-1.18902,-9.86748,0.435894,-1.36756,0.762195,-2.53049,6.92073
6885.93,14.322,-8.10655,0,2.57944,9.44356,-0.886157,-1.52439,0.0304878,-0.97561,-9.85311,0.450264,-1.36516,0.731707,-2.37805,7.0122
6885.94,14.3539,-8.10396,0,2.61776,9.38608,-0.917292,-1.43293,0.243902,-1.09756,-9.78844,0.464634,-1.38672,0.701219,-2.10366,7.04268
6885.95,14.3732,-8.11972,0,2.56746,9.39806,-0.807122,-1.55488,-0.0914634,-1.15854,-9.82197,0.462239,-1.45617,0.670732,-1.95122,7.07317
6885.96,14.396,-8.117,0,2.5986,9.40045,-0.888552,-1.61585,-0.0609756,-1.21951,-9.84114,0.488584,-1.3963,0.762195,-1.7378,7.28659
6885.97,14.4366,-8.1138,0,2.6465,9.38369,-0.787961,-1.64634,-0.518293,-0.914634,-9.86988,0.416733,-1.39869,0.97561,-1.46341,7.19512
6885.98,14.4939,-8.11732,0,2.6465,9.37171,-0.826282,-1.52439,-0.701219,-0.457317,-9.91778,0.411943,-1.42743,0.731707,-1.64634,7.22561
6885.99,14.5391,-8.12062,0,2.58423,9.41722,-0.778381,-1.4939,-0.243902,-0.152439,-9.92496,0.474214,-1.42743,1.09756,-1.40244,7.0122
6886,14.5465,-8.12687,0,2.48603,9.49386,-0.778381,-1.82927,-1.28049,-0.0304878,-9.9082,0.455054,-1.43462,1.28049,-1.34146,7.16463
6886.01,14.554,-8.13799,0,2.49322,9.46991,-0.876577,-2.10366,-1.58537,-0.27439,-9.93454,0.459844,-1.45617,1.55488,-1.43293,7.19512
6886.02,14.5401,-8.16634,0,2.43573,9.48907,-0.900527,-1.67683,-1.18902,-0.853659,-9.97047,0.452659,-1.51365,1.37195,-1.15854,7.22561
6886.03,14.524,-8.17204,0,2.43813,9.50344,-0.871787,-1.98171,-1.18902,-1.15854,-9.98723,0.486189,-1.45378,1.12805,-1.4939,7.5
6886.04,14.5185,-8.17309,0,2.49322,9.47949,-0.833467,-1.70732,-1.18902,-1.25,-10.004,0.512534,-1.4418,1.03659,-1.67683,7.10366
6886.05,14.512,-8.15031,0,2.48364,9.46033,-0.775986,-1.95122,-1.15854,-1.28049,-9.99202,0.543669,-1.35798,0.945122,-1.58537,7.34756
6886.06,14.496,-8.14545,0,2.46927,9.53936,-0.771196,-1.61585,-0.457317,-1.64634,-9.98005,0.55804,-1.41306,0.762195,-1.92073,7.5
6886.07,14.4604,-8.14566,0,2.35191,9.55134,-0.706531,-2.10366,-1.28049,-1.92073,-9.97526,0.507744,-1.42983,0.701219,-1.52439,7.34756
6886.08,14.4212,-8.13657,0,2.33035,9.5705,-0.701741,-2.22561,-1.85976,-2.04268,-10.0088,0.469424,-1.40348,0.487805,-1.43293,7.40854
6886.09,14.3808,-8.1026,0,2.33514,9.54894,-0.771196,-2.46951,-2.53049,-2.53049,-10.0136,0.438289,-1.31247,0.792683,-1.70732,7.10366
6886.1,14.3565,-8.0981,0,2.4501,9.47949,-0.831072,-2.68293,-2.80488,-2.7439,-9.99442,0.467029,-1.40827,0.884146,-1.76829,7.16463
6886.11,14.3442,-8.09083,0,2.54591,9.43877,-0.761616,-2.16463,-2.65244,-2.92683,-9.94173,0.471819,-1.38911,0.884146,-2.10366,7.2561
6886.12,14.3443,-8.07652,0,2.55549,9.45554,-0.713716,-2.16463,-2.19512,-2.0122,-9.88185,0.522114,-1.35558,1.4939,-1.89024,7.28659
6886.13,14.3285,-8.04237,0,2.45729,9.50583,-0.684976,-2.34756,-1.28049,-2.0122,-9.85311,0.531694,-1.28134,1.67683,-1.82927,7.7439
6886.14,14.2943,-8.01111,0,2.36149,9.5202,-0.737666,-2.46951,-1.7378,-2.56098,-9.84593,0.529299,-1.28134,1.4939,-1.98171,7.77439
6886.15,14.2413,-7.97535,0,2.22976,9.53697,-0.701741,-2.10366,-2.31707,-2.83537,-9.8603,0.500559,-1.25739,1.31098,-2.16463,7.77439
6886.16,14.171,-7.9393,0,2.12917,9.55134,-0.790356,-2.37805,-2.80488,-3.56707,-9.86509,0.498164,-1.24541,0.945122,-2.43902,7.31707
6886.17,14.1119,-7.89775,0,2.25371,9.52978,-0.787961,-2.9878,-4.2378,-4.20732,-9.84593,0.500559,-1.21667,0.243902,-2.40854,7.2561
6886.18,14.0668,-7.87153,0,2.38065,9.42919,-0.713716,-2.92683,-4.87805,-4.72561,-9.80042,0.524509,-1.26457,0.365854,-2.2561,7.28659
6886.19,14.058,-7.83668,0,2.61057,9.43638,-0.773591,-3.17073,-4.05488,-3.87195,-9.8076,0.534089,-1.22625,0.365854,-2.40854,7.53049
6886.2,14.0666,-7.80648,0,2.69919,9.35495,-0.730481,-3.29268,-2.59146,-3.53659,-9.83395,0.507744,-1.24062,0.579268,-2.40854,7.31707
6886.21,14.081,-7.77121,0,2.70637,9.35495,-0.766406,-2.7439,-0.823171,-3.14024,-9.88904,0.459844,-1.21667,1.06707,-2.77439,7.22561
6886.22,14.0959,-7.75215,0,2.69679,9.38848,-0.831072,-1.92073,0.426829,-2.89634,-9.9058,0.467029,-1.27655,1.21951,-2.92683,7.04268
6886.23,14.0865,-7.73298,0,2.52435,9.39327,-0.850232,-1.43293,1.61585,-3.07927,-9.93694,0.447869,-1.27655,1.34146,-2.92683,6.70732
6886.24,14.0653,-7.72423,0,2.4549,9.43638,-0.747246,-1.25,1.25,-3.2622,-9.9058,0.529299,-1.31247,1.12805,-2.68293,6.76829
6886.25,14.0421,-7.70873,0,2.43334,9.45075,-0.732876,-1.61585,0.609756,-3.20122,-9.8555,0.550855,-1.27655,0.945122,-2.92683,6.79878
6886.26,14.0207,-7.7116,0,2.42615,9.45075,-0.742456,-2.0122,0.701219,-2.9878,-9.83874,0.514929,-1.346,0.945122,-2.9878,7.10366
6886.27,14.0087,-7.70571,0,2.49801,9.37411,-0.787961,-2.2561,0.97561,-3.23171,-9.86509,0.481399,-1.31487,0.914634,-2.65244,7.16463
6886.28,14.0051,-7.70194,0,2.55788,9.36932,-0.787961,-2.9878,1.40244,-3.17073,-9.93694,0.464634,-1.33163,1.0061,-2.83537,7.10366
6886.29,13.994,-7.70043,0,2.51956,9.40285,-0.814307,-2.77439,1.61585,-3.32317,-9.98005,0.414338,-1.346,1.18902,-2.86585,6.64634
6886.3,13.9814,-7.70263,0,2.50759,9.45075,-0.866997,-2.43902,3.20122,-3.20122,-9.94652,0.411943,-1.35558,1.03659,-2.40854,6.52439
6886.31,13.9499,-7.72069,0,2.38304,9.50823,-0.802332,-2.59146,3.41463,-3.41463,-9.96568,0.402363,-1.42025,1.25,-2.31707,6.25
6886.32,13.8977,-7.72377,0,2.27048,9.46512,-0.826282,-2.53049,2.31707,-4.35976,-9.96568,0.419128,-1.36516,1.31098,-2.34756,5.91463
6886.33,13.861,-7.69809,0,2.43334,9.48907,-0.735271,-3.10976,1.06707,-4.7561,-9.99442,0.414338,-1.25739,1.40244,-2.31707,5.85366
6886.34,13.8438,-7.68331,0,2.60099,9.40524,-0.823887,-3.75,1.21951,-5.06098,-10.0088,0.414338,-1.29331,1.40244,-3.14024,5.97561
6886.35,13.834,-7.66363,0,2.62973,9.29028,-0.931663,-3.17073,2.92683,-5.06098,-10.0208,0.352068,-1.26936,1.37195,-3.96341,6.12805
6886.36,13.8297,-7.64779,0,2.67045,9.2807,-0.926873,-2.22561,5.57927,-5.03049,-9.97526,0.270637,-1.27655,0.97561,-4.54268,6.06707
6886.37,13.8114,-7.65389,0,2.53633,9.42201,-0.881367,-1.79878,6.92073,-4.45122,-9.96807,0.249082,-1.36995,1.21951,-5.06098,6.15854
6886.38,13.7769,-7.65916,0,2.41178,9.56571,-0.823887,-2.37805,6.40244,-4.2378,-9.94891,0.287402,-1.36516,1.46341,-5.45732,6.7378
6886.39,13.7201,-7.65739,0,2.24413,9.6184,-0.893342,-3.38415,5.79268,-4.45122,-9.94412,0.335303,-1.33403,1.34146,-5.21341,6.98171
6886.4,13.6416,-7.66849,0,2.08127,9.66869,-0.783171,-4.11585,3.9939,-4.7561,-9.9537,0.249082,-1.39151,1.09756,-4.84756,6.82927
6886.41,13.5508,-7.66765,0,2.01421,9.6639,-0.670605,-4.39024,1.76829,-5.42683,-9.93933,0.249082,-1.33882,1.18902,-4.84756,6.52439
6886.42,13.4549,-7.66125,0,2.019,9.69264,-0.60115,-5.39634,-0.945122,-6.12805,-9.96089,0.253872,-1.31726,1.21951,-5.21341,6.85976
6886.43,13.3733,-7.66853,0,2.15552,9.6639,-0.56762,-6.25,-3.47561,-6.52439,-9.94173,0.189207,-1.37474,1.12805,-5.82317,6.85976
6886.44,13.3169,-7.67366,0,2.34233,9.65911,-0.64426,-6.67683,-4.45122,-6.28049,-10.0184,0.153281,-1.37714,0.97561,-5.91463,7.07317
6886.45,13.273,-7.67115,0,2.42855,9.61121,-0.675395,-7.62195,-4.93902,-6.25,-10.0327,0.0790356,-1.346,0.884146,-6.21951,6.67683
6886.46,13.2491,-7.68054,0,2.52914,9.46272,-0.708926,-7.59146,-6.46341,-5.91463,-10.0327,0.0981958,-1.39869,0.945122,-5.88415,6.98171
6886.47,13.2433,-7.70886,0,2.65129,9.41722,-0.752036,-7.68293,-6.67683,-5.67073,-10.0112,0.162861,-1.48252,0.945122,-6.09756,7.40854
6886.48,13.2502,-7.71145,0,2.73032,9.46033,-0.807122,-7.7439,-6.55488,-5.18293,-9.96089,0.213157,-1.36516,1.40244,-6.06707,7.77439
6886.49,13.2636,-7.71476,0,2.7902,9.41961,-0.838257,-7.77439,-6.4939,-5.33537,-9.89383,0.232317,-1.36037,1.37195,-6.82927,8.20122
6886.5,13.2938,-7.72435,0,2.89558,9.36932,-0.787961,-7.46951,-6.46341,-5,-9.8076,0.205972,-1.37714,1.64634,-7.34756,8.29268
6886.51,13.3445,-7.71792,0,3.02012,9.29986,-0.838257,-7.80488,-6.06707,-4.60366,-9.81958,0.191602,-1.31008,1.46341,-7.5,8.47561
6886.52,13.4184,-7.71157,0,3.09437,9.12023,-0.840652,-7.16463,-4.02439,-3.96341,-9.82437,0.162861,-1.31008,1.34146,-7.65244,8.14024
6886.53,13.5073,-7.70778,0,3.08,9.11544,-0.749641,-6.37195,-2.68293,-2.95732,-9.85311,0.122146,-1.32445,1.40244,-8.04878,7.5
6886.54,13.6108,-7.69394,0,3.08718,9.17053,-0.845442,-6.21951,-1.06707,-2.2561,-9.86988,0.155676,-1.28134,1.25,-7.77439,7.0122
6886.55,13.74,-7.67936,0,3.13269,9.16095,-0.799937,-6.18902,-0.914634,-1.7378,-9.78126,0.208367,-1.26457,0.97561,-8.20122,6.67683
6886.56,13.9426,-7.66174,0,3.38656,9.16334,-0.780776,-6.09756,-0.457317,-1.15854,-9.75491,0.229922,-1.24541,1.03659,-8.29268,6.89024
6886.57,14.433,-7.61621,0,3.64522,9.02204,-0.723296,-6.61585,-1.15854,-0.0304878,-9.75252,0.210762,-1.12087,0.945122,-8.87195,6.95122
6886.58,14.7131,-7.57048,0,4.09069,8.82804,-0.740061,-6.61585,-2.37805,2.16463,-9.9082,0.129331,-1.13045,1.06707,-9.57317,6.67683
6886.59,15.0287,-7.54551,0,4.49785,8.5574,-0.819097,-6.58537,-3.56707,5.36585,-9.96568,0.100591,-1.22146,1.61585,-9.60366,6.06707
6886.6,15.4707,-7.53326,0,5.10858,8.20294,-0.764011,-6.43293,-5.03049,10.6402,-9.96568,0.105381,-1.27415,3.17073,-10.0915,6.12805
6886.61,16.0387,-7.50863,0,5.53968,7.78621,-0.493374,-7.07317,-7.40854,17.2256,-9.8603,0.129331,-1.20469,4.60366,-10.9756,6.09756
6886.62,16.7505,-7.44547,0,5.94444,7.39103,-0.356858,-9.45122,-11.6463,26.1585,-9.72617,0.114961,-1.01788,6.21951,-12.2561,6.15854
6886.63,17.5993,-7.39084,0,6.44979,7.22098,-0.182021,-11.3415,-14.1159,35.5488,-9.58726,0.0550855,-1.02986,8.53659,-13.2012,5.51829
6886.64,18.563,-7.35592,0,6.52164,7.07728,0.0215552,-12.8354,-15.4878,47.1951,-9.42919,0.0766406,-1.08734,11.25,-13.9634,4.29878
6886.65,19.5707,-7.32408,0,6.83299,7.4557,-0.00718506,-11.311,-14.9085,53.9634,-9.1825,0.201182,-1.06578,13.872,-13.872,3.2622
6886.66,20.5953,-7.27705,0,6.75635,7.85087,0.0550855,-8.84146,-11.0366,61.4024,-9.13939,0.378413,-0.993933,16.4024,-14.1768,2.34756
6886.67,21.6247,-7.18957,0,6.77312,8.35383,-0.0143701,-7.77439,-4.08537,67.4085,-9.1825,0.622705,-0.826282,18.3841,-14.939,1.28049
6886.68,22.6387,-7.1456,0,6.5384,8.76338,-0.411943,-7.53049,8.59756,72.6524,-9.10586,0.871787,-0.981958,19.6646,-15.2744,0.487805
6886.69,23.6105,-7.13367,0,6.21508,9.2352,-1.06339,-6.4939,23.2622,76.0976,-9.27591,1.05141,-1.12566,20.3049,-15.122,0.0914634
6886.7,24.4944,-7.11641,0,5.65225,9.83874,-1.5879,-2.13415,39.5122,77.4085,-9.59445,1.14003,-1.14003,20.2439,-15.8232,-0.731707
6886.71,25.2313,-7.06874,0,4.69903,10.7776,-1.74597,-0.670732,53.2622,77.1037,-9.92017,1.2502,-1.04183,19.7561,-16.7378,-0.97561
6886.72,25.8016,-7.03693,0,3.79132,11.6901,-1.55197,2.34756,61.311,73.0183,-10.2627,1.30768,-1.14242,18.5061,-17.439,-0.884146
6886.73,26.2122,-7.0461,0,2.67045,12.2936,-0.898132,3.32317,54.8476,69.5427,-10.4135,1.26457,-1.34361,16.5854,-16.8598,-0.396341
6886.74,26.4855,-7.08137,0,1.88249,12.2793,-0.349673,5.88415,41.4634,63.5976,-10.586,1.19032,-1.4897,13.9939,-14.878,0.243902
6886.75,26.6879,-7.11001,0,1.76992,12.0948,-0.215552,4.87805,26.7378,57.7134,-10.883,1.0562,-1.50407,11.8598,-12.9573,1.70732
6886.76,26.9265,-7.19757,0,2.56986,11.52,-0.637075,2.71341,16.3415,53.1402,-10.9836,0.847837,-1.81303,10.3354,-10.4878,3.81098
6886.77,27.2627,-7.33265,0,3.58534,10.3776,-0.723296,4.2378,6.7378,50.3659,-11.0818,0.61073,-2.08367,9.63415,-8.23171,5.39634
6886.78,27.6791,-7.45983,0,4.17691,9.39327,-0.110171,7.7439,-3.68902,49.2073,-11.0554,0.438289,-2.06451,9.42073,-7.0122,7.0122
6886.79,28.1966,-7.53369,0,4.97446,8.95019,0.356858,8.53659,-9.32927,49.9695,-10.8686,0.433499,-1.79147,10.3049,-7.19512,8.2622
6886.8,28.7813,-7.57134,0,5.47022,9.13939,0.598755,5.18293,-7.65244,54.1463,-10.5908,0.502954,-1.5879,10.6402,-8.62805,9.81707
6886.81,29.3876,-7.57579,0,5.69057,9.30705,0.352068,1.89024,1.21951,56.4329,-10.3321,0.632285,-1.40348,11.25,-10.4573,10.8841
6886.82,29.9826,-7.53252,0,5.70733,9.23759,0.155676,3.71951,13.628,55.9756,-10.1716,0.680186,-1.16637,11.4634,-11.7988,11.6159
6886.83,30.5268,-7.47922,0,5.50136,9.36213,0.332908,5.88415,22.1037,54.6037,-9.99442,0.747246,-1.09452,11.3415,-12.8049,12.1341
6886.84,31.0408,-7.42799,0,5.3864,9.24238,0.423918,5.54878,28.4146,53.0488,-9.9082,0.754431,-1.08494,11.6463,-12.8049,11.9512
6886.85,31.5227,-7.37105,0,5.13492,8.9933,0.313748,7.83537,33.2927,51.8598,-9.84832,0.821492,-1.04423,11.8598,-12.622,11.372
6886.86,31.9596,-7.28585,0,5.03433,9.08191,0.555645,8.9939,38.0793,49.7256,-9.79563,0.883762,-0.905317,12.439,-12.2256,11.5244
6886.87,32.3567,-7.1601,0,4.89063,9.22083,0.797541,8.5061,39.7256,48.7195,-9.75012,0.960403,-0.711321,11.5549,-12.5915,11.8902
6886.88,32.7515,-7.00725,0,5.09421,9.1849,1.05381,10.0915,39.3293,47.1037,-9.8124,0.922083,-0.5772,10.4268,-13.3841,12.439
6886.89,33.1674,-6.85472,0,5.32652,9.09149,1.346,9.78659,37.439,47.3171,-9.77647,0.941243,-0.550855,8.47561,-14.0244,13.0488
6886.9,33.6503,-6.72302,0,5.61872,8.58615,1.43701,8.23171,35.6707,49.2073,-9.7118,0.969983,-0.61073,6.58537,-13.9939,13.6585
6886.91,34.1561,-6.62938,0,5.47262,8.16223,1.39869,5.70122,31.7683,51.2195,-9.53457,1.09213,-0.737666,4.78659,-13.2622,14.2073
6886.92,34.6708,-6.5613,0,5.25707,7.93949,1.152,2.10366,27.7134,53.8415,-9.4723,1.24062,-0.823887,3.5061,-12.3171,14.9085
6886.93,35.1644,-6.51959,0,5.0008,7.76705,0.684976,0.884146,24.0854,54.2378,-9.46272,1.28613,-0.922083,1.79878,-11.6159,14.939
6886.94,35.6164,-6.50033,0,4.76848,7.7407,0.476609,0.27439,19.2378,53.3232,-9.49865,1.29092,-1.01309,0.457317,-11.0366,15.0305
6886.95,36.0429,-6.46713,0,4.6655,7.60898,0.555645,-1.70732,11.311,51.8902,-9.62079,1.23344,-0.962798,-0.579268,-10.7012,13.7195
6886.96,36.4786,-6.44749,0,4.72537,7.3599,0.455054,-3.59756,1.03659,51.2805,-9.73336,1.09452,-1.02746,-1.79878,-11.0366,11.6768
6886.97,36.9301,-6.44581,0,4.9553,7.26888,0.443079,-5.42683,-9.05488,50.5488,-9.7118,0.981958,-1.09931,-2.2561,-10.6707,9.39024
6886.98,37.3855,-6.46002,0,5.099,7.26888,0.488584,-6.64634,-13.4756,50.3049,-9.64235,0.850232,-1.15919,-2.40854,-10.2134,7.28659
6886.99,37.833,-6.48788,0,5.22354,7.31918,0.507744,-9.63415,-15.9146,49.4817,-9.48667,0.761616,-1.1999,-2.31707,-9.14634,5.64024
6887,38.2934,-6.51974,0,5.47262,7.29523,0.191602,-8.93293,-14.2683,48.9329,-9.45554,0.696951,-1.21667,-2.65244,-8.14024,4.39024
6887.01,38.7412,-6.54701,0,5.61153,7.38864,0.313748,-7.37805,-10.6402,47.8963,-9.47709,0.680186,-1.20469,-3.44512,-7.5,4.14634
6887.02,39.1587,-6.58444,0,5.42951,7.26888,0.445474,-7.77439,-8.71951,46.6463,-9.5202,0.699346,-1.25739,-3.96341,-6.85976,4.63415
6887.03,39.5526,-6.61779,0,5.30976,6.86652,0.366438,-4.35976,-11.128,43.1402,-9.53697,0.747246,-1.24781,-4.93902,-6.28049,5.21341
6887.04,39.9122,-6.66761,0,5.37442,6.81383,0.383203,-3.14024,-16.3415,39.3293,-9.5226,0.833467,-1.31966,-6.18902,-5.42683,6.0061
6887.05,40.2332,-6.71143,0,5.14929,6.6366,0.435894,-6.4939,-22.5305,37.0427,-9.52739,0.929268,-1.30289,-6.4939,-5.2439,6.37195
6887.06,40.6205,-6.7438,0,5.77918,6.33722,-0.220342,-5.27439,-20.3659,35.1829,-9.54176,1.01549,-1.26457,-7.19512,-5.57927,6.31098
6887.07,40.9746,-6.77892,0,5.64506,6.26058,-0.457449,0.457317,-16.8598,33.2317,-9.55613,1.11368,-1.28373,-7.65244,-5.57927,6.12805
6887.08,41.2678,-6.81137,0,5.47741,6.33962,-0.428708,2.68293,-12.622,30.2134,-9.59684,1.12087,-1.28373,-8.20122,-5.54878,5.60976
6887.09,41.5291,-6.83893,0,5.50136,6.16239,-0.512534,6.15854,-10.5488,25.6707,-9.64714,1.08973,-1.27415,-9.17683,-5.06098,4.08537
6887.1,41.7489,-6.87423,0,5.5301,6.14083,-0.313748,10.8232,-8.56707,21.4634,-9.67109,1.13284,-1.31247,-10.3659,-4.29878,2.80488
6887.11,41.9363,-6.91213,0,5.69057,6.33243,-0.217947,10.2744,-5.39634,18.7195,-9.72138,1.09213,-1.33403,-11.5854,-3.84146,1.4939
6887.12,42.1081,-6.94222,0,5.71691,6.30369,-0.301772,9.11585,-3.14024,16.9817,-9.73096,1.09931,-1.31008,-13.1098,-4.02439,0.243902
6887.13,42.2631,-6.98641,0,5.8678,6.31567,-0.138911,8.93293,-1.31098,14.2073,-9.7118,1.03704,-1.37235,-14.7561,-4.05488,-0.609756
6887.14,42.4374,-7.04953,0,6.3947,6.21268,-0.174836,6.18902,-3.01829,10.5183,-9.61121,1.00591,-1.4442,-15.8232,-4.05488,-1.31098
6887.15,42.6657,-7.12664,0,7.02459,6.04742,-0.58678,7.53049,-1.61585,9.32927,-9.47949,0.936453,-1.4897,-16.5854,-3.93293,-1.15854
6887.16,42.9058,-7.21283,0,7.25691,5.9636,-0.536484,13.628,2.62195,8.32317,-9.41003,0.857417,-1.52084,-17.1646,-3.59756,-0.945122
6887.17,43.0646,-7.30964,0,6.98627,6.41386,-0.0694556,14.3598,8.14024,6.92073,-9.4268,0.742456,-1.55676,-17.6524,-2.89634,-0.640244
6887.18,43.1477,-7.42916,0,6.57912,6.69887,-0.0335303,12.2561,10.3963,5.54878,-9.51062,0.682581,-1.63101,-18.3232,-2.19512,-0.152439
6887.19,43.0869,-7.51624,0,5.8175,6.445,-0.0550855,12.1646,11.6768,1.0061,-9.60163,0.570015,-1.54718,-18.75,-2.0122,0.335366
6887.2,43.0138,-7.57326,0,5.45825,6.09532,0.0574805,13.1707,14.4817,-4.69512,-9.75012,0.565225,-1.48491,-19.7561,-1.92073,0.0609756
6887.21,42.8921,-7.63812,0,5.59956,6.12406,0.282612,15.2744,15.2439,-11.25,-9.76449,0.675395,-1.53521,-20.122,-2.13415,-0.0609756
6887.22,42.7632,-7.69483,0,6.36117,6.55756,0.931663,13.2927,10.4268,-15.6707,-9.74533,0.835862,-1.51126,-20.9146,-2.07317,0.121951
6887.23,42.7217,-7.78657,0,7.75747,6.77312,1.00112,6.82927,2.43902,-16.7073,-9.70462,1.0083,-1.60466,-21.4939,-1.58537,0.640244
6887.24,42.7761,-7.91021,0,8.93582,6.60307,0.613125,2.16463,-3.81098,-16.5244,-9.75012,1.16877,-1.66214,-22.4085,-0.945122,0.853659
6887.25,42.9477,-8.10077,0,9.34297,5.70015,0.0383203,-0.335366,1.37195,-14.8171,-9.88425,1.23104,-1.79387,-23.2317,-0.335366,0.914634
6887.26,43.1692,-8.25165,0,8.83762,5.0966,-0.524509,2.83537,11.6159,-12.2561,-10.0064,1.18793,-1.75315,-23.9634,0.182927,0.97561
6887.27,43.2903,-8.38106,0,7.51557,5.15648,-0.62989,8.59756,19.1159,-12.8963,-10.1261,1.14482,-1.88728,-24.2073,1.0061,1.03659
6887.28,43.2602,-8.50732,0,6.54319,5.59237,-0.256267,13.1707,20.6402,-15.7012,-10.1764,1.05141,-1.99745,-24.5122,1.85976,1.25
6887.29,43.1409,-8.68804,0,6.21747,5.70973,0.153281,16.6768,19.0854,-20.7012,-10.0567,0.926873,-2.31119,-25.122,3.84146,0.823171
6887.3,43.0312,-8.89792,0,6.48092,5.49417,0.486189,17.7439,16.7988,-24.6037,-10.0399,0.792751,-2.49322,-25.7012,6.31098,0.792683
6887.31,42.8442,-9.11822,0,6.46895,6.00192,0.486189,19.9695,11.1585,-27.4695,-10.0878,0.747246,-2.59381,-25.7622,7.92683,1.52439
6887.32,42.5588,-9.32738,0,6.54559,6.88808,0.0383203,21.8902,7.10366,-30.5488,-10.3034,0.687371,-2.63692,-25.4268,8.87195,2.65244
6887.33,42.0906,-9.49858,0,5.69296,7.95625,-0.296982,21.2805,7.07317,-33.5366,-10.792,0.56762,-2.61297,-23.5671,7.92683,4.5122
6887.34,41.3834,-9.63548,0,4.02363,8.42807,-0.217947,24.4207,4.02439,-38.3537,-11.2829,0.237107,-2.58902,-20.8537,5.7622,6.37195
6887.35,40.4946,-9.77779,0,3.0297,8.55501,0.728086,28.1402,-11.7683,-46.0366,-11.4721,-0.105381,-2.68961,-16.9512,4.29878,8.78049
6887.36,39.5641,-9.879,0,3.28118,8.87355,1.86093,28.0488,-33.8415,-53.7195,-11.5105,-0.364043,-2.50998,-12.6829,4.05488,11.311
6887.37,38.9504,-9.90606,0,6.09772,8.44484,1.86572,29.6037,-57.3171,-55,-11.5344,-0.495769,-2.14594,-8.47561,3.59756,12.8049
6887.38,38.5959,-9.80992,0,9.69983,8.94779,1.36756,30.4268,-72.0122,-53.2317,-11.8889,-0.502954,-1.56874,-3.07927,2.34756,13.4451
6887.39,38.414,-9.5914,0,12.5786,10.3896,0.476609,35.6098,-83.811,-42.7439,-12.5068,-0.684976,-1.00112,3.75,-0.853659,13.872
6887.4,38.328,-9.38317,0,15.4551,12.2074,0.122146,38.5061,-73.0793,-35.8841,-12.7487,-0.929268,-0.977168,10.8841,-2.62195,14.2683
6887.41,38.2858,-9.24404,0,17.1244,14.3797,-0.306563,27.8963,-55.0915,-28.0793,-12.5667,-1.21667,-1.31726,16.7378,-1.25,14.6646
6887.42,38.3725,-9.08217,0,14.8874,14.0372,-0.603545,-5.15244,-36.7073,-8.29268,-12.0661,-1.36037,-1.08973,19.1159,3.53659,15.3049
6887.43,38.5094,-8.89454,0,8.26521,10.3824,-0.574805,-12.6524,7.7439,13.6585,-11.4099,-1.07297,-0.857417,19.1768,9.45122,15.4878
6887.44,38.0662,-8.69753,0,0.931663,8.40652,-0.579595,-16.7378,18.3841,20.4573,-10.6435,-0.296982,-0.716111,18.4756,14.1768,15.1524
6887.45,36.8414,-8.3784,0,-3.67635,7.07489,-0.395178,-15.3354,9.78659,8.96341,-10.198,0.646655,-0.100591,17.2866,14.9085,14.7561
6887.46,35.161,-7.92877,0,-6.03545,7.10363,0.287402,-8.07927,-13.811,-13.9329,-10.2004,1.55197,0.541274,14.0549,12.439,14.0854
6887.47,33.2694,-7.3443,0,-6.48811,7.80297,1.3484,-6.15854,-50.7012,-40.1524,-10.4543,2.39981,1.25978,9.11585,8.62805,13.2317
6887.48,31.5556,-6.71312,0,-3.49433,8.94779,0.962798,-33.1707,-94.2378,-63.4451,-10.5932,3.02251,1.59987,2.7439,5.51829,11.7378
6887.49,30.0961,-6.04046,0,-0.344883,8.71787,-2.2609,-61.5244,-113.872,-79.9085,-10.5333,3.15424,1.85135,-3.14024,3.29268,10.4573
6887.5,28.9906,-5.21528,0,2.7399,8.13828,-6.5408,-58.0183,-97.2866,-89.3598,-10.2387,2.79978,2.06451,-7.92683,1.31098,8.84146
6887.51,28.2144,-3.83904,0,5.40077,8.41849,-7.14913,-20.5488,-70.4268,-86.7378,-9.80281,1.97589,2.00463,-10.5183,-0.213415,6.70732
6887.52,27.6049,-2.99681,0,7.05573,10.6171,-4.24397,7.65244,-57.1037,-73.2012,-9.4723,0.950823,1.93518,-10.9756,-1.7378,4.66463
6887.53,27.1339,-2.37802,0,7.5491,11.7883,-0.993933,6.7378,-45.5488,-58.3232,-9.28789,-0.00239502,1.75794,-10.6707,-3.01829,3.10976
6887.54,26.6874,-1.81926,0,6.27016,10.6626,-0.476609,-7.2561,-26.4329,-52.3476,-9.29507,-0.598755,1.75555,-9.69512,-3.56707,2.43902
6887.55,26.2323,-1.32828,0,5.15887,9.13221,-1.60227,-0.27439,-7.16463,-52.1037,-9.39327,-1.14961,1.69807,-8.29268,-4.54268,2.62195
6887.56,25.6524,-0.903799,0,3.86077,8.9933,-0.924478,9.60366,-0.670732,-53.0488,-9.33818,-1.46096,1.38193,-5.57927,-3.2622,3.75
6887.57,24.9431,-0.473048,0,2.76385,9.26394,-0.251477,5.94512,-5.12195,-53.9329,-9.25196,-1.35558,1.26457,-2.95732,-2.43902,6.70732
6887.58,24.3642,-0.0372509,0,3.88472,8.75859,-0.59636,0.762195,7.80488,-56.9817,-9.18969,-1.30768,1.02507,-0.182927,-1.64634,9.48171
6887.59,23.5968,0.530006,0,2.2609,9.01246,-1.35558,-2.9878,3.53659,-57.3171,-9.00288,-0.778381,0.905317,2.68293,-1.0061,12.439
6887.6,22.7887,0.931934,0,1.73399,8.85199,-1.93518,-1.70732,-11.0671,-56.9207,-9.00527,-0.292192,0.972378,4.57317,-1.64634,15.3049
6887.61,22.0073,1.24455,0,1.83219,8.8472,-1.75076,6.67683,-12.8963,-57.1037,-9.27831,0.0263452,1.01788,6.46341,-1.89024,17.1037
6887.62,21.2605,1.44147,0,2.13636,9.37411,-1.41067,10.1524,-10.9146,-57.5,-9.68067,0.122146,0.907712,8.41463,-2.34756,16.128
6887.63,20.4576,1.53969,0,1.6813,10.1597,-1.00351,5.91463,-15.8841,-57.7134,-10.1333,0.182021,0.65384,10.2439,-2.68293,12.1646
6887.64,19.6613,1.57825,0,1.41067,9.83874,-1.32445,5.39634,-27.9573,-56.1585,-10.4854,0.268242,0.443079,12.4085,-2.37805,8.23171
6887.65,18.8829,1.59533,0,1.43462,9.91778,-1.50886,5.64024,-33.4756,-56.0976,-10.5764,0.275427,0.359253,14.6037,-1.82927,4.35976
6887.66,18.1009,1.618,0,1.43222,10.2866,-1.26697,0.609756,-35.2439,-57.439,-10.4591,0.294587,0.378413,16.0061,-1.7378,1.55488
6887.67,17.3298,1.65185,0,1.60706,10.0854,-1.18553,-3.93293,-42.0122,-60.2134,-10.1836,0.182021,0.402363,15.8232,-1.46341,-0.0609756
6887.68,16.5213,1.71946,0,1.26697,10.0112,-1.6813,-7.28659,-49.5732,-61.8598,-9.93454,0.0191602,0.524509,15.061,-1.98171,-0.396341
6887.69,15.7022,1.77126,0,1.26697,9.65432,-1.96392,-5.4878,-56.7683,-65.1219,-9.78605,-0.0670605,0.486189,14.4207,-2.59146,-0.579268
6887.7,14.9129,1.82677,0,1.61424,9.7621,-1.80345,-5.88415,-64.1463,-67.6524,-9.67588,-0.0814307,0.519719,13.1402,-3.59756,-0.243902
6887.71,14.1864,1.873,0,2.15073,9.75012,-1.92081,-11.2195,-67.7134,-69.0854,-9.62798,-0.0239502,0.490979,12.1951,-3.84146,0.731707
6887.72,13.5403,1.85969,0,2.73511,9.50104,-2.20581,-13.4756,-66.8293,-69.7561,-9.48428,0.124541,0.253872,10.6707,-3.9939,1.46341
6887.73,12.9328,1.83389,0,2.78301,9.25675,-2.32077,-12.378,-65.0915,-68.5061,-9.44596,0.105381,0.198787,9.35976,-4.5122,2.59146
6887.74,12.4001,1.78268,0,3.2237,9.06994,-2.47166,-10.5793,-61.0671,-67.8963,-9.41722,0.0502954,0.0886157,8.75,-5.06098,2.59146
6887.75,11.9637,1.70903,0,3.81048,8.98372,-2.40699,-9.81707,-54.4207,-66.1281,-9.34297,-0.0550855,-0.0143701,8.01829,-5.79268,1.98171
6887.76,11.5983,1.61525,0,4.31104,8.99569,-2.28964,-11.4634,-44.5427,-65.1219,-9.30226,-0.143701,-0.110171,8.68902,-6.43293,0.762195
6887.77,11.2838,1.49674,0,4.426,8.66279,-2.59381,-11.25,-29.8171,-63.6585,-9.21364,-0.184417,-0.225132,8.9939,-6.82927,-0.243902
6887.78,11.0015,1.32998,0,4.29427,8.18857,-2.74709,-7.07317,-12.9573,-62.2561,-9.12502,-0.241897,-0.435894,10.3659,-7.04268,-1.43293
6887.79,10.7155,1.12677,0,3.90388,7.99937,-2.57465,-3.2622,0.487805,-59.8171,-9.06036,-0.174836,-0.603545,11.2805,-6.76829,-2.13415
