time,angle1,angle2,intgangle,accX1,accY1,accZ1,gyroX1,gyroY1,gyroZ1,accX2,accY2,accZ2,gyroX2,gyroY2,gyroZ2
6698.16,98.7024,-2.94091,0,9.52978,-1.54,2.29443,-0.365854,-0.365854,-1.03659,-9.92257,0.0479004,-0.490979,-0.0609756,0.0304878,7.04268
6698.17,98.7098,-2.92519,0,9.5681,-1.54718,2.33514,-0.426829,0.243902,-0.914634,-9.90101,0.0670605,-0.479004,-0.0609756,0.27439,6.89024
6698.18,98.7153,-2.93714,0,9.56092,-1.54239,2.33514,-0.487805,0.213415,-0.97561,-9.88904,0.107776,-0.531694,-0.152439,0.640244,6.89024
6698.19,98.7267,-2.9581,0,9.53936,-1.5879,2.41178,-0.213415,0.396341,-1.15854,-9.88425,0.105381,-0.56283,-0.182927,1.06707,6.92073
6698.2,98.7409,-2.96681,0,9.48667,-1.60706,2.38065,-0.213415,0.670732,-1.28049,-9.92257,0.112566,-0.536484,-0.0304878,1.15854,6.70732
6698.21,98.7494,-2.99154,0,9.5705,-1.59987,2.39741,0.121951,0.914634,-1.34146,-9.91778,0.100591,-0.5772,-0.304878,0.914634,6.70732
6698.22,98.7553,-2.98975,0,9.53697,-1.57353,2.38783,0.0609756,0.823171,-1.28049,-9.93454,0.150886,-0.512534,-0.152439,1.37195,6.7378
6698.23,98.7607,-2.98155,0,9.57529,-1.57353,2.39502,0.182927,0.609756,-1.21951,-9.93215,0.172441,-0.495769,-0.0914634,1.0061,6.92073
6698.24,98.7657,-2.95813,0,9.55134,-1.55437,2.37107,0.426829,0.609756,-1.06707,-9.94173,0.124541,-0.457449,-0.243902,0.853659,6.79878
6698.25,98.7599,-2.95998,0,9.50583,-1.51844,2.33754,0,0.152439,-1.4939,-9.98484,0.143701,-0.519719,-0.396341,0.548781,6.92073
6698.26,98.7626,-2.94645,0,9.48188,-1.56155,2.36867,0.213415,0.243902,-1.46341,-9.96328,0.174836,-0.486189,-0.640244,0.426829,6.79878
6698.27,98.7594,-2.94156,0,9.50104,-1.53281,2.3567,0.304878,0.365854,-1.4939,-9.9537,0.0766406,-0.500559,-0.548781,0.609756,7.0122
6698.28,98.7561,-2.95948,0,9.49865,-1.50886,2.41897,0.0304878,0.457317,-1.18902,-9.92017,0.0718506,-0.550855,-0.701219,0.670732,7.19512
6698.29,98.7496,-2.96199,0,9.5202,-1.50647,2.44292,0.213415,0.487805,-1.37195,-9.88664,0.0790356,-0.517324,-0.609756,1.25,7.07317
6698.3,98.7499,-2.98877,0,9.52499,-1.52563,2.49801,0.182927,0.365854,-1.09756,-9.93933,0.0981958,-0.59157,-0.27439,1.21951,6.85976
6698.31,98.7548,-3.00014,0,9.55134,-1.53042,2.43573,0.152439,0.27439,-0.792683,-9.94412,0.100591,-0.55325,-0.182927,1.40244,6.70732
6698.32,98.7549,-2.99114,0,9.55852,-1.51126,2.41178,0,-0.152439,-0.823171,-9.98484,0.114961,-0.495769,-0.579268,1.18902,6.64634
6698.33,98.7557,-2.98701,0,9.48188,-1.4921,2.41178,0.152439,0.0914634,-0.670732,-10.0064,0.0981958,-0.510139,-0.487805,1.06707,6.61585
6698.34,98.7603,-2.97748,0,9.46751,-1.50647,2.43573,-0.0914634,-0.121951,-0.670732,-10.0016,0.0958008,-0.498164,-0.487805,0.670732,6.58537
6698.35,98.7632,-2.98425,0,9.45314,-1.50886,2.44771,0.0609756,-0.304878,-0.853659,-9.99442,0.0766406,-0.534089,-0.335366,0.426829,6.37195
6698.36,98.7682,-2.98469,0,9.46033,-1.52563,2.44292,-0.304878,-0.365854,-0.914634,-9.95849,0.0431104,-0.519719,-0.426829,0.426829,6.70732
6698.37,98.7654,-2.98596,0,9.46033,-1.50647,2.43334,-0.335366,-0.121951,-1.18902,-9.92736,0.0407153,-0.519719,-0.243902,0.121951,6.89024
6698.38,98.764,-3.00573,0,9.52499,-1.51605,2.43813,-0.335366,-0.213415,-1.06707,-9.91538,0.0167651,-0.555645,-0.0304878,0.335366,6.55488
6698.39,98.7582,-3.0174,0,9.55373,-1.51365,2.43334,-0.609756,-0.457317,-1.31098,-9.93694,0.00479004,-0.546064,0.182927,0.457317,6.61585
6698.4,98.7558,-3.05011,0,9.53457,-1.51126,2.41418,-0.945122,-0.518293,-1.06707,-9.92736,0,-0.579595,0.548781,-0.0914634,6.55488
6698.41,98.7535,-3.07994,0,9.52739,-1.52084,2.39981,-0.701219,-0.27439,-1.21951,-9.97765,0.00718506,-0.58678,0.426829,-0.152439,6.34146
6698.42,98.752,-3.10016,0,9.53218,-1.52563,2.41418,-1.09756,-0.579268,-1.21951,-10.0088,-0.0215552,-0.584385,1.31098,-0.487805,6.31098
6698.43,98.7517,-3.12909,0,9.47949,-1.51605,2.39262,-0.792683,-0.670732,-1.12805,-10.0399,-0.0167651,-0.6251,1.67683,-0.945122,6.03659
6698.44,98.7469,-3.16996,0,9.50823,-1.50886,2.41418,-0.853659,-0.853659,-1.31098,-10.0974,0.00718506,-0.656235,2.5,-0.640244,5.57927
6698.45,98.7521,-3.2174,0,9.48907,-1.55437,2.43813,-1.21951,-0.731707,-1.21951,-10.1046,0.0550855,-0.692161,2.56098,-0.853659,5.54878
6698.46,98.755,-3.2503,0,9.50104,-1.54239,2.43334,-1.25,-1.0061,-1.18902,-10.0687,0.138911,-0.65863,2.40854,-0.914634,5.2439
6698.47,98.7685,-3.25962,0,9.55373,-1.55437,2.36388,-1.06707,-0.853659,-0.579268,-10.0136,0.122146,-0.598755,2.2561,-1.31098,5.03049
6698.48,98.784,-3.25026,0,9.55613,-1.58071,2.41897,-0.97561,-0.853659,-0.731707,-9.96328,0.213157,-0.536484,1.61585,-1.82927,4.78659
6698.49,98.8061,-3.25579,0,9.53457,-1.5879,2.42376,-0.792683,-0.762195,-0.518293,-9.96328,0.201182,-0.58678,1.31098,-1.85976,4.57317
6698.5,98.8397,-3.26147,0,9.48188,-1.61903,2.37825,-0.548781,-0.762195,-0.457317,-9.99442,0.220342,-0.59157,0.853659,-2.16463,4.60366
6698.51,98.8853,-3.28323,0,9.45314,-1.66454,2.34951,-0.670732,-0.731707,-0.457317,-9.97047,0.198787,-0.64905,0.487805,-2.04268,4.60366
6698.52,98.9351,-3.27682,0,9.41243,-1.67891,2.4046,-0.304878,-0.914634,-0.457317,-9.95849,0.215552,-0.550855,0.121951,-1.76829,4.5122
6698.53,98.9638,-3.27252,0,9.4268,-1.67412,2.37586,-0.487805,-1.55488,-1.0061,-9.93933,0.186812,-0.555645,0.0914634,-1.89024,4.57317
6698.54,98.9882,-3.25244,0,9.45075,-1.67891,2.41897,-0.121951,-1.40244,-1.12805,-9.93694,0.150886,-0.498164,-0.0609756,-2.0122,4.93902
6698.55,98.9975,-3.22734,0,9.50104,-1.64538,2.41178,-0.335366,-1.4939,-1.46341,-9.88904,0.134121,-0.479004,-0.365854,-1.79878,5.15244
6698.56,98.9934,-3.21822,0,9.49625,-1.57353,2.37346,-0.152439,-1.79878,-1.58537,-9.87946,0.0766406,-0.526904,-0.457317,-1.98171,4.69512
6698.57,98.9833,-3.18475,0,9.53936,-1.56634,2.38544,-0.27439,-1.76829,-1.89024,-9.9058,0.0455054,-0.443079,-0.182927,-1.89024,4.48171
6698.58,98.9726,-3.15976,0,9.52499,-1.53521,2.39023,-0.121951,-1.92073,-1.58537,-9.92257,0.0742456,-0.462239,-0.27439,-2.19512,4.45122
6698.59,98.9531,-3.12816,0,9.53697,-1.48012,2.39502,-0.27439,-1.67683,-1.58537,-9.97047,0.126936,-0.438289,-0.152439,-2.0122,4.45122
6698.6,98.952,-3.10553,0,9.51541,-1.56874,2.38065,-0.426829,-1.61585,-1.34146,-9.95849,0.193997,-0.459844,-0.457317,-2.40854,4.60366
6698.61,98.9483,-3.07695,0,9.53457,-1.55916,2.36628,-0.487805,-1.76829,-1.37195,-9.9537,0.177231,-0.431104,-0.762195,-2.56098,4.42073
6698.62,98.9401,-3.0504,0,9.53936,-1.55197,2.38304,-0.548781,-1.79878,-1.64634,-9.97765,0.155676,-0.433499,-1.12805,-2.68293,4.78659
6698.63,98.9356,-3.02499,0,9.52499,-1.53521,2.3567,-0.365854,-1.64634,-1.15854,-9.92736,0.102986,-0.428708,-1.61585,-3.04878,5
6698.64,98.9246,-3.00558,0,9.54415,-1.51844,2.34951,-0.243902,-1.85976,-1.43293,-10.0016,0.0119751,-0.450264,-1.98171,-3.35366,5.2439
6698.65,98.9139,-2.98444,0,9.54894,-1.54958,2.33035,-0.335366,-1.7378,-1.85976,-10.0112,-0.0622705,-0.438289,-1.79878,-3.9939,5.39634
6698.66,98.9013,-2.97908,0,9.52739,-1.54,2.37825,-0.609756,-2.10366,-1.98171,-10.0232,-0.107776,-0.502954,-1.85976,-3.96341,5.42683
6698.67,98.8889,-2.97036,0,9.60403,-1.52563,2.30401,-0.731707,-2.10366,-1.61585,-9.98963,-0.124541,-0.486189,-1.28049,-3.53659,5.45732
6698.68,98.8733,-2.95286,0,9.53697,-1.49449,2.29922,-0.945122,-1.37195,-1.64634,-9.94652,-0.0981958,-0.445474,-0.914634,-3.71951,5.27439
6698.69,98.8664,-2.94633,0,9.58966,-1.54479,2.30161,-0.792683,-1.4939,-1.4939,-9.88904,-0.0646655,-0.486189,-0.762195,-3.32317,5.39634
6698.7,98.8628,-2.93231,0,9.57768,-1.56155,2.32556,-0.945122,-1.4939,-1.4939,-9.89383,-0.0862207,-0.455054,-0.548781,-3.14024,5.39634
6698.71,98.8562,-2.92646,0,9.63995,-1.54,2.24174,-0.487805,-1.06707,-1.31098,-9.90101,-0.0814307,-0.486189,-0.213415,-3.01829,5.36585
6698.72,98.8556,-2.90144,0,9.57768,-1.54958,2.28006,-0.762195,-0.457317,-1.12805,-9.91778,-0.0574805,-0.407153,-0.0914634,-3.2622,5.64024
6698.73,98.8544,-2.88071,0,9.53697,-1.54958,2.27287,-0.823171,-0.487805,-1.28049,-9.91538,-0.0383203,-0.419128,-0.0914634,-3.56707,5.4878
6698.74,98.8572,-2.84923,0,9.54415,-1.56634,2.23934,-0.792683,-0.243902,-1.18902,-9.92736,-0.0191602,-0.371228,-0.365854,-3.53659,5.67073
6698.75,98.8546,-2.84823,0,9.4747,-1.54239,2.27287,-0.823171,-0.701219,-1.43293,-9.93694,0.0167651,-0.493374,-0.335366,-3.47561,5.88415
6698.76,98.8566,-2.83181,0,9.51302,-1.56874,2.27048,-0.243902,-1.28049,-1.34146,-9.92975,0,-0.428708,-0.548781,-3.47561,6.12805
6698.77,98.8566,-2.81868,0,9.53457,-1.54479,2.28006,-0.548781,-1.37195,-1.12805,-9.93454,-0.0143701,-0.440684,-0.548781,-3.07927,6.46341
6698.78,98.8649,-2.79745,0,9.54415,-1.57592,2.34233,-0.213415,-1.31098,-0.945122,-9.91299,-0.00958008,-0.404758,-0.213415,-3.07927,6.79878
6698.79,98.8739,-2.77528,0,9.54894,-1.5879,2.36149,-0.640244,-1.34146,-1.0061,-9.87227,-0.0287402,-0.397573,-0.426829,-2.83537,6.82927
6698.8,98.8873,-2.75821,0,9.58726,-1.59748,2.33514,-0.518293,-0.670732,-0.762195,-9.88185,0.00479004,-0.414338,-0.548781,-2.80488,7.31707
6698.81,98.8976,-2.74816,0,9.5681,-1.5855,2.33275,-0.579268,-0.640244,-0.823171,-9.89143,0.00479004,-0.440684,-0.365854,-2.43902,7.04268
6698.82,98.8998,-2.73832,0,9.56092,-1.56874,2.26329,-0.396341,-0.548781,-1.12805,-9.9082,-0.0359253,-0.440684,-0.121951,-2.37805,7.2561
6698.83,98.9028,-2.72533,0,9.54415,-1.58071,2.27766,-0.640244,-0.0304878,-1.25,-9.92257,-0.0550855,-0.426313,0.0609756,-2.62195,7.04268
6698.84,98.9057,-2.7221,0,9.50344,-1.5855,2.29203,-0.548781,0.243902,-1.40244,-9.98244,-0.0311353,-0.464634,0,-2.92683,7.19512
6698.85,98.9044,-2.70468,0,9.54415,-1.56874,2.27287,-0.457317,0.213415,-1.40244,-9.98963,-0.00958008,-0.407153,0.243902,-2.86585,7.13415
6698.86,98.9128,-2.67425,0,9.55134,-1.61424,2.29443,-0.213415,0.121951,-1.25,-10.0184,-0.0143701,-0.352068,0.304878,-2.89634,7.31707
6698.87,98.9101,-2.6454,0,9.58008,-1.57353,2.28724,-0.365854,0.0304878,-1.46341,-9.99442,-0.0359253,-0.349673,0.396341,-3.29268,7.2561
6698.88,98.9125,-2.6172,0,9.59445,-1.58311,2.24174,-0.213415,0.182927,-1.18902,-9.99921,0.0143701,-0.347278,0.182927,-3.32317,7.31707
6698.89,98.9096,-2.58827,0,9.60403,-1.56395,2.25611,-0.27439,0.182927,-1.31098,-9.98963,-0.0119751,-0.337698,0.0304878,-3.59756,7.43902
6698.9,98.9083,-2.56663,0,9.58726,-1.55197,2.26329,-0.548781,0.304878,-1.06707,-10.0112,-0.0263452,-0.364043,0.213415,-3.59756,7.34756
6698.91,98.9112,-2.5488,0,9.55613,-1.55676,2.23934,-0.457317,0.670732,-0.914634,-10.0112,0.0287402,-0.376018,0.213415,-3.78049,7.31707
6698.92,98.9156,-2.52534,0,9.5202,-1.60227,2.2609,-0.182927,0.823171,-1.43293,-9.98005,0.00718506,-0.347278,-0.0304878,-4.05488,7.43902
6698.93,98.9227,-2.51101,0,9.58487,-1.59269,2.26569,0.213415,0.640244,-1.0061,-10.0088,0.0383203,-0.383203,0.335366,-4.29878,7.53049
6698.94,98.9214,-2.48917,0,9.53697,-1.54718,2.2609,0.27439,0.670732,-1.09756,-10.0615,0.0981958,-0.349673,0.121951,-4.63415,7.37805
6698.95,98.9237,-2.46905,0,9.62558,-1.56874,2.19863,0.304878,0.701219,-0.914634,-10.095,0.0526904,-0.354463,0.213415,-4.84756,7.40854
6698.96,98.926,-2.45545,0,9.55852,-1.57113,2.28485,0.609756,0.579268,-1.09756,-10.0591,0.100591,-0.378413,-0.27439,-5.27439,7.5
6698.97,98.9329,-2.41726,0,9.58008,-1.59508,2.29443,0.579268,0.884146,-1.03659,-9.98963,0.0598755,-0.265847,-0.0304878,-5.88415,7.43902
6698.98,98.9332,-2.40225,0,9.51781,-1.55676,2.29443,0.579268,0.945122,-1.12805,-10.0136,0.0407153,-0.361648,-0.609756,-5.64024,7.2561
6698.99,98.9408,-2.39038,0,9.47949,-1.5855,2.33993,0.182927,0.792683,-1.09756,-9.97047,0.0502954,-0.371228,-0.182927,-5.64024,7.5
6699,98.945,-2.37479,0,9.51062,-1.56874,2.4022,0.0304878,1.12805,-1.0061,-9.95131,0.0263452,-0.352068,0.243902,-5.27439,7.86585
6699.01,98.9525,-2.33944,0,9.48188,-1.60706,2.32556,0.213415,0.701219,-1.31098,-9.95849,0.0479004,-0.263452,-0.0304878,-5.57927,7.62195
6699.02,98.9578,-2.3097,0,9.45554,-1.5855,2.36628,0.426829,0.579268,-1.25,-9.98484,0.0958008,-0.282612,0.0304878,-6.12805,7.80488
6699.03,98.9528,-2.26672,0,9.50823,-1.56874,2.40939,0.487805,0.243902,-1.64634,-10.0232,0.0862207,-0.220342,-0.213415,-6.58537,7.80488
6699.04,98.9497,-2.23303,0,9.50823,-1.5879,2.37346,0.487805,-0.121951,-1.7378,-10.0208,0.0981958,-0.253872,-0.396341,-6.82927,7.7439
6699.05,98.9404,-2.20291,0,9.50583,-1.53042,2.34472,0.518293,0.304878,-1.52439,-10.0016,0.138911,-0.263452,-0.518293,-7.19512,7.5
6699.06,98.9312,-2.17529,0,9.49865,-1.53521,2.37107,0.487805,0.365854,-1.61585,-9.9561,0.0790356,-0.268242,-0.365854,-7.5,7.53049
6699.07,98.9289,-2.14252,0,9.49386,-1.57113,2.38065,0.27439,0.609756,-1.55488,-9.99202,0.0335303,-0.241897,-0.609756,-7.77439,7.5
6699.08,98.931,-2.11281,0,9.49625,-1.59269,2.41178,0.152439,0.304878,-1.4939,-9.95849,0.0335303,-0.249082,-0.548781,-8.07927,7.22561
6699.09,98.9245,-2.09034,0,9.50583,-1.57353,2.37586,0.0304878,0.152439,-1.89024,-9.9561,0.0191602,-0.275427,-0.121951,-7.86585,7.19512
6699.1,98.912,-2.07071,0,9.47949,-1.54718,2.38304,0.182927,0.0304878,-2.13415,-9.98963,0.0167651,-0.285007,-0.152439,-7.95732,7.19512
6699.11,98.9081,-2.02433,0,9.48667,-1.57113,2.35191,0.152439,-0.335366,-1.7378,-10.0519,0.0431104,-0.165256,0.152439,-8.47561,7.37805
6699.12,98.8934,-1.95477,0,9.50823,-1.50886,2.25371,0.0609756,-0.426829,-1.79878,-10.107,0.0383203,-0.0550855,0.121951,-8.90244,7.34756
6699.13,98.879,-1.91301,0,9.52499,-1.48731,2.29203,0.426829,-0.243902,-1.43293,-10.1285,0.117356,-0.167651,-0.152439,-9.69512,7.28659
6699.14,98.8722,-1.86252,0,9.55134,-1.53042,2.28485,0.426829,-0.365854,-1.37195,-10.1597,0.0694556,-0.122146,0.0304878,-10.2744,6.98171
6699.15,98.8624,-1.79783,0,9.57529,-1.49928,2.29443,0.97561,-0.335366,-1.09756,-10.1357,0.0359253,-0.0502954,-0.27439,-11.189,7.07317
6699.16,98.8635,-1.73508,0,9.58966,-1.55437,2.17707,1.70732,0.365854,-1.03659,-10.1094,0.0455054,-0.0479004,-0.518293,-11.7378,7.10366
6699.17,98.869,-1.67419,0,9.50344,-1.58311,2.25611,2.13415,0.853659,-1.28049,-10.0758,0.0431104,-0.0455054,-0.609756,-12.378,6.85976
6699.18,98.863,-1.61677,0,9.4268,-1.55197,2.39023,1.52439,-0.182927,-1.89024,-10.0088,0.0670605,-0.0502954,-0.579268,-12.8963,7.0122
6699.19,98.8496,-1.55229,0,9.46512,-1.55197,2.39981,0.945122,-1.92073,-2.43902,-10.0208,0.0287402,-0.00958008,-0.487805,-13.3841,7.04268
6699.2,98.8303,-1.49877,0,9.54894,-1.50647,2.33275,1.25,-2.04268,-2.2561,-10.1046,0.0455054,-0.0479004,-0.213415,-14.3293,7.0122
6699.21,98.8186,-1.43759,0,9.51302,-1.52323,2.34712,1.76829,-1.25,-1.89024,-10.1094,0.0646655,-0.00479004,0,-14.8171,7.37805
6699.22,98.8133,-1.35503,0,9.54894,-1.54958,2.33754,1.67683,-2.0122,-1.64634,-10.1453,0.102986,0.100591,-0.0304878,-16.0061,7.5
6699.23,98.7967,-1.26631,0,9.63995,-1.48012,2.37825,2.07317,-2.31707,-1.46341,-10.1118,0.0910107,0.141306,-0.152439,-17.1037,7.28659
6699.24,98.7893,-1.19371,0,9.61121,-1.52563,2.39981,1.4939,-2.2561,-1.40244,-10.0423,0.0910107,0.0838257,-0.0304878,-17.9573,7.22561
6699.25,98.7851,-1.132,0,9.59924,-1.49928,2.34712,1.4939,-1.43293,-0.762195,-10.0471,0.0526904,0.0479004,-0.182927,-18.4451,7.22561
6699.26,98.7833,-1.0694,0,9.57768,-1.50168,2.36388,1.25,0.0609756,-0.670732,-10.0471,0.0143701,0.0622705,0.213415,-18.9634,7.04268
6699.27,98.7959,-0.996174,0,9.64953,-1.60466,2.33275,0.731707,1.09756,-0.914634,-10.0639,-0.00239502,0.119751,0.0914634,-19.7866,6.64634
6699.28,98.816,-0.915626,0,9.83395,-1.70046,2.33514,0.914634,1.4939,-1.0061,-10.1118,0.0119751,0.165256,0.335366,-20.5183,7.0122
6699.29,98.8332,-0.834863,0,9.47709,-1.5855,2.38544,1.12805,2.07317,-0.792683,-10.0902,0,0.179626,0.731707,-21.0061,7.10366
6699.3,98.8418,-0.751985,0,9.17772,-1.52802,2.5962,0.396341,0.609756,-1.25,-10.119,0.0167651,0.203577,0.853659,-21.311,7.31707
6699.31,98.8446,-0.663517,0,9.2807,-1.53521,2.51477,-0.243902,-0.0914634,-1.43293,-10.0806,0.0383203,0.241897,0.792683,-21.7073,7.43902
6699.32,98.8407,-0.529563,0,9.31663,-1.54718,2.4549,-0.365854,-0.792683,-1.95122,-10.0495,0.0191602,0.457449,0.182927,-22.8049,8.04878
6699.33,98.8351,-0.393137,0,9.31423,-1.54239,2.5004,-1.0061,-1.40244,-2.04268,-10.004,0.0263452,0.488584,0.27439,-24.1463,7.7439
6699.34,98.8271,-0.275479,0,9.40524,-1.59748,2.40699,-1.4939,-1.21951,-2.68293,-10.0016,0.0359253,0.428708,-0.0914634,-24.9695,8.14024
6699.35,98.8174,-0.166305,0,9.44835,-1.62861,2.37825,-1.64634,-1.46341,-3.10976,-10.0232,0.0143701,0.411943,-0.396341,-25.8537,7.9878
6699.36,98.8038,-0.0712989,0,9.41722,-1.64298,2.44771,-1.92073,-2.59146,-3.68902,-10.0519,0,0.368833,-0.27439,-26.5549,8.04878
6699.37,98.7869,0.00637752,0,9.41961,-1.70525,2.41418,-2.7439,-3.44512,-4.7561,-10.0591,0.0383203,0.308958,-0.0609756,-26.4634,7.62195
6699.38,98.7744,0.101516,0,9.46991,-1.76273,2.29922,-2.62195,-2.92683,-4.90854,-10.1214,0.0167651,0.402363,0.335366,-26.7378,7.89634
6699.39,98.7437,0.224021,0,9.59445,-1.71483,2.28006,-2.56098,-2.07317,-5.91463,-10.1357,0.0431104,0.541274,0.457317,-27.9268,7.59146
6699.4,98.7069,0.341324,0,9.59684,-1.66454,2.26329,-2.89634,-0.792683,-6.0061,-10.2243,0.0143701,0.543669,0.792683,-28.7805,7.53049
6699.41,98.6572,0.458151,0,9.63756,-1.59029,2.24174,-3.29268,0.304878,-6.43293,-10.2004,0.0287402,0.560435,1.06707,-29.6341,7.16463
6699.42,98.5982,0.578891,0,9.70222,-1.52563,2.25132,-3.44512,1.34146,-6.58537,-10.1645,0.0670605,0.59636,1.06707,-30.1829,7.19512
6699.43,98.5397,0.70907,0,9.72138,-1.50168,2.24413,-3.23171,2.40854,-6.34146,-10.0711,0.0550855,0.65384,0.853659,-30.6402,6.76829
6699.44,98.4853,0.851716,0,9.8124,-1.47773,2.20342,-3.01829,3.2622,-5.60976,-10.0519,0.0526904,0.730481,0.548781,-31.2805,6.70732
6699.45,98.4348,1.0392,0,9.82916,-1.42264,2.14833,-2.46951,4.48171,-4.63415,-10.0615,0.0790356,0.955613,0.182927,-32.4695,6.70732
6699.46,98.394,1.22889,0,9.75491,-1.42983,2.12438,-2.04268,5.42683,-3.96341,-10.1237,0.0910107,1.00351,-0.396341,-34.0244,6.58537
6699.47,98.368,1.35881,0,9.62558,-1.46096,2.13636,-1.82927,5.54878,-3.17073,-10.0998,0.122146,0.766406,-0.487805,-34.3902,6.4939
6699.48,98.3619,1.46133,0,9.55134,-1.64777,2.1172,-2.04268,5.57927,-3.65854,-10.0064,0.150886,0.661025,-0.518293,-33.9634,7.16463
6699.49,98.3649,1.62198,0,9.46272,-1.75794,2.13157,-1.0061,5.12195,-4.2378,-9.9537,0.179626,0.931663,-0.365854,-34.5427,7.5
6699.5,98.3502,1.80639,0,9.39806,-1.66454,2.15552,-0.487805,4.66463,-4.96951,-9.94412,0.198787,1.06339,0.152439,-35.3659,7.89634
6699.51,98.3326,2.00753,0,9.37171,-1.67651,2.22737,-0.152439,4.11585,-5.4878,-9.90101,0.213157,1.16398,-0.243902,-36.4939,8.29268
6699.52,98.31,2.22988,0,9.36692,-1.67412,2.23455,-0.243902,2.9878,-6.0061,-9.91059,0.222737,1.29331,-0.97561,-37.8659,8.59756
6699.53,98.2847,2.48547,0,9.47949,-1.65017,2.26808,0.213415,2.62195,-5.79268,-9.89862,0.184417,1.47773,-1.21951,-39.0549,8.35366
6699.54,98.2507,2.73944,0,9.56092,-1.57592,2.2609,0.914634,2.13415,-5.67073,-9.93694,0.203577,1.52084,-2.10366,-39.9085,8.04878
6699.55,98.2181,2.96954,0,9.58008,-1.56634,2.23216,1.40244,2.22561,-5.45732,-9.83395,0.122146,1.4442,-1.92073,-39.4512,7.43902
6699.56,98.1868,3.20879,0,9.58966,-1.54718,2.36149,1.64634,1.85976,-5.15244,-9.81958,0.0790356,1.52323,-1.46341,-39.1159,6.7378
6699.57,98.1519,3.43251,0,9.63037,-1.51365,2.37586,1.21951,2.34756,-5.09146,-9.80281,0.00239502,1.49449,-0.97561,-38.4146,6.34146
6699.58,98.1109,3.61762,0,9.56571,-1.47054,2.20102,1.85976,3.53659,-5.39634,-9.8124,-0.0455054,1.36516,-0.396341,-37.6829,5.57927
6699.59,98.0615,3.8029,0,9.54176,-1.38193,2.26329,2.2561,4.32927,-5.30488,-9.79323,-0.0215552,1.3963,0.426829,-36.7683,5.09146
6699.6,98.0006,4.04795,0,9.48667,-1.28852,2.27527,1.89024,4.5122,-5.54878,-9.79803,-0.00239502,1.69328,0.945122,-37.5915,4.69512
6699.61,97.9382,4.30733,0,9.49625,-1.2502,2.32556,1.40244,4.96951,-5.33537,-9.82197,0.0431104,1.80345,1.25,-39.1159,4.66463
6699.62,97.8775,4.59518,0,9.59445,-1.21188,2.34712,1.15854,6.06707,-4.66463,-9.91778,0.0574805,1.99505,1.25,-40.8841,5
6699.63,97.8281,4.86813,0,9.58487,-1.3005,2.41897,1.15854,6.64634,-4.72561,-9.89143,0.0790356,1.9735,1.03659,-41.3415,5.21341
6699.64,97.7912,5.16744,0,9.54894,-1.40109,2.53633,1.46341,6.18902,-4.84756,-9.94412,-0.00239502,2.15312,1.52439,-42.2866,5.18293
6699.65,97.7571,5.43796,0,9.51781,-1.50407,2.60339,1.89024,5.15244,-5.91463,-9.86988,-0.0167651,2.05972,1.61585,-42.622,5.57927
6699.66,97.7191,5.70921,0,9.42919,-1.53521,2.60339,2.04268,3.9939,-6.92073,-9.77168,-0.0287402,2.09085,2.04268,-42.5,5.88415
6699.67,97.6733,6.00095,0,9.51781,-1.5376,2.59381,2.07317,3.81098,-7.65244,-9.7118,-0.0407153,2.21779,2.34756,-42.9878,5.51829
6699.68,97.6222,6.27303,0,9.49386,-1.46815,2.56028,2.7439,4.63415,-7.5,-9.60163,0.0167651,2.15552,2.19512,-44.2378,5.97561
6699.69,97.56,6.55744,0,9.55134,-1.37714,2.62973,2.04268,6.09756,-7.53049,-9.53457,0.0287402,2.24174,2.40854,-45.2744,6.03659
6699.7,97.4915,6.88032,0,9.51781,-1.36037,2.6465,1.25,6.79878,-8.17073,-9.53457,0.124541,2.46208,2.19512,-46.8598,5.82317
6699.71,97.4398,7.21462,0,9.70222,-1.45617,2.61776,1.28049,7.95732,-7.40854,-9.58008,0.167651,2.58183,2.13415,-48.3841,6.15854
6699.72,97.3742,7.56368,0,9.27591,-1.36516,2.75427,0.97561,7.2561,-8.59756,-9.55613,0.217947,2.70158,2.0122,-49.1463,6.43293
6699.73,97.2944,7.93051,0,8.93103,-1.346,2.76385,-0.426829,4.66463,-10.5793,-9.51541,0.256267,2.83331,1.67683,-49.6646,6.98171
6699.74,97.2232,8.27307,0,9.0891,-1.51126,2.68961,0.670732,2.0122,-11.6463,-9.43638,0.213157,2.76625,1.79878,-48.9939,7.62195
6699.75,97.1249,8.60246,0,9.39327,-1.24541,2.66326,1.55488,-0.182927,-10.7012,-9.3286,0.165256,2.73751,1.95122,-47.8049,7.9878
6699.76,97.0297,8.95452,0,9.55134,-1.37953,2.68242,1.92073,-0.487805,-11.9512,-9.19687,0.0718506,2.85726,1.76829,-47.2866,8.35366
6699.77,96.9072,9.34048,0,9.82197,-1.0562,2.68242,1.67683,-0.762195,-10.6707,-9.15137,-0.00718506,3.05604,1.12805,-47.378,8.29268
6699.78,96.8002,9.75093,0,9.59684,-1.24062,2.61776,0.182927,0.731707,-11.8598,-9.22322,-0.0622705,3.25962,1.09756,-48.7195,8.32317
6699.79,96.6945,10.1175,0,9.60163,-1.22146,2.45969,0.670732,2.5,-11.7073,-9.1849,-0.0862207,3.12071,1.09756,-48.9024,8.41463
6699.8,96.5849,10.4775,0,9.72617,-1.03465,2.47406,0.0914634,3.14024,-9.90854,-9.17053,-0.0287402,3.15185,1.67683,-48.689,8.20122
6699.81,96.4767,10.8538,0,9.331,-1.17835,2.47885,0.457317,3.01829,-12.2866,-9.14418,0.0550855,3.28118,2.34756,-48.4756,8.65854
6699.82,96.3761,11.2448,0,9.55134,-1.31487,2.5004,0.457317,4.35976,-13.0488,-9.0891,0.136516,3.39614,2.7439,-48.2317,8.53659
6699.83,96.2198,11.648,0,9.81479,-0.706531,2.41418,1.64634,2.22561,-11.3415,-9.08191,0.174836,3.52068,2.89634,-48.2927,8.47561
6699.84,96.0826,12.0667,0,9.69025,-0.871787,2.46208,1.37195,0.457317,-11.7988,-9.04359,0.129331,3.65001,2.53049,-48.628,8.23171
6699.85,95.9901,12.4923,0,9.28789,-1.21906,2.53393,1.52439,0.579268,-12.2866,-9.01006,0.119751,3.74581,2.04268,-48.5061,7.53049
6699.86,95.8626,12.9508,0,9.75491,-0.890947,2.52914,1.58537,2.65244,-11.4329,-8.93103,0.0766406,3.9446,1.85976,-48.872,7.0122
6699.87,95.7672,13.4004,0,9.67109,-0.984353,2.65129,1.12805,1.85976,-9.63415,-8.86636,-0.00958008,3.95897,1.64634,-48.7805,6.79878
6699.88,95.6827,13.8552,0,9.3286,-1.21427,2.79499,0.426829,1.46341,-11.9817,-8.73224,-0.0167651,4.00687,1.61585,-47.9573,6.46341
6699.89,95.5876,14.3241,0,9.57529,-1.11368,2.48364,0.27439,3.65854,-11.6463,-8.68195,-0.0359253,4.1338,1.37195,-47.561,6.82927
6699.9,95.5236,14.7747,0,9.39087,-1.35558,2.50759,0.548781,3.38415,-11.8902,-8.61728,-0.0143701,4.10506,1.40244,-46.9207,6.89024
6699.91,95.4241,15.1914,0,9.3765,-1.1065,2.48364,0.823171,4.02439,-12.622,-8.53585,-0.0167651,3.9925,1.89024,-46.3415,7.34756
6699.92,95.3182,15.592,0,9.66151,-1.0107,2.48124,0.792683,4.63415,-11.9207,-8.49992,0.0670605,3.97813,3.04878,-45.7012,7.83537
6699.93,95.1925,16.0325,0,9.8076,-0.613125,2.55788,1.06707,2.43902,-9.26829,-8.5119,0.122146,4.24158,3.2622,-46.0976,8.10976
6699.94,95.0613,16.5156,0,9.06036,-0.66821,2.9794,-0.396341,-1.46341,-11.4024,-8.58136,0.253872,4.56251,2.56098,-47.4695,7.9878
6699.95,94.9667,17.0207,0,9.16574,-1.0562,2.73032,-0.884146,1.06707,-12.7439,-8.64842,0.323328,4.79962,1.82927,-48.628,7.28659
6699.96,94.8332,17.5151,0,9.38369,-0.651445,2.68242,0.762195,1.89024,-11.5854,-8.62926,0.399968,4.83554,0.853659,-48.8415,6.61585
6699.97,94.7139,18.0131,0,9.79323,-0.60115,2.68721,0.640244,3.10976,-9.48171,-8.56459,0.431104,4.91458,0.243902,-48.9024,5.97561
6699.98,94.6398,18.4998,0,9.48428,-0.874182,2.90755,-0.182927,2.89634,-8.68902,-8.44005,0.397573,4.88584,-0.579268,-48.1098,5.73171
6699.99,94.563,18.9568,0,9.45314,-0.876577,2.83091,-1.15854,4.78659,-9.17683,-8.33706,0.342488,4.77567,-0.945122,-47.0732,5.85366
6700,94.5089,19.3915,0,9.8603,-1.10889,2.8357,-1.79878,6.70732,-9.29878,-8.23647,0.184417,4.69903,-1.21951,-46.189,5.79268
6700.01,94.4409,19.8104,0,9.19448,-0.967588,2.67284,0.792683,6.37195,-10,-8.19576,0.00718506,4.68226,-0.762195,-46.8902,6.06707
6700.02,94.3613,20.2534,0,9.18729,-0.900527,2.65847,-0.121951,2.37805,-10.4878,-8.15983,-0.0646655,4.8571,-0.579268,-47.1646,6.95122
6700.03,94.2436,20.7272,0,9.31663,-0.6251,2.7399,0.487805,1.95122,-10.9451,-8.15504,-0.0910107,5.09181,0.396341,-48.2317,8.07927
6700.04,94.1507,21.1822,0,9.97765,-0.675395,2.66805,0.97561,3.04878,-8.71951,-8.1287,-0.0766406,5.07505,0.945122,-48.4451,8.93293
6700.05,94.0578,21.6479,0,9.86748,-0.55325,2.84768,0.731707,4.48171,-7.56098,-8.03769,-0.0574805,5.16127,1.7378,-47.3476,9.60366
6700.06,93.9884,22.1251,0,9.41722,-0.759221,2.73511,-0.335366,5.06098,-8.20122,-7.91554,-0.0119751,5.23312,2.40854,-46.2805,10.5793
6700.07,93.915,22.6019,0,9.41482,-0.785566,2.69919,0.27439,2.95732,-9.08537,-7.81016,0.0694556,5.25707,3.01829,-44.7866,10.3049
6700.08,93.8464,23.0888,0,9.37171,-0.814307,2.81654,0.365854,1.34146,-9.14634,-7.73591,0.0694556,5.35287,2.9878,-43.7805,9.93902
6700.09,93.7757,23.5776,0,9.29747,-0.701741,2.84768,0.27439,0.640244,-8.17073,-7.68083,0.124541,5.42232,2.89634,-42.7134,9.39024
6700.1,93.7238,24.0858,0,9.4268,-0.993933,2.50998,-0.548781,4.5122,-9.87805,-7.64011,0.158071,5.59237,2.34756,-41.7073,8.90244
6700.11,93.6465,24.5896,0,9.78126,-0.814307,2.5004,0.0304878,3.10976,-10,-7.5994,0.227527,5.64506,2.34756,-40.8841,8.23171
6700.12,93.5498,25.0799,0,9.75491,-0.58678,2.49322,1.89024,0.304878,-9.45122,-7.57066,0.237107,5.65943,2.43902,-38.6585,8.17073
6700.13,93.4628,25.5812,0,9.88425,-0.555645,2.67045,0.335366,-0.335366,-8.20122,-7.52276,0.220342,5.78397,2.46951,-37.378,8.04878
6700.14,93.424,26.0886,0,10.404,-0.866997,2.66805,-0.579268,5.18293,-6.61585,-7.48923,0.184417,5.89654,2.62195,-36.25,7.83537
6700.15,93.348,26.5915,0,9.40045,-0.617915,2.58902,1.55488,5.03049,-8.44512,-7.45809,0.119751,5.95641,2.46951,-35.3659,7.62195
6700.16,93.289,27.0683,0,9.33818,-0.689766,2.66087,0.152439,3.38415,-7.80488,-7.37187,0.114961,5.85582,2.53049,-34.4512,7.7439
6700.17,93.2419,27.5385,0,9.50104,-0.790356,2.69679,0.27439,2.5,-7.80488,-7.32876,0.117356,5.88696,2.83537,-33.8415,7.89634
6700.18,93.164,28.021,0,9.51781,-0.63947,2.70877,0.945122,3.75,-9.17683,-7.25691,0.117356,5.99473,3.14024,-33.2317,8.38415
6700.19,93.0838,28.5174,0,9.32142,-0.687371,2.39502,-1.15854,5.73171,-10.3354,-7.19464,0.167651,6.12167,2.83537,-32.8049,8.10976
6700.2,92.9526,29.0154,0,10.1621,-0.340093,2.16031,-0.609756,3.90244,-11.0061,-7.18266,0.205972,6.22945,2.65244,-32.1341,8.07927
6700.21,92.8734,29.4767,0,9.99202,-0.543669,2.40939,0.487805,2.37805,-8.41463,-7.13955,0.273032,6.10011,2.65244,-30.9451,7.5
6700.22,92.7777,29.9427,0,10.0399,-0.275427,2.56267,0.396341,4.02439,-7.10366,-7.12997,0.270637,6.21987,2.43902,-29.2988,7.2561
6700.23,92.7069,30.4025,0,9.11065,-0.383203,2.90037,0.579268,0.823171,-6.46341,-7.18266,0.330513,6.33483,2.31707,-28.7195,6.79878
6700.24,92.6628,30.841,0,9.55134,-0.59636,2.86444,-0.365854,3.10976,-6.28049,-7.13955,0.342488,6.27974,2.07317,-28.4146,6.64634
6700.25,92.6018,31.2783,0,9.31184,-0.488584,2.79499,1.52439,2.86585,-6.92073,-7.15153,0.352068,6.38273,2.31707,-27.4695,6.64634
6700.26,92.5271,31.7215,0,9.36453,-0.440684,2.77583,1.79878,1.79878,-7.80488,-7.10842,0.349673,6.47613,2.0122,-27.439,6.46341
6700.27,92.4666,32.1504,0,9.94652,-0.538879,2.67045,0.945122,4.87805,-7.34756,-7.07728,0.308958,6.46655,1.79878,-26.8598,6.58537
6700.28,92.3701,32.584,0,9.72378,-0.165256,2.68003,2.37805,2.40854,-6.79878,-7.03417,0.294587,6.55277,1.43293,-26.128,6.61585
6700.29,92.312,33.0271,0,9.90101,-0.299377,2.7399,0.670732,4.63415,-4.60366,-6.95035,0.352068,6.62941,1.09756,-25.5793,6.79878
6700.3,92.2747,33.4357,0,9.25675,-0.490979,2.90755,0.731707,2.34756,-5.30488,-6.88089,0.299377,6.46655,1.25,-25.1829,6.89024
6700.31,92.2523,33.8386,0,9.83874,-0.680186,2.66326,-0.487805,5.39634,-5.73171,-6.85694,0.268242,6.50487,0.884146,-24.0854,7.04268
6700.32,92.1998,34.2509,0,9.4723,-0.378413,2.70877,0.97561,2.13415,-5.42683,-6.81383,0.273032,6.61025,0.518293,-23.9329,7.34756
6700.33,92.1442,34.6677,0,9.45554,-0.328118,2.80936,1.61585,1.06707,-5.2439,-6.81862,0.304167,6.73719,-0.0304878,-24.3598,7.22561
6700.34,92.0879,35.0691,0,9.5226,-0.301772,2.8381,1.58537,0.823171,-5.06098,-6.78509,0.306563,6.71084,-0.304878,-24.0244,7.89634
6700.35,92.0453,35.4483,0,9.71659,-0.349673,2.7399,0.731707,1.95122,-4.29878,-6.80904,0.356858,6.69887,-0.0609756,-22.6524,7.83537
6700.36,91.9739,35.8111,0,9.4747,-0.155676,2.6441,1.7378,-0.335366,-5,-6.79228,0.421523,6.67492,-0.0914634,-22.0122,8.01829
6700.37,91.9103,36.1357,0,9.66151,-0.162861,2.69919,1.25,0.27439,-4.39024,-6.77312,0.397573,6.51924,0.0914634,-20.9451,7.71341
6700.38,91.8592,36.4683,0,9.65911,-0.189207,2.70398,1.82927,0.701219,-3.53659,-6.7827,0.364043,6.64857,-0.335366,-21.5244,7.34756
6700.39,91.8224,36.8014,0,9.64953,-0.215552,2.59381,1.52439,1.85976,-2.40854,-6.88089,0.299377,6.82581,-0.365854,-22.1646,6.92073
6700.4,91.7848,37.1246,0,9.73096,-0.222737,2.65847,2.80488,1.09756,-2.68293,-6.91203,0.287402,6.8761,-0.792683,-22.7744,6.25
6700.41,91.7545,37.4404,0,9.59445,-0.318538,2.85247,1.89024,1.34146,-3.35366,-6.7803,0.294587,6.77791,-0.731707,-22.1951,6.12805
6700.42,91.734,37.7695,0,9.59924,-0.347278,2.70877,1.95122,2.28659,-2.80488,-6.71803,0.301772,6.87131,-0.365854,-21.128,6.21951
6700.43,91.7223,38.0972,0,9.60163,-0.431104,2.7399,2.34756,3.14024,-3.04878,-6.64378,0.296982,6.86652,-0.426829,-20,6.43293
6700.44,91.7108,38.4135,0,9.60163,-0.421523,2.8357,2.56098,3.20122,-2.92683,-6.5887,0.285007,6.82102,-0.0914634,-18.7805,6.70732
6700.45,91.7164,38.7265,0,9.62319,-0.452659,2.7902,2.34756,2.34756,-1.92073,-6.56714,0.296982,6.85455,-0.304878,-18.1707,6.89024
6700.46,91.691,39.0387,0,9.4747,-0.292192,2.91474,2.77439,1.25,-2.71341,-6.58151,0.318538,6.94077,-0.701219,-17.8659,6.95122
6700.47,91.6751,39.3268,0,9.49625,-0.335303,2.9339,2.2561,1.64634,-2.40854,-6.61025,0.325723,6.90005,-0.945122,-17.1037,7.13415
6700.48,91.671,39.6075,0,9.54176,-0.371228,2.81894,2.5,2.16463,-1.85976,-6.56954,0.354463,6.88329,-1.06707,-16.2195,7.13415
6700.49,91.6817,39.8802,0,9.40524,-0.407153,2.90276,2.28659,1.82927,-1.37195,-6.49769,0.332908,6.8282,-1.25,-14.6341,6.98171
6700.5,91.6704,40.157,0,8.48316,-0.419128,3.40572,1.06707,-2.0122,-3.71951,-6.48571,0.306563,6.90724,-1.46341,-13.6585,7.0122
6700.51,91.682,40.4196,0,9.22801,-0.519719,2.81894,2.5,-1.09756,-2.56098,-6.47853,0.292192,6.88089,-1.21951,-12.8354,6.85976
6700.52,91.6738,40.6697,0,9.29507,-0.385598,3.01293,2.10366,-1.46341,-2.5,-6.43781,0.275427,6.82581,-1.28049,-11.9512,6.92073
6700.53,91.6639,40.9277,0,9.3765,-0.431104,2.95306,1.7378,-1.28049,-3.14024,-6.45218,0.222737,6.95035,-1.03659,-11.25,7.10366
6700.54,91.6477,41.1687,0,9.56092,-0.378413,2.86205,1.67683,-0.640244,-2.9878,-6.44979,0.205972,6.90724,-0.396341,-10.5183,7.0122
6700.55,91.6652,41.4005,0,9.85072,-0.512534,2.91474,1.40244,0.335366,-1.61585,-6.39949,0.193997,6.85694,-0.0609756,-9.02439,6.58537
6700.56,91.6219,41.6415,0,9.67827,-0.124541,2.97701,2.5,0.243902,-2.22561,-6.34201,0.179626,6.90484,0.365854,-6.92073,6.46341
6700.57,91.5879,41.8784,0,9.69743,-0.191602,2.9794,1.55488,1.37195,-2.34756,-6.40907,0.129331,7.00783,0.640244,-6.03659,6.43293
6700.58,91.5872,42.1142,0,9.54894,-0.330513,3.12311,0.0304878,2.89634,-1.25,-6.38273,0.0934058,7.01741,0.853659,-5.12195,6.12805
6700.59,91.5655,42.3239,0,9.39566,-0.258662,2.94348,0.97561,1.82927,-2.19512,-6.45218,0.122146,6.95753,1.43293,-4.08537,6.25
6700.6,91.5503,42.5322,0,9.29986,-0.316143,3.01054,-0.0304878,0.945122,-2.46951,-6.50248,0.143701,7.02699,1.37195,-3.56707,6.7378
6700.61,91.5229,42.7275,0,9.48188,-0.261057,2.92911,-0.548781,0.304878,-2.86585,-6.53361,0.182021,7.00783,1.34146,-3.23171,6.92073
6700.62,91.4943,42.9161,0,9.57768,-0.232317,2.97461,-0.884146,-0.0304878,-2.62195,-6.55038,0.215552,7.09165,1.67683,-3.96341,7.10366
6700.63,91.463,43.0954,0,9.6663,-0.220342,2.94827,-1.15854,0,-2.77439,-6.56954,0.294587,7.09165,1.79878,-3.71951,7.59146
6700.64,91.4338,43.278,0,9.61361,-0.225132,2.92671,-1.46341,0.731707,-2.71341,-6.51445,0.275427,7.08207,1.82927,-3.53659,7.59146
6700.65,91.41,43.4695,0,9.59684,-0.261057,2.94587,-1.89024,0.792683,-2.71341,-6.48332,0.287402,7.10842,1.92073,-3.10976,7.13415
6700.66,91.3909,43.67,0,9.58487,-0.289797,2.92671,-2.43902,0.97561,-2.68293,-6.40668,0.258662,7.06531,1.76829,-2.7439,7.04268
6700.67,91.3647,43.9122,0,9.5226,-0.261057,2.79259,-2.92683,1.25,-3.07927,-6.39949,0.220342,7.00783,1.12805,-1.58537,6.61585
6700.68,91.3537,44.2251,0,9.49625,-0.359253,2.73751,-3.14024,1.76829,-2.92683,-6.37794,0.196392,7.04854,1.09756,-0.97561,6.21951
6700.69,91.3502,44.531,0,9.54415,-0.397573,2.7878,-2.62195,2.28659,-2.71341,-6.37315,0.189207,7.07968,0.762195,-0.914634,6.46341
6700.7,91.3314,44.8915,0,9.65193,-0.342488,2.81175,-2.95732,0.213415,-3.38415,-6.40189,0.134121,7.08686,1.15854,-0.396341,6.40244
6700.71,91.3124,45.2767,0,9.42201,-0.373623,2.85007,-2.71341,-3.56707,-3.93293,-6.44021,0.158071,7.08207,1.98171,0,6.15854
6700.72,91.2773,45.5058,0,9.29028,-0.308958,2.74469,-3.5061,-4.81707,-4.81707,-6.47613,0.205972,7.07249,2.16463,0.426829,6.46341
6700.73,91.2408,45.7011,0,9.52978,-0.280217,2.73272,-3.81098,-1.43293,-4.57317,-6.45458,0.273032,7.05094,2.83537,0.548781,6.4939
6700.74,91.2092,45.8452,0,9.68306,-0.289797,2.62494,-3.10976,0.762195,-4.20732,-6.4929,0.292192,7.08926,3.10976,0.853659,6.82927
6700.75,91.1686,45.9317,0,9.77886,-0.191602,2.58902,-3.17073,3.47561,-3.96341,-6.50727,0.304167,7.05094,2.9878,1.55488,6.70732
6700.76,91.1309,45.999,0,9.81,-0.141306,2.4525,-5.09146,7.53049,-3.10976,-6.53361,0.306563,7.03657,3.17073,1.70732,6.28049
6700.77,91.1175,46.0729,0,9.42919,-0.387993,2.66087,-5.18293,6.92073,-3.96341,-6.57912,0.282612,7.14434,2.9878,1.7378,6.28049
6700.78,91.1117,46.1375,0,9.61121,-0.445474,2.75427,-3.59756,6.58537,-3.84146,-6.59828,0.287402,7.11081,2.34756,1.40244,5.88415
6700.79,91.1201,46.1909,0,9.60163,-0.522114,2.79738,-0.365854,5.57927,-3.44512,-6.62223,0.261057,7.08207,2.43902,1.09756,6.09756
6700.8,91.1173,46.2508,0,9.80521,-0.376018,2.88839,2.86585,4.72561,-2.68293,-6.58151,0.268242,7.04136,2.10366,0.792683,6.15854
6700.81,91.1277,46.3295,0,9.38129,-0.474214,3.14227,3.71951,5.70122,-2.92683,-6.5887,0.241897,7.06531,2.19512,0.304878,6.67683
6700.82,91.1196,46.363,0,9.45314,-0.364043,2.77822,3.71951,5.15244,-3.20122,-6.62462,0.213157,7.0198,3.07927,0.365854,6.98171
6700.83,91.0992,46.3555,0,9.68546,-0.182021,2.7399,2.04268,8.75,-1.98171,-6.63181,0.167651,6.93837,3.9939,0.365854,7.2561
6700.84,91.0882,46.2689,0,9.31663,-0.404758,2.98419,3.17073,5.45732,-4.05488,-6.70366,0.136516,6.79946,4.78659,0.670732,7.13415
6700.85,91.07,46.1855,0,9.41482,-0.347278,2.95066,5.4878,4.02439,-4.02439,-6.80665,0.131726,6.86892,4.87805,0.731707,6.52439
6700.86,91.0689,46.1013,0,9.22801,-0.416733,3.23088,6.25,2.65244,-3.41463,-6.87131,0.182021,6.96472,4.17683,0.182927,6.18902
6700.87,91.0786,45.9485,0,9.4747,-0.488584,3.14945,6.09756,2.56098,-3.14024,-6.91203,0.234712,6.85694,3.23171,-0.0914634,6.06707
6700.88,91.0794,45.8213,0,9.6639,-0.395178,2.94108,5.4878,3.17073,-2.7439,-6.95035,0.251477,6.84257,3.07927,-0.457317,5.70122
6700.89,91.0732,45.7453,0,9.64235,-0.380808,2.92911,5.64024,1.0061,-3.20122,-6.95035,0.246687,6.86173,3.59756,-1.18902,6.67683
6700.9,91.06,45.6816,0,9.43398,-0.376018,2.96503,5.03049,1.64634,-3.90244,-6.97909,0.241897,6.82581,3.9939,-2.46951,7.31707
6700.91,91.0365,45.6083,0,9.61361,-0.287402,2.91474,5.39634,3.14024,-3.78049,-6.9719,0.158071,6.73,4.39024,-3.07927,7.9878
6700.92,91.0382,45.5272,0,9.51781,-0.455054,3.05604,6.12805,3.84146,-3.47561,-7.03657,0.0766406,6.70605,5.88415,-3.96341,7.83537
6700.93,91.0316,45.4424,0,9.41482,-0.445474,3.30752,5.60976,3.14024,-4.17683,-7.05094,0.110171,6.66534,6.82927,-5.03049,8.01829
6700.94,91.0238,45.3434,0,9.82197,-0.366438,3.15424,4.20732,5.2439,-3.17073,-7.07489,0.234712,6.5863,7.22561,-5.12195,7.59146
6700.95,91.0108,45.2735,0,9.61361,-0.361648,3.07042,5.15244,6.12805,-3.71951,-7.08207,0.316143,6.73719,7.37805,-5.21341,7.53049
6700.96,90.9772,45.2042,0,9.64235,-0.107776,3.14945,5.12195,6.09756,-2.59146,-7.13955,0.383203,6.77551,6.31098,-6.12805,6.98171
6700.97,90.9567,45.1274,0,9.50823,-0.148491,3.07521,3.87195,9.14634,-1.89024,-7.26888,0.407153,6.83299,5.15244,-7.31707,6.46341
6700.98,90.9473,45.0639,0,9.39327,-0.141306,3.08,3.23171,10.061,-0.579268,-7.23056,0.421523,6.85694,4.66463,-9.14634,6.25
6700.99,90.9844,45.0048,0,9.32142,-0.273032,3.19735,2.04268,9.87805,0.396341,-7.24733,0.529299,6.88089,4.35976,-11.4024,6.40244
6701,91.0267,44.9754,0,9.42201,-0.313748,3.19735,4.20732,7.28659,-0.213415,-7.18266,0.60115,6.98388,3.9939,-13.4451,6.98171
6701.01,91.0236,44.9426,0,9.50823,-0.203577,3.2237,3.10976,5.79268,-0.97561,-7.08926,0.62989,6.86413,3.71951,-14.6037,7.2561
6701.02,91.1398,44.9343,0,9.51781,-0.560435,3.1279,3.04878,5.39634,0.0914634,-7.03178,0.64905,6.94795,3.2622,-15.3354,7.10366
6701.03,91.1934,44.9358,0,9.39327,-0.359253,3.15424,3.84146,4.96951,0.213415,-7.0198,0.6251,6.99346,2.34756,-16.128,6.67683
6701.04,91.2037,44.9413,0,9.40524,-0.220342,3.19975,2.04268,6.82927,0.396341,-6.9743,0.536484,6.9719,1.79878,-17.1646,5.94512
6701.05,91.3058,44.9684,0,9.24478,-0.622705,3.17101,2.04268,6.31098,1.0061,-6.84257,0.455054,6.9719,1.7378,-17.8963,5.42683
6701.06,91.3697,44.9979,0,9.29986,-0.459844,3.27399,3.56707,4.81707,-0.426829,-6.76833,0.409548,6.91682,2.0122,-18.5061,5.09146
6701.07,91.4226,45.0268,0,9.5226,-0.56283,3.2716,1.61585,3.14024,-1.0061,-6.75635,0.337698,6.90724,2.71341,-19.0244,4.5122
6701.08,91.4672,45.0884,0,9.4244,-0.775986,3.13269,3.59756,1.40244,-2.83537,-6.61504,0.349673,6.96711,3.23171,-19.8476,4.66463
6701.09,91.5205,45.1843,0,9.40285,-0.780776,3.23567,3.96341,2.19512,-2.34756,-6.44979,0.419128,7.01741,3.07927,-19.3902,5.09146
6701.1,91.5318,45.2998,0,9.30944,-0.570015,3.26441,3.93293,3.96341,-3.20122,-6.37554,0.505349,7.08207,2.77439,-19.3598,5.64024
6701.11,91.5608,45.4412,0,9.43159,-0.747246,3.27878,3.5061,6.06707,-3.47561,-6.28932,0.598755,7.17787,3.29268,-19.4817,6.37195
6701.12,91.568,45.5796,0,9.34537,-0.65863,3.30034,4.57317,6.37195,-4.42073,-6.32764,0.680186,7.23775,3.32317,-19.7561,7.46951
6701.13,91.5444,45.6947,0,9.38129,-0.502954,3.56618,4.84756,7.07317,-5.4878,-6.35159,0.64426,7.15153,3.01829,-19.2988,7.89634
6701.14,91.5642,45.8158,0,9.69743,-0.701741,3.48715,2.53049,12.439,-3.47561,-6.33004,0.60115,7.19464,2.5,-19.2073,8.14024
6701.15,91.5655,45.9355,0,9.45793,-0.680186,2.9794,4.63415,9.45122,-5.12195,-6.38033,0.519719,7.27367,2.13415,-19.2683,8.04878
6701.16,91.5713,46.046,0,9.63037,-0.696951,3.16622,4.39024,9.05488,-4.72561,-6.29172,0.579595,7.14434,2.19512,-19.3598,7.62195
6701.17,91.5428,46.1677,0,9.45075,-0.483794,3.19256,6.06707,8.41463,-5.70122,-6.17676,0.617915,7.11321,2.95732,-17.9268,7.59146
6701.18,91.527,46.2694,0,9.27831,-0.502954,3.20454,5.51829,11.2195,-4.84756,-6.21987,0.593965,7.0677,2.28659,-17.1037,7.37805
6701.19,91.5447,46.3851,0,9.10347,-0.713716,3.26681,4.7561,12.9268,-4.39024,-6.21508,0.613125,7.17787,1.98171,-15.9146,7.22561
6701.2,91.5615,46.4452,0,9.2352,-0.66821,3.40332,4.29878,12.6524,-3.81098,-6.27256,0.6251,6.924,1.52439,-15.4268,7.31707
6701.21,91.6134,46.5283,0,8.71069,-0.869392,3.42488,4.05488,10.2744,-3.75,-6.28214,0.63947,7.09165,1.37195,-16.1585,7.31707
6701.22,91.6354,46.6108,0,9.05317,-0.814307,3.34345,5.54878,8.01829,-5.06098,-6.36357,0.704136,7.19943,0.823171,-17.3171,7.56098
6701.23,91.643,46.6887,0,9.03641,-0.768801,3.09197,5.45732,4.32927,-5.85366,-6.47374,0.792751,7.31439,-0.27439,-17.9268,8.01829
6701.24,91.6132,46.7642,0,9.32142,-0.514929,3.45601,4.08537,4.35976,-6.15854,-6.51445,0.790356,7.36469,-0.853659,-18.1402,7.77439
6701.25,91.5538,46.8489,0,9.36213,-0.347278,3.49912,5.97561,5.64024,-7.10366,-6.52164,0.716111,7.4533,-1.31098,-17.7439,7.04268
6701.26,91.4858,46.9392,0,9.47709,-0.189207,3.81287,4.32927,9.26829,-6.09756,-6.47374,0.622705,7.45809,-1.0061,-17.8963,5.94512
6701.27,91.4565,47.0471,0,9.43638,-0.593965,3.69791,6.61585,5.73171,-7.31707,-6.43781,0.565225,7.55868,-0.792683,-17.439,4.45122
6701.28,91.3533,47.1841,0,9.39566,-0.196392,3.7506,6.89024,1.46341,-10,-6.38752,0.59157,7.72633,-0.97561,-17.5915,3.62805
6701.29,91.2339,47.3519,0,9.36213,-0.112566,3.90149,4.78659,2.34756,-10.8232,-6.31088,0.548459,7.8868,-1.12805,-17.6524,3.56707
6701.3,91.1551,47.5133,0,9.29507,-0.399968,3.72426,4.60366,4.84756,-10.5488,-6.2055,0.455054,7.75747,-1.21951,-17.2866,4.05488
6701.31,91.0094,47.6592,0,8.89271,0.0431104,3.68594,4.17683,4.84756,-11.9512,-6.18634,0.404758,7.67125,-0.762195,-16.4329,4.35976
6701.32,90.887,47.8062,0,9.05317,-0.150886,3.63564,2.68293,5.60976,-12.378,-6.06179,0.352068,7.56347,-0.945122,-16.3415,5.18293
6701.33,90.7593,47.9672,0,9.16334,-0.119751,3.44883,3.07927,2.5,-12.7439,-5.98755,0.395178,7.60658,-0.365854,-16.5244,5.42683
6701.34,90.6225,48.127,0,9.35974,-0.0167651,3.49912,2.71341,1.82927,-12.622,-5.94923,0.328118,7.59221,0.792683,-16.9512,5.7622
6701.35,90.4356,48.2967,0,9.46272,0.344883,3.64282,3.38415,-0.27439,-13.5366,-6.0091,0.196392,7.78142,1.55488,-17.9268,5.36585
6701.36,90.275,48.4632,0,9.23759,0.232317,3.47278,1.61585,0.213415,-12.561,-5.99234,0.158071,7.78381,2.13415,-18.7195,4.72561
6701.37,90.106,48.6357,0,8.82565,0.301772,3.53744,2.16463,-0.609756,-12.6829,-5.94923,0.251477,7.81734,1.98171,-18.4756,4.17683
6701.38,89.9557,48.7937,0,8.87115,0.215552,3.57097,0.914634,1.09756,-12.2866,-5.85582,0.330513,7.64251,1.46341,-17.4085,3.93293
6701.39,89.8296,48.989,0,9.137,-0.0143701,3.8488,-0.97561,0.396341,-13.1402,-5.73847,0.524509,7.79579,0.945122,-16.4329,4.08537
6701.4,89.7071,49.206,0,9.67109,-0.112566,3.82724,-2.13415,-2.2561,-14.2073,-5.74086,0.699346,8.01374,0.731707,-17.5305,4.32927
6701.41,89.5656,49.4211,0,9.85072,-0.119751,3.44883,-1.25,-7.95732,-16.4634,-5.80074,0.775986,8.14546,0.731707,-18.9939,4.69512
6701.42,89.3894,49.5898,0,9.7621,0.174836,3.32908,-0.823171,-7.40854,-16.7683,-5.93007,0.730481,8.04008,1.31098,-18.75,4.66463
6701.43,89.1786,49.7245,0,9.2831,0.512534,3.23567,-0.152439,-4.96951,-16.311,-5.99473,0.56762,7.92751,1.92073,-17.561,4.35976
6701.44,88.9672,49.8793,0,9.44835,0.536484,3.02491,-0.670732,-3.07927,-16.6159,-5.99234,0.402363,8.11193,2.43902,-17.439,3.71951
6701.45,88.7557,50.0803,0,9.50104,0.507744,3.53026,-0.762195,-0.884146,-17.439,-6.02826,0.330513,8.56459,2.0122,-19.3293,2.59146
6701.46,88.5677,50.2803,0,9.70701,0.282612,3.56858,-1.28049,0.701219,-18.3232,-6.00671,0.402363,8.58615,0.823171,-21.311,1.95122
6701.47,88.3991,50.467,0,9.60163,0.0479004,3.30513,-1.06707,-2.19512,-19.5427,-6.05461,0.507744,8.6101,-0.762195,-22.1951,1.61585
6701.48,88.2417,50.6401,0,9.23759,-0.00239502,3.14945,-1.31098,-4.84756,-19.3598,-5.98994,0.60594,8.46879,-0.579268,-22.2256,1.92073
6701.49,88.0624,50.8163,0,9.41243,0.136516,3.15664,1.61585,-7.77439,-20.1829,-5.87738,0.704136,8.38736,0.0914634,-22.378,2.56098
6701.5,87.8267,50.9798,0,9.39806,0.706531,2.98898,3.90244,-9.93902,-19.2378,-5.73128,0.742456,8.13588,1.03659,-21.9512,3.44512
6701.51,87.5629,51.1598,0,9.40524,1.02507,3.44404,1.98171,-9.35976,-18.6585,-5.64985,0.617915,8.19576,1.03659,-21.4329,3.93293
6701.52,87.3474,51.3597,0,9.64235,0.522114,3.47517,2.04268,-11.9817,-20.6402,-5.58279,0.486189,8.30832,1.58537,-21.6463,4.39024
6701.53,87.149,51.6034,0,9.47709,0.201182,3.93023,3.84146,-11.4024,-23.1707,-5.46304,0.323328,8.54064,1.92073,-23.75,4.35976
6701.54,86.949,51.8389,0,9.46033,-0.0383203,3.21891,6.89024,-15.0915,-26.7073,-5.34808,0.282612,8.37299,2.80488,-24.1159,4.39024
6701.55,86.6811,52.0806,0,9.44835,0.445474,2.73032,7.43902,-17.3476,-28.0488,-5.18282,0.352068,8.23887,3.71951,-23.2927,5.21341
6701.56,86.3583,52.3693,0,9.79084,0.969983,3.14945,6.46341,-14.3293,-28.1707,-4.98404,0.416733,8.38017,4.11585,-22.4695,5.82317
6701.57,86.0377,52.6837,0,9.97047,1.0562,3.07281,6.70732,-11.8293,-27.8049,-4.91458,0.61073,8.57896,3.01829,-23.3841,6.61585
6701.58,85.7066,52.9842,0,9.56092,1.17595,3.12311,7.46951,-11.6159,-27.561,-4.98883,0.775986,8.69392,1.98171,-24.5122,6.89024
6701.59,85.3856,53.2634,0,9.33339,1.10889,3.14466,8.01829,-10.6402,-27.6829,-5.02715,0.874182,8.67476,1.15854,-25.5793,7.0122
6701.6,85.0544,53.5141,0,9.29507,1.18553,3.15664,6.67683,-11.1585,-28.3841,-5.00799,0.874182,8.49274,0.731707,-24.4512,6.06707
6701.61,84.7416,53.765,0,9.29268,1.05141,3.3674,6.55488,-12.0122,-28.8415,-4.90979,0.831072,8.4137,0.487805,-23.3841,4.87805
6701.62,84.4139,54.0377,0,9.59924,1.21427,3.43925,7.37805,-14.939,-29.4512,-4.79243,0.651445,8.48316,0.548781,-23.1707,3.81098
6701.63,84.0921,54.3279,0,9.36932,1.23104,3.1734,6.79878,-16.6463,-28.9634,-4.66071,0.510139,8.49513,0.609756,-23.8415,2.89634
6701.64,83.778,54.6083,0,9.20885,1.32924,3.33147,6.15854,-15.2439,-27.3476,-4.60562,0.352068,8.40891,0.762195,-23.628,2.95732
6701.65,83.4508,54.8856,0,9.38129,1.56634,3.31231,6.0061,-14.6951,-26.7378,-4.50743,0.337698,8.30114,0.97561,-22.8354,3.78049
6701.66,83.1124,55.1931,0,9.50823,1.72441,3.31471,5.09146,-10.8841,-26.9207,-4.41881,0.411943,8.50232,0.853659,-22.9268,5.18293
6701.67,82.7759,55.5069,0,9.73815,1.67172,3.35782,4.57317,-8.53659,-28.5061,-4.44755,0.65384,8.72745,0.518293,-24.3902,6.43293
6701.68,82.4277,55.8059,0,9.78844,1.71483,2.99856,2.68293,-5.30488,-30,-4.44516,0.778381,8.69871,-0.121951,-25.061,7.89634
6701.69,82.0922,56.0614,0,9.50823,1.5376,3.07042,1.06707,-2.7439,-30.9451,-4.50503,0.857417,8.52148,-0.426829,-24.8476,8.2622
6701.7,81.773,56.3252,0,9.43159,1.35319,2.78062,2.56098,-2.59146,-32.0427,-4.4236,0.677791,8.53585,-0.518293,-23.9329,7.83537
6701.71,81.4443,56.5935,0,9.14179,1.43222,2.76385,3.93293,-4.81707,-32.1646,-4.33738,0.390388,8.50471,-0.304878,-24.6341,6.67683
6701.72,81.1022,56.8498,0,9.34776,1.62382,2.58423,4.5122,-7.31707,-32.2561,-4.31582,0.380808,8.44963,0.0304878,-24.6951,5.30488
6701.73,80.749,57.1197,0,9.51541,1.93039,2.85726,6.55488,-11.311,-30.7927,-4.25116,0.435894,8.54303,0.0304878,-24.2988,5.45732
6701.74,80.3889,57.4017,0,9.57289,2.15073,3.04407,5.85366,-8.84146,-29.7866,-4.21044,0.55804,8.67955,0.0609756,-24.0244,6.09756
6701.75,80.0434,57.6985,0,9.25915,2.019,2.86205,5.30488,-6.46341,-29.7561,-4.20805,0.694556,8.93342,0.152439,-24.2683,7.28659
6701.76,79.752,57.9899,0,9.36932,1.58071,2.81415,5.85366,-5.36585,-30.5183,-4.22002,0.804727,9.02204,-0.731707,-24.9085,8.47561
6701.77,79.4835,58.2656,0,9.75012,1.45378,2.75427,6.46341,-5.30488,-31.0061,-4.20086,0.838257,8.94061,-1.7378,-24.2683,9.11585
6701.78,79.1955,58.5319,0,9.93933,1.60945,2.70877,8.35366,-6.92073,-32.0732,-4.19847,0.871787,8.95019,-2.16463,-24.3293,8.90244
6701.79,78.8695,58.8041,0,9.97047,2.01421,2.46448,9.39024,-6.82927,-32.0122,-4.12422,0.708926,8.95977,-2.13415,-24.878,8.5061
6701.8,78.5048,59.0816,0,9.65193,2.3543,2.6944,10.0915,-4.39024,-31.9512,-4.04519,0.60115,8.95258,-1.89024,-25.5793,7.43902
6701.81,78.1287,59.337,0,9.29747,2.4525,2.68003,10.122,-3.5061,-31.6768,-4.04519,0.5772,8.84002,-2.28659,-24.2378,6.79878
6701.82,77.7659,59.6034,0,9.0388,2.31359,2.77583,9.81707,-4.08537,-31.9512,-4.05716,0.64426,9.09149,-3.29268,-23.1707,6.55488
6701.83,77.4746,59.8582,0,8.98372,1.7795,2.71595,10.7927,-7.34756,-31.8293,-4.1362,0.57241,9.25675,-3.20122,-22.9573,7.07317
6701.84,77.2205,60.1041,0,9.35016,1.55437,2.41897,12.0427,-9.7561,-32.2256,-4.15775,0.550855,9.31663,-3.59756,-23.75,7.37805
6701.85,76.9462,60.3531,0,9.69983,1.64538,2.56507,12.6829,-10.9451,-34.4207,-4.07872,0.598755,9.27831,-2.95732,-24.4512,8.14024
6701.86,76.6127,60.6014,0,9.57289,2.02619,2.39741,13.7805,-11.4634,-36.2805,-3.98292,0.63468,9.16334,-2.43902,-23.7805,8.87195
6701.87,76.2171,60.8549,0,9.58487,2.71116,2.67045,14.5427,-11.189,-35.4573,-3.88951,0.656235,9.11305,-2.95732,-23.2317,9.05488
6701.88,75.7929,61.0824,0,9.49865,3.12071,2.8357,14.5732,-10.0915,-34.2988,-3.94699,0.608335,9.07233,-3.01829,-22.622,9.26829
6701.89,75.3634,61.2717,0,9.41003,3.2716,2.92911,13.5976,-10.2134,-33.689,-4.07153,0.471819,9.0388,-2.71341,-22.622,8.65854
6701.9,74.9457,61.4683,0,9.26154,3.13029,3.04407,14.0549,-10.3659,-34.3902,-4.10027,0.349673,9.26154,-2.59146,-23.75,8.44512
6701.91,74.5584,61.6908,0,9.09628,2.71595,2.83331,13.4756,-9.60366,-36.311,-4.06195,0.304167,9.55134,-2.65244,-25.2439,8.47561
6701.92,74.2315,61.9303,0,9.29028,2.21539,2.66805,14.4512,-11.189,-37.5,-3.8488,0.320933,9.34537,-1.55488,-24.939,8.87195
6701.93,73.8949,62.1749,0,9.55134,2.24653,2.48843,15.8232,-14.1159,-39.5122,-3.68114,0.414338,9.10826,-1.34146,-22.561,9.45122
6701.94,73.5406,62.4493,0,9.92257,2.49561,2.58183,16.9512,-13.9329,-40.2134,-3.62606,0.488584,9.44835,-0.701219,-20.3659,10.5488
6701.95,73.1111,62.6946,0,9.68306,3.19496,2.692,17.5305,-14.6037,-40.1524,-3.753,0.428708,9.54894,-0.731707,-20.2439,11.128
6701.96,72.6652,62.9031,0,9.64235,3.48954,2.82612,15.2134,-7.56098,-39.3598,-3.78174,0.304167,9.29507,-0.731707,-19.7561,11.0671
6701.97,72.224,63.1126,0,9.22801,3.36261,2.97701,13.5366,-7.04268,-39.5427,-3.75779,0.268242,9.34776,-0.945122,-18.9939,10.9756
6701.98,71.7942,63.3486,0,9.0867,3.22849,2.85486,11.7683,-7.7439,-40.2134,-3.63803,0.258662,9.46991,-1.79878,-17.7439,11.0366
6701.99,71.4103,63.6014,0,9.07233,2.81175,2.61057,11.4634,-7.92683,-41.189,-3.56139,0.364043,9.59924,-2.7439,-17.5305,11.5854
6702,71.0699,63.8597,0,9.25675,2.40939,2.24892,12.7744,-8.53659,-42.8963,-3.46559,0.409548,9.54415,-2.65244,-16.6159,11.9207
6702.01,70.7185,64.0955,0,9.71659,2.5986,2.18905,14.6037,-9.20732,-43.9329,-3.37458,0.500559,9.14179,-2.0122,-14.878,13.0183
6702.02,70.3042,64.3181,0,9.81479,3.1255,2.29443,16.0671,-7.10366,-45.5793,-3.35303,0.546064,9.0412,-1.18902,-13.2622,13.811
6702.03,69.8406,64.5458,0,9.76689,3.68833,1.95673,17.3171,-3.04878,-45.2744,-3.38895,0.632285,9.31423,-1.52439,-12.4085,14.1159
6702.04,69.3244,64.7492,0,9.3765,4.21763,2.28485,17.1646,0.152439,-44.3902,-3.52068,0.689766,9.47949,-1.95122,-11.6768,13.9329
6702.05,68.7865,64.9336,0,8.71069,4.35894,2.13636,17.3476,-0.152439,-42.8354,-3.59013,0.694556,9.52499,-2.80488,-11.4634,12.622
6702.06,68.2592,65.1073,0,8.28916,4.26313,2.22976,16.4634,-2.28659,-41.5549,-3.61408,0.656235,9.54655,-3.9939,-11.0366,11.5244
6702.07,67.798,65.2805,0,8.21492,3.81287,2.14594,16.7378,-7.56098,-40.6098,-3.54702,0.65384,9.45314,-5.09146,-9.7561,10.5793
6702.08,67.4183,65.4643,0,8.48795,3.26202,2.02379,17.5915,-13.6585,-41.1585,-3.46559,0.632285,9.45793,-5.79268,-8.9939,10.1524
6702.09,67.0743,65.652,0,9.09868,3.2237,1.56634,19.1159,-16.189,-41.372,-3.37219,0.665815,9.34776,-6.28049,-8.10976,10.4573
6702.1,66.7271,65.8388,0,9.58247,3.6069,1.69567,20.9451,-17.1341,-40.122,-3.29555,0.665815,9.21603,-6.46341,-6.55488,10.9146
6702.11,66.3487,66.0391,0,9.67109,4.05956,1.5879,22.1646,-13.628,-39.6341,-3.24046,0.704136,9.31902,-7.04268,-5.33537,11.8293
6702.12,65.959,66.2291,0,9.5226,4.12422,1.79866,23.3841,-7.86585,-40.2439,-3.31231,0.63468,9.49865,-7.0122,-5.36585,12.3171
6702.13,65.54,66.3741,0,9.0867,4.232,1.8753,24.4512,-4.42073,-40.8537,-3.45841,0.471819,9.41961,-7.46951,-5.45732,12.0732
6702.14,65.0782,66.5118,0,8.42568,4.08351,2.11001,23.5061,-2.16463,-44.2683,-3.49194,0.289797,9.49386,-7.16463,-5.51829,11.372
6702.15,64.6984,66.6421,0,8.53824,3.37458,2.11241,25.1524,-4.48171,-45.6098,-3.47517,0.0910107,9.41003,-7.65244,-4.69512,10.4573
6702.16,64.2912,66.7841,0,8.59093,3.58774,1.89925,27.2561,-8.9939,-46.9207,-3.35303,0.0502954,9.20406,-7.77439,-3.38415,9.84756
6702.17,63.8195,66.975,0,8.67237,4.28709,1.66454,28.4451,-8.23171,-46.9207,-3.21412,0.146096,9.12981,-7.31707,-2.16463,9.32927
6702.18,63.3428,67.2646,0,8.96216,4.60323,1.70525,27.6829,-5.7622,-46.5854,-3.08,0.282612,9.31902,-7.83537,-1.28049,9.7561
6702.19,62.8287,67.6827,0,9.00767,5.1948,1.65017,26.6768,-2.71341,-45.7012,-3.11832,0.404758,9.30705,-7.71341,-0.243902,10.2439
6702.2,62.3031,67.858,0,8.89031,5.42951,1.84656,25.9451,-3.59756,-44.9695,-3.2213,0.450264,9.26154,-8.32317,1.55488,10.4573
6702.21,61.7662,67.9612,0,8.49274,5.65225,2.1172,25.3659,-3.75,-42.6524,-3.32429,0.397573,9.25436,-8.5061,2.95732,10.061
6702.22,61.2172,68.041,0,7.9347,5.35047,1.96152,23.1707,-6.7378,-44.2683,-3.45122,0.234712,9.42919,-8.96341,3.41463,9.45122
6702.23,60.6903,68.11,0,7.66167,4.99601,1.88967,20.7622,-12.9878,-44.939,-3.45841,0.0502954,9.37171,-8.9939,3.90244,8.44512
6702.24,60.1781,68.1799,0,7.8365,4.94811,1.74597,22.1951,-23.2317,-46.2195,-3.33387,-0.0407153,9.10347,-8.32317,5.39634,8.38415
6702.25,59.7097,68.2563,0,8.14307,4.94811,1.43701,24.5427,-27.8659,-44.8171,-3.25244,-0.0431104,9.00527,-7.2561,7.53049,8.29268
6702.26,59.266,68.3698,0,8.45681,5.36005,1.38672,25.2439,-30.6098,-41.0366,-3.09916,0,9.0867,-6.7378,8.90244,9.26829
6702.27,58.8176,68.4941,0,8.69153,5.63788,1.88728,24.4817,-29.1463,-41.189,-3.0273,0.105381,9.07712,-6.85976,10,9.87805
6702.28,58.375,68.6261,0,8.40891,5.52291,1.60706,21.0976,-24.4817,-40.8537,-3.06323,0.244292,9.36213,-7.40854,10.7012,10.2134
6702.29,57.9839,68.7377,0,8.79451,5.35526,2.03816,18.2622,-22.1646,-40.4878,-3.08,0.323328,9.20646,-7.68293,11.8598,10.4878
6702.3,57.5042,68.8124,0,7.52036,5.24749,1.21667,14.2988,-23.5976,-43.0488,-3.09916,0.256267,8.8496,-7.37805,15.3659,9.90854
6702.31,57.0518,68.8718,0,7.81734,5.07265,1.52323,14.2073,-21.6159,-45.1829,-3.13987,0.174836,8.81846,-6.7378,17.9573,8.68902
6702.32,56.6405,68.9108,0,7.82932,4.98883,0.725691,15.1524,-21.8598,-42.8659,-3.19017,-0.0383203,8.74422,-5.94512,20.122,7.10366
6702.33,56.2461,68.942,0,8.1287,5.35766,1.02507,18.75,-27.2561,-40.1829,-3.19735,-0.0886157,8.69392,-6.31098,22.0732,6.21951
6702.34,55.8252,68.9846,0,8.38496,5.89175,1.14961,20.2134,-27.1037,-40.2134,-3.18538,-0.0574805,8.81607,-6.92073,23.5061,5.57927
6702.35,55.4486,69.0185,0,8.47358,5.64267,1.04662,22.1646,-27.9268,-39.4817,-3.25244,0.0311353,8.91666,-8.84146,24.2988,6.21951
6702.36,55.1052,69.041,0,8.58375,5.78158,1.49689,22.1951,-23.628,-36.25,-3.26681,0.162861,8.83762,-10.1524,25.5488,6.4939
6702.37,54.7588,69.0489,0,8.65081,6.04503,0.938848,18.5671,-18.0793,-35.2439,-3.27639,0.313748,8.7059,-10.3049,27.4695,7.16463
6702.38,54.4359,69.0234,0,8.54303,5.83906,0.938848,16.1585,-15.8841,-34.7561,-3.30034,0.285007,8.39933,-10.2744,29.1159,7.56098
6702.39,54.1006,68.9591,0,8.01613,5.54208,0.991538,16.1585,-15.7317,-36.0671,-3.34584,0.186812,8.09996,-9.90854,31.311,7.9878
6702.4,53.7501,68.8859,0,7.66167,5.42232,0.926873,15.6098,-15.1524,-37.0122,-3.42009,0.0479004,8.16462,-9.02439,32.8659,8.04878
6702.41,53.4007,68.8027,0,7.71196,5.59477,0.958008,14.6341,-14.939,-36.25,-3.46799,-0.146096,8.15265,-8.29268,34.3598,7.2561
6702.42,53.0788,68.731,0,7.78142,5.8678,0.977168,13.2622,-14.5427,-31.9817,-3.47038,-0.215552,8.24126,-8.29268,34.9695,6.98171
6702.43,52.8103,68.6488,0,8.15983,5.89414,0.759221,14.0244,-19.939,-29.6037,-3.49194,-0.273032,8.16223,-8.10976,36.5854,6.58537
6702.44,52.5532,68.5685,0,7.74549,5.92049,0.953218,17.1646,-14.7866,-25.8232,-3.47038,-0.220342,8.09996,-8.87195,37.9573,6.46341
6702.45,52.2701,68.5055,0,7.65688,5.98036,0.888552,15.5183,-14.8476,-27.7744,-3.47278,-0.160466,8.24845,-8.47561,38.5671,7.2561
6702.46,51.9968,68.4159,0,7.71675,5.84864,0.809517,16.189,-15.7927,-29.0549,-3.56139,-0.0766406,8.16702,-7.83537,39.4207,7.7439
6702.47,51.7196,68.3049,0,7.66406,5.87259,0.936453,14.6646,-13.3537,-29.3902,-3.61648,-0.0814307,8.05445,-6.79878,41.7683,8.17073
6702.48,51.4329,68.1572,0,7.68083,5.73847,0.852627,12.6829,-10.4268,-32.3476,-3.70749,-0.177231,7.87722,-6.43293,44.8171,8.32317
6702.49,51.1575,67.973,0,7.51318,5.47262,0.701741,11.6159,-11.0976,-33.2012,-3.81048,-0.265847,7.72394,-5.33537,47.622,7.80488
6702.5,50.7815,67.7672,0,6.99585,5.94444,0.816702,10.2134,-11.4329,-35.2744,-3.92304,-0.352068,7.70478,-4.60366,48.4756,7.31707
6702.51,50.4391,67.5601,0,7.22098,5.95641,0.440684,7.53049,-9.29878,-34.3293,-4.06195,-0.335303,7.89638,-4.35976,48.3537,6.70732
6702.52,50.0824,67.3497,0,7.20901,6.41147,0.646655,8.65854,-15.6707,-32.1341,-4.16254,-0.308958,7.98979,-3.71951,47.4695,6.67683
6702.53,49.7129,67.1145,0,7.09644,6.69168,0.64905,7.40854,-21.1585,-30.7622,-4.21763,-0.246687,7.81734,-2.7439,49.1463,7.22561
6702.54,49.3371,66.8699,0,7.2114,6.96232,0.646655,7.16463,-24.939,-30.7927,-4.232,-0.105381,7.6952,-1.58537,51.0671,8.14024
6702.55,48.9906,66.6159,0,7.43175,6.924,0.819097,6.37195,-22.8963,-30.6402,-4.31104,-0.110171,7.68801,-0.121951,52.9268,9.08537
6702.56,48.7404,66.3623,0,7.96104,6.43542,0.617915,5.88415,-21.0671,-29.7256,-4.47869,-0.191602,7.90835,0.335366,53.4756,9.05488
6702.57,48.512,66.0585,0,7.85327,6.26777,0.318538,5.73171,-21.4939,-28.75,-4.60083,-0.213157,7.6449,0.518293,54.3902,8.87195
6702.58,48.3222,65.7502,0,7.87243,6.13604,0.0934058,5,-20.6707,-26.6159,-4.68466,-0.246687,7.65927,0.426829,55.7317,8.2622
6702.59,48.0819,65.4434,0,7.34792,6.36596,0.0981958,3.96341,-18.9634,-26.0976,-4.7134,-0.217947,7.62574,-0.457317,56.189,6.79878
6702.6,47.8489,65.1448,0,7.20901,6.37075,-0.0407153,2.80488,-20.6098,-24.6951,-4.71819,-0.0526904,7.60419,-1.21951,56.311,6.15854
6702.61,47.6406,64.8392,0,7.2114,6.46416,-0.00479004,4.05488,-23.75,-21.8293,-4.69903,0.0479004,7.43654,-0.914634,57.378,6.55488
6702.62,47.4342,64.5496,0,7.02459,6.53601,0.261057,3.23171,-25.8841,-19.878,-4.73974,0.129331,7.52994,-1.31098,57.7439,8.04878
6702.63,47.217,64.2418,0,7.17787,6.6342,0.349673,5.06098,-26.0976,-21.7988,-4.8547,0.198787,7.49402,-0.914634,57.9573,9.32927
6702.64,47.0043,63.9177,0,7.17069,6.60067,0.210762,6.40244,-27.0122,-22.0122,-4.97446,0.153281,7.47246,-0.792683,58.5671,10.7012
6702.65,46.7719,63.5648,0,7.21619,6.79228,-0.100591,5.03049,-26.7988,-23.1707,-5.16606,0.167651,7.46049,-0.670732,59.5122,11.0976
6702.66,46.5632,63.1606,0,7.41259,6.75395,-0.172441,3.35366,-23.2927,-23.1098,-5.32652,0.0838257,7.24014,-0.609756,60.7622,10.6402
6702.67,46.3761,62.7528,0,7.44133,6.54798,-0.117356,4.14634,-22.3171,-23.3537,-5.53729,-0.00718506,7.39343,-0.487805,61.372,10.1829
6702.68,46.1781,62.3138,0,7.34792,6.61744,-0.320933,4.5122,-21.2805,-23.5061,-5.69296,-0.0934058,7.27846,-0.792683,61.189,9.17683
6702.69,45.9564,61.8474,0,7.09644,6.52882,-0.277822,3.53659,-19.2988,-25.0915,-5.81511,-0.0694556,7.13955,-1.40244,61.1585,7.95732
6702.7,45.6992,61.3816,0,6.9264,6.45458,-0.397573,3.68902,-18.9634,-28.4146,-5.90133,-0.0742456,7.12997,-1.61585,60.8537,7.59146
6702.71,45.4625,60.9128,0,7.08926,6.33004,-0.332908,5.60976,-18.5976,-29.3293,-5.9636,-0.0191602,7.0677,-2.16463,60.122,6.95122
6702.72,45.1787,60.4469,0,6.96472,6.74677,-0.431104,7.68293,-17.2866,-29.878,-5.98276,0.0646655,6.99106,-1.89024,60.1829,7.22561
6702.73,44.8624,59.9619,0,6.85694,6.91682,-0.459844,6.58537,-16.25,-31.4024,-6.08814,0.0862207,6.88089,-2.04268,60.3354,7.56098
6702.74,44.5057,59.4473,0,6.52403,6.93837,-0.457449,5.60976,-13.2012,-33.0793,-6.18634,0.0598755,6.69647,-1.03659,60.7012,7.65244
6702.75,44.137,58.9617,0,6.45697,6.80665,-0.368833,5.79268,-13.0183,-35.5488,-6.27974,0.0431104,6.84976,-0.335366,60.7012,7.62195
6702.76,43.7394,58.4225,0,6.52882,6.72042,-0.464634,1.7378,-12.4085,-40.6402,-6.40189,-0.0191602,6.54798,0.304878,60.8841,7.28659
6702.77,43.3654,57.9062,0,6.89526,6.52164,-0.651445,0.609756,-8.01829,-43.9939,-6.47613,-0.0646655,6.6342,0.518293,61.7378,7.10366
6702.78,42.9999,57.3975,0,7.2617,6.86652,-0.63468,3.84146,-2.92683,-43.9024,-6.55517,-0.0598755,6.63899,0.304878,61.7073,6.52439
6702.79,42.6554,56.859,0,7.37187,7.14434,-0.407153,5.21341,-0.396341,-41.0671,-6.61983,-0.0455054,6.41626,0,61.7988,6.4939
6702.8,42.2962,56.2998,0,7.17548,7.41977,-0.270637,6.12805,2.2561,-39.4817,-6.71563,-0.0119751,6.27256,0.27439,62.1646,6.76829
6702.81,41.9417,55.7392,0,7.06052,7.41738,-0.450264,7.31707,2.40854,-38.811,-6.79946,0.102986,6.21987,0.121951,61.9817,6.76829
6702.82,41.6097,55.2033,0,6.88329,7.18745,-0.414338,9.32927,2.59146,-37.5915,-6.81144,0.172441,6.24382,-0.396341,61.8293,7.19512
6702.83,41.2413,54.666,0,6.45697,7.31199,-0.311353,9.54268,3.07927,-37.2561,-6.84736,0.232317,6.15281,-1.55488,61.8902,7.2561
6702.84,40.8635,54.0811,0,6.26537,7.28565,-0.349673,9.54268,2.28659,-37.439,-6.89047,0.280217,5.82469,-1.34146,62.9268,7.95732
6702.85,40.4635,53.5076,0,5.97557,7.28565,-0.0359253,9.66463,-0.335366,-37.7439,-6.97669,0.249082,5.83666,-1.12805,64.4512,8.23171
6702.86,40.0317,52.9362,0,5.94683,7.56826,0.165256,5.70122,-1.31098,-39.3598,-7.01501,0.237107,5.76242,-1.03659,65.061,8.56707
6702.87,39.6534,52.3816,0,6.23424,7.18985,-0.124541,3.41463,-3.29268,-40.4268,-7.09644,0.170046,5.79834,-1.43293,64.7561,8.87195
6702.88,39.2846,51.8464,0,6.32046,7.15871,-0.265847,4.11585,-5.09146,-41.2805,-7.12758,0.136516,5.81032,-1.95122,64.4512,8.68902
6702.89,38.9255,51.2652,0,6.40189,7.18745,-0.273032,5.79268,-7.28659,-41.5549,-7.1659,0.0598755,5.49657,-2.10366,64.939,8.65854
6702.9,38.5642,50.7268,0,6.43302,7.48683,-0.265847,5.33537,-9.78659,-40.4268,-7.14674,0.122146,5.58279,-2.7439,65.7927,8.59756
6702.91,38.1809,50.1571,0,5.98036,7.48923,-0.189207,5.7622,-9.35976,-39.2073,-7.09644,0.0934058,5.28341,-2.9878,66.5244,8.81098
6702.92,37.8067,49.5687,0,5.87977,7.24254,-0.296982,7.28659,-5.7622,-40,-7.12279,0.0838257,5.10618,-3.07927,67.9268,9.08537
6702.93,37.4486,48.9969,0,5.9133,7.31199,-0.313748,8.10976,-6.95122,-38.9024,-7.26888,0.0550855,5.17803,-2.80488,67.6829,9.26829
6702.94,37.1376,48.3827,0,5.74086,6.78988,-0.347278,7.86585,-10.9451,-37.378,-7.5012,0.00718506,5.02475,-2.40854,66.6463,8.96341
6702.95,36.751,47.7699,0,5.98755,8.21252,0.0479004,8.14024,-15.5183,-37.3171,-7.61616,-0.00718506,4.99122,-1.79878,66.6768,9.32927
6702.96,36.3645,47.1678,0,5.82708,8.05685,-0.361648,5.60976,-15.9146,-37.6524,-7.72394,0.0215552,4.99601,-1.67683,66.7988,9.35976
6702.97,35.9717,46.5275,0,5.7217,7.96344,-0.457449,4.78659,-11.5549,-38.7195,-7.82453,0.0287402,4.76369,-1.34146,67.9573,9.5122
6702.98,35.6317,45.9002,0,6.15281,7.85327,-0.778381,2.22561,-7.28659,-38.9939,-7.9323,0.00239502,4.77088,-0.701219,68.0488,9.66463
6702.99,35.3524,45.262,0,6.38991,7.61616,-0.847837,3.10976,-4.35976,-37.4085,-8.03769,-0.0287402,4.6631,-0.853659,67.9573,9.26829
6703,35.0921,44.5964,0,6.53361,7.62095,-0.874182,5.79268,-1.55488,-37.2866,-8.04487,0.00958008,4.42121,-1.58537,68.2317,9.08537
6703.01,34.8072,43.9811,0,6.21747,7.91554,-0.555645,4.32927,-2.28659,-35.3049,-8.11193,0.112566,4.5697,-2.46951,67.8049,9.20732
6703.02,34.4979,43.3704,0,5.78397,7.85806,-0.617915,5.54878,-2.83537,-34.7256,-8.13349,0.251477,4.48827,-3.47561,67.0427,9.45122
6703.03,34.1324,42.7508,0,5.21875,7.91793,-0.301772,6.52439,-3.35366,-35.0305,-8.21492,0.342488,4.3781,-4.02439,66.7378,9.42073
6703.04,33.7264,42.1089,0,4.86189,8.20294,-0.241897,4.7561,-6.52439,-34.3293,-8.25324,0.464634,4.1817,-4.29878,66.7683,10.061
6703.05,33.3448,41.4737,0,4.93134,7.93709,-0.65863,2.40854,-10.2134,-35.122,-8.38017,0.395178,4.16015,-4.54268,67.0732,10.4573
6703.06,32.9505,40.8174,0,4.90261,7.96344,-0.550855,3.35366,-8.78049,-36.7073,-8.48316,0.306563,3.99729,-5.2439,66.7073,10.4878
6703.07,32.5834,40.1556,0,5.15648,7.81016,-0.55804,3.01829,-5.39634,-38.4451,-8.47597,0.210762,3.85119,-5.4878,66.4634,10.1524
6703.08,32.2789,39.5187,0,5.87259,8.42807,-0.493374,3.84146,-4.26829,-35.7317,-8.51908,0.0646655,3.86317,-5.51829,65.0305,10
6703.09,32.0062,38.8955,0,5.89654,8.25084,-0.304167,2.89634,-4.66463,-34.5122,-8.6053,-0.0431104,3.8488,-5.79268,63.9024,9.26829
6703.1,31.7329,38.2475,0,5.64506,8.23408,-0.316143,3.04878,-3.71951,-32.8354,-8.6101,-0.174836,3.62845,-5.97561,64.5427,8.65854
6703.11,31.4235,37.6055,0,5.1948,8.43765,-0.5772,2.19512,-2.2561,-31.3415,-8.6053,-0.136516,3.53984,-6.25,65.3963,8.10976
6703.12,31.0902,36.9734,0,4.76848,8.35622,-0.452659,0.457317,-5.18293,-30.5183,-8.658,-0.102986,3.49194,-5.60976,65.1219,8.2622
6703.13,30.7316,36.3561,0,4.57449,8.14307,-0.833467,1.7378,-6.21951,-32.9878,-8.75619,0.0383203,3.48475,-5.21341,64.0244,8.59756
6703.14,30.3961,35.7575,0,4.8092,8.57656,-0.510139,-1.79878,-11.6463,-31.2805,-8.78972,0.189207,3.47278,-5.51829,64.3902,9.35976
6703.15,30.0558,35.1254,0,4.69184,8.52866,-0.423918,-2.28659,-8.29268,-31.4939,-8.93821,0.179626,3.2716,-5.2439,61.9817,9.87805
6703.16,29.7086,34.4821,0,4.55772,8.2245,-0.593965,-2.7439,-8.29268,-33.2622,-9.05317,0.122146,3.14945,-5.39634,61.128,9.45122
6703.17,29.4338,33.8602,0,5.01757,8.32748,-0.677791,-1.12805,-10.4573,-30.8232,-9.07473,0.0622705,3.13748,-5.03049,59.3293,9.08537
6703.18,29.174,33.2151,0,4.8547,8.04248,-0.692161,-0.365854,-11.2805,-29.939,-8.99569,0.0167651,2.89797,-4.29878,58.2622,9.08537
6703.19,28.9424,32.6389,0,5.46543,9.09868,-0.864602,0.884146,-7.7439,-27.3476,-8.88073,-0.0119751,3.04886,-4.54268,57.2256,9.17683
6703.2,28.7224,32.0768,0,5.06786,8.58615,-0.62989,-1.67683,-8.87195,-25.7317,-8.81607,-0.0119751,2.98898,-5.21341,57.378,9.26829
6703.21,28.5024,31.5245,0,4.94093,8.62926,-0.665815,-3.07927,-3.9939,-24.6341,-8.86397,-0.00958008,2.95066,-5.54878,56.6159,9.84756
6703.22,28.2913,30.9414,0,4.78764,8.34664,-1.07297,-2.80488,-5.94512,-24.2683,-9.00288,0.0215552,2.76625,-4.35976,57.0122,10.2439
6703.23,28.0448,30.3494,0,4.54335,8.53106,-0.771196,0.27439,-9.11585,-24.6341,-9.08431,0.0838257,2.65129,-3.2622,56.128,10.6098
6703.24,27.7405,29.7806,0,4.10267,8.89271,-0.445474,0.0914634,-9.14634,-24.3598,-9.25675,0.138911,2.69919,-3.01829,54.7866,10.8841
6703.25,27.395,29.2274,0,3.70989,9.07473,-0.285007,-1.58537,-10.0915,-24.0244,-9.46512,0.201182,2.72793,-3.14024,53.5976,11.0061
6703.26,27.0148,28.6624,0,3.54942,8.50471,-0.507744,-2.92683,-9.90854,-29.1159,-9.63037,0.155676,2.62015,-3.5061,52.4695,10.6402
6703.27,26.7442,28.0983,0,4.61281,9.44356,-0.622705,-1.21951,-9.7561,-25.6098,-9.69504,0.0718506,2.53872,-4.05488,51.9207,10.1524
6703.28,26.5164,27.5245,0,4.67508,8.93103,-0.617915,-3.5061,-9.66463,-25.061,-9.63995,-0.0191602,2.37825,-3.68902,50.5488,9.60366
6703.29,26.325,26.9598,0,4.86428,8.83283,-0.816702,-4.20732,-6.67683,-24.2683,-9.55134,-0.0167651,2.29443,-2.71341,48.9939,9.81707
6703.3,26.1645,26.4278,0,4.84991,8.78972,-1.07536,-5.2439,-4.78659,-21.6159,-9.52739,0.0167651,2.33275,-1.85976,47.0732,9.78659
6703.31,25.9782,25.889,0,4.29187,8.658,-1.06339,-3.96341,-6.95122,-19.4207,-9.53697,0.0479004,2.2106,-1.98171,46.4939,9.96951
6703.32,25.7824,25.3556,0,4.01645,8.13109,-0.821492,-2.56098,-5.85366,-20.6098,-9.59445,0.0143701,2.15312,-1.43293,46.25,10.1524
6703.33,25.6066,24.8535,0,3.7027,7.43893,-0.783171,-2.5,-7.40854,-19.3293,-9.6639,0.0910107,2.213,-1.37195,44.8171,9.93902
6703.34,25.3836,24.3151,0,4.03561,8.96935,-0.843047,2.92683,-7.71341,-19.939,-9.63756,0.131726,1.95673,-1.85976,44.2073,9.90854
6703.35,25.1752,23.7794,0,4.16733,9.55852,-0.804727,0.792683,-4.54268,-17.5305,-9.60403,0.268242,1.86812,-2.10366,44.5427,9.93902
6703.36,24.9035,23.2641,0,3.5566,9.39566,-1.00591,-0.579268,-1.61585,-18.6585,-9.68546,0.296982,1.88009,-2.31707,44.2073,10.1524
6703.37,24.6294,22.7558,0,3.64282,9.21603,-0.890947,-0.365854,-2.77439,-21.1585,-9.77886,0.282612,1.83698,-3.10976,42.5,10.0915
6703.38,24.3972,22.2639,0,4.02842,8.97414,-0.778381,-0.914634,-4.02439,-22.7744,-9.8603,0.229922,1.83458,-3.9939,41.3415,10.3963
6703.39,24.1994,21.763,0,4.36612,9.02443,-0.864602,-1.58537,-1.85976,-23.0793,-9.88425,0.184417,1.71004,-5.15244,40.5183,10.122
6703.4,24.005,21.234,0,4.3278,9.0891,-0.804727,-1.31098,0.792683,-22.4085,-9.86509,0.160466,1.4921,-5.09146,40.0305,10.4268
6703.41,23.813,20.7184,0,4.16254,8.95977,-0.742456,-0.792683,2.16463,-21.4634,-9.8124,0.160466,1.45138,-5.15244,40.2134,10.4878
6703.42,23.6005,20.2002,0,3.70749,8.658,-0.687371,-0.548781,1.61585,-20.3963,-9.75491,0.146096,1.34121,-4.66463,39.7256,11.0366
6703.43,23.3206,19.6701,0,3.2237,8.3179,-0.775986,-2.68293,1.52439,-23.628,-9.79803,0.155676,1.20469,-4.02439,39.2683,11.5854
6703.44,23.0576,19.1643,0,3.58295,9.44356,-0.728086,4.02439,-2.16463,-21.6463,-9.88425,0.0574805,1.22864,-3.87195,38.1707,11.1585
6703.45,22.8653,18.6774,0,3.98052,9.79803,-0.249082,-0.396341,-6.12805,-17.6829,-9.93215,0.00239502,1.22864,-3.44512,36.8902,10.3354
6703.46,22.6807,18.1483,0,3.79132,9.16334,-0.701741,-2.65244,-7.22561,-18.0488,-9.92975,-0.0598755,0.955613,-2.77439,36.8293,9.35976
6703.47,22.5057,17.6226,0,3.8464,9.14897,-0.900527,-2.68293,-6.7378,-18.1098,-9.90101,-0.0479004,0.876577,-1.79878,37.378,8.5061
6703.48,22.3314,17.145,0,3.76258,9.21843,-1.07776,-4.14634,-5.88415,-17.1646,-9.83156,0.0167651,0.989143,-1.15854,37.0732,7.56098
6703.49,22.1749,16.6631,0,3.76258,9.01006,-0.958008,-3.07927,-6.46341,-16.6463,-9.70462,0.114961,0.876577,-1.25,37.3171,7.37805
6703.5,22.0247,16.2085,0,3.82485,8.97174,-0.63947,-4.48171,-4.81707,-17.1951,-9.7118,0.165256,0.912502,-2.22561,37.622,7.68293
6703.51,21.8619,15.7504,0,3.63324,8.82804,-0.723296,-4.05488,-4.42073,-17.3171,-9.78844,0.184417,0.826282,-2.43902,37.1341,8.38415
6703.52,21.6988,15.3013,0,3.54942,8.81367,-0.917292,-3.84146,-4.84756,-16.7988,-9.82437,0.213157,0.787961,-2.43902,35.6098,8.59756
6703.53,21.5427,14.8553,0,3.56139,8.95258,-1.08494,-1.95122,-3.17073,-15.9146,-9.86269,0.239502,0.725691,-2.37805,34.4817,8.93293
6703.54,21.3927,14.4414,0,3.64282,9.26394,-0.890947,-0.731707,-1.55488,-15.1524,-9.92017,0.275427,0.792751,-2.13415,33.3232,9.7561
6703.55,21.2047,14.0297,0,3.23088,8.46879,-0.855022,-1.55488,1.46341,-18.1402,-9.93215,0.253872,0.730481,-2.40854,32.561,9.7561
6703.56,20.9243,13.6075,0,3.21412,8.79212,-1.52084,3.17073,7.83537,-26.311,-10.0184,0.205972,0.617915,-2.37805,32.5305,9.7561
6703.57,20.7607,13.1913,0,4.21523,10.574,-0.56283,3.81098,6.89024,-18.3537,-10.016,0.141306,0.570015,-1.85976,32.378,9.39024
6703.58,20.5956,12.758,0,3.66917,9.91538,-0.162861,-1.7378,2.86585,-15.9146,-9.96328,0.110171,0.419128,-1.58537,31.9207,8.90244
6703.59,20.4309,12.341,0,3.42488,9.17532,-1.04423,-1.64634,4.72561,-16.5549,-9.9561,0.114961,0.414338,-1.46341,31.5854,8.81098
6703.6,20.2357,11.9528,0,3.15664,9.18729,-1.06099,-1.37195,2.28659,-16.9207,-9.93215,0.193997,0.467029,-1.52439,31.0976,9.11585
6703.61,20.0641,11.5771,0,3.33866,9.22801,-0.919688,-1.82927,1.09756,-16.7988,-9.91778,0.201182,0.452659,-1.82927,30,9.60366
6703.62,19.9325,11.1867,0,3.61887,9.14897,-0.771196,-2.04268,0.0914634,-16.5244,-9.92975,0.256267,0.323328,-1.89024,29.3902,9.96951
6703.63,19.8269,10.8041,0,3.76737,9.13221,-0.864602,-1.67683,0.640244,-15.8537,-9.96089,0.162861,0.289797,-1.70732,28.5671,9.84756
6703.64,19.733,10.4194,0,3.68354,9.06036,-0.984353,-0.548781,3.32317,-14.2683,-10.0519,0.136516,0.215552,-1.70732,28.2622,10
6703.65,19.6278,10.03,0,3.51349,9.137,-0.926873,0.487805,5.57927,-13.3841,-10.0303,0.138911,0.126936,-1.25,27.9573,9.14634
6703.66,19.5063,9.62405,0,3.2716,9.10347,-0.828677,1.34146,5.94512,-12.6829,-9.94412,0.138911,-0.0143701,-0.518293,28.0793,9.32927
6703.67,19.3694,9.25446,0,3.13269,9.07712,-0.807122,1.79878,5.36585,-13.0183,-9.9537,0.158071,0.0742456,0.182927,27.5305,9.20732
6703.68,19.2412,8.89534,0,3.21172,9.10826,-0.694556,2.7439,4.72561,-13.2012,-9.87946,0.172441,0.0550855,0.914634,27.0122,9.02439
6703.69,18.9646,8.54009,0,1.92799,7.12518,-0.886157,-4.54268,7.10366,-19.8476,-9.95131,0.153281,0.00958008,0.97561,26.4634,9.2378
6703.7,18.7737,8.21376,0,3.49673,9.58008,-1.08973,3.14024,6.82927,-21.7073,-9.97047,0.165256,0.0742456,1.06707,25.6707,9.11585
6703.71,18.6903,7.89841,0,4.07393,10.689,-0.526904,3.01829,6.64634,-12.7744,-9.96807,0.220342,0.0646655,1.25,24.5427,9.05488
6703.72,18.5922,7.57051,0,3.30513,9.52499,-0.651445,-0.243902,5.33537,-10.9146,-9.93933,0.359253,-0.0455054,0.792683,24.1463,9.42073
6703.73,18.4513,7.24671,0,2.85247,9.32142,-0.735271,0.152439,2.40854,-11.1585,-9.85072,0.476609,-0.0838257,-0.121951,23.9939,10.061
6703.74,18.2871,6.96505,0,2.66566,9.24717,-0.720901,-0.670732,0.579268,-11.9207,-9.86748,0.514929,0.0431104,-1.31098,23.4756,10.3659
6703.75,18.1301,6.67773,0,2.73272,9.331,-0.696951,-0.945122,-0.640244,-12.0122,-9.98963,0.483794,-0.0311353,-2.80488,22.622,10.2744
6703.76,18.0097,6.3701,0,3.06323,9.31423,-0.826282,-0.548781,-1.06707,-12.439,-10.0351,0.450264,-0.172441,-3.41463,21.4634,10
6703.77,17.928,6.0386,0,3.35542,9.27591,-0.960403,0.0609756,-0.701219,-12.1646,-10.1214,0.270637,-0.335303,-3.81098,20.9146,9.32927
6703.78,17.8805,5.69913,0,3.57097,9.19209,-1.01549,0.335366,1.31098,-11.5854,-10.1621,0.191602,-0.431104,-3.84146,21.189,8.47561
6703.79,17.8333,5.37573,0,3.51349,9.21603,-1.14242,0.457317,4.63415,-10.9146,-10.0998,0.227527,-0.416733,-3.44512,21.128,7.92683
6703.8,17.7789,5.07809,0,3.33626,9.2352,-1.01549,1.09756,7.2561,-9.69512,-10.0256,0.270637,-0.356858,-3.01829,20.6098,7.9878
6703.81,17.7266,4.79582,0,3.30273,9.16813,-0.902922,1.98171,8.47561,-9.48171,-9.9082,0.217947,-0.337698,-2.86585,19.7561,7.7439
6703.82,17.6798,4.52817,0,3.2716,9.09868,-1.0107,2.7439,10.2744,-8.96341,-9.84114,0.208367,-0.320933,-2.83537,19.2378,7.92683
6703.83,17.636,4.26849,0,3.2692,9.12981,-0.919688,3.62805,12.1951,-8.59756,-9.7597,0.289797,-0.330513,-2.89634,18.1707,7.71341
6703.84,17.5988,4.01399,0,3.33147,9.16574,-0.792751,3.44512,12.7744,-8.56707,-9.73575,0.404758,-0.352068,-2.77439,17.622,8.35366
6703.85,17.5608,3.7645,0,3.21172,9.05317,-0.752036,3.59756,12.2866,-7.83537,-9.85072,0.431104,-0.378413,-3.5061,17.4085,8.56707
6703.86,17.5255,3.48335,0,3.14706,8.98372,-0.651445,3.68902,10.8841,-7.16463,-10.0375,0.414338,-0.570015,-3.71951,17.1951,8.35366
6703.87,17.5047,3.19896,0,3.21891,9.18729,-0.579595,3.07927,7.80488,-5.79268,-10.1597,0.455054,-0.641865,-4.48171,16.8293,7.89634
6703.88,17.5048,2.90341,0,3.30034,9.35974,-0.598755,1.89024,5.82317,-4.02439,-10.1477,0.519719,-0.742456,-4.60366,16.0976,7.43902
6703.89,17.5035,2.62884,0,3.17101,9.27352,-0.737666,2.0122,5.57927,-3.17073,-10.0495,0.512534,-0.694556,-4.90854,15.4573,6.92073
6703.9,17.4909,2.3778,0,3.05844,9.30465,-0.974773,2.5,6.7378,-2.86585,-9.94412,0.452659,-0.632285,-4.63415,14.6341,7.07317
6703.91,17.4628,2.12581,0,2.98419,9.38369,-0.965193,2.53049,6.76829,-3.20122,-9.82437,0.332908,-0.673001,-4.60366,13.4756,6.61585
6703.92,17.4384,1.89307,0,3.01772,9.39806,-0.900527,2.56098,8.01829,-3.23171,-9.76689,0.349673,-0.62989,-4.26829,12.439,6.85976
6703.93,17.4203,1.66631,0,3.08958,9.50104,-0.783171,3.35366,10,-3.10976,-9.73336,0.399968,-0.641865,-3.78049,12.1341,6.92073
6703.94,17.3824,1.4223,0,2.89558,9.60403,-0.881367,2.28659,10.0915,-2.37805,-9.75491,0.447869,-0.756826,-3.81098,11.9512,7.68293
6703.95,17.3255,1.19388,0,2.75667,9.50344,-0.900527,2.13415,8.96341,-3.17073,-9.87467,0.419128,-0.740061,-3.90244,12.0732,7.92683
6703.96,17.2626,0.949358,0,2.70637,9.21125,-0.744851,2.65244,8.65854,-4.42073,-9.93454,0.407153,-0.855022,-4.32927,12.5,7.71341
6703.97,17.0193,0.681846,0,1.55197,7.26409,-0.778381,0.426829,11.1585,-14.2073,-10.095,0.380808,-1.01549,-4.60366,12.4695,7.68293
6703.98,16.9031,0.417786,0,3.36021,9.34776,-0.895737,1.34146,9.93902,-17.4695,-10.2243,0.380808,-1.06099,-4.78659,12.5,7.2561
6703.99,16.9749,0.136519,0,4.4739,11.0051,-0.773591,4.14634,11.128,-3.41463,-10.2291,0.383203,-1.18793,-5.33537,12.2561,6.64634
6704,16.9911,-0.12792,0,3.0297,9.41003,-0.60594,0.518293,8.59756,-1.15854,-10.1812,0.404758,-1.15679,-5.09146,11.9207,6.46341
6704.01,16.9452,-0.373514,0,2.68721,9.40285,-0.962798,2.56098,6.79878,-0.945122,-10.1285,0.433499,-1.11368,-4.63415,11.0976,6.34146
6704.02,16.9034,-0.607184,0,2.7423,9.59445,-0.926873,2.10366,6.03659,-1.55488,-10.0208,0.452659,-1.09213,-4.81707,10.9451,6.25
6704.03,16.8835,-0.813464,0,2.886,9.49625,-0.898132,2.13415,6.37195,-2.04268,-9.96328,0.505349,-1.00591,-4.2378,10.2744,6.67683
6704.04,16.8687,-1.01487,0,2.93869,9.40045,-0.871787,2.65244,6.79878,-2.62195,-9.9561,0.467029,-1.02028,-4.60366,9.66463,7.10366
6704.05,16.8447,-1.20653,0,2.86205,9.43638,-0.840652,3.04878,7.16463,-2.46951,-9.93454,0.399968,-1.0107,-4.57317,9.02439,7.04268
6704.06,16.817,-1.39998,0,2.80936,9.48428,-0.723296,2.83537,7.7439,-1.95122,-9.94652,0.332908,-1.05381,-4.2378,8.56707,7.16463
6704.07,16.7275,-1.59189,0,2.39981,9.53457,-0.5772,1.37195,6.37195,-1.67683,-9.91778,0.301772,-1.07776,-4.35976,8.62805,7.2561
6704.08,16.6202,-1.78815,0,2.28724,9.60882,-0.555645,0.304878,3.93293,-1.58537,-9.89383,0.292192,-1.12805,-4.08537,8.38415,7.46951
6704.09,16.5672,-1.97901,0,2.57944,9.43638,-0.713716,0.335366,3.23171,-1.61585,-9.92736,0.270637,-1.14242,-4.02439,8.38415,7.40854
6704.1,16.5591,-2.1621,0,2.84768,9.3765,-0.886157,0.914634,3.68902,-1.7378,-9.9561,0.294587,-1.14482,-3.59756,8.35366,7.46951
6704.11,16.548,-2.34529,0,2.87881,9.42201,-0.912502,0.731707,3.62805,-2.19512,-10.0016,0.244292,-1.18314,-3.20122,7.89634,7.40854
6704.12,16.547,-2.54242,0,2.95306,9.39806,-0.754431,1.03659,4.29878,-2.28659,-10.0088,0.253872,-1.27894,-2.83537,7.10366,7.28659
6704.13,16.5474,-2.72876,0,2.94827,9.38129,-0.787961,0.701219,3.9939,-2.19512,-10.004,0.256267,-1.26457,-2.43902,6.34146,7.77439
6704.14,16.5651,-2.91434,0,3.05844,9.26394,-0.883762,0.609756,4.14634,-2.37805,-9.94412,0.275427,-1.28613,-2.28659,6.21951,7.95732
6704.15,16.5953,-3.10156,0,3.04407,9.27112,-0.881367,0.762195,5.51829,-1.58537,-9.9561,0.268242,-1.32684,-2.0122,5.79268,7.46951
6704.16,16.5923,-3.28958,0,2.84289,9.36453,-0.886157,1.82927,5.88415,-1.25,-9.96807,0.273032,-1.36516,-1.7378,5.7622,7.5
6704.17,16.5676,-3.45807,0,2.73272,9.42919,-0.787961,1.55488,5.70122,-1.09756,-9.94412,0.294587,-1.30768,-1.76829,5.57927,7.13415
6704.18,16.5235,-3.62564,0,2.63692,9.49146,-0.811912,1.43293,5.12195,-1.52439,-9.98244,0.352068,-1.33642,-2.0122,5.09146,6.89024
6704.19,16.4906,-3.80203,0,2.70398,9.48188,-0.790356,0.853659,4.63415,-1.7378,-10.0303,0.366438,-1.41306,-1.92073,5.18293,7.2561
6704.2,16.4702,-3.9896,0,2.80696,9.4244,-0.749641,0.335366,4.60366,-2.31707,-10.0711,0.407153,-1.49928,-1.7378,4.90854,7.34756
6704.21,16.4473,-4.16595,0,2.75427,9.4268,-0.725691,0.335366,4.14634,-1.85976,-10.0495,0.385598,-1.47533,-1.7378,4.48171,7.65244
6704.22,16.4191,-4.32836,0,2.72553,9.38608,-0.783171,-0.182927,3.17073,-2.2561,-10.0639,0.399968,-1.4442,-1.61585,4.2378,7.86585
6704.23,16.4092,-4.4802,0,2.84289,9.35495,-0.783171,-0.152439,2.34756,-2.22561,-10.0447,0.371228,-1.41785,-1.15854,3.87195,8.17073
6704.24,16.4137,-4.62107,0,2.92192,9.32621,-0.735271,-0.823171,1.67683,-2.07317,-10.0758,0.354463,-1.38432,-1.12805,3.14024,8.35366
6704.25,16.4242,-4.77038,0,2.86923,9.31423,-0.682581,-0.396341,1.34146,-1.25,-10.0735,0.332908,-1.43462,-1.18902,2.86585,8.47561
6704.26,16.4324,-4.91402,0,2.8836,9.32381,-0.811912,-1.21951,0.518293,-1.46341,-10.0926,0.275427,-1.41546,-0.670732,2.37805,8.10976
6704.27,16.4619,-5.07406,0,2.96982,9.27352,-0.771196,-0.548781,0.182927,-1.28049,-10.0256,0.287402,-1.44659,-0.640244,1.85976,7.43902
6704.28,16.5174,-5.22473,0,3.03449,9.36692,-0.730481,-0.823171,0,-0.579268,-9.96807,0.318538,-1.41306,-0.579268,1.7378,7.04268
6704.29,16.5695,-5.38717,0,2.9818,9.32142,-0.720901,-1.0061,-0.0914634,-0.426829,-9.91778,0.376018,-1.47294,0,1.76829,6.70732
6704.3,16.5967,-5.5727,0,2.90516,9.37171,-0.723296,-1.0061,-0.457317,-0.365854,-9.83635,0.376018,-1.49689,0.365854,1.37195,7.07317
6704.31,16.5986,-5.75611,0,2.81415,9.3789,-0.773591,-0.823171,-0.457317,-0.335366,-9.84114,0.390388,-1.43941,0.762195,0.914634,7.19512
6704.32,16.6064,-5.97937,0,2.85007,9.33818,-0.792751,-1.09756,0.121951,-0.731707,-9.86509,0.356858,-1.46096,1.03659,0.396341,7.13415
6704.33,16.6179,-6.21061,0,2.92911,9.34776,-0.778381,-0.884146,0.762195,-1.31098,-9.91059,0.356858,-1.48252,1.46341,0.182927,7.28659
6704.34,16.6433,-6.44573,0,3.00096,9.30226,-0.852627,-0.518293,0.97561,-1.34146,-9.93454,0.356858,-1.53521,1.82927,-0.152439,6.92073
6704.35,16.6911,-6.65988,0,3.10874,9.2328,-0.711321,-0.27439,1.0061,-1.34146,-9.93215,0.387993,-1.60227,1.70732,0.426829,6.95122
6704.36,16.7425,-6.84019,0,3.05604,9.29028,-0.723296,-0.640244,0.426829,-0.762195,-9.98005,0.411943,-1.56155,1.85976,0.335366,7.10366
6704.37,16.8254,-6.97782,0,3.15185,9.18011,-0.754431,-1.12805,-0.579268,-0.731707,-9.97765,0.447869,-1.54479,2.16463,0.640244,7.2561
6704.38,16.9662,-7.09487,0,3.19975,9.18969,-0.735271,-1.28049,-0.731707,-0.0609756,-9.89383,0.421523,-1.51605,2.16463,0.823171,7.34756
6704.39,17.0664,-7.18856,0,3.11113,9.24238,-0.761616,-1.03659,-0.0304878,0,-9.87946,0.426313,-1.46815,1.85976,0.792683,7.19512
6704.4,17.1465,-7.25478,0,3.13269,9.2807,-0.917292,-1.03659,-0.0304878,0.304878,-9.87946,0.423918,-1.42025,1.46341,0.884146,6.7378
6704.41,17.2243,-7.30369,0,3.16143,9.29268,-0.910107,-0.0609756,1.28049,-0.27439,-9.85072,0.459844,-1.38193,1.12805,0.914634,6.98171
6704.42,17.3011,-7.39015,0,3.13029,9.31184,-0.866997,0.121951,1.61585,-0.0304878,-9.83874,0.459844,-1.48252,0.914634,0.853659,6.43293
6704.43,17.3506,-7.48134,0,3.13987,9.34537,-0.807122,0.182927,1.76829,-0.487805,-9.83635,0.502954,-1.48252,1.12805,0.579268,6.98171
6704.44,17.3906,-7.5917,0,3.09437,9.26633,-0.696951,0.365854,1.43293,-0.640244,-9.86988,0.457449,-1.5376,1.15854,0.457317,6.89024
6704.45,17.4361,-7.7128,0,3.04407,9.28549,-0.680186,-0.457317,1.70732,0.0304878,-9.9058,0.402363,-1.5879,1.55488,0.426829,6.82927
6704.46,17.4388,-7.81586,0,2.92192,9.32381,-0.64426,-0.579268,0,0.457317,-9.94173,0.371228,-1.59987,2.04268,0.609756,6.76829
6704.47,17.455,-7.8971,0,2.97461,9.31663,-0.742456,-1.09756,-1.89024,0.335366,-9.99681,0.340093,-1.56634,1.58537,0.487805,6.31098
6704.48,17.4974,-7.9898,0,3.05365,9.2304,-0.802332,-1.37195,-2.40854,0.609756,-9.94891,0.411943,-1.59029,1.70732,0.426829,5.85366
6704.49,17.555,-8.05906,0,3.14466,9.31663,-0.761616,-0.853659,-1.61585,0.335366,-9.91778,0.426313,-1.57353,1.7378,0.792683,5.57927
6704.5,17.6133,-8.09683,0,3.15185,9.33579,-0.821492,-0.457317,-1.70732,-0.0914634,-9.92017,0.416733,-1.50647,1.21951,0.884146,5.2439
6704.51,17.6483,-8.14651,0,3.11832,9.38848,-0.823887,-0.182927,-0.701219,-0.213415,-9.85311,0.481399,-1.53521,1.03659,0.945122,5.2439
6704.52,17.7016,-8.18762,0,3.15185,9.29507,-0.819097,-0.27439,-0.182927,-0.213415,-9.81479,0.536484,-1.52084,0.97561,1.12805,5.79268
6704.53,17.7557,-8.19324,0,3.21412,9.27831,-0.756826,-0.792683,0.426829,-0.548781,-9.87946,0.526904,-1.43701,0.823171,1.15854,6.0061
6704.54,17.8209,-8.21353,0,3.21172,9.21843,-0.737666,0.121951,0.853659,-0.396341,-9.89862,0.500559,-1.48731,0.457317,1.31098,6.28049
6704.55,17.8724,-8.22829,0,3.12071,9.18969,-0.682581,0.792683,0.487805,0.304878,-9.88425,0.546064,-1.47054,0.243902,1.25,6.18902
6704.56,17.8648,-8.2334,0,2.98419,9.36453,-0.63947,-0.0609756,0.396341,0.243902,-9.89622,0.546064,-1.44659,0.27439,1.52439,6.12805
6704.57,17.825,-8.27243,0,2.84768,9.4268,-0.699346,-1.31098,0.701219,0.518293,-9.8555,0.524509,-1.55437,0.0609756,1.58537,6.09756
6704.58,17.7419,-8.30067,0,2.72314,9.45075,-0.684976,-1.4939,0.548781,0.27439,-9.86988,0.471819,-1.52563,-0.0304878,1.4939,6.31098
6704.59,17.7063,-8.33045,0,2.86684,9.36213,-0.754431,-1.7378,-0.640244,-0.609756,-9.90341,0.371228,-1.54239,0.0304878,1.52439,5.91463
6704.6,17.7032,-8.35687,0,3.00096,9.28789,-0.728086,-1.4939,0.0914634,-1.03659,-9.94412,0.359253,-1.53521,-0.243902,1.15854,5.39634
6704.61,17.689,-8.38146,0,2.95545,9.34776,-0.735271,-1.31098,0.213415,-0.884146,-9.89143,0.356858,-1.52563,0,1.18902,5.30488
6704.62,17.6946,-8.40473,0,3.0297,9.26394,-0.713716,-0.884146,-0.579268,-0.97561,-9.89862,0.414338,-1.52802,0.243902,1.21951,5.2439
6704.63,17.7034,-8.45249,0,3.05604,9.28789,-0.797541,0.152439,-0.335366,-0.97561,-9.86988,0.474214,-1.59269,0.823171,1.03659,5.91463
6704.64,17.688,-8.46017,0,2.96743,9.39087,-0.732876,0.243902,-0.304878,-1.0061,-9.88425,0.486189,-1.4897,0.914634,1.03659,6.4939
6704.65,17.6708,-8.4562,0,2.99617,9.40045,-0.716111,0.152439,-0.182927,-1.7378,-9.9082,0.534089,-1.46336,0.823171,0.670732,6.95122
6704.66,17.6701,-8.45028,0,3.0776,9.34297,-0.752036,-0.121951,0.487805,-1.64634,-9.90101,0.481399,-1.45617,0.121951,0.762195,7.04268
6704.67,17.6534,-8.45363,0,2.96264,9.35495,-0.744851,-0.487805,1.55488,-1.43293,-9.94173,0.471819,-1.48491,0,0.701219,7.28659
6704.68,17.625,-8.45092,0,2.8836,9.34058,-0.627495,-0.213415,1.28049,-1.37195,-9.89622,0.486189,-1.46336,-0.701219,0.731707,6.89024
6704.69,17.584,-8.44724,0,2.82373,9.41003,-0.589175,-0.701219,0.609756,-1.4939,-9.90101,0.498164,-1.46096,-0.792683,0.762195,6.98171
6704.7,17.5614,-8.45366,0,2.91713,9.34058,-0.773591,-0.792683,0,-1.64634,-9.85311,0.505349,-1.47773,-0.884146,0.609756,7.04268
6704.71,17.5589,-8.46589,0,3.04646,9.31423,-0.713716,-0.27439,0.0304878,-1.76829,-9.85072,0.502954,-1.48491,-0.426829,0.0304878,7.2561
6704.72,17.5642,-8.47657,0,3.08,9.33818,-0.670605,-0.396341,0.365854,-1.4939,-9.8579,0.469424,-1.4897,-0.213415,-0.365854,7.0122
6704.73,17.5906,-8.48086,0,3.11592,9.2304,-0.704136,-0.304878,1.28049,-1.09756,-9.85072,0.443079,-1.48012,-0.27439,-0.884146,6.82927
6704.74,17.6073,-8.47143,0,3.06083,9.30226,-0.696951,-0.426829,1.46341,-0.762195,-9.86509,0.433499,-1.44659,0,-0.914634,6.46341
6704.75,17.615,-8.4758,0,3.04407,9.2831,-0.696951,-0.426829,1.12805,-1.09756,-9.83874,0.443079,-1.47773,-0.182927,-0.914634,6.76829
6704.76,17.6175,-8.47325,0,3.00096,9.29028,-0.687371,-0.243902,0.426829,-0.853659,-9.84353,0.502954,-1.46096,0.396341,-0.884146,7.07317
6704.77,17.6125,-8.47775,0,3.00575,9.35495,-0.773591,0.0914634,-0.27439,-1.15854,-9.86748,0.476609,-1.48252,0.335366,-0.853659,7.40854
6704.78,17.5996,-8.49627,0,2.96982,9.33579,-0.64905,0.548781,-0.365854,-1.43293,-9.89622,0.488584,-1.52323,0.396341,-0.762195,7.62195
6704.79,17.5715,-8.50273,0,2.90037,9.39087,-0.62031,-0.457317,-0.884146,-1.67683,-9.93694,0.443079,-1.49928,0.121951,-0.426829,7.59146
6704.8,17.5469,-8.54166,0,2.886,9.32621,-0.708926,-0.853659,-0.640244,-1.34146,-9.9561,0.404758,-1.56155,0.121951,-0.0609756,7.22561
6704.81,17.5162,-8.56895,0,2.86444,9.36453,-0.704136,-0.823171,-0.487805,-1.61585,-9.90101,0.440684,-1.54479,-0.27439,-0.335366,7.16463
6704.82,17.4814,-8.58235,0,2.84289,9.39327,-0.732876,-0.853659,-0.701219,-1.67683,-9.8603,0.488584,-1.50886,-0.182927,-0.0304878,6.95122
6704.83,17.457,-8.58111,0,2.91234,9.36213,-0.807122,-0.426829,-1.06707,-1.98171,-9.85311,0.526904,-1.48491,-0.335366,-0.0914634,6.85976
6704.84,17.4455,-8.59161,0,3.01533,9.30705,-0.752036,-0.213415,-0.853659,-2.37805,-9.86509,0.510139,-1.51126,-0.0609756,-0.396341,7.34756
6704.85,17.4527,-8.57509,0,3.12311,9.30705,-0.720901,-0.365854,-0.579268,-2.07317,-9.90101,0.517324,-1.45378,-0.152439,-0.792683,7.2561
6704.86,17.4647,-8.57781,0,3.16622,9.32381,-0.725691,-0.701219,-0.396341,-2.07317,-9.91538,0.457449,-1.50407,0.213415,-1.09756,7.34756
6704.87,17.4958,-8.55849,0,3.19256,9.2304,-0.66821,-0.762195,0.152439,-1.55488,-9.9058,0.423918,-1.43462,0.426829,-1.34146,7.13415
6704.88,17.5175,-8.54955,0,3.08958,9.24957,-0.64426,-0.487805,1.37195,-1.12805,-9.88904,0.364043,-1.46336,0.823171,-1.09756,6.58537
6704.89,17.5357,-8.54427,0,3.04167,9.22801,-0.682581,-0.152439,0.487805,-0.914634,-9.88185,0.349673,-1.47054,0.823171,-1.28049,6.34146
6704.9,17.5447,-8.55073,0,3.02251,9.25675,-0.742456,0.27439,0.27439,-1.03659,-9.83395,0.387993,-1.49689,1.06707,-1.12805,6.15854
6704.91,17.5373,-8.57138,0,2.9794,9.32621,-0.756826,0.152439,0.97561,-1.31098,-9.83874,0.404758,-1.5376,1.4939,-1.03659,6.31098
6704.92,17.5409,-8.59427,0,3.02012,9.29986,-0.787961,-0.243902,0.0609756,-1.15854,-9.84114,0.392783,-1.54718,1.58537,-1.0061,5.91463
6704.93,17.5588,-8.59245,0,3.09197,9.3286,-0.799937,-0.426829,0,-0.97561,-9.90101,0.407153,-1.4921,1.82927,-1.03659,5.91463
6704.94,17.5766,-8.59238,0,3.09676,9.29028,-0.749641,-0.365854,0.0609756,-1.12805,-9.88664,0.416733,-1.49449,1.79878,-0.914634,5.70122
6704.95,17.5915,-8.60645,0,3.05125,9.31423,-0.696951,-0.396341,0.518293,-0.731707,-9.89383,0.407153,-1.54,2.04268,-1.31098,5.85366
6704.96,17.5861,-8.59026,0,2.97701,9.33579,-0.62989,-0.152439,0,-0.914634,-9.84832,0.404758,-1.44899,1.70732,-0.884146,6.15854
6704.97,17.5948,-8.58508,0,3.04167,9.31902,-0.713716,-0.426829,-1.0061,-0.914634,-9.86988,0.419128,-1.47773,1.67683,-0.945122,6.06707
6704.98,17.6116,-8.56977,0,3.10395,9.32381,-0.761616,-0.487805,-1.12805,-1.06707,-9.88904,0.399968,-1.45378,1.21951,-0.823171,6.28049
6704.99,17.6438,-8.55079,0,3.16382,9.33579,-0.783171,-0.640244,-0.640244,-0.823171,-9.87467,0.378413,-1.43462,1.0061,-1.09756,6.12805
6705,17.6847,-8.53858,0,3.17101,9.27352,-0.787961,-0.945122,-0.426829,-0.731707,-9.91299,0.364043,-1.45378,0.914634,-1.28049,6.15854
6705.01,17.7365,-8.55571,0,3.19017,9.2328,-0.852627,-1.03659,-0.0914634,-0.609756,-9.91778,0.376018,-1.5376,1.34146,-0.945122,5.91463
6705.02,17.792,-8.59271,0,3.14945,9.19687,-0.768801,-0.0304878,-0.304878,-0.335366,-9.87706,0.383203,-1.57832,1.55488,-0.701219,5.7622
6705.03,17.8418,-8.62552,0,3.10874,9.21843,-0.744851,0.304878,0.121951,-0.0609756,-9.86509,0.397573,-1.56874,1.98171,-0.609756,5.85366
6705.04,17.8305,-8.64255,0,2.99617,9.41243,-0.711321,0.27439,0.365854,-0.243902,-9.83395,0.385598,-1.53521,2.07317,-0.792683,5.85366
6705.05,17.7901,-8.65487,0,2.89318,9.45793,-0.689766,-0.792683,-0.884146,-0.365854,-9.82197,0.383203,-1.52084,2.16463,-0.548781,5.94512
6705.06,17.7578,-8.63543,0,2.89558,9.39566,-0.771196,-1.21951,-1.58537,-0.762195,-9.87946,0.378413,-1.46096,1.92073,-0.487805,5.91463
6705.07,17.7516,-8.60671,0,3.05365,9.3765,-0.713716,-0.884146,-1.31098,-1.46341,-9.94173,0.387993,-1.43941,1.58537,-0.640244,5.85366
6705.08,17.7642,-8.60162,0,3.14466,9.3286,-0.699346,-1.70732,-0.884146,-1.37195,-9.92975,0.390388,-1.4921,1.43293,-0.396341,5.7622
6705.09,17.7893,-8.60263,0,3.16143,9.24717,-0.675395,-1.25,-0.670732,-1.15854,-9.89862,0.438289,-1.49928,1.0061,-0.121951,6.18902
6705.1,17.8366,-8.60668,0,3.19017,9.21603,-0.680186,-1.09756,-0.731707,-0.670732,-9.92736,0.414338,-1.51126,0.792683,-0.426829,6.21951
6705.11,17.8998,-8.60957,0,3.21651,9.16574,-0.790356,-1.31098,-1.06707,-0.518293,-9.87467,0.428708,-1.50168,1.12805,-0.548781,6.61585
6705.12,17.9882,-8.58413,0,3.2213,9.15856,-0.821492,-0.945122,-0.792683,-0.0609756,-9.88425,0.443079,-1.43941,0.97561,-0.518293,6.82927
6705.13,18.0343,-8.5647,0,3.16382,9.25675,-0.740061,-0.518293,-0.426829,0.335366,-9.83156,0.435894,-1.43941,0.914634,-0.640244,6.7378
6705.14,18.0145,-8.54096,0,2.96743,9.29986,-0.799937,-0.396341,0,-0.27439,-9.85311,0.421523,-1.43701,0.243902,-0.304878,6.76829
6705.15,17.9521,-8.54736,0,2.84289,9.44117,-0.728086,-0.762195,0.243902,-0.304878,-9.84114,0.419128,-1.49449,-0.0914634,-0.762195,6.28049
6705.16,17.9038,-8.5424,0,2.85007,9.45793,-0.694556,-1.06707,-0.579268,-1.18902,-9.84114,0.397573,-1.46815,-0.365854,-0.609756,6.34146
6705.17,17.8804,-8.58056,0,3.00335,9.40045,-0.752036,-1.06707,-0.182927,-1.92073,-9.86269,0.414338,-1.56155,-0.640244,-0.365854,6.21951
6705.18,17.8775,-8.58596,0,3.11113,9.30944,-0.696951,-1.61585,-0.426829,-1.89024,-9.91538,0.407153,-1.50886,-0.396341,-0.487805,6.55488
6705.19,17.8925,-8.61745,0,3.19256,9.2328,-0.677791,-0.945122,-0.27439,-1.76829,-9.92257,0.380808,-1.57113,-0.365854,-0.487805,6.61585
6705.2,17.9163,-8.62698,0,3.18777,9.24238,-0.696951,-1.28049,0.579268,-1.25,-9.93215,0.416733,-1.53042,-0.243902,-0.731707,6.7378
6705.21,17.9483,-8.63075,0,3.17819,9.19448,-0.752036,-0.914634,0.365854,-0.97561,-9.91538,0.371228,-1.51605,-0.640244,-1.03659,7.28659
6705.22,17.9577,-8.62555,0,3.08479,9.24717,-0.771196,-0.487805,0.853659,-0.914634,-9.87706,0.376018,-1.48491,-0.640244,-1.15854,7.28659
6705.23,17.9408,-8.61485,0,3.01293,9.34776,-0.730481,-0.518293,1.25,-1.46341,-9.87706,0.378413,-1.46815,-0.823171,-1.12805,7.31707
6705.24,17.9172,-8.61716,0,2.98419,9.32142,-0.752036,-0.396341,1.4939,-1.92073,-9.87946,0.383203,-1.50407,-1.0061,-1.0061,6.85976
6705.25,17.895,-8.61956,0,3.0273,9.34776,-0.771196,-0.609756,1.95122,-2.34756,-9.91778,0.383203,-1.51126,-1.21951,-1.18902,6.76829
6705.26,17.8821,-8.6459,0,3.09676,9.33579,-0.728086,-0.792683,1.4939,-2.40854,-9.92975,0.376018,-1.57113,-0.914634,-0.640244,6.61585
6705.27,17.8855,-8.65625,0,3.18298,9.30465,-0.713716,-0.792683,1.15854,-2.16463,-9.91059,0.399968,-1.5376,-0.640244,-1.03659,6.85976
6705.28,17.8872,-8.6585,0,3.14227,9.2352,-0.673001,-0.579268,1.34146,-2.13415,-9.9082,0.392783,-1.51605,-0.823171,-1.12805,7.10366
6705.29,17.8766,-8.65825,0,3.03449,9.2807,-0.656235,-1.09756,1.4939,-1.70732,-9.82677,0.376018,-1.49689,-0.579268,-1.46341,7.34756
6705.3,17.8576,-8.64266,0,2.98419,9.26394,-0.677791,-0.335366,1.03659,-1.89024,-9.84353,0.390388,-1.45138,-0.640244,-1.40244,7.43902
6705.31,17.8342,-8.64323,0,2.99617,9.32621,-0.716111,-0.670732,0.914634,-2.28659,-9.82916,0.364043,-1.49689,-0.823171,-1.31098,7.59146
6705.32,17.81,-8.63144,0,3.01054,9.36453,-0.713716,-0.701219,0.335366,-2.43902,-9.86748,0.332908,-1.46815,-1.06707,-1.0061,7.86585
6705.33,17.7942,-8.63751,0,3.09437,9.32381,-0.661025,-1.43293,-0.152439,-2.86585,-9.86748,0.373623,-1.51605,-0.701219,-1.06707,7.7439
6705.34,17.7929,-8.62293,0,3.15185,9.26633,-0.689766,-1.4939,0.27439,-2.5,-9.87706,0.371228,-1.45857,-0.823171,-1.15854,7.7439
6705.35,17.8003,-8.62855,0,3.21891,9.26154,-0.66342,-1.40244,0.731707,-2.5,-9.86269,0.373623,-1.51126,-0.609756,-0.884146,7.86585
6705.36,17.8198,-8.64831,0,3.2213,9.2352,-0.5772,-1.43293,0.914634,-1.85976,-9.82677,0.385598,-1.54,-0.426829,-0.731707,7.86585
6705.37,17.8238,-8.6762,0,3.10874,9.26154,-0.64905,-1.25,1.46341,-1.67683,-9.82437,0.378413,-1.56395,-0.27439,-0.762195,7.9878
6705.38,17.8057,-8.71032,0,2.99856,9.27352,-0.651445,-1.40244,0.548781,-2.10366,-9.80521,0.352068,-1.57353,-0.0914634,-0.579268,8.17073
6705.39,17.7808,-8.73385,0,2.97701,9.29507,-0.759221,-1.4939,0.853659,-2.43902,-9.88425,0.373623,-1.57592,-0.0609756,-0.792683,8.10976
6705.4,17.7538,-8.7609,0,2.97222,9.27831,-0.771196,-1.46341,0.884146,-2.71341,-9.89383,0.359253,-1.5855,-0.27439,-0.609756,8.17073
6705.41,17.7303,-8.76641,0,3.03688,9.2831,-0.713716,-1.52439,1.06707,-3.20122,-9.99681,0.368833,-1.55676,-0.213415,-0.853659,7.68293
6705.42,17.7295,-8.74199,0,3.21651,9.19927,-0.701741,-1.28049,0.792683,-3.44512,-10.0327,0.402363,-1.46575,-0.731707,-1.43293,7.59146
6705.43,17.7446,-8.74311,0,3.31231,9.21843,-0.744851,-0.426829,2.04268,-3.01829,-10.0232,0.457449,-1.54718,-1.03659,-1.92073,7.80488
6705.44,17.7417,-8.7416,0,3.16622,9.33818,-0.783171,-0.518293,4.11585,-2.59146,-9.99202,0.411943,-1.53281,-1.25,-2.46951,7.95732
6705.45,17.709,-8.75458,0,2.94587,9.32381,-0.902922,-0.27439,4.35976,-2.86585,-9.96328,0.342488,-1.5879,-0.945122,-2.77439,8.35366
6705.46,17.6587,-8.77476,0,2.85486,9.38848,-0.785566,-0.792683,3.90244,-3.41463,-9.93933,0.323328,-1.61424,-0.945122,-2.59146,8.41463
6705.47,17.5929,-8.79497,0,2.77583,9.43398,-0.747246,-0.548781,3.32317,-4.05488,-9.94891,0.273032,-1.61903,-0.548781,-2.53049,8.41463
6705.48,17.5232,-8.81306,0,2.79259,9.4723,-0.754431,-0.853659,2.22561,-4.69512,-9.91059,0.201182,-1.60706,-0.213415,-2.46951,8.29268
6705.49,17.4512,-8.8187,0,2.81415,9.4723,-0.632285,-1.0061,1.98171,-5.33537,-9.97047,0.210762,-1.57113,-0.365854,-2.65244,8.53659
6705.5,17.3878,-8.81667,0,2.86205,9.41003,-0.6251,-1.67683,0.487805,-5.36585,-9.98005,0.234712,-1.54239,-0.182927,-2.65244,8.5061
6705.51,17.3279,-8.82494,0,2.89558,9.31902,-0.62031,-1.7378,-0.335366,-5.85366,-10.0567,0.275427,-1.59748,-0.0609756,-2.92683,8.23171
6705.52,17.2969,-8.82848,0,3.08,9.20406,-0.807122,-2.40854,0.0304878,-5.57927,-10.0615,0.258662,-1.58071,-0.121951,-3.53659,8.07927
6705.53,17.2819,-8.83492,0,3.18298,9.21125,-0.823887,-2.13415,0.518293,-5.18293,-10.0615,0.287402,-1.59508,0.27439,-4.17683,8.17073
6705.54,17.2531,-8.84613,0,3.06802,9.2807,-0.783171,-2.34756,0.335366,-5.03049,-10.0351,0.270637,-1.61424,0.487805,-4.7561,8.14024
6705.55,17.2216,-8.85491,0,3.03928,9.31423,-0.823887,-1.92073,0.823171,-4.90854,-9.99921,0.265847,-1.59987,1.0061,-4.96951,8.14024
6705.56,17.18,-8.8637,0,2.99617,9.3765,-0.902922,-1.95122,0.97561,-5.27439,-9.92736,0.251477,-1.59029,0.853659,-5.27439,8.10976
6705.57,17.1437,-8.85435,0,3.06323,9.36932,-0.859812,-1.92073,1.55488,-5.60976,-9.87946,0.201182,-1.50407,1.12805,-5.45732,8.29268
6705.58,17.1111,-8.83128,0,3.08479,9.30944,-0.728086,-2.43902,0.823171,-5.7622,-9.84593,0.191602,-1.43701,1.4939,-5.91463,8.20122
6705.59,17.0658,-8.82365,0,2.99856,9.331,-0.632285,-2.71341,0,-6.06707,-9.86509,0.138911,-1.50407,1.58537,-5.91463,8.29268
6705.6,17.0136,-8.82096,0,2.90276,9.35016,-0.64426,-2.7439,-0.731707,-5.70122,-9.8579,0.141306,-1.52323,1.58537,-5.60976,8.23171
6705.61,16.964,-8.82654,0,2.92432,9.30705,-0.723296,-4.08537,-1.37195,-5.94512,-9.91778,0.160466,-1.56874,1.76829,-5.4878,7.71341
6705.62,16.9268,-8.83239,0,3.00814,9.19448,-0.804727,-4.20732,-1.55488,-6.15854,-9.92017,0.172441,-1.57113,1.70732,-5.36585,7.53049
6705.63,16.9139,-8.8292,0,3.21412,9.23759,-0.792751,-4.60366,-1.76829,-5.94512,-9.92496,0.273032,-1.53281,1.89024,-5.45732,7.68293
6705.64,16.921,-8.82305,0,3.36261,9.24238,-0.797541,-4.84756,-2.0122,-5.60976,-9.90341,0.306563,-1.51605,1.92073,-5.82317,7.65244
6705.65,16.9378,-8.8254,0,3.42009,9.20885,-0.811912,-5,-1.09756,-5.39634,-9.85072,0.301772,-1.54479,1.4939,-6.12805,7.80488
6705.66,16.962,-8.81263,0,3.48715,9.19209,-0.66821,-4.17683,-0.213415,-5.42683,-9.86269,0.287402,-1.48012,0.97561,-6.21951,7.65244
6705.67,16.9767,-8.80013,0,3.38895,9.09628,-0.730481,-4.32927,0.579268,-5.64024,-9.80521,0.292192,-1.47054,0.243902,-6.37195,7.65244
6705.68,16.9719,-8.79066,0,3.21172,9.04838,-0.771196,-3.78049,1.43293,-5.7622,-9.77886,0.277822,-1.47773,0.213415,-6.34146,7.5
6705.69,16.9609,-8.78891,0,3.1758,9.12742,-0.850232,-3.44512,1.7378,-5.67073,-9.75731,0.332908,-1.50647,-0.487805,-6.12805,7.34756
6705.7,16.964,-8.78564,0,3.34584,9.12742,-0.859812,-3.75,1.52439,-6.18902,-9.77168,0.354463,-1.50168,-1.34146,-6.03659,7.22561
6705.71,16.9902,-8.78833,0,3.53505,9.09389,-0.785566,-3.75,1.85976,-6.09756,-9.79323,0.376018,-1.53042,-1.67683,-5.79268,6.98171
6705.72,17.0271,-8.77467,0,3.71228,9.14418,-0.764011,-3.87195,3.53659,-6.67683,-9.80521,0.373623,-1.46096,-2.89634,-6.0061,6.82927
6705.73,17.0725,-8.76029,0,3.753,9.12502,-0.687371,-4.20732,4.81707,-6.28049,-9.79563,0.340093,-1.45378,-3.41463,-5.67073,6.7378
6705.74,17.1168,-8.75755,0,3.71947,9.09868,-0.728086,-4.14634,6.18902,-6.06707,-9.7597,0.320933,-1.49689,-4.29878,-5.70122,6.85976
6705.75,17.172,-8.74171,0,3.74102,9.04359,-0.59157,-3.81098,6.70732,-5.39634,-9.74533,0.273032,-1.43701,-4.7561,-5.60976,6.7378
6705.76,17.2617,-8.70452,0,3.90388,8.91187,-0.613125,-3.93293,6.37195,-4.42073,-9.7621,0.249082,-1.34361,-5.36585,-5.91463,6.52439
6705.77,17.4159,-8.66526,0,4.2296,8.76338,-0.574805,-3.56707,5.94512,-3.17073,-9.75252,0.220342,-1.32684,-5.60976,-6.18902,6.52439
6705.78,17.7228,-8.63021,0,4.61281,8.55022,-0.550855,-3.65854,4.78659,-1.52439,-9.73815,0.210762,-1.33642,-5.73171,-6.15854,6.34146
6705.79,18.3291,-8.59671,0,5.20438,8.32509,-0.414338,-3.07927,4.60366,0.579268,-9.8555,0.112566,-1.35319,-5.33537,-6.28049,6.21951
6705.8,18.7607,-8.56804,0,5.99234,7.95865,-0.205972,-4.5122,4.5122,5.79268,-9.91538,0.0502954,-1.37714,-4.05488,-6.67683,5.67073
6705.81,19.3283,-8.54738,0,6.60067,7.56108,-0.129331,-5.4878,2.53049,12.2866,-9.89622,0.0598755,-1.40588,-2.22561,-7.80488,5.57927
6705.82,20.0261,-8.52663,0,7.08207,7.26888,0.112566,-6.37195,1.58537,20.3354,-9.78126,0.162861,-1.38672,0.27439,-9.26829,5.73171
6705.83,20.8343,-8.49607,0,7.44612,7.12997,0.313748,-8.23171,2.22561,28.9634,-9.60403,0.258662,-1.31726,2.83537,-11.0671,6.4939
6705.84,21.7411,-8.42842,0,7.47246,6.98867,0.450264,-10,6.06707,39.2988,-9.40764,0.318538,-1.13045,4.66463,-12.9878,6.89024
6705.85,22.6547,-8.35273,0,6.97909,7.18985,0.522114,-8.93293,10.4268,47.5,-9.24957,0.320933,-1.06818,5.70122,-14.2073,6.4939
6705.86,23.5382,-8.27562,0,6.36596,7.57545,0.713716,-7.16463,17.1646,54.6646,-9.10826,0.464634,-1.03465,7.28659,-15.2134,5.42683
6705.87,24.363,-8.20496,0,5.77918,8.10235,0.414338,-6.31098,22.9268,59.7561,-8.98851,0.692161,-1.03465,8.87195,-15.1524,3.90244
6705.88,25.1201,-8.15505,0,5.15648,8.75859,0.110171,-5.91463,24.1768,64.7561,-8.93103,0.969983,-1.09931,10.4878,-14.6646,2.86585
6705.89,25.7796,-8.12016,0,4.6655,9.48667,-0.395178,-4.90854,25.4573,65.1219,-9.05317,1.2502,-1.16637,11.4939,-13.628,2.31707
6705.9,26.3609,-8.07345,0,4.42839,10.2267,-0.998723,-2.89634,26.8598,64.1463,-9.39327,1.41546,-1.1544,12.7439,-13.2317,2.04268
6705.91,26.8583,-8.03484,0,4.10985,11.1512,-1.03944,-3.29268,22.378,63.2622,-9.68306,1.54,-1.21667,12.6829,-12.8049,1.98171
6705.92,27.3212,-8.01335,0,4.39247,12.1332,-1.11129,-6.03659,17.4085,61.4329,-9.96807,1.44659,-1.32205,12.1951,-12.6829,2.16463
6705.93,27.7775,-8.03504,0,4.711,12.4445,-1.53281,-8.62805,14.3902,60,-10.2076,1.18553,-1.54718,11.0671,-11.6768,2.46951
6705.94,28.2157,-8.12557,0,4.73016,12.0374,-1.42504,-11.6159,17.378,57.622,-10.3824,0.857417,-1.89925,9.26829,-9.17683,2.7439
6705.95,28.6268,-8.14956,0,4.44276,11.0291,-1.04423,-12.2561,20.7927,54.7561,-10.9428,0.684976,-1.68849,8.29268,-8.17073,3.59756
6705.96,29.0236,-8.194,0,4.22002,10.119,-0.773591,-6.79878,25.3963,52.7134,-11.35,0.452659,-1.86093,8.41463,-7.9878,5.21341
6705.97,29.448,-8.2806,0,4.26792,9.59445,-0.809517,1.89024,30.3963,53.5976,-11.4123,0.287402,-2.09804,9.32927,-7.40854,7.43902
6705.98,29.9653,-8.38546,0,4.94572,9.40045,-1.02267,7.10366,38.0183,56.25,-11.2302,0.239502,-2.17468,11.128,-6.4939,9.7561
6705.99,30.5556,-8.48697,0,5.68578,9.43159,-0.804727,7.83537,45.6707,57.9573,-10.9955,0.208367,-2.13396,13.0793,-7.16463,11.0976
6706,31.1933,-8.5552,0,5.96599,8.86157,-0.371228,11.0671,51.372,58.1402,-10.6243,0.323328,-1.92081,14.6341,-7.77439,11.5549
6706.01,31.7933,-8.60121,0,5.68578,8.74901,0.0455054,16.4329,50.4878,57.5,-10.3297,0.457449,-1.7771,16.311,-9.02439,11.5549
6706.02,32.3165,-8.59813,0,5.23072,9.137,0.131726,18.1707,49.8171,57.4695,-10.1645,0.59157,-1.53281,17.5,-10.5183,11.372
6706.03,32.7685,-8.54997,0,4.7589,9.43877,0.196392,18.2012,51.7988,57.4695,-10.0495,0.706531,-1.31247,17.8354,-11.8902,11.2805
6706.04,33.1908,-8.47784,0,4.61281,9.49865,0.387993,16.6768,54.3293,57.1037,-9.99442,0.814307,-1.19032,17.8049,-12.8049,11.0976
6706.05,33.5935,-8.38335,0,4.48827,9.39806,0.735271,13.8415,55,56.7378,-9.92496,0.910107,-1.07057,17.5305,-13.0793,10.6707
6706.06,34.0009,-8.27614,0,4.54335,9.12263,0.979563,12.439,55.6707,56.0976,-9.88425,1.04423,-0.993933,16.7378,-13.3841,10.8537
6706.07,34.409,-8.14397,0,4.63197,8.95977,1.03225,12.1951,56.5549,55.2439,-9.87467,1.18793,-0.864602,15.1524,-13.2317,11.0061
6706.08,34.8302,-8.01207,0,4.80441,8.78733,1.26697,12.7134,58.0183,54.6951,-9.86988,1.24541,-0.843047,13.872,-13.9329,11.4634
6706.09,35.2573,-7.88547,0,4.9553,8.76338,1.54718,12.3476,58.1098,54.4817,-9.86748,1.2981,-0.843047,11.5549,-13.7805,11.7988
6706.1,35.685,-7.74957,0,5.11816,8.7993,1.81063,10.7622,57.9573,53.9939,-9.83874,1.31008,-0.778381,9.5122,-14.0854,11.8902
6706.11,36.1174,-7.6184,0,5.18522,8.7059,1.84177,6.37195,54.5122,54.1463,-9.81,1.24781,-0.773591,7.16463,-14.4817,11.7988
6706.12,36.554,-7.53168,0,5.1924,8.36341,1.8274,3.38415,49.6037,53.2927,-9.74533,1.14242,-0.938848,5.2439,-15,11.372
6706.13,36.9696,-7.50389,0,4.90739,8.11672,1.79147,2.7439,43.8415,53.4146,-9.61121,1.01309,-1.16398,4.02439,-15.2134,10.9451
6706.14,37.3432,-7.52079,0,4.51701,7.89398,1.91123,-0.853659,36.6159,52.8049,-9.4723,0.898132,-1.33163,3.01829,-14.5122,10.4573
6706.15,37.7062,-7.56745,0,4.44755,7.58742,2.00463,-3.23171,26.7073,51.25,-9.36692,0.878972,-1.4442,2.89634,-13.2927,10.0915
6706.16,38.0744,-7.59751,0,4.68705,7.52036,1.84656,-8.53659,15.4573,49.3598,-9.38848,0.888552,-1.38432,2.80488,-12.378,9.72561
6706.17,38.4292,-7.60142,0,4.79722,7.50599,1.18793,-11.6463,5,47.4085,-9.49386,0.869392,-1.29331,2.5,-12.3171,9.7561
6706.18,38.785,-7.59401,0,4.98643,7.42935,0.895737,-14.1463,-2.04268,45.6098,-9.62079,0.866997,-1.26218,2.19512,-12.0732,9.2378
6706.19,39.1651,-7.58809,0,5.25707,7.20182,0.740061,-14.3902,-9.96951,44.2073,-9.7118,0.871787,-1.27894,1.55488,-11.6768,8.53659
6706.2,39.5797,-7.60012,0,5.61872,6.99106,0.821492,-13.4756,-16.8598,43.0793,-9.72857,0.883762,-1.35798,0.701219,-10.9756,7.71341
6706.21,40.0193,-7.61531,0,5.78876,6.61983,0.522114,-10.7317,-22.0427,41.6159,-9.63756,0.941243,-1.36037,-0.0914634,-10.2439,7.0122
6706.22,40.4602,-7.64317,0,5.88696,6.47374,0.455054,-6.4939,-20.1524,40.3659,-9.59205,1.03944,-1.41067,-0.853659,-9.63415,6.46341
6706.23,40.8563,-7.67417,0,5.82708,6.75395,0.730481,-5.7622,-13.7805,39.7561,-9.53457,1.04662,-1.42025,-1.85976,-9.39024,6.25
6706.24,41.213,-7.70064,0,5.63788,6.71803,0.65863,-3.96341,-10.5793,38.1402,-9.53697,1.06818,-1.40588,-3.04878,-8.75,6.18902
6706.25,41.5485,-7.71816,0,5.52771,6.55277,0.802332,-2.7439,-9.63415,36.4024,-9.57289,1.05381,-1.37714,-4.08537,-8.75,5.82317
6706.26,41.8782,-7.72176,0,5.73128,6.46895,0.989143,-2.22561,-10.8841,33.6585,-9.53218,1.08015,-1.31487,-5.33537,-9.05488,5.70122
6706.27,42.2088,-7.72748,0,5.9636,6.3971,0.699346,-3.04878,-11.2195,31.4634,-9.51302,1.13524,-1.32205,-6.18902,-9.2378,5.79268
6706.28,42.5648,-7.73031,0,6.33962,6.28453,0.371228,-3.62805,-10.1829,30.122,-9.61121,1.12566,-1.32445,-7.83537,-9.5122,5.67073
6706.29,42.9009,-7.73108,0,6.057,5.85582,0.119751,-0.27439,-10.5793,27.3476,-9.67109,1.06818,-1.32445,-8.07927,-9.78659,4.5122
6706.3,43.2215,-7.75652,0,6.25579,5.99234,-0.148491,4.7561,-7.65244,25.9146,-9.70462,1.02028,-1.43701,-8.56707,-10,4.20732
6706.31,43.5054,-7.78674,0,6.23424,5.96599,-0.0981958,7.22561,-5.18293,22.7744,-9.72857,0.967588,-1.46575,-8.62805,-9.7561,3.29268
6706.32,43.7557,-7.82655,0,6.32046,5.99473,-0.00718506,8.32317,-3.56707,19.3902,-9.72138,0.888552,-1.51126,-9.02439,-8.9939,2.28659
6706.33,43.9718,-7.87572,0,6.38752,6.0594,0.172441,7.28659,-0.243902,16.4329,-9.63516,0.795146,-1.54479,-8.84146,-8.29268,1.43293
6706.34,44.1845,-7.91589,0,6.33722,5.76481,0.201182,8.65854,3.56707,14.0854,-9.54655,0.759221,-1.49928,-9.45122,-7.40854,0.823171
6706.35,44.3511,-7.95352,0,6.18873,5.77439,0.426313,10.4878,6.15854,11.2805,-9.49865,0.809517,-1.48731,-9.87805,-7.04268,0.487805
6706.36,44.4762,-7.99769,0,6.06658,5.73128,0.771196,12.5305,5.33537,8.10976,-9.52499,0.857417,-1.52563,-11.0976,-6.79878,0.0914634
6706.37,44.5479,-8.03265,0,6.251,6.19831,0.819097,12.0427,0.670732,5.73171,-9.60403,0.926873,-1.50647,-11.7988,-7.19512,0.457317
6706.38,44.6072,-8.07176,0,6.26058,6.10011,0.66821,11.311,-4.54268,2.53049,-9.66151,1.0083,-1.54,-13.1098,-7.53049,0.579268
6706.39,44.817,-8.12522,0,6.18394,5.90851,0.548459,13.0793,-4.32927,-0.27439,-9.68785,1.03944,-1.61424,-14.1463,-7.92683,1.0061
6706.4,44.7862,-8.17368,0,6.13365,6.16957,0.771196,12.1951,-5.15244,-3.20122,-9.70701,1.07536,-1.60466,-14.939,-7.77439,1.28049
6706.41,44.7569,-8.25284,0,6.26537,6.09053,0.838257,9.78659,-7.71341,-5.15244,-9.68306,1.07776,-1.74357,-15.8232,-7.46951,1.89024
6706.42,44.7572,-8.34756,0,6.67492,5.98276,0.656235,7.9878,-11.0061,-6.89024,-9.70941,1.0107,-1.82979,-15.9146,-6.67683,1.64634
6706.43,44.7821,-8.45277,0,6.86652,5.73368,0.869392,9.90854,-13.2012,-8.44512,-9.74294,0.958008,-1.89686,-16.189,-5.67073,1.64634
6706.44,44.8307,-8.53484,0,7.28086,5.71452,0.814307,12.3476,-11.5854,-9.5122,-9.80521,0.924478,-1.82261,-16.4939,-5.09146,1.46341
6706.45,44.9108,-8.63688,0,7.66885,5.60195,0.902922,13.2927,-12.0122,-10.2439,-9.78366,0.874182,-1.92081,-16.4329,-4.96951,1.7378
6706.46,45.01,-8.73482,0,7.8844,5.30736,0.426313,14.7561,-14.1768,-12.622,-9.7118,0.859812,-1.90644,-16.128,-5,2.37805
6706.47,45.0678,-8.85257,0,7.92033,5.39119,0.0742456,18.2927,-14.0244,-16.0366,-9.69743,0.912502,-2.01182,-15.1524,-5.73171,3.44512
6706.48,45.0305,-8.98506,0,7.61377,5.8678,0.217947,19.2683,-12.0427,-18.7195,-9.68306,0.833467,-2.09564,-14.1768,-5.91463,5
6706.49,44.9308,-9.11249,0,7.47007,6.12167,0.641865,18.689,-10.061,-21.6768,-9.73096,0.759221,-2.10762,-12.9573,-6.06707,6.70732
6706.5,44.8199,-9.20575,0,7.72633,6.15281,1.18074,18.0488,-8.84146,-24.6646,-9.94891,0.673001,-2.02379,-11.9512,-6.85976,7.89634
6706.51,44.692,-9.30003,0,7.98979,6.24382,1.07297,18.628,-10.4573,-27.6829,-10.2818,0.486189,-2.1148,-10.3049,-7.56098,8.62805
6706.52,44.5278,-9.36672,0,8.03529,6.45458,0.656235,18.6585,-13.9329,-30.0915,-10.6387,0.335303,-2.07169,-8.41463,-7.28659,9.17683
6706.53,44.2927,-9.40948,0,7.73112,6.87131,0.328118,19.0244,-14.8476,-31.8293,-10.8734,0.256267,-2.01182,-6.37195,-7.34756,9.14634
6706.54,43.9692,-9.45086,0,7.55629,7.72394,0.716111,17.622,-15.061,-33.1707,-11.0315,0.229922,-2.04295,-3.81098,-7.62195,9.08537
6706.55,43.6584,-9.46605,0,8.20773,8.45681,0.646655,18.9634,-20.3049,-32.0732,-11.0243,0.308958,-1.91841,-1.12805,-7.53049,9.5122
6706.56,43.4553,-9.43787,0,9.5226,8.83523,0.464634,18.5671,-29.6646,-27.8354,-11.2638,0.289797,-1.74118,1.64634,-6.58537,10.1829
6706.57,43.4291,-9.39785,0,11.2662,8.50232,0.689766,13.8415,-35.9756,-22.0732,-11.6733,0.0981958,-1.73639,5.91463,-6.64634,10.1829
6706.58,43.521,-9.36525,0,12.6625,8.13828,1.07536,8.47561,-30.5488,-18.872,-11.8242,-0.177231,-1.78908,10.8841,-5.85366,9.45122
6706.59,43.6108,-9.32029,0,13.4385,8.37059,1.95673,8.47561,-13.1098,-20.5488,-11.8865,-0.536484,-1.72441,16.25,-4.26829,8.56707
6706.6,43.6424,-9.26944,0,13.4672,9.15856,2.52675,9.90854,4.29878,-21.6159,-11.8937,-0.876577,-1.69567,21.189,-1.28049,6.7378
6706.61,43.5733,-9.20612,0,11.4697,9.64953,0.898132,9.26829,9.57317,-19.878,-11.8218,-0.984353,-1.59508,24.8171,2.59146,5.30488
6706.62,43.2914,-9.08035,0,7.34792,9.72617,0.902922,5.45732,12.7134,-15.4878,-11.5847,-0.790356,-1.21667,26.6159,7.16463,4.26829
6706.63,42.6653,-8.80611,0,3.00096,9.1849,1.41067,-3.56707,10.3049,-12.4695,-11.3284,-0.186812,-0.416733,26.5244,9.78659,4.11585
6706.64,41.7116,-8.41264,0,0.423918,8.96456,1.75794,-11.3415,-10.7927,-15.7622,-10.9476,0.170046,0.227527,24.5427,12.2561,5.79268
6706.65,40.524,-7.91435,0,-1.09452,9.04838,0.981958,-15.9451,-35.6098,-21.9817,-10.986,1.39151,0.814307,18.2317,13.9024,7.43902
6706.66,39.0757,-7.37027,0,-2.6465,8.88792,-0.387993,-10.4573,-56.9512,-31.25,-10.9213,1.80824,1.12805,11.189,14.5732,8.96341
6706.67,37.4839,-6.7874,0,-3.42488,8.72985,-1.51365,-7.10366,-81.4634,-38.9634,-10.9788,2.2609,1.42983,3.93293,14.4512,9.60366
6706.68,35.8836,-6.15134,0,-2.80936,8.01613,-3.12311,-4.48171,-114.756,-47.378,-10.8351,2.61536,1.78189,-2.92683,12.9878,8.71951
6706.69,34.4328,-5.46387,0,-1.06818,8.16702,-4.57928,-3.17073,-143.994,-59.6037,-10.507,2.84049,2.09085,-9.87805,9.39024,8.07927
6706.7,33.2234,-4.74694,0,1.23344,9.23999,-5.0487,-9.5122,-144.055,-68.6585,-10.1046,2.74469,2.26569,-14.7256,6.09756,7.95732
6706.71,32.2601,-4.01425,0,3.77695,9.65672,-4.426,-12.8963,-119.36,-74.0854,-9.69743,2.32796,2.22258,-18.1098,3.29268,7.89634
6706.72,31.5448,-2.75397,0,6.4426,9.65672,-4.14099,-9.32927,-90.7317,-75.9451,-9.49386,1.61664,2.1651,-20.3354,0.731707,8.04878
6706.73,31.0077,-1.82558,0,8.29635,9.7142,-3.83682,-4.45122,-61.5549,-73.0793,-9.56571,0.63468,1.99984,-19.5122,-1.18902,7.40854
6706.74,30.5935,-1.2091,0,8.61249,9.26154,-3.8488,2.65244,-33.2012,-66.5854,-9.5705,-0.0407153,1.94236,-18.1098,-2.5,7.19512
6706.75,30.2084,-0.769719,0,7.63532,8.61968,-3.37937,10.9146,-1.67683,-61.6159,-9.68306,-0.869392,1.54958,-14.7866,-3.23171,6.34146
6706.76,29.7073,-0.422408,0,5.5804,8.35862,-2.68721,18.3537,15.3049,-58.3232,-9.71899,-1.346,1.18553,-11.5244,-2.62195,5.85366
6706.77,29.0887,-0.115388,0,4.40684,8.72266,-1.66693,21.4939,25.4573,-57.1951,-9.76928,-1.16637,0.998723,-7.40854,-2.04268,5.70122
6706.78,28.3895,0.216991,0,3.55421,8.88073,-1.21188,21.25,29.6951,-56.4939,-9.42201,-1.31966,0.809517,-3.14024,-1.34146,6.67683
6706.79,27.6114,0.69461,0,2.77583,8.97653,-0.809517,21.2195,25.7927,-56.5244,-9.30226,-0.993933,0.716111,0.548781,0.457317,8.14024
6706.8,26.7757,0.916324,0,2.23695,9.21843,-0.826282,17.7134,22.1341,-56.7683,-9.17772,-0.716111,0.63468,4.66463,1.58537,9.45122
6706.81,25.8601,1.0675,0,1.52563,9.30944,-0.787961,14.4207,7.80488,-57.7744,-9.32621,-0.426313,0.570015,7.31707,1.85976,9.05488
6706.82,24.8459,1.115,0,0.661025,9.82437,-0.747246,7.19512,-12.6524,-58.5671,-9.6184,-0.196392,0.342488,9.14634,2.2561,7.86585
6706.83,23.8497,1.11136,0,0.716111,9.66151,-0.914897,1.67683,-30.2134,-59.6037,-9.97526,0.0119751,0.182021,10.4878,2.83537,5.64024
6706.84,22.9532,1.07752,0,1.57832,9.7118,-0.958008,-3.96341,-44.1768,-61.6463,-10.2627,0.217947,0.0550855,11.5854,3.41463,2.68293
6706.85,22.0826,1.03595,0,1.85614,9.98723,-0.955613,-11.9207,-59.2988,-63.4756,-10.3632,0.402363,0.0143701,11.6463,3.5061,-0.121951
6706.86,21.3187,1.03911,0,2.75667,9.80281,-1.48491,-15.2134,-63.4451,-64.939,-10.2531,0.514929,0.201182,11.189,2.80488,-2.0122
6706.87,20.6224,1.08776,0,3.36979,9.5705,-1.84417,-14.878,-64.0854,-67.1341,-9.96807,0.603545,0.356858,9.72561,1.98171,-3.17073
6706.88,19.9558,1.17868,0,3.6524,9.33339,-2.19384,-13.1707,-64.4512,-69.5427,-9.74533,0.603545,0.469424,7.53049,1.67683,-2.92683
6706.89,19.2738,1.26753,0,3.44404,9.1825,-2.24174,-11.4634,-62.378,-70.8232,-9.58726,0.641865,0.404758,4.84756,1.06707,-2.46951
6706.9,18.6033,1.31525,0,3.42488,8.9909,-2.3064,-10.2439,-61.311,-71.6463,-9.49625,0.627495,0.299377,3.04878,0.731707,-1.40244
6706.91,17.9842,1.30344,0,3.81287,8.7059,-2.68242,-7.40854,-55.4878,-73.4756,-9.37411,0.589175,0.201182,1.28049,-0.152439,-0.121951
6706.92,17.4528,1.24748,0,4.42121,8.68195,-2.56746,-7.34756,-46.1585,-72.5915,-9.26873,0.565225,0.102986,-0.152439,-1.06707,0.823171
6706.93,17.0148,1.20613,0,4.92416,8.34185,-2.21779,-5.06098,-30.7317,-71.4329,-9.19448,0.361648,0.0790356,-1.40244,-2.19512,1.37195
6706.94,16.6031,1.18057,0,4.90739,8.32509,-1.79387,-4.05488,-16.9817,-69.5732,-9.10107,0.146096,0.0958008,-1.70732,-3.65854,1.15854
6706.95,16.21,1.14595,0,4.67987,8.20055,-1.88009,-3.32317,-9.54268,-66.8598,-9.04838,-0.0766406,0.0479004,-1.55488,-5.09146,0.548781
6706.96,15.8393,1.07335,0,4.4715,8.04248,-2.38783,-0.640244,-3.5061,-64.0854,-8.95498,-0.330513,-0.107776,-0.670732,-5.7622,-0.579268
6706.97,15.4353,0.935982,0,3.95897,7.68562,-2.62973,0.579268,2.92683,-64.5122,-8.87115,-0.488584,-0.366438,0.97561,-5.67073,-1.52439
6706.98,15.0725,0.763074,0,4.38289,8.49513,-1.85854,5.97561,7.46951,-61.2195,-8.7993,-0.598755,-0.514929,3.23171,-5.33537,-2.37805
6706.99,14.7554,0.53923,0,4.49066,8.54064,-1.69088,7.46951,13.5366,-58.2012,-8.73943,-0.6251,-0.701741,5.42683,-4.5122,-2.62195
6707,14.448,0.288536,0,4.3278,8.72027,-1.18074,8.93293,18.2622,-55.122,-8.71308,-0.65384,-0.785566,7.16463,-3.87195,-2.5
6707.01,14.1089,0.0536623,0,3.85359,8.88073,-0.914897,8.53659,16.8902,-52.9878,-8.6556,-0.584385,-0.737666,8.87195,-3.65854,-1.7378
6707.02,13.7515,-0.191222,0,3.43446,8.82565,-1.01309,8.2622,11.372,-51.0671,-8.64363,-0.502954,-0.814307,10,-3.75,-0.0609756
6707.03,13.2701,-0.427047,0,2.44771,7.77902,-0.996328,4.32927,5.94512,-56.7073,-8.57656,-0.364043,-0.790356,10.8537,-3.59756,1.92073
6707.04,12.8201,-0.673571,0,3.13987,8.59573,-1.32684,4.29878,0.457317,-59.7866,-8.54782,-0.225132,-0.888552,12.1341,-3.90244,4.54268
6707.05,12.4228,-0.987944,0,3.34824,8.93103,-1.20469,2.37805,-7.31707,-56.311,-8.49513,-0.124541,-1.03225,12.5,-3.23171,6.92073
6707.06,12.0433,-1.55267,0,3.1734,9.34058,-1.43941,1.58537,-6.92073,-51.6768,-8.46639,0.0574805,-1.16877,13.1402,-1.85976,9.2378
6707.07,11.5909,-3.26581,0,2.40699,9.22083,-1.22864,2.13415,-6.55488,-51.4329,-8.51908,0.227527,-1.18074,12.8659,0.0609756,11.2195
6707.08,11.038,-3.66006,0,1.73878,8.90947,-1.16877,-1.31098,-10.7317,-55.3049,-8.5598,0.380808,-1.14482,11.7073,1.58537,12.7134
6707.09,10.3869,-3.91527,0,1.44899,9.06754,-1.11129,-5.33537,-16.1585,-62.439,-8.60052,0.447869,-1.37714,10.3354,3.47561,13.4146
6707.1,9.69863,-4.19348,0,1.52802,9.42201,-0.886157,-11.1585,-22.0122,-67.8354,-8.71787,0.395178,-1.65496,10.2744,5.33537,14.2378
6707.11,9.09364,-4.46604,0,2.25132,9.50104,-0.771196,-14.7561,-24.8476,-69.1463,-8.96695,0.380808,-1.73878,10.7927,5.88415,14.6037
6707.12,8.507,-4.64137,0,2.33754,9.68546,-0.742456,-12.3476,-31.6768,-68.9939,-9.36213,0.239502,-1.45138,10.9146,5.39634,14.9085
6707.13,7.96764,-4.73892,0,2.66566,9.19448,-0.64905,-15.061,-31.25,-70.6707,-9.71659,0.0383203,-1.19511,10.061,4.20732,15.1829
6707.14,7.51124,-4.86794,0,3.25483,9.45314,-1.54239,-13.75,-25.6402,-69.0854,-9.87946,-0.193997,-1.36995,9.17683,4.17683,14.5427
6707.15,7.16967,-5.04987,0,4.21044,9.7142,-2.46448,-9.2378,-16.5854,-67.3476,-9.93454,-0.332908,-1.64777,9.60366,6.21951,13.2927
6707.16,6.79449,-5.26852,0,3.62366,9.43638,-2.04056,-7.7439,-19.7866,-66.5244,-9.92496,-0.366438,-1.84417,10.0915,8.87195,12.5
6707.17,6.46062,-5.47032,0,3.59971,8.93821,-2.28964,-7.13415,-14.3902,-64.9695,-10.004,-0.292192,-1.82021,10.5793,10.5793,11.5244
6707.18,6.18863,-5.63294,0,3.90867,9.24478,-1.94236,-2.86585,-7.10366,-61.3415,-10.1812,-0.227527,-1.70765,9.84756,11.189,10.3049
6707.19,5.92734,-5.78108,0,3.67635,8.69153,-1.85135,-2.86585,-6.28049,-60.8232,-10.4351,-0.143701,-1.71244,9.29878,10.9756,9.32927
6707.2,5.70081,-5.9568,0,4.20086,9.63037,-2.05732,-0.152439,-4.48171,-59.1159,-10.5668,-0.0143701,-1.89446,8.96341,10.9451,7.95732
6707.21,5.56469,-6.17049,0,4.77088,10.8638,-1.78429,2.07317,-0.457317,-50.6402,-10.6626,0.00958008,-2.12917,8.71951,12.1951,6.89024
6707.22,5.4939,-6.4103,0,4.73735,11.2422,-1.49928,-0.426829,0.731707,-42.5,-10.6722,0.0550855,-2.29922,9.08537,13.8415,5.42683
6707.23,5.47357,-6.73577,0,4.73974,10.5405,-1.5879,-2.95732,1.82927,-40.2744,-10.7081,-0.0526904,-2.77822,9.26829,17.0732,4.39024
6707.24,5.5194,-7.10944,0,5.07744,10.3872,-1.43222,-4.45122,3.62805,-37.3171,-10.7752,-0.198787,-3.10395,10.7317,20.6098,2.95732
6707.25,5.61865,-7.44617,0,5.21156,10.1022,-0.881367,-7.92683,1.18902,-34.2988,-10.8997,-0.251477,-3.02251,12.0427,23.0488,2.62195
6707.26,5.75538,-7.57629,0,5.3385,9.89383,-0.58199,-10.6402,-3.20122,-32.439,-11.2973,-0.265847,-2.1172,11.4329,23.7195,1.55488
6707.27,5.96797,-7.38515,0,5.79595,9.93933,-0.356858,-14.4207,-10.3354,-28.2927,-12.1906,0.00958008,-0.565225,7.43902,19.1768,0.609756
6707.28,6.27558,-6.96639,0,6.41626,9.99921,-0.184417,-18.4451,-18.9939,-23.1402,-13.199,0.627495,0.749641,0.27439,12.3171,-1.18902
6707.29,6.71117,-6.55996,0,7.27846,10.0998,-0.201182,-22.6524,-26.0671,-15.7622,-13.9438,1.56155,0.814307,-9.63415,9.14634,-2.46951
6707.3,7.32969,-6.25473,0,8.56938,10.3609,-0.0981958,-26.7378,-28.2317,-4.05488,-14.2432,2.40939,0.299377,-17.4695,11.372,-3.65854
6707.31,8.16115,-5.90413,0,9.85311,10.4447,0.167651,-32.378,-27.8354,11.372,-14.2767,3.18538,0.66342,-24.8476,12.5,-4.84756
6707.32,9.23743,-5.58512,0,11.1991,10.392,1.08973,-38.75,-27.7744,30.2744,-13.6636,3.22849,0.526904,-30.4573,11.4329,-5.21341
6707.33,10.5074,-5.26912,0,11.6637,10.4591,1.96152,-47.7134,-19.6646,50.2439,-12.3224,2.32317,0.524509,-33.5976,8.68902,-5.21341
6707.34,11.906,-4.88357,0,10.7584,10.1094,2.64889,-57.2866,-3.9939,68.689,-10.9021,0.960403,0.835862,-33.9939,4.05488,-5.51829
6707.35,13.3314,-3.75683,0,9.03641,9.8579,2.82133,-64.0244,9.54268,82.9878,-10.0447,-0.459844,1.25499,-29.4207,-0.0304878,-5.60976
6707.36,14.7047,-3.49225,0,6.71563,9.66151,1.31966,-64.3598,10,96.311,-9.44117,-1.84656,0.428708,-23.0488,-3.90244,-5.54878
6707.37,15.966,-3.05832,0,4.45474,9.47949,-1.41306,-52.5915,1.31098,107.348,-10.1381,-1.98547,1.31966,-16.2805,-6.55488,-5.33537
6707.38,17.1169,-2.58276,0,2.78541,10.095,-2.69679,-42.9268,-0.335366,118.537,-9.7118,-2.30161,1.30768,-6.40244,-2.56098,-6.34146
6707.39,18.1889,-0.896181,0,1.37235,11.0075,-3.2237,-34.0244,5.33537,129.817,-8.95019,-2.76146,1.67651,4.7561,0.152439,-6.52439
6707.4,19.2792,-0.509636,0,0.864602,12.5499,-2.51238,-29.1768,9.08537,140.335,-9.18729,-1.52323,1.16877,5.15244,2.71341,-5.30488
6707.41,20.4016,-0.223836,0,0.852627,13.939,-1.56155,-31.7378,6.18902,146.738,-9.0867,-1.29092,1.06099,10.8537,5.79268,-3.29268
6707.42,21.5483,0.122414,0,1.84177,14.2935,-1.16158,-32.9878,3.23171,143.659,-9.29507,-0.522114,1.37714,11.9207,5.36585,-0.426829
6707.43,22.7006,0.473602,0,3.51828,14.1737,-0.855022,-27.1951,3.56707,133.11,-9.88425,0.134121,1.41546,12.378,2.7439,3.01829
