time,angle1,angle2,intgangle,accX1,accY1,accZ1,gyroX1,gyroY1,gyroZ1,accX2,accY2,accZ2,gyroX2,gyroY2,gyroZ2
6746.73,95.4718,-1.85502,0,9.94173,-1.06339,0.502954,-2.07317,-0.487805,-2.92683,-9.92496,-0.0287402,-0.330513,-0.762195,-0.640244,6.15854
6746.74,95.4594,-1.84105,0,10.0232,-1.10171,0.390388,-2.10366,1.0061,-3.01829,-9.92736,-0.0191602,-0.285007,-1.03659,-1.0061,6.25
6746.75,95.4355,-1.84174,0,10.0543,-0.962798,0.366438,-1.92073,1.7378,-2.46951,-9.97526,-0.0431104,-0.323328,-0.670732,-0.97561,6.06707
6746.76,95.4118,-1.82293,0,9.93933,-0.914897,0.361648,-2.04268,2.04268,-1.98171,-9.96807,-0.0670605,-0.270637,-0.365854,-0.97561,5.94512
6746.77,95.3974,-1.80077,0,9.90101,-0.991538,0.323328,-1.43293,2.04268,-2.22561,-10.0112,-0.0670605,-0.251477,-0.304878,-1.31098,5.60976
6746.78,95.3749,-1.76336,0,9.78126,-0.912502,0.366438,-1.46341,2.5,-2.13415,-9.99681,-0.100591,-0.208367,-0.182927,-1.09756,6.12805
6746.79,95.3582,-1.73473,0,9.7142,-0.929268,0.337698,-1.28049,2.2561,-1.95122,-9.99681,-0.122146,-0.213157,-0.0304878,-1.64634,5.91463
6746.8,95.3424,-1.7181,0,9.72138,-0.950823,0.371228,-1.31098,2.04268,-2.19512,-9.95131,-0.122146,-0.249082,-0.457317,-1.55488,6.0061
6746.81,95.3362,-1.70476,0,9.8076,-0.998723,0.340093,-1.0061,2.0122,-1.89024,-9.93694,-0.0886157,-0.253872,-0.426829,-1.82927,6.18902
6746.82,95.3318,-1.68387,0,9.87467,-0.962798,0.371228,-0.396341,2.10366,-1.18902,-9.93454,-0.0239502,-0.227527,-0.731707,-1.70732,6.31098
6746.83,95.3239,-1.66908,0,9.9058,-0.929268,0.342488,-0.152439,1.7378,-0.914634,-9.88425,-0.0167651,-0.244292,-0.884146,-1.64634,6.25
6746.84,95.3266,-1.66849,0,9.91778,-0.977168,0.356858,0,1.09756,-0.823171,-9.88185,-0.00239502,-0.287402,-0.823171,-1.4939,5.91463
6746.85,95.3491,-1.65777,0,9.89383,-1.03465,0.383203,0.426829,0.609756,-0.457317,-9.92736,-0.0167651,-0.258662,-1.18902,-1.28049,6.03659
6746.86,95.3726,-1.64372,0,9.82197,-1.01309,0.354463,0.579268,0.304878,-0.27439,-9.93454,-0.0431104,-0.246687,-0.823171,-1.31098,5.7622
6746.87,95.4001,-1.63373,0,9.77168,-1.02028,0.385598,0.884146,0.518293,-0.243902,-9.94412,-0.0455054,-0.256267,-0.548781,-1.34146,6.0061
6746.88,95.4231,-1.62188,0,9.74054,-1.04902,0.488584,0.97561,1.03659,-0.701219,-9.91059,-0.0742456,-0.249082,-0.365854,-1.28049,6.06707
6746.89,95.4313,-1.61298,0,9.79323,-1.01549,0.514929,1.09756,1.28049,-0.945122,-9.89143,-0.0646655,-0.256267,-0.457317,-1.15854,6.15854
6746.9,95.4413,-1.61248,0,9.80521,-1.02507,0.479004,0.945122,1.89024,-0.914634,-9.88425,-0.0311353,-0.277822,-0.670732,-0.853659,6.34146
6746.91,95.4417,-1.62032,0,9.81719,-0.993933,0.526904,0.640244,1.89024,-1.09756,-9.88425,-0.0838257,-0.294587,-0.487805,-0.457317,6.31098
6746.92,95.439,-1.59707,0,9.80521,-0.991538,0.510139,0.609756,1.40244,-1.31098,-9.88425,-0.0574805,-0.237107,-0.457317,-0.27439,6.28049
6746.93,95.4435,-1.59661,0,9.83874,-1.00351,0.536484,0.335366,1.15854,-0.914634,-9.90341,-0.0263452,-0.275427,-0.0609756,-0.0914634,6.15854
6746.94,95.4388,-1.57574,0,9.78605,-0.958008,0.560435,0.304878,1.37195,-1.0061,-9.91778,-0.0143701,-0.241897,-0.243902,-0.0609756,5.94512
6746.95,95.4386,-1.61132,0,9.7142,-0.996328,0.66342,0.0914634,1.09756,-1.34146,-9.95131,-0.0574805,-0.335303,0.0304878,0.0914634,6.12805
6746.96,95.4373,-1.6539,0,9.68546,-0.979563,0.641865,0.213415,0.731707,-1.25,-9.98005,-0.0311353,-0.364043,0.487805,0.27439,6.12805
6746.97,95.4312,-1.68217,0,9.6639,-0.969983,0.689766,-0.0609756,0.579268,-1.52439,-10.0016,-0.0622705,-0.352068,0.640244,0.518293,6.15854
6746.98,95.4186,-1.6748,0,9.72138,-0.926873,0.65384,-0.213415,0.27439,-1.34146,-10.0567,-0.0311353,-0.280217,1.0061,0.243902,5.79268
6746.99,95.4071,-1.6621,0,9.77168,-0.938848,0.730481,-0.152439,-0.396341,-1.40244,-10.0663,-0.0311353,-0.270637,1.0061,-0.0914634,5.42683
6747,95.3952,-1.65833,0,9.83635,-0.955613,0.696951,0,-1.34146,-1.61585,-10.0399,-0.00479004,-0.282612,1.12805,-0.670732,5.03049
6747.01,95.3889,-1.67648,0,9.84593,-0.967588,0.694556,-0.335366,-1.67683,-1.31098,-9.97047,-0.00479004,-0.330513,1.06707,-0.579268,4.90854
6747.02,95.3869,-1.68314,0,9.85072,-0.991538,0.61552,-0.640244,-1.43293,-1.31098,-9.98963,-0.00718506,-0.308958,1.09756,-0.670732,4.7561
6747.03,95.3901,-1.70781,0,9.82437,-1.00591,0.637075,-0.670732,-1.18902,-1.15854,-10.004,0.0215552,-0.342488,1.28049,-0.243902,4.78659
6747.04,95.3985,-1.71652,0,9.72378,-1.00112,0.56283,-0.97561,-0.609756,-0.945122,-9.96568,0.0311353,-0.316143,1.06707,-0.457317,4.60366
6747.05,95.4034,-1.69702,0,9.75491,-1.01788,0.555645,-0.945122,-0.548781,-1.28049,-9.96089,0.0838257,-0.263452,0.609756,-0.152439,4.29878
6747.06,95.4115,-1.68682,0,9.75012,-1.02746,0.560435,-0.670732,-0.304878,-1.18902,-9.93454,0.105381,-0.277822,0.27439,0,4.5122
6747.07,95.4223,-1.66214,0,9.7597,-1.02746,0.550855,-0.670732,-0.365854,-1.0061,-9.92257,0.0886157,-0.246687,0.304878,-0.243902,4.17683
6747.08,95.434,-1.61435,0,9.78126,-1.02267,0.510139,-0.640244,-0.701219,-0.853659,-9.92975,0.0862207,-0.196392,-0.548781,-0.304878,3.96341
6747.09,95.4529,-1.57357,0,9.77886,-1.04902,0.474214,-0.335366,-0.792683,-0.762195,-9.92975,0.0622705,-0.196392,-0.701219,-0.426829,3.87195
6747.1,95.4681,-1.54427,0,9.75731,-1.0562,0.464634,-0.304878,-1.43293,-1.0061,-9.92257,0.0215552,-0.220342,-0.884146,-0.182927,3.96341
6747.11,95.4791,-1.53365,0,9.78126,-1.08734,0.479004,-0.0304878,-1.4939,-1.46341,-9.92257,-0.0191602,-0.249082,-0.640244,0.121951,3.75
6747.12,95.4782,-1.53231,0,9.83874,-1.02746,0.431104,0.426829,-1.52439,-1.4939,-9.92017,-0.0311353,-0.263452,-1.12805,0,4.02439
6747.13,95.4691,-1.51198,0,9.75012,-0.965193,0.479004,-0.0609756,-1.76829,-1.46341,-9.89622,-0.0574805,-0.227527,-1.92073,0.243902,4.17683
6747.14,95.4766,-1.5221,0,9.75491,-1.06818,0.498164,0.121951,-1.98171,-1.52439,-9.87706,-0.0742456,-0.277822,-2.68293,0.152439,4.45122
6747.15,95.4772,-1.54558,0,9.82197,-1.07297,0.443079,0.335366,-1.89024,-1.92073,-9.84114,-0.119751,-0.296982,-2.71341,0,4.63415
6747.16,95.4683,-1.55336,0,9.87946,-1.0083,0.510139,0.152439,-1.79878,-1.82927,-9.91059,-0.150886,-0.285007,-2.04268,-0.579268,5.27439
6747.17,95.4592,-1.55157,0,9.86988,-0.998723,0.488584,0.304878,-1.67683,-1.76829,-9.93694,-0.184417,-0.265847,-1.70732,-0.701219,6.21951
6747.18,95.4537,-1.54855,0,9.84353,-1.00591,0.433499,0.548781,-1.76829,-1.61585,-9.97047,-0.251477,-0.263452,-0.945122,-0.670732,6.4939
6747.19,95.4371,-1.55418,0,9.91778,-0.955613,0.419128,0.335366,-1.52439,-1.82927,-9.98723,-0.301772,-0.282612,-0.243902,-0.457317,6.76829
6747.2,95.4142,-1.54572,0,9.88185,-0.917292,0.395178,0.243902,-1.12805,-2.0122,-10.0327,-0.325723,-0.256267,-0.0609756,-0.152439,6.43293
6747.21,95.3972,-1.54022,0,9.88425,-0.953218,0.373623,-0.121951,-0.701219,-1.98171,-10.0232,-0.308958,-0.258662,0.335366,-0.457317,5.70122
6747.22,95.3812,-1.50161,0,9.85311,-0.979563,0.376018,-0.487805,-0.335366,-2.31707,-9.98963,-0.311353,-0.198787,0.518293,-0.121951,5.36585
6747.23,95.3701,-1.4716,0,9.86269,-1.00112,0.407153,-0.792683,0.213415,-2.16463,-9.97286,-0.265847,-0.196392,0.701219,-0.487805,5.09146
6747.24,95.3568,-1.45005,0,9.88904,-0.967588,0.414338,-0.609756,0.518293,-1.92073,-9.92017,-0.280217,-0.208367,0.304878,-0.548781,5.2439
6747.25,95.3509,-1.45273,0,9.87467,-0.993933,0.433499,-0.640244,1.06707,-1.67683,-9.9082,-0.210762,-0.256267,1.15854,-0.335366,4.90854
6747.26,95.3499,-1.46465,0,9.82916,-1.0083,0.392783,-0.792683,0.884146,-1.55488,-9.8579,-0.138911,-0.268242,0.731707,0,5.12195
6747.27,95.3507,-1.47401,0,9.83156,-0.979563,0.419128,-0.762195,0.579268,-1.06707,-9.86509,-0.107776,-0.270637,1.0061,0.457317,5.51829
6747.28,95.3597,-1.49005,0,9.78366,-1.0083,0.431104,-0.365854,0.670732,-0.97561,-9.86748,-0.0526904,-0.289797,1.15854,0.701219,5.7622
6747.29,95.3673,-1.48898,0,9.73575,-0.979563,0.502954,-0.182927,0.548781,-0.762195,-9.91778,-0.0143701,-0.253872,1.28049,1.21951,6.15854
6747.3,95.3762,-1.47207,0,9.77407,-0.996328,0.469424,-0.0304878,0.182927,-0.823171,-9.97286,0,-0.215552,0.853659,0.823171,5.7622
6747.31,95.385,-1.43821,0,9.7597,-1.0083,0.512534,0.182927,0,-0.97561,-9.98005,0.0167651,-0.182021,0.731707,0.487805,6.03659
6747.32,95.3962,-1.42108,0,9.77168,-1.01788,0.55325,0.487805,0.182927,-0.914634,-9.92496,-0.00239502,-0.210762,0.365854,0.579268,6.06707
6747.33,95.4037,-1.41295,0,9.78605,-1.02267,0.510139,0.304878,-0.243902,-1.12805,-9.92257,-0.0526904,-0.232317,0.152439,0.0914634,6.12805
6747.34,95.4121,-1.39599,0,9.81958,-1.04183,0.476609,0.335366,-0.365854,-1.21951,-9.91538,-0.0670605,-0.215552,-0.213415,-0.121951,6.28049
6747.35,95.4188,-1.40684,0,9.80281,-1.01788,0.534089,0.396341,-0.365854,-1.06707,-9.89143,-0.129331,-0.258662,-0.0304878,0.0609756,6.06707
6747.36,95.4211,-1.4376,0,9.82437,-1.0083,0.529299,0.365854,-0.213415,-1.18902,-9.87227,-0.105381,-0.294587,0.243902,0.152439,6.31098
6747.37,95.4232,-1.44891,0,9.81958,-0.981958,0.531694,0.335366,0.152439,-0.853659,-9.90101,-0.138911,-0.270637,-0.152439,0.396341,6.64634
6747.38,95.424,-1.42036,0,9.81479,-0.977168,0.474214,0,0.0609756,-0.884146,-9.92736,-0.131726,-0.198787,0,0.213415,6.46341
6747.39,95.42,-1.43307,0,9.81958,-0.969983,0.486189,0.0914634,0.182927,-1.12805,-9.95849,-0.117356,-0.268242,-0.365854,-0.0304878,6.40244
6747.4,95.4229,-1.40146,0,9.77886,-0.989143,0.486189,0.0609756,-0.121951,-0.97561,-9.98005,-0.129331,-0.184417,-0.152439,0.365854,6.89024
6747.41,95.4226,-1.38392,0,9.72617,-0.986748,0.507744,0.579268,-0.152439,-1.25,-9.98244,-0.143701,-0.213157,-0.243902,0.0914634,6.92073
6747.42,95.4209,-1.35569,0,9.78366,-1.00112,0.440684,-0.243902,-0.121951,-1.43293,-9.94173,-0.131726,-0.189207,-0.0914634,-0.182927,6.98171
6747.43,95.4222,-1.32138,0,9.79084,-0.993933,0.486189,-0.182927,0.0609756,-1.12805,-9.97286,-0.162861,-0.174836,-0.426829,-0.121951,7.04268
6747.44,95.4194,-1.31999,0,9.83635,-1.0083,0.459844,-0.0304878,0.335366,-1.52439,-9.97047,-0.129331,-0.227527,-0.548781,-0.243902,6.98171
6747.45,95.4073,-1.35587,0,9.83874,-0.946033,0.517324,-0.243902,0.579268,-1.46341,-9.98005,-0.136516,-0.306563,-0.945122,-0.426829,6.95122
6747.46,95.4025,-1.39933,0,9.83874,-1.0107,0.469424,-0.27439,-0.0609756,-1.7378,-9.94412,-0.160466,-0.308958,-0.548781,-0.0609756,6.76829
6747.47,95.3997,-1.42126,0,9.86509,-0.998723,0.493374,-0.304878,-0.27439,-1.40244,-9.96568,-0.213157,-0.282612,-0.487805,-0.121951,6.85976
6747.48,95.3941,-1.41742,0,9.81479,-0.996328,0.493374,-0.213415,-0.304878,-1.67683,-9.9537,-0.186812,-0.239502,-0.27439,-0.365854,7.04268
6747.49,95.3843,-1.42212,0,9.85072,-0.972378,0.452659,0,-0.182927,-1.67683,-9.92975,-0.160466,-0.256267,-0.426829,-0.518293,7.2561
6747.5,95.3837,-1.42464,0,9.83874,-1.01549,0.483794,0.0304878,-0.152439,-1.52439,-9.95849,-0.148491,-0.253872,-0.304878,-0.701219,7.34756
6747.51,95.3861,-1.43481,0,9.83156,-0.996328,0.474214,0.0304878,0.0914634,-1.09756,-9.89143,-0.196392,-0.268242,-0.0304878,-0.548781,7.5
6747.52,95.384,-1.47103,0,9.81719,-0.993933,0.488584,-0.243902,0.609756,-1.40244,-9.9082,-0.146096,-0.318538,0.0609756,-0.335366,7.56098
6747.53,95.3938,-1.4903,0,9.76689,-1.05381,0.502954,-0.396341,0.396341,-1.37195,-9.88425,-0.160466,-0.285007,-0.182927,0.0609756,7.2561
6747.54,95.3994,-1.49938,0,9.79084,-1.03704,0.452659,-0.335366,0.182927,-1.40244,-9.90341,-0.0862207,-0.273032,0.152439,0.121951,7.10366
6747.55,95.4059,-1.51017,0,9.75731,-1.04183,0.481399,-0.182927,0.426829,-1.43293,-9.8579,-0.0646655,-0.275427,-0.152439,0.0914634,7.0122
6747.56,95.4099,-1.52926,0,9.79323,-1.02746,0.440684,-0.152439,0.0304878,-1.37195,-9.89143,-0.0287402,-0.296982,0.0914634,0.335366,6.89024
6747.57,95.4165,-1.50286,0,9.8124,-1.04902,0.490979,-0.152439,0.487805,-1.40244,-9.89143,-0.0263452,-0.222737,-0.365854,0,6.98171
6747.58,95.4267,-1.49359,0,9.81958,-1.02267,0.500559,-0.121951,0.670732,-0.884146,-10.0016,-0.0407153,-0.246687,-0.518293,0,6.7378
6747.59,95.4313,-1.48797,0,9.79323,-1.03225,0.512534,-0.121951,0.396341,-1.34146,-9.94173,-0.0455054,-0.249082,-0.945122,0.152439,6.85976
6747.6,95.4347,-1.47082,0,9.80521,-1.02986,0.512534,0.213415,0.213415,-1.37195,-9.9082,-0.0622705,-0.225132,-1.09756,0.27439,7.22561
6747.61,95.4314,-1.48283,0,9.76928,-0.993933,0.486189,-0.0609756,-0.121951,-1.46341,-9.91538,-0.0550855,-0.280217,-0.884146,0.548781,7.43902
6747.62,95.4245,-1.489,0,9.79323,-0.981958,0.452659,0.365854,0.0914634,-1.55488,-9.92017,-0.107776,-0.270637,-1.09756,0.701219,7.46951
6747.63,95.4204,-1.49023,0,9.81958,-0.979563,0.486189,0.0914634,-0.27439,-1.28049,-9.94891,-0.124541,-0.261057,-1.0061,0.97561,7.59146
6747.64,95.4096,-1.47683,0,9.85311,-0.960403,0.514929,0.243902,0.152439,-1.52439,-9.98244,-0.112566,-0.229922,-0.853659,0.487805,7.31707
6747.65,95.3987,-1.49805,0,9.82677,-0.938848,0.450264,0.518293,0.121951,-1.28049,-10.0399,-0.100591,-0.299377,-0.670732,-0.152439,7.43902
6747.66,95.3921,-1.49801,0,9.8076,-0.958008,0.481399,0.335366,0.0914634,-1.25,-10.0615,-0.158071,-0.263452,-0.182927,-0.487805,7.56098
6747.67,95.395,-1.48744,0,9.79563,-0.984353,0.517324,0.487805,-0.213415,-0.945122,-10.0782,-0.100591,-0.234712,-0.518293,-0.945122,7.5
6747.68,95.3933,-1.48008,0,9.82437,-0.981958,0.440684,0.243902,-0.182927,-1.18902,-10.0423,-0.126936,-0.237107,-0.304878,-1.64634,7.31707
6747.69,95.3873,-1.47405,0,9.81958,-0.953218,0.481399,0.304878,-0.213415,-1.12805,-10.0423,-0.122146,-0.239502,-0.579268,-1.89024,7.31707
6747.7,95.3813,-1.49359,0,9.84593,-0.955613,0.522114,0.304878,-0.0609756,-1.12805,-9.98723,-0.134121,-0.330513,-0.426829,-2.10366,7.22561
6747.71,95.3853,-1.51116,0,9.85311,-1.01549,0.55325,0.213415,-0.152439,-1.18902,-9.92736,-0.138911,-0.320933,-0.182927,-1.85976,7.19512
6747.72,95.3924,-1.53224,0,9.8124,-0.993933,0.536484,0.701219,-0.243902,-0.792683,-9.96328,-0.153281,-0.335303,-0.365854,-1.70732,7.16463
6747.73,95.4001,-1.53498,0,9.79803,-1.00351,0.534089,0.335366,-0.213415,-0.884146,-9.94891,-0.174836,-0.277822,-0.0914634,-2.07317,7.04268
6747.74,95.4091,-1.54547,0,9.79563,-1.0107,0.529299,0.0304878,-0.396341,-0.884146,-9.97526,-0.124541,-0.308958,0.152439,-2.31707,6.98171
6747.75,95.4249,-1.55839,0,9.78126,-1.02267,0.555645,0.243902,-0.213415,-0.670732,-9.99442,-0.122146,-0.320933,0,-2.34756,7.13415
6747.76,95.4394,-1.5557,0,9.78126,-1.02267,0.455054,0.182927,-0.121951,-0.701219,-9.99202,-0.0934058,-0.263452,0.487805,-2.83537,6.92073
6747.77,95.4548,-1.53804,0,9.74054,-1.02267,0.512534,-0.0304878,-0.27439,-0.701219,-10.0112,-0.0670605,-0.201182,0.304878,-3.29268,7.13415
6747.78,95.4635,-1.52757,0,9.75491,-1.01309,0.493374,-0.0609756,-0.518293,-0.884146,-10.0184,-0.0407153,-0.227527,0.0914634,-4.02439,7.22561
6747.79,95.4736,-1.5242,0,9.77168,-1.0083,0.488584,0.121951,-0.518293,-0.701219,-10.0208,-0.0311353,-0.256267,-0.0609756,-4.05488,7.22561
6747.8,95.4962,-1.52321,0,9.81,-1.02746,0.543669,0.396341,-0.426829,-0.243902,-10.0088,-0.0311353,-0.265847,-0.182927,-4.42073,7.37805
6747.81,95.5022,-1.52214,0,9.80042,-0.981958,0.481399,0.457317,-1.0061,-0.426829,-10.016,-0.0502954,-0.265847,-0.701219,-4.81707,7.37805
6747.82,95.5084,-1.52192,0,9.84353,-0.977168,0.524509,0.365854,-1.34146,-0.213415,-10.0567,-0.0479004,-0.270637,-0.579268,-5.03049,7.65244
6747.83,95.5072,-1.53118,0,9.8076,-0.953218,0.574805,0.27439,-1.46341,-0.335366,-10.0854,-0.0886157,-0.313748,-0.457317,-5.54878,7.56098
6747.84,95.5146,-1.51937,0,9.81958,-0.984353,0.517324,0.27439,-1.76829,-0.304878,-10.0854,-0.112566,-0.222737,-0.213415,-6.37195,7.56098
6747.85,95.5146,-1.51725,0,9.82677,-0.943638,0.548459,0.0914634,-1.64634,0.152439,-10.1525,-0.107776,-0.265847,0.27439,-6.89024,7.65244
6747.86,95.5258,-1.51072,0,9.8124,-0.979563,0.531694,0.27439,-1.43293,0.182927,-10.1597,-0.102986,-0.246687,0.152439,-7.7439,7.59146
6747.87,95.5343,-1.50161,0,9.76928,-0.958008,0.505349,0.0304878,-1.4939,0.548781,-10.1597,-0.105381,-0.234712,0.27439,-8.62805,7.56098
6747.88,95.5468,-1.49299,0,9.77168,-0.958008,0.550855,-0.0304878,-1.34146,1.06707,-10.2052,-0.0934058,-0.237107,0.426829,-9.5122,7.22561
6747.89,95.556,-1.47555,0,9.78126,-0.934058,0.59157,0.121951,-1.25,1.25,-10.1932,-0.0598755,-0.196392,1.09756,-10.3354,7.37805
6747.9,95.5796,-1.45509,0,9.75012,-1.0083,0.531694,-0.0609756,-2.04268,1.34146,-10.1669,-0.0359253,-0.179626,0.914634,-10.7927,7.40854
6747.91,95.6052,-1.43219,0,9.72138,-1.02507,0.565225,-0.152439,-2.2561,1.15854,-10.1333,-0.00239502,-0.165256,0.701219,-11.5854,7.46951
6747.92,95.6345,-1.40634,0,9.75012,-1.05381,0.56762,-0.487805,-2.7439,1.09756,-10.1094,-0.0191602,-0.148491,0.579268,-12.561,7.7439
6747.93,95.6545,-1.38469,0,9.73096,-1.01549,0.56762,-0.426829,-2.68293,0.792683,-10.1046,-0.0550855,-0.162861,0.426829,-12.8659,7.37805
6747.94,95.7111,-1.35664,0,9.75012,-1.14003,0.543669,-0.792683,-2.62195,0.121951,-10.1381,-0.0455054,-0.131726,0.457317,-13.7805,7.53049
6747.95,95.7139,-1.31937,0,9.8124,-0.960403,0.555645,-0.518293,-3.23171,0.762195,-10.1477,-0.0622705,-0.0862207,0.27439,-14.3902,7.2561
6747.96,95.7411,-1.28599,0,9.73575,-1.06099,0.55804,-0.731707,-3.2622,1.0061,-10.1645,-0.0838257,-0.0981958,0.365854,-15.5793,7.59146
6747.97,95.787,-1.2694,0,9.75252,-1.13524,0.543669,-0.97561,-3.84146,0.365854,-10.1405,-0.126936,-0.167651,0.243902,-16.1585,7.46951
6747.98,95.8263,-1.23126,0,9.7597,-1.12326,0.534089,-1.18902,-3.68902,0.426829,-10.1405,-0.131726,-0.0694556,0.640244,-17.439,7.86585
6747.99,95.8652,-1.19675,0,9.76689,-1.15679,0.514929,-1.55488,-3.10976,-0.396341,-10.083,-0.143701,-0.0790356,1.0061,-18.0488,8.01829
6748,95.8879,-1.1494,0,9.84832,-1.20948,0.486189,-2.19512,-2.28659,-1.21951,-10.0902,-0.162861,-0.0167651,0.640244,-19.0244,8.23171
6748.01,95.9035,-1.09299,0,9.83395,-1.27894,0.421523,-2.68293,-1.58537,-2.16463,-10.119,-0.138911,0.0311353,0.670732,-19.939,8.68902
6748.02,95.9036,-1.0301,0,9.80521,-1.28852,0.368833,-2.2561,-1.40244,-3.41463,-10.1525,-0.105381,0.0694556,0.884146,-20.8537,9.02439
6748.03,95.8915,-0.958268,0,9.8579,-1.21427,0.390388,-1.76829,-0.945122,-3.62805,-10.1453,-0.0646655,0.119751,0.396341,-21.7378,9.29878
6748.04,95.8707,-0.86711,0,9.8579,-1.18793,0.335303,-1.98171,-0.213415,-4.17683,-10.1429,-0.0670605,0.217947,0.365854,-22.7744,9.81707
6748.05,95.8436,-0.790044,0,9.85072,-1.08494,0.277822,-1.76829,0.121951,-3.65854,-10.1405,-0.0383203,0.170046,-0.0609756,-23.9024,10.2134
6748.06,95.8195,-0.713271,0,9.84593,-1.09213,0.258662,-1.92073,0.365854,-3.5061,-10.1669,-0.00718506,0.182021,-0.457317,-24.8476,10.1524
6748.07,95.8013,-0.607519,0,9.92257,-1.11608,0.191602,-1.85976,0.853659,-3.17073,-10.1261,0.00718506,0.323328,-0.823171,-25.9451,10.3049
6748.08,95.7758,-0.483932,0,9.89383,-1.01788,0.270637,-1.18902,1.09756,-2.77439,-10.1381,0.0263452,0.421523,-0.548781,-26.7683,10.2439
6748.09,95.7554,-0.374576,0,9.78366,-1.04902,0.189207,-1.46341,1.28049,-2.86585,-10.1142,0.0574805,0.378413,-0.27439,-27.2561,10.6402
6748.1,95.7376,-0.280734,0,9.7621,-1.06578,0.296982,-1.03659,0.823171,-2.89634,-10.1237,0.0550855,0.328118,-0.640244,-28.0488,10.8841
6748.11,95.7184,-0.167158,0,9.75252,-1.0586,0.311353,-0.579268,1.12805,-2.9878,-10.1453,0.0862207,0.433499,-0.823171,-28.4146,11.0671
6748.12,95.6955,-0.0633804,0,9.7621,-1.04423,0.366438,-0.487805,0.335366,-3.20122,-10.1501,0.0670605,0.409548,-1.18902,-28.872,11.128
6748.13,95.6734,0.042319,0,9.74773,-1.0586,0.435894,-0.335366,0.243902,-3.35366,-10.1429,0.0119751,0.435894,-1.40244,-29.2988,10.7317
6748.14,95.6546,0.14033,0,9.74773,-1.09692,0.433499,-0.121951,-0.792683,-3.53659,-10.1214,-0.0550855,0.419128,-1.15854,-29.5122,10.6707
6748.15,95.6316,0.276585,0,9.78605,-1.08255,0.431104,0.335366,-1.31098,-3.75,-10.1118,-0.0766406,0.60594,-0.945122,-30.6707,10.9451
6748.16,95.6029,0.410796,0,9.78605,-1.08255,0.421523,1.09756,-1.92073,-4.35976,-10.1573,-0.0718506,0.622705,-0.640244,-31.8293,10.7622
6748.17,95.5695,0.53913,0,9.81479,-1.0107,0.447869,1.46341,-2.43902,-3.9939,-10.1333,-0.0814307,0.617915,-0.0609756,-32.7439,11.0671
6748.18,95.5394,0.698001,0,9.76689,-1.06339,0.455054,0.762195,-2.56098,-4.42073,-10.0878,-0.0694556,0.773591,-0.121951,-33.5061,11.128
6748.19,95.5093,0.852052,0,9.88185,-1.16398,0.347278,0.243902,-1.92073,-5.4878,-10.1046,-0.0431104,0.780776,0.0609756,-34.2988,11.0671
6748.2,95.4738,1.02476,0,9.97047,-1.19751,0.285007,-0.304878,-0.304878,-6.37195,-10.0471,-0.0215552,0.886157,0.335366,-34.939,10.8841
6748.21,95.435,1.20401,0,9.94652,-1.17595,0.280217,0,1.55488,-6.55488,-9.97765,0.0287402,0.938848,-0.0914634,-35.5183,10.8841
6748.22,95.3902,1.39246,0,9.9082,-1.15679,0.241897,0.27439,3.04878,-7.07317,-9.91059,0.0670605,1.00351,0.0304878,-36.5549,10.7012
6748.23,95.3406,1.56913,0,9.94652,-1.13524,0.356858,-0.0304878,4.39024,-7.34756,-9.8603,0.0407153,0.979563,-0.0304878,-36.4634,10.7012
6748.24,95.2893,1.73982,0,9.93215,-1.10171,0.316143,0.27439,5.60976,-7.2561,-9.88904,0.0167651,0.986748,0.213415,-36.6159,10.2744
6748.25,95.2345,1.93781,0,9.81479,-1.1041,0.282612,0.487805,6.09756,-7.89634,-9.89622,0.00239502,1.13763,0.0914634,-36.7683,10.3354
6748.26,95.1809,2.14534,0,9.89622,-1.10889,0.340093,0.701219,6.0061,-7.83537,-9.97765,-0.0143701,1.22386,-0.0609756,-37.439,9.96951
6748.27,95.1174,2.34751,0,9.76928,-1.02267,0.328118,1.0061,5.36585,-8.10976,-10.0351,0,1.24302,0.426829,-38.3232,10.061
6748.28,95.0465,2.56393,0,9.75731,-0.998723,0.318538,0.548781,4.93902,-8.71951,-10.0256,0.00718506,1.34121,0.609756,-38.9939,10
6748.29,94.976,2.78708,0,9.79323,-1.02986,0.275427,0.914634,5.06098,-9.14634,-9.96807,0.0431104,1.40109,0.670732,-40,9.96951
6748.3,94.9023,3.00077,0,9.72138,-1.0083,0.392783,0.97561,5.45732,-9.45122,-9.90341,0.0622705,1.38911,1.43293,-40.1524,10.061
6748.31,94.8208,3.23272,0,9.7118,-0.984353,0.469424,1.09756,5.33537,-10.122,-9.87946,0.0886157,1.50407,1.34146,-40.7622,9.93902
6748.32,94.736,3.49108,0,9.74773,-0.953218,0.462239,0.97561,5.4878,-10.2134,-9.8076,0.0838257,1.65017,1.61585,-41.6463,9.81707
6748.33,94.6499,3.75124,0,9.69504,-0.948428,0.531694,1.12805,4.81707,-10.5183,-9.83156,0.117356,1.70765,1.52439,-41.9207,9.7561
6748.34,94.563,4.01642,0,9.74294,-0.941243,0.531694,0.97561,5.30488,-10.6402,-9.79803,0.110171,1.76992,1.92073,-42.0427,9.45122
6748.35,94.4789,4.27691,0,9.84832,-0.958008,0.531694,0.97561,5.18293,-10.6098,-9.7621,0.117356,1.78908,1.43293,-42.2561,9.42073
6748.36,94.3873,4.56989,0,9.91059,-0.876577,0.510139,1.4939,5.85366,-10.5183,-9.7597,0.270637,1.97829,0.609756,-43.811,9.48171
6748.37,94.3025,4.84511,0,9.8555,-0.924478,0.299377,2.22561,4.7561,-10.6402,-9.76449,0.110171,1.95194,1.25,-43.5061,9.69512
6748.38,94.2084,5.12189,0,10.0758,-0.866997,0.275427,1.82927,6.92073,-10.8537,-9.80042,0.143701,2.01421,1.61585,-44.6037,9.96951
6748.39,94.1072,5.42083,0,10.2962,-0.785566,0.421523,1.34146,9.17683,-10.6402,-9.80042,0.129331,2.1627,1.34146,-45.7622,10.2744
6748.4,94.0079,5.73713,0,10.4495,-0.792751,0.210762,2.65244,10.6707,-10.6098,-9.75012,0.167651,2.28245,1.43293,-47.0427,10.4268
6748.41,93.8981,6.06876,0,10.174,-0.802332,0.359253,0.97561,12.1341,-12.2256,-9.67827,0.244292,2.39023,1.92073,-48.2622,10.8841
6748.42,93.7837,6.40182,0,9.73575,-0.65863,0.524509,1.06707,8.44512,-11.6159,-9.54176,0.215552,2.42136,1.58537,-48.5671,10.7012
6748.43,93.6631,6.73946,0,10.0639,-0.713716,0.237107,1.31098,13.4146,-12.8659,-9.44596,0.232317,2.47645,1.21951,-47.9878,10.4878
6748.44,93.5584,7.08356,0,10.1669,-0.759221,0.548459,0.823171,10.7012,-11.9207,-9.34776,0.172441,2.53872,1.25,-47.4085,10.3659
6748.45,93.4788,7.40604,0,9.80521,-0.711321,0.783171,1.79878,3.90244,-9.32927,-9.34297,0.126936,2.5028,1.12805,-46.5854,10.1524
6748.46,93.3914,7.75891,0,9.4244,-0.744851,0.910107,1.37195,2.31707,-11.0366,-9.35016,0.182021,2.69679,0.97561,-46.0976,9.93902
6748.47,93.3019,8.14228,0,9.63995,-0.673001,0.996328,-0.914634,4.72561,-10.3659,-9.34776,0.205972,2.89558,1.0061,-46.25,10.1829
6748.48,93.2138,8.54165,0,9.41003,-0.574805,0.617915,-1.21951,10.4878,-9.39024,-9.43877,0.160466,3.06562,0.945122,-47.2866,10
6748.49,93.1327,8.91395,0,9.59445,-0.912502,0.656235,-1.4939,11.0976,-12.8049,-9.3765,0.261057,2.99377,1.37195,-47.622,9.96951
6748.5,93.0183,9.25653,0,9.93694,-0.656235,0.747246,-0.701219,7.53049,-12.9878,-9.28789,0.280217,2.89797,1.64634,-47.7134,10.3963
6748.51,92.9265,9.6246,0,9.72138,-0.723296,1.01549,0.243902,4.11585,-11.8902,-9.18969,0.239502,3.04167,1.7378,-47.9878,10.7317
6748.52,92.8252,10.0402,0,9.50104,-0.694556,0.888552,-0.213415,-0.640244,-12.8963,-9.14179,0.210762,3.30513,1.61585,-48.9024,10.9146
6748.53,92.6565,10.4569,0,10.1932,-0.112566,0.656235,0.426829,4.20732,-12.7439,-9.13939,0.177231,3.38416,1.03659,-49.5427,10.5183
6748.54,92.5518,10.8601,0,9.84593,-0.579595,0.826282,0.182927,6.98171,-12.1341,-9.18011,0.131726,3.4129,1.03659,-49.2378,10
6748.55,92.4222,11.2578,0,9.67109,-0.471819,0.809517,-1.85976,6.76829,-13.7195,-9.21603,0.117356,3.47517,0.914634,-49.0549,10.122
6748.56,92.3213,11.6837,0,10.5357,-0.328118,0.531694,-0.182927,9.96951,-8.9939,-9.12263,0.112566,3.64282,1.46341,-49.5122,10.1829
6748.57,92.2128,12.1151,0,9.7118,-0.584385,0.641865,-0.213415,8.81098,-13.3537,-9.07952,0.107776,3.72905,1.18902,-50.5793,10.4878
6748.58,92.0749,12.5598,0,9.81479,-0.349673,0.833467,-0.701219,7.22561,-13.7195,-8.98851,0.148491,3.83203,1.46341,-51.3415,10.6098
6748.59,91.9258,12.996,0,9.83156,-0.296982,0.888552,-3.01829,5.33537,-14.5122,-8.87834,0.241897,3.82724,1.12805,-51.7073,10.9756
6748.6,91.7847,13.4499,0,10.9572,0.201182,0.308958,0.945122,10.6707,-8.32317,-8.78733,0.332908,3.94939,1.09756,-51.6463,11.189
6748.61,91.715,13.8894,0,9.88664,-0.62031,0.423918,-0.914634,11.2195,-10.7927,-8.71069,0.399968,3.93262,0.731707,-50.6098,11.0366
6748.62,91.588,14.3869,0,9.55852,-0.392783,0.65863,-2.43902,7.7439,-14.2683,-8.6556,0.488584,4.26074,0.792683,-49.4817,11.1585
6748.63,91.4637,14.8712,0,9.88185,-0.225132,0.64905,-1.06707,7.28659,-12.1037,-8.64602,0.500559,4.28709,0.548781,-48.9329,11.0671
6748.64,91.431,15.3462,0,9.6184,-0.64426,0.998723,2.04268,2.9878,-8.17073,-8.62207,0.524509,4.32301,0.365854,-47.9573,10.6098
6748.65,91.333,15.789,0,9.85311,-0.323328,0.673001,1.46341,4.72561,-10.9146,-8.58375,0.464634,4.24158,-0.27439,-46.7988,9.81707
6748.66,91.2256,16.2344,0,10.0136,-0.182021,0.785566,-1.21951,4.87805,-10.3659,-8.464,0.368833,4.2775,-0.365854,-45.9146,9.2378
6748.67,91.1824,16.7359,0,11.0003,-0.239502,0.241897,2.34756,13.5671,-4.45122,-8.39694,0.203577,4.59125,-1.09756,-46.0976,8.9939
6748.68,91.1316,17.2099,0,9.74773,-0.613125,0.505349,1.82927,10.2439,-10.122,-8.33467,0.165256,4.5218,-1.34146,-45.2439,8.47561
6748.69,91.0524,17.646,0,9.96568,-0.256267,0.718506,1.52439,8.96341,-8.78049,-8.24605,0.105381,4.38528,-1.40244,-44.3598,8.78049
6748.7,90.9819,18.1057,0,10.0303,-0.153281,0.723296,1.25,10.8841,-6.82927,-8.15265,0.138911,4.52659,-0.823171,-43.0793,8.84146
6748.71,90.9103,18.6364,0,10.2195,-0.165256,0.646655,2.71341,11.1585,-7.19512,-8.13109,0.203577,4.94332,-0.396341,-42.7744,9.48171
6748.72,90.8539,19.1439,0,9.92975,-0.217947,0.692161,2.59146,12.0122,-6.46341,-8.00655,0.342488,4.8571,0.426829,-42.3171,9.66463
6748.73,90.7191,19.6201,0,10.6291,0.66821,0.347278,5.97561,11.0366,0.426829,-7.90596,0.450264,4.74453,1.0061,-40.1829,9.72561
6748.74,90.655,20.109,0,9.58487,-0.138911,0.58199,4.20732,9.2378,-6.76829,-7.81974,0.546064,4.84512,1.43293,-37.378,9.81707
6748.75,90.5495,20.6275,0,9.76928,0.112566,0.799937,4.42073,9.29878,-8.07927,-7.84129,0.536484,5.0966,0.884146,-35.9451,9.29878
6748.76,90.4876,21.1395,0,9.86748,-0.222737,0.768801,3.78049,9.39024,-7.83537,-7.92751,0.462239,5.22354,0.365854,-35.4878,9.02439
6748.77,90.3847,21.6381,0,10.2962,0.560435,0.912502,5.45732,6.95122,-2.0122,-8.06643,0.352068,5.35047,-0.121951,-35.2439,8.23171
6748.78,90.3771,22.1242,0,9.50104,-0.447869,1.18553,4.32927,8.78049,-5.54878,-8.11912,0.328118,5.42232,-1.03659,-35.4268,7.65244
6748.79,90.3311,22.6075,0,9.95849,-0.237107,1.02746,3.65854,7.65244,-6.70732,-8.02811,0.354463,5.44627,-1.21951,-35.5793,7.86585
6748.8,90.2929,23.0854,0,9.95849,-0.0981958,1.07057,5.45732,10.4268,-4.39024,-7.94188,0.399968,5.45825,-1.58537,-35.8537,8.23171
6748.81,90.2098,23.5583,0,10.0088,0.409548,1.17835,6.18902,9.5122,-2.16463,-7.80297,0.419128,5.4343,-1.25,-34.5732,8.59756
6748.82,90.1615,24.0703,0,9.38369,-0.215552,1.06578,5.82317,9.66463,-7.19512,-7.65927,0.447869,5.63069,-0.945122,-33.75,9.48171
6748.83,90.1422,24.5496,0,10.095,-0.179626,1.09213,6.03659,13.3232,-3.78049,-7.59221,0.483794,5.51813,-0.914634,-33.1402,9.57317
6748.84,90.0941,24.9998,0,10.0423,-0.0143701,0.799937,6.7378,13.4451,-4.78659,-7.60898,0.507744,5.4798,-0.609756,-31.8293,9.72561
6748.85,90.0254,25.4708,0,9.98963,0.265847,1.21427,6.85976,12.5,-3.56707,-7.60179,0.536484,5.6738,-0.945122,-31.5549,9.66463
6748.86,89.9736,25.8994,0,10.0543,0.155676,1.16877,6.28049,11.4329,-3.32317,-7.63772,0.531694,5.578,-1.09756,-31.0671,9.32927
6748.87,89.8938,26.3235,0,10.1549,0.431104,1.17595,7.04268,9.90854,-1.09756,-7.6928,0.500559,5.68338,-1.21951,-30.4268,8.81098
6748.88,89.9034,26.7714,0,9.78366,-0.249082,1.19032,5.85366,12.2256,-2.65244,-7.6928,0.452659,5.89893,-1.43293,-30.7927,8.78049
6748.89,89.8615,27.2,0,9.59445,0.107776,1.20948,6.21951,10.2744,-3.04878,-7.67843,0.404758,5.87977,-1.79878,-30.6098,8.35366
6748.9,89.8198,27.6087,0,9.69504,0.126936,1.22625,7.34756,10.4268,-2.86585,-7.62574,0.356858,5.82469,-1.7378,-29.9695,8.59756
6748.91,89.7706,28.0399,0,9.80281,0.241897,1.47054,6.37195,9.17683,-1.52439,-7.52755,0.316143,5.95641,-1.82927,-29.0854,8.44512
6748.92,89.7758,28.4801,0,9.77647,-0.00718506,1.32924,5.82317,9.57317,-0.609756,-7.4557,0.289797,6.04024,-1.61585,-28.7805,8.10976
6748.93,89.7295,28.9124,0,10.0423,0.285007,1.29092,7.62195,8.90244,0.548781,-7.4078,0.342488,6.05461,-1.58537,-27.7439,8.14024
6748.94,89.7663,29.2957,0,9.52739,-0.347278,1.47054,6.31098,7.71341,-2.2561,-7.33594,0.414338,5.82708,-0.853659,-26.4634,8.47561
6748.95,89.7579,29.698,0,9.53457,-0.148491,1.3939,6.92073,7.40854,-3.35366,-7.25451,0.419128,5.94444,-0.945122,-24.939,8.71951
6748.96,89.7314,30.0816,0,9.57289,-0.0287402,1.51605,7.10366,6.21951,-3.59756,-7.25451,0.411943,5.93007,-1.09756,-24.5732,8.71951
6748.97,89.7013,30.4446,0,9.74054,0.110171,1.56395,6.09756,4.66463,-2.13415,-7.29523,0.371228,5.93486,-0.945122,-23.75,8.87195
6748.98,89.6904,30.7815,0,9.87227,0.177231,1.56634,5.39634,6.31098,1.15854,-7.29762,0.368833,5.87498,-0.701219,-23.7195,9.17683
6748.99,89.6755,31.1346,0,9.70222,0.00958008,1.39869,6.46341,3.62805,-2.16463,-7.36708,0.397573,6.09053,-0.609756,-23.5366,9.14634
6749,89.7356,31.4642,0,9.72857,-0.201182,1.46096,5.12195,4.42073,-0.518293,-7.4078,0.435894,6.07137,-0.670732,-24.0549,9.2378
6749.01,89.7153,31.7749,0,9.6639,0.0670605,1.51605,6.28049,5.73171,-1.70732,-7.42217,0.471819,6.05221,-1.18902,-23.4756,9.45122
6749.02,89.698,32.0993,0,9.52499,0.00958008,1.60945,4.7561,5.06098,-2.34756,-7.43654,0.522114,6.20789,-1.31098,-22.5305,9.11585
6749.03,89.7745,32.4313,0,9.72617,-0.292192,1.58311,4.39024,5.06098,-0.609756,-7.39103,0.546064,6.28453,-1.40244,-22.378,8.9939
6749.04,89.7606,32.7362,0,9.7142,-0.0287402,1.44899,4.93902,5.57927,-2.37805,-7.3551,0.55325,6.17676,-1.82927,-21.5549,8.84146
6749.05,89.7872,33.0474,0,9.91538,-0.244292,1.53281,4.35976,4.54268,-1.67683,-7.27607,0.526904,6.21268,-2.0122,-20.4268,8.2622
6749.06,89.7503,33.3721,0,9.72617,0.110171,1.56874,5.27439,3.75,-2.77439,-7.25451,0.502954,6.33962,-1.92073,-20.0915,8.35366
6749.07,89.7341,33.6963,0,9.83635,-0.0239502,1.55437,4.87805,4.05488,-2.56098,-7.14195,0.517324,6.31088,-2.10366,-18.6585,8.44512
6749.08,89.7861,33.973,0,9.91778,-0.203577,1.59748,4.05488,3.38415,-0.487805,-7.20422,0.359253,6.17436,-1.89024,-17.561,8.17073
6749.09,89.7871,34.2466,0,9.68546,-0.0646655,1.5376,4.08537,3.75,-1.61585,-7.22577,0.337698,6.23663,-1.03659,-17.0122,7.89634
6749.1,89.7974,34.5282,0,9.78126,-0.126936,1.55676,4.05488,3.53659,-1.61585,-7.20661,0.277822,6.32525,-0.884146,-17.1037,8.14024
6749.11,89.8035,34.7929,0,9.58487,-0.0981958,1.50168,4.2378,3.32317,-1.67683,-7.19464,0.296982,6.28214,-0.97561,-17.2561,8.07927
6749.12,89.7918,35.071,0,9.62319,-0.0574805,1.52563,3.78049,3.44512,-2.5,-7.13955,0.330513,6.36836,-0.853659,-16.7988,8.47561
6749.13,89.8,35.3417,0,9.54655,-0.263452,1.55437,2.9878,3.10976,-3.17073,-7.11081,0.431104,6.36357,-0.640244,-16.2805,8.65854
6749.14,89.7745,35.6128,0,9.97765,0.239502,1.45617,4.66463,2.5,1.06707,-7.07968,0.510139,6.39949,-0.945122,-15.4878,8.5061
6749.15,89.7731,35.8884,0,9.38369,-0.220342,1.42983,4.32927,0.27439,-3.59756,-7.03896,0.507744,6.44979,-1.03659,-14.6646,8.59756
6749.16,89.7364,36.1523,0,9.72617,0.0455054,1.61424,3.9939,1.15854,-3.65854,-7.00064,0.522114,6.41147,-1.52439,-14.0244,8.62805
6749.17,89.7288,36.4041,0,9.97526,-0.0335303,1.46575,3.78049,3.17073,-1.92073,-6.98627,0.526904,6.38991,-1.31098,-12.6829,8.29268
6749.18,89.6912,36.6562,0,9.82916,0.174836,1.54,3.93293,0.457317,-1.95122,-6.9264,0.538879,6.3947,-1.37195,-11.189,7.83537
6749.19,89.6894,36.9011,0,9.99442,-0.0790356,1.59269,4.2378,1.21951,-2.04268,-6.93358,0.55804,6.41865,-1.46341,-9.87805,7.43902
6749.2,89.6454,37.1315,0,9.50344,0.138911,1.6813,3.81098,1.0061,-3.32317,-6.99106,0.522114,6.445,-1.18902,-8.53659,7.46951
6749.21,89.6405,37.3476,0,9.63037,-0.119751,1.71723,2.34756,1.70732,-2.92683,-7.05333,0.431104,6.47374,-1.46341,-8.20122,7.16463
6749.22,89.6297,37.5623,0,9.90341,0.0766406,1.56874,3.47561,2.04268,-0.823171,-7.07728,0.445474,6.53601,-1.64634,-8.20122,6.76829
6749.23,89.6213,37.7789,0,9.62798,-0.0934058,1.6813,3.23171,1.18902,-2.95732,-7.06052,0.452659,6.58151,-1.52439,-8.53659,6.58537
6749.24,89.5705,37.9892,0,9.8555,0.217947,1.6334,2.77439,0.731707,-3.2622,-7.04136,0.486189,6.57672,-1.70732,-7.68293,6.7378
6749.25,89.5456,38.1931,0,9.75012,0.0766406,1.5879,2.95732,0.579268,-2.5,-7.02699,0.471819,6.57433,-1.37195,-7.71341,6.64634
6749.26,89.5076,38.3967,0,9.65432,0.143701,1.69807,2.43902,-0.0304878,-2.9878,-7.02459,0.390388,6.61744,-1.15854,-7.34756,6.79878
6749.27,89.4787,38.5851,0,9.69504,0.148491,1.66214,1.18902,2.53049,-1.95122,-6.9719,0.354463,6.52643,-1.03659,-7.2561,6.92073
6749.28,89.4528,38.774,0,9.64235,0.0455054,1.59029,2.92683,0.548781,-3.20122,-6.97669,0.301772,6.57672,-0.731707,-7.0122,7.04268
6749.29,89.4164,38.9608,0,9.86269,0.189207,1.69807,2.7439,1.0061,-2.43902,-6.94316,0.289797,6.57672,-0.0914634,-7.62195,7.2561
6749.3,89.3842,39.1496,0,9.89622,0.179626,1.67891,2.2561,1.31098,-2.19512,-6.93598,0.282612,6.62462,-0.0914634,-7.71341,7.28659
6749.31,89.3697,39.3238,0,9.87946,0.107776,1.77471,1.21951,2.53049,-1.46341,-6.9719,0.294587,6.61744,0.426829,-7.77439,7.37805
6749.32,89.3573,39.5189,0,9.91538,0.0455054,1.41306,1.98171,1.79878,-2.16463,-6.93119,0.354463,6.74198,0.426829,-7.65244,7.80488
6749.33,89.3457,39.6972,0,9.79803,0.0167651,1.54239,2.34756,1.70732,-2.46951,-6.89047,0.474214,6.64857,0.762195,-7.0122,7.92683
6749.34,89.3232,39.8761,0,9.81,0.0934058,1.65735,1.92073,1.46341,-2.56098,-6.8785,0.462239,6.6821,0.487805,-6.7378,7.9878
6749.35,89.2979,40.0523,0,9.91059,0.138911,1.57113,1.31098,3.10976,-2.28659,-6.88089,0.443079,6.70845,0.457317,-6.28049,7.59146
6749.36,89.2817,40.2259,0,9.92975,0.124541,1.47533,0.670732,4.54268,-1.61585,-6.82341,0.411943,6.67731,0.426829,-6.06707,7.40854
6749.37,89.2461,40.4026,0,10.4423,0.507744,1.36277,1.28049,8.47561,1.4939,-6.8306,0.443079,6.73958,-0.0304878,-5.42683,6.76829
6749.38,89.282,40.5698,0,10.0136,-0.00958008,1.64777,-1.0061,7.31707,0.335366,-6.85934,0.455054,6.74917,-0.0914634,-5.03049,6.82927
6749.39,89.2701,40.7107,0,9.84593,0.170046,1.54958,-0.97561,5.85366,0.152439,-6.89287,0.431104,6.66055,-0.457317,-4.60366,6.76829
6749.4,89.285,40.8364,0,9.82197,0.0766406,1.54239,0,6.70732,-0.0304878,-6.92879,0.344883,6.64618,-0.609756,-4.93902,6.7378
6749.41,89.3003,40.9774,0,9.82677,0.0742456,1.67891,-0.579268,6.12805,0.0914634,-6.91203,0.296982,6.75395,-0.701219,-5.4878,6.92073
6749.42,89.3318,41.1024,0,9.79803,-0.00239502,1.69328,-0.487805,4.96951,-0.243902,-6.91442,0.282612,6.69408,-0.335366,-5.36585,6.95122
6749.43,89.3466,41.2218,0,9.89143,0.0670605,1.54479,-0.304878,6.34146,0.0304878,-6.8785,0.292192,6.65576,-0.0914634,-5.42683,7.0122
6749.44,89.3522,41.3305,0,9.90341,0.0981958,1.43222,-0.396341,9.32927,0.152439,-6.86652,0.273032,6.60546,0.609756,-4.87805,7.07317
6749.45,89.3629,41.4237,0,9.92496,0.0838257,1.61903,-0.487805,10.0305,0.426829,-6.93358,0.251477,6.60307,1.28049,-4.57317,7.34756
6749.46,89.3589,41.5159,0,10.1429,0.148491,1.65975,-1.34146,13.811,0.365854,-6.95035,0.246687,6.63899,1.67683,-4.87805,7.37805
6749.47,89.3637,41.6145,0,9.86269,0.102986,1.79147,-2.07317,8.87195,0.304878,-6.96472,0.277822,6.71324,2.07317,-5.18293,7.62195
6749.48,89.3904,41.7172,0,9.78605,0.0191602,1.69088,-1.58537,8.62805,0.426829,-6.99585,0.265847,6.79467,2.34756,-5.7622,7.62195
6749.49,89.4373,41.7906,0,9.84114,-0.0526904,1.63101,-0.304878,8.87195,0.121951,-7.04375,0.356858,6.69168,2.83537,-5.97561,7.5
6749.5,89.4613,41.8605,0,9.8124,-0.0143701,1.75076,0.640244,6.40244,-0.396341,-7.0677,0.383203,6.71084,3.23171,-6.43293,7.65244
6749.51,89.4701,41.9341,0,9.80281,-0.00479004,1.74118,1.28049,3.68902,-1.0061,-7.07489,0.344883,6.75635,3.5061,-6.89024,7.10366
6749.52,89.4786,41.9949,0,9.74294,-0.0502954,1.54958,1.64634,3.04878,-1.52439,-7.09405,0.280217,6.71563,4.02439,-7.68293,6.79878
6749.53,89.4894,42.047,0,9.63516,-0.0383203,1.51365,1.52439,2.04268,-1.31098,-7.06052,0.296982,6.64618,4.93902,-8.2622,6.92073
6749.54,89.4998,42.1075,0,9.60642,-0.0742456,1.61424,1.79878,2.10366,-1.67683,-7.07728,0.308958,6.72282,5.79268,-9.32927,6.40244
6749.55,89.5049,42.1662,0,9.66869,-0.174836,1.50647,2.83537,2.04268,-2.95732,-7.03178,0.395178,6.6821,6.31098,-10.061,6.40244
6749.56,89.4938,42.2096,0,9.68546,-0.0934058,1.57113,2.28659,1.03659,-3.41463,-7.07968,0.431104,6.65097,5.57927,-10.6098,6.12805
6749.57,89.4842,42.2542,0,9.84593,-0.0742456,1.71244,0.945122,2.0122,-3.04878,-7.11081,0.498164,6.69647,5.57927,-10.9756,5.60976
6749.58,89.486,42.2859,0,9.88904,-0.170046,1.61424,1.82927,2.5,-3.10976,-7.18745,0.55804,6.70126,5.51829,-11.7683,5.09146
6749.59,89.4899,42.278,0,9.74294,-0.220342,1.69328,2.53049,3.01829,-3.5061,-7.36947,0.517324,6.64139,5.91463,-12.6524,4.7561
6749.6,89.4985,42.2519,0,9.59684,-0.299377,1.69567,2.65244,4.39024,-3.9939,-7.47725,0.61552,6.62702,5.7622,-13.9329,4.57317
6749.61,89.5077,42.2035,0,9.30226,-0.426313,1.45857,4.32927,4.63415,-5.51829,-7.58742,0.673001,6.58391,5.7622,-15.8537,4.60366
6749.62,89.5058,42.1563,0,9.3765,-0.435894,1.64777,5.12195,3.65854,-6.64634,-7.56108,0.694556,6.55517,5.45732,-17.7134,4.72561
6749.63,89.4771,42.1165,0,9.64474,-0.280217,1.81782,4.60366,1.67683,-7.34756,-7.51318,0.735271,6.54319,5.30488,-19.7866,4.87805
6749.64,89.4327,42.0885,0,9.81479,-0.244292,1.73639,4.84756,-1.70732,-8.5061,-7.4078,0.66342,6.50966,5,-20.7622,4.84756
6749.65,89.3826,42.0684,0,9.98963,-0.225132,1.74836,4.26829,-1.82927,-8.90244,-7.42217,0.60594,6.55996,4.93902,-21.9512,4.81707
6749.66,89.3404,42.0714,0,9.92975,-0.342488,1.89207,4.7561,-0.579268,-9.60366,-7.4078,0.584385,6.67731,4.81707,-22.9573,4.93902
6749.67,89.2865,42.0727,0,10.0112,-0.215552,2.20342,4.05488,-0.518293,-9.35976,-7.39822,0.584385,6.65815,4.05488,-23.7195,4.60366
6749.68,89.2565,42.0813,0,10.1357,-0.316143,2.1651,2.86585,2.2561,-8.17073,-7.43414,0.65384,6.7324,3.81098,-25.3659,4.48171
6749.69,89.2104,42.07,0,9.89862,-0.160466,1.86093,1.15854,5.06098,-8.10976,-7.43654,0.64426,6.61744,4.14634,-26.6768,4.32927
6749.7,89.1936,42.087,0,9.94412,-0.239502,1.76273,-0.518293,8.59756,-6.15854,-7.36708,0.670605,6.71803,4.84756,-27.6829,4.5122
6749.71,89.22,42.1403,0,9.77407,-0.584385,1.73878,0.701219,10.1829,-5.97561,-7.12997,0.878972,6.71803,4.81707,-27.8049,5.15244
6749.72,89.158,42.2506,0,9.50583,-0.0407153,1.89925,0.792683,4.26829,-8.41463,-7.02459,1.03465,6.9719,3.9939,-28.7805,5.57927
6749.73,89.1205,42.3441,0,9.59924,-0.229922,1.77471,1.55488,1.92073,-8.35366,-7.02938,0.984353,6.90005,2.7439,-28.9329,5.88415
6749.74,89.1178,42.4519,0,9.86509,-0.148491,2.09804,1.43293,1.98171,-3.93293,-7.00543,0.866997,6.98627,1.12805,-29.4207,5.12195
6749.75,89.1265,42.5167,0,9.22801,-0.452659,1.52563,3.62805,-2.77439,-6.67683,-6.97669,0.737666,6.72521,-0.609756,-28.1707,4.90854
6749.76,89.1087,42.6364,0,9.54894,-0.277822,1.95434,5.27439,-2.13415,-7.0122,-6.95753,0.617915,7.05573,-1.34146,-27.9573,4.2378
6749.77,89.0902,42.7699,0,9.85311,-0.277822,1.64777,6.18902,-0.701219,-7.0122,-6.95514,0.536484,7.16829,-1.21951,-28.6585,3.81098
6749.78,89.0245,42.9149,0,9.7621,-0.110171,1.82021,6.55488,-2.28659,-9.87805,-7.00304,0.502954,7.32397,-1.40244,-29.939,3.62805
6749.79,88.9547,43.0648,0,9.9058,-0.0311353,1.86572,5.94512,-1.46341,-9.48171,-6.98627,0.498164,7.37427,-1.09756,-31.0671,3.07927
6749.8,88.9083,43.2462,0,10.2219,0.0143701,2.15791,3.87195,0.97561,-6.70732,-6.93119,0.529299,7.56108,0.0304878,-31.4634,3.23171
6749.81,88.8298,43.42,0,9.62558,-0.0431104,1.81303,7.04268,-4.66463,-10.7622,-6.76833,0.490979,7.38145,1.03659,-31.311,3.38415
6749.82,88.7294,43.6174,0,9.41961,-0.0455054,2.22497,7.86585,-5.85366,-13.2012,-6.59109,0.546064,7.38624,0.365854,-30.122,3.47561
6749.83,88.6114,43.8208,0,9.16334,-0.0239502,2.29922,7.31707,-3.5061,-14.939,-6.53122,0.476609,7.41019,0.27439,-29.2683,3.96341
6749.84,88.4927,44.0076,0,9.61121,-0.00718506,2.10043,5.94512,-0.762195,-15.0305,-6.46416,0.459844,7.28086,0.396341,-27.9573,4.02439
6749.85,88.3658,44.2482,0,10.1333,0.162861,2.38544,2.71341,2.65244,-14.1463,-6.43781,0.376018,7.65688,0.731707,-28.2012,3.65854
6749.86,88.21,44.4874,0,10.0303,0.172441,2.32556,3.20122,-5.12195,-17.2256,-6.45218,0.421523,7.72873,1.43293,-29.4817,3.32317
6749.87,88.0175,44.7306,0,10.2698,0.409548,1.83219,1.37195,-6.31098,-18.628,-6.30609,0.507744,7.6449,2.68293,-29.4207,2.71341
6749.88,87.7997,44.9726,0,9.92017,0.519719,1.70525,2.53049,-1.82927,-20.1524,-6.07616,0.603545,7.42456,3.84146,-28.1402,2.46951
6749.89,87.5762,45.2466,0,9.11544,0.481399,1.63819,3.9939,-1.40244,-21.128,-5.83187,0.627495,7.40061,4.35976,-26.1585,1.89024
6749.9,87.3472,45.5647,0,8.84481,0.6251,1.85375,2.37805,-2.0122,-20.061,-5.61153,0.60594,7.48923,4.72561,-24.7866,1.34146
6749.91,87.1541,45.9549,0,8.97174,0.397573,1.82021,2.07317,-2.62195,-19.939,-5.34329,0.536484,7.71675,4.63415,-23.9024,-0.213415
6749.92,86.9672,46.3809,0,8.93821,0.361648,2.46208,0.670732,-7.40854,-20.1524,-5.15169,0.443079,7.81255,3.56707,-23.0183,-1.40244
6749.93,86.7833,46.8107,0,8.70111,0.414338,2.36867,-0.243902,-12.6524,-19.3902,-4.98404,0.476609,7.71196,2.10366,-21.9512,-2.22561
6749.94,86.642,47.2554,0,9.57529,0.325723,1.89925,-0.27439,-10.2744,-17.0122,-4.86189,0.608335,7.76226,1.34146,-20.3659,-2.34756
6749.95,86.4937,47.6784,0,9.69504,0.5772,2.25611,-1.55488,-12.7134,-15.0305,-4.89542,0.720901,7.78621,1.03659,-19.4817,-1.43293
6749.96,86.3757,48.0355,0,9.9561,0.445474,1.86093,-3.01829,-13.75,-13.9634,-5.01038,0.785566,7.5994,1.61585,-18.8415,0.0304878
6749.97,86.2691,48.3135,0,9.95849,0.356858,1.81063,-0.518293,-16.7378,-14.0854,-5.10379,0.656235,7.28086,2.83537,-17.5305,1.40244
6749.98,86.1525,48.5712,0,9.82437,0.546064,2.4501,-3.2622,-17.8963,-13.0183,-5.16366,0.514929,7.30481,3.59756,-15.6098,2.43902
6749.99,86.063,48.8396,0,9.46512,0.227527,2.08606,-2.56098,-15.1524,-14.1768,-5.24988,0.325723,7.57305,4.02439,-15.6707,3.07927
6750,85.9411,49.0693,0,9.48907,0.474214,2.213,-4.42073,-11.4024,-14.6341,-5.34329,0.229922,7.50839,4.66463,-15.9146,3.32317
6750.01,85.8234,49.3394,0,9.69025,0.459844,1.92081,-7.37805,-6.40244,-14.7561,-5.31215,0.313748,7.81974,4.87805,-16.0366,3.90244
6750.02,85.7136,49.62,0,10.0351,0.421523,1.67412,-7.43902,-2.62195,-14.8171,-5.30976,0.498164,7.97542,3.84146,-16.0366,4.90854
6750.03,85.6113,49.8879,0,10.1094,0.459844,1.40588,-8.71951,-2.80488,-13.872,-5.37682,0.689766,8.06403,3.01829,-15.8232,5.73171
6750.04,85.5466,50.1098,0,10.2698,0.241897,1.00351,-6.95122,-6.21951,-12.8049,-5.49657,0.864602,7.97302,3.07927,-15.2439,6.89024
6750.05,85.4497,50.3238,0,9.9537,0.56762,1.33163,-5.97561,-10.7012,-12.3171,-5.50854,0.917292,7.99697,3.53659,-14.6341,7.2561
6750.06,85.3396,50.5433,0,9.63037,0.66342,1.00112,-5,-12.4085,-12.4695,-5.59956,0.742456,8.23887,4.14634,-13.9024,7.2561
6750.07,85.209,50.7782,0,9.44596,0.723296,1.03465,-1.21951,-13.9634,-13.9024,-5.59716,0.519719,8.42568,4.54268,-14.4207,6.55488
6750.08,85.0541,50.9941,0,9.39087,0.922083,1.75794,-1.61585,-11.8902,-14.1463,-5.63788,0.356858,8.40891,3.96341,-14.4817,5.97561
6750.09,84.8849,51.2019,0,10.004,1.13524,1.80824,-2.34756,-14.6646,-14.1463,-5.6762,0.332908,8.46879,3.47561,-14.6037,5.7622
6750.1,84.7488,51.4262,0,10.3704,0.948428,1.21906,-2.04268,-14.1159,-13.6585,-5.72649,0.498164,8.74661,2.83537,-15.9756,6.61585
6750.11,84.5793,51.6612,0,9.98723,1.14003,1.69567,-1.92073,-13.9634,-14.7256,-5.79355,0.63468,9.01246,2.71341,-19.3598,7.7439
6750.12,84.4194,51.8909,0,10.3369,1.04902,0.890947,-3.04878,-14.5122,-15.5488,-5.82948,0.787961,9.09868,2.65244,-21.9512,8.2622
6750.13,84.2095,52.0931,0,9.5226,1.26697,0.888552,-1.92073,-15.3659,-17.3476,-5.77439,0.826282,8.85439,2.13415,-21.8902,8.75
6750.14,84.0042,52.2988,0,9.62319,1.2023,1.12566,-3.47561,-15.3963,-18.2317,-5.59477,0.852627,8.67716,1.06707,-20.2439,8.01829
6750.15,83.8213,52.5091,0,10.0112,1.02028,1.39869,-2.89634,-16.189,-19.0244,-5.51573,0.831072,8.66279,0.304878,-19.0549,7.37805
6750.16,83.6448,52.6986,0,10.1166,0.977168,1.23583,-0.213415,-14.4817,-19.3598,-5.62351,0.732876,8.72506,-0.213415,-19.878,6.37195
6750.17,83.431,52.9385,0,10.4207,1.26697,1.44899,-0.243902,-15.3659,-20.6402,-5.46783,0.742456,8.97414,-1.0061,-22.0427,6.06707
6750.18,83.2135,53.1857,0,10.0902,1.25739,1.04183,-0.609756,-13.1098,-21.0976,-5.34808,0.64426,8.92384,-1.7378,-23.0793,6.31098
6750.19,83.0103,53.4156,0,9.84353,1.16158,1.23344,-2.2561,-15.8841,-20.8537,-5.29539,0.541274,8.77056,-2.56098,-22.9878,6.4939
6750.2,82.7888,53.6265,0,9.30944,1.32205,1.2526,-1.12805,-9.45122,-20.3659,-5.23312,0.490979,8.58375,-2.37805,-22.4695,6.76829
6750.21,82.4999,53.8523,0,9.74533,1.52084,1.41546,-0.548781,-9.05488,-26.0976,-5.18282,0.440684,8.69871,-1.7378,-23.2317,6.89024
6750.22,82.2197,54.0751,0,10.3369,1.54718,1.42264,1.06707,-11.8598,-26.5244,-5.20917,0.368833,8.79212,-1.25,-25.3049,6.89024
6750.23,81.9086,54.261,0,10.2579,1.75315,1.23104,0.335366,-9.08537,-27.8354,-5.24749,0.316143,8.6101,-0.457317,-26.0976,6.76829
6750.24,81.5896,54.4609,0,10.3968,1.69328,1.04183,4.05488,-8.47561,-30.1829,-5.07505,0.352068,8.50711,0.609756,-25.9451,6.61585
6750.25,81.2535,54.704,0,10.5668,1.93039,1.15679,1.03659,-3.93293,-30.3354,-4.93134,0.486189,8.7059,0.701219,-26.0061,6.85976
6750.26,80.9408,54.9482,0,10.3082,1.75794,1.17835,1.89024,-1.64634,-30,-4.91219,0.541274,8.76817,0.823171,-26.3415,7.07317
6750.27,80.6267,55.1969,0,9.94891,1.88967,1.21188,1.64634,0.609756,-28.5976,-4.88584,0.531694,8.8496,0.792683,-26.5244,7.16463
6750.28,80.3125,55.4487,0,9.86269,1.79626,1.12326,2.34756,-0.548781,-30.122,-4.84273,0.529299,8.89031,0.97561,-26.9512,7.19512
6750.29,80.0281,55.6873,0,9.70222,1.5855,0.941243,1.4939,-1.46341,-29.8476,-4.82836,0.502954,8.83283,1.15854,-27.561,7.19512
6750.3,79.7178,55.9476,0,9.45075,1.64059,0.483794,3.47561,-5.18293,-31.9207,-4.74932,0.622705,8.97653,1.15854,-28.8415,7.28659
6750.31,79.4117,56.2089,0,9.21603,1.57592,0.756826,2.56098,-8.9939,-32.4085,-4.67029,0.608335,8.93342,0.884146,-29.3293,7.71341
6750.32,79.1127,56.4725,0,8.95019,1.42025,0.943638,4.54268,-14.878,-33.7195,-4.61041,0.61073,8.94061,1.21951,-29.5122,7.53049
6750.33,78.7838,56.7218,0,9.8076,1.8777,1.50168,4.17683,-14.3598,-33.6585,-4.59604,0.529299,8.87594,1.34146,-28.9634,8.01829
6750.34,78.4446,56.983,0,9.74773,2.16749,1.32445,3.17073,-15.2439,-31.9207,-4.56012,0.428708,9.01725,1.28049,-28.9329,7.83537
6750.35,78.075,57.2503,0,9.8603,2.46208,1.19511,2.95732,-15.7622,-32.6829,-4.41402,0.58678,8.88792,1.25,-29.0854,8.41463
6750.36,77.7392,57.5137,0,10.2914,2.39023,1.07536,2.22561,-14.939,-31.9207,-4.33259,0.749641,8.78972,1.37195,-28.3841,9.17683
6750.37,77.4013,57.7818,0,10.2195,2.33275,0.847837,4.54268,-12.1341,-33.2622,-4.3302,0.905317,8.93582,1.28049,-28.0488,9.45122
6750.38,76.984,58.0428,0,10.0878,2.85007,0.637075,3.38415,-8.29268,-36.0976,-4.36373,0.852627,9.0388,1.0061,-28.5976,9.60366
6750.39,76.5811,58.3083,0,10.2938,2.93629,0.58199,0.579268,-5.4878,-35.1829,-4.36373,0.728086,9.18969,0.396341,-29.9085,8.96341
6750.4,76.2548,58.543,0,10.3944,2.73032,0.330513,-0.640244,-5.79268,-30.6402,-4.42121,0.64905,9.09868,-0.213415,-30.6402,8.01829
6750.41,75.9449,58.7686,0,9.63995,2.67045,0.196392,0.0914634,-2.0122,-28.0793,-4.48108,0.56283,9.22322,-0.579268,-31.0061,7.04268
6750.42,75.623,59.0048,0,8.71069,2.5028,0.802332,2.40854,-7.40854,-28.811,-4.40923,0.56762,9.27591,-0.914634,-31.8293,6.98171
6750.43,75.1743,59.2445,0,9.07952,2.94348,1.16398,4.05488,-7.53049,-38.4756,-4.30625,0.627495,9.19209,-0.640244,-32.1341,7.04268
6750.44,74.7847,59.5107,0,9.57529,2.50519,0.807122,4.87805,-12.9268,-40.0915,-4.16973,0.613125,9.2807,-0.823171,-32.4695,7.62195
6750.45,74.3594,59.7943,0,9.67109,2.73751,1.06578,4.81707,-10.061,-42.1951,-4.00447,0.65384,9.21603,-0.762195,-31.9817,7.83537
6750.46,73.9665,60.0986,0,10.2052,2.65129,1.05381,2.95732,-6.85976,-42.2866,-3.90628,0.713716,9.34776,-1.15854,-31.6159,8.62805
6750.47,73.5921,60.408,0,10.289,2.52914,0.414338,2.80488,-4.32927,-42.7439,-3.81527,0.749641,9.3286,-1.21951,-31.5854,9.2378
6750.48,73.2312,60.7303,0,10.4519,2.61776,0.790356,4.05488,-4.2378,-41.6159,-3.68594,0.696951,9.30705,-1.52439,-30.5793,8.53659
6750.49,72.8829,61.0641,0,10.2531,2.80217,0.182021,5.91463,-4.42073,-38.5671,-3.62127,0.62989,9.43877,-1.46341,-30.3049,7.9878
6750.5,72.4229,61.3858,0,9.6639,3.46799,0.464634,8.59756,-0.0914634,-41.5854,-3.63085,0.64426,9.47949,-1.40244,-29.3598,7.31707
6750.51,71.9394,61.6392,0,8.97174,3.4632,0.186812,6.79878,1.21951,-42.1341,-3.83922,0.656235,9.33579,-1.79878,-28.0183,6.58537
6750.52,71.5269,61.8704,0,8.83044,3.10874,0.411943,6.67683,-2.2561,-39.3598,-3.8967,0.661025,9.33818,-2.46951,-26.1585,5.82317
6750.53,71.2171,62.1273,0,9.6184,2.77343,0.529299,8.59756,-6.85976,-36.4939,-3.79611,0.840652,9.50583,-2.9878,-25.2134,6.0061
6750.54,70.6241,62.4208,0,8.9909,3.95897,0.804727,7.86585,-4.20732,-50.3354,-3.65959,0.938848,9.74054,-4.5122,-26.5244,6.15854
6750.55,70.1589,62.7123,0,9.83635,3.02491,0.718506,6.4939,-5.7622,-52.1341,-3.5566,0.938848,9.58726,-5.42683,-27.1646,6.58537
6750.56,69.7054,62.9981,0,9.9082,2.96982,0.416733,8.56707,-4.66463,-52.7134,-3.42967,0.843047,9.32142,-5.2439,-26.372,6.82927
6750.57,69.2609,63.3143,0,9.92257,3.19017,0.823887,9.96951,-3.04878,-50.3963,-3.30034,0.692161,9.50823,-5.73171,-25.0915,6.76829
6750.58,68.7835,63.6249,0,9.58008,3.66438,0.828677,11.0061,-0.731707,-48.3232,-3.30273,0.505349,9.61121,-6.46341,-25,6.61585
6750.59,68.2884,63.9129,0,9.36453,4.02603,0.869392,7.71341,-0.548781,-46.3415,-3.25723,0.409548,9.34058,-6.89024,-24.3598,6.34146
6750.6,67.8274,64.2127,0,9.12981,3.72665,0.617915,8.35366,0.823171,-46.0366,-3.13987,0.419128,9.31423,-6.4939,-22.7744,6.12805
6750.61,67.3455,64.5277,0,8.87834,3.76737,0.962798,8.56707,0.670732,-47.5,-3.0297,0.500559,9.35974,-6.31098,-21.3415,6.34146
6750.62,66.8577,64.8318,0,8.85439,3.82245,1.00351,5.4878,-2.83537,-48.3537,-2.97701,0.55804,9.22322,-6.4939,-19.3902,6.92073
6750.63,66.3784,65.1109,0,8.94779,3.63324,0.0742456,6.4939,-3.35366,-51.0366,-2.9818,0.598755,9.06754,-6.06707,-16.5549,6.70732
6750.64,65.9002,65.3784,0,9.43638,3.85598,0.61552,8.20122,-2.89634,-51.6463,-3.0297,0.5772,9.20885,-6.21951,-15.4268,6.70732
6750.65,65.4191,65.6463,0,9.37171,3.98052,0.328118,10.3659,-4.45122,-51.311,-3.01533,0.517324,9.31902,-6.79878,-15.0305,6.55488
6750.66,64.9468,65.9305,0,9.54894,4.26792,0.63468,8.44512,-4.08537,-49.2073,-2.9315,0.457449,9.44117,-7.59146,-14.7866,6.25
6750.67,64.7757,66.2107,0,9.8579,3.02491,0.270637,8.53659,-12.6524,-33.7805,-2.87402,0.443079,9.36213,-8.53659,-14.3293,5.85366
6750.68,64.2114,66.5001,0,7.94667,5.2403,0.58199,9.11585,-6.28049,-40.8841,-2.76385,0.368833,9.30465,-9.39024,-12.439,5.91463
6750.69,63.5633,66.7857,0,7.94428,5.26186,0.941243,3.41463,-0.0914634,-50.3659,-2.71116,0.325723,9.24717,-9.78659,-10.9451,5.2439
6750.7,63.0696,67.0612,0,8.57177,4.21523,0.740061,3.23171,-4.35976,-50.8841,-2.65368,0.282612,9.07233,-9.32927,-9.11585,5.36585
6750.71,62.5748,67.3506,0,8.32509,4.13141,0.325723,4.54268,-8.71951,-51.5854,-2.5028,0.253872,8.91187,-8.47561,-7.19512,4.66463
6750.72,62.0666,67.6569,0,8.32509,4.27032,0.318538,6.85976,-12.1646,-52.4085,-2.39741,0.263452,8.88313,-7.71341,-5.12195,4.90854
6750.73,61.5658,68.0366,0,8.51669,4.45953,0.294587,7.95732,-14.1768,-51.7073,-2.3088,0.308958,8.90947,-7.86585,-2.77439,4.54268
6750.74,61.0987,68.9212,0,8.73943,4.65113,0.392783,7.80488,-14.0549,-48.5061,-2.28245,0.308958,8.99809,-8.01829,-0.548781,4.69512
6750.75,60.8864,69.4321,0,9.32142,4.04758,-0.490979,5.18293,-19.2988,-32.7439,-2.33993,0.196392,9.13939,-9.7561,1.12805,4.20732
6750.76,60.3687,69.7108,0,8.04966,5.66662,0.455054,8.87195,-19.7256,-40.5183,-2.38544,0.110171,9.21603,-10.4268,2.77439,4.08537
6750.77,59.8748,69.9292,0,8.11912,5.24749,0.193997,3.07927,-18.0488,-43.7805,-2.41657,0.0742456,9.0867,-10.8537,4.72561,3.59756
6750.78,59.5299,70.1341,0,8.70111,4.65113,0.0694556,4.11585,-17.4695,-39.2683,-2.36867,0.0622705,8.91905,-10.0915,7.31707,3.84146
6750.79,59.1932,70.3117,0,9.33579,4.83794,0.00239502,5.67073,-6.21951,-40.6402,-2.39023,0.0742456,8.71787,-8.87195,9.81707,4.14634
6750.8,58.8022,70.4899,0,8.38257,5.01517,0.474214,1.09756,-17.5915,-39.7256,-2.37107,0.0455054,8.77056,-7.31707,12.2561,4.39024
6750.81,58.4122,70.6516,0,8.06643,4.72298,-0.105381,3.01829,-14.878,-41.5244,-2.4022,0.0646655,8.74422,-6.64634,13.4146,4.69512
6750.82,57.9942,70.7982,0,8.27958,4.97925,0.831072,2.0122,-12.7744,-43.811,-2.44292,0.119751,8.76577,-6.06707,15.0305,4.29878
6750.83,57.6519,70.9352,0,8.26761,4.56251,0.134121,4.14634,-16.6463,-41.2805,-2.49322,0.234712,8.89271,-6.34146,16.0671,4.32927
6750.84,57.2511,71.0386,0,8.27719,5.384,0.387993,5.12195,-19.2073,-39.4817,-2.59381,0.325723,8.83044,-7.2561,17.1951,3.9939
6750.85,56.842,71.1119,0,8.17181,5.40795,0.143701,6.06707,-16.8293,-40.2134,-2.70158,0.256267,8.82804,-8.29268,19.2683,3.41463
6750.86,56.4307,71.1699,0,8.37538,5.61872,0.282612,5.12195,-13.5671,-40.5488,-2.7423,0.129331,8.79212,-8.78049,20.3963,2.92683
6750.87,56.0726,71.2251,0,8.40412,5.24749,0.117356,2.34756,-8.90244,-39.7866,-2.75427,0.0191602,8.82804,-9.32927,21.7988,2.7439
6750.88,55.7041,71.2574,0,8.15504,5.18282,0.0790356,3.04878,-4.02439,-40.6402,-2.77104,-0.0790356,8.6077,-8.62805,22.8354,2.59146
6750.89,55.3483,71.2934,0,7.99697,5.03673,0.330513,4.45122,-3.32317,-40.5793,-2.72314,-0.143701,8.52627,-7.40854,24.5122,2.77439
6750.9,54.9861,71.3063,0,7.91554,5.08942,0.313748,3.93293,-5.82317,-40.8537,-2.75906,-0.210762,8.3658,-7.0122,26.189,3.35366
6750.91,54.6171,71.3159,0,7.82453,5.13013,-0.0550855,5.64024,-7.40854,-41.25,-2.81175,-0.215552,8.49513,-5.67073,27.7134,3.32317
6750.92,54.2766,71.3316,0,8.23647,5.30736,0.0215552,7.10366,-8.65854,-40.0305,-2.83331,-0.136516,8.64363,-4.87805,28.0793,3.75
6750.93,53.9048,71.3174,0,8.25084,5.80553,-0.155676,9.11585,-7.43902,-39.1463,-2.94108,-0.0670605,8.59812,-4.5122,28.8415,3.96341
6750.94,53.5203,71.2853,0,8.08319,6.02587,0.131726,8.68902,-7.80488,-37.9878,-3.0273,-0.0622705,8.62446,-4.20732,30.5488,4.17683
6750.95,53.1559,71.2431,0,8.15265,6.11928,0.220342,7.04268,-8.75,-36.3415,-3.08,-0.0814307,8.64123,-4.63415,33.1402,3.96341
6750.96,52.8065,71.1621,0,7.95386,5.93246,0.0383203,7.2561,-6.25,-35.9146,-3.1734,-0.105381,8.43047,-4.63415,35.3354,3.68902
6750.97,52.4761,71.0464,0,8.03529,5.84624,0.0359253,5.67073,-5.06098,-36.0671,-3.26202,-0.141306,8.25084,-4.02439,37.8659,3.41463
6750.98,52.1585,70.9321,0,7.94907,5.58758,-0.0981958,7.0122,-4.78659,-37.3476,-3.28597,-0.177231,8.27958,-3.5061,38.9939,2.9878
6750.99,51.8222,70.8028,0,7.82692,5.59956,0.117356,7.77439,-1.34146,-38.9329,-3.365,-0.177231,8.2724,-3.35366,39.8171,3.2622
6751,51.4484,70.6613,0,7.48683,5.7241,0.328118,4.35976,2.22561,-39.7256,-3.43206,-0.186812,8.25803,-2.68293,40.8232,3.5061
6751.01,51.0963,70.5117,0,7.39103,5.61632,0.229922,4.2378,1.25,-38.628,-3.50631,-0.117356,8.29635,-2.22561,41.7073,4.08537
6751.02,50.7274,70.3664,0,7.51797,6.08574,0.00239502,2.62195,-1.21951,-37.4695,-3.559,-0.00958008,8.40652,-1.82927,42.7134,5.2439
6751.03,50.4068,70.2024,0,7.87243,6.03305,-0.371228,3.75,-4.57317,-36.4024,-3.64282,0.00479004,8.35383,-1.43293,43.6585,5.85366
6751.04,50.0263,70.0312,0,7.41977,6.31327,-0.0431104,3.38415,-9.2378,-37.1951,-3.68114,0.0479004,8.30832,-1.37195,45.3659,6.09756
6751.05,49.6675,69.8358,0,7.46049,6.20789,-0.0287402,0.853659,-10.2744,-37.0427,-3.78174,0.0622705,8.23408,-1.28049,46.9817,6.25
6751.06,49.3228,69.6313,0,7.57066,6.44021,-0.380808,0.304878,-13.3841,-35.061,-3.80569,-0.0239502,8.1287,-1.25,48.9329,6.31098
6751.07,48.9323,69.429,0,7.03417,6.38512,-0.114961,0.304878,-15.061,-36.6768,-3.88472,-0.00958008,8.24605,-1.21951,50.5488,6.15854
6751.08,48.6017,69.1768,0,7.10363,6.00431,0.0550855,-0.823171,-13.2622,-35.4878,-3.97334,-0.0790356,7.90596,-0.701219,52.3171,6.06707
6751.09,48.2903,68.912,0,7.1635,6.04263,-0.222737,-3.23171,-14.1768,-34.3293,-4.02842,-0.114961,7.82453,-0.335366,53.9329,5.7622
6751.1,47.9128,68.6555,0,7.03896,6.42105,-0.376018,-2.9878,-14.3293,-37.1646,-4.12422,-0.153281,7.99218,-0.304878,54.6037,5.82317
6751.11,47.5879,68.3689,0,7.23535,6.24382,-0.124541,-4.63415,-15.7012,-35.7927,-4.28469,-0.193997,7.95386,-1.0061,54.9695,6.31098
6751.12,47.236,68.0742,0,7.24493,6.73719,0.0574805,-5.42683,-17.0122,-34.878,-4.39007,-0.119751,7.98739,-0.853659,56.25,6.40244
6751.13,46.9008,67.745,0,7.58982,6.67731,-0.0981958,-6.43293,-15.0305,-37.1037,-4.48348,-0.148491,7.78142,-0.121951,58.2317,6.92073
6751.14,46.5546,67.3952,0,7.5036,6.61025,-0.342488,-7.71341,-12.622,-38.8415,-4.59125,-0.110171,7.70478,0.548781,60.3049,7.13415
6751.15,46.2529,67.0236,0,7.54671,6.37075,-0.162861,-6.79878,-13.9939,-37.4695,-4.69903,-0.0335303,7.61377,1.12805,61.8598,7.62195
6751.16,45.9223,66.633,0,7.22098,6.55517,-0.117356,-5.18293,-17.8049,-36.8293,-4.83315,-0.0455054,7.57784,1.70732,62.9573,7.71341
6751.17,45.5807,66.226,0,7.05573,6.58391,-0.117356,-4.17683,-16.7073,-37.0122,-4.97206,-0.0239502,7.56108,1.98171,63.628,8.10976
6751.18,45.2051,65.749,0,6.97669,7.01022,0.0239502,-7.04268,-16.5244,-36.8598,-5.16127,-0.0790356,7.23535,2.43902,64.3902,8.29268
6751.19,44.8345,65.3012,0,6.89287,6.9719,-0.342488,-8.90244,-18.5061,-36.7378,-5.28581,-0.0359253,7.48204,2.2561,64.6646,7.9878
6751.2,44.4651,64.8267,0,6.84976,6.80425,-0.61552,-10.9756,-19.2073,-38.4146,-5.41035,-0.0263452,7.34792,1.98171,63.628,7.92683
6751.21,44.136,64.3257,0,6.87131,6.51685,-0.725691,-10.6402,-20.3049,-37.7744,-5.4822,0.0574805,7.14195,2.16463,63.9024,8.38415
6751.22,43.7895,63.8853,0,6.89287,6.68929,-0.744851,-9.14634,-19.3293,-38.872,-5.52052,0.225132,7.46528,2.19512,62.9573,8.96341
6751.23,43.427,63.408,0,6.93837,6.88568,-0.711321,-9.20732,-15.9756,-39.9085,-5.57561,0.263452,7.17308,1.92073,62.8963,9.87805
6751.24,43.0632,62.911,0,6.94556,6.80904,-0.407153,-7.59146,-9.90854,-41.4939,-5.60674,0.289797,6.96711,0.945122,63.9634,10.1829
6751.25,42.6853,62.43,0,7.00783,6.94316,-0.222737,-5.85366,-6.92073,-43.0488,-5.65464,0.308958,7.00304,0.762195,63.872,10.3354
6751.26,42.371,61.9421,0,7.14195,6.66294,-0.541274,-5.57927,-5.7622,-40.8537,-5.74565,0.261057,6.95035,0.27439,62.9268,10.5488
6751.27,42.0505,61.4359,0,7.02938,6.59828,-0.64426,-3.62805,-2.83537,-41.7683,-5.87738,0.162861,6.87371,-0.0609756,62.4695,10.5183
6751.28,41.7149,60.9286,0,7.12039,6.77791,-0.565225,-2.7439,1.43293,-43.1402,-5.9636,0.0958008,6.84497,-0.396341,62.561,9.78659
6751.29,41.3993,60.4055,0,7.20901,6.99106,-0.308958,-1.7378,3.10976,-40.7012,-6.02347,0.0742456,6.69647,-0.97561,62.7439,9.29878
6751.3,41.0809,59.859,0,6.90484,7.08686,-0.378413,-2.34756,4.81707,-38.3232,-6.06658,0.114961,6.48811,-1.31098,64.1159,9.02439
6751.31,40.7385,59.3214,0,6.71563,7.49162,-0.361648,-2.2561,6.03659,-36.5549,-6.18155,0.143701,6.53601,-1.7378,63.5366,8.9939
6751.32,40.4013,58.767,0,6.42584,7.21619,-0.514929,-1.98171,9.14634,-36.3415,-6.34201,0.0934058,6.48332,-1.52439,62.4085,9.20732
6751.33,40.0678,58.2117,0,6.37554,7.08926,-0.469424,0.121951,10.4268,-37.2256,-6.44021,0.0838257,6.45218,-1.82927,62.3171,9.08537
6751.34,39.7323,57.6542,0,6.50966,7.12518,-0.512534,2.92683,10.0915,-39.0244,-6.50727,0.0574805,6.38273,-2.07317,63.1098,9.14634
6751.35,39.4289,57.104,0,6.66294,7.33834,-0.392783,0.182927,6.98171,-36.0671,-6.57912,0.0550855,6.37075,-2.19512,64.2988,9.48171
6751.36,39.1156,56.522,0,6.45218,7.18745,-0.57241,0.823171,7.0122,-37.0427,-6.62462,0.0407153,6.11928,-1.92073,65.4268,9.54268
6751.37,38.7868,55.9624,0,6.22466,6.89766,-0.541274,2.10366,8.81098,-39.5732,-6.65097,0.0407153,6.14083,-1.52439,65.7927,10.122
6751.38,38.446,55.366,0,6.31567,7.50599,-0.00958008,1.06707,8.14024,-37.4085,-6.79707,0.0766406,5.95641,-1.25,65.7317,10.7317
6751.39,38.0717,54.7463,0,5.86061,7.48444,-0.270637,-1.09756,8.04878,-37.4085,-6.88808,0.138911,5.78876,-0.914634,66.0671,11.311
6751.4,37.6375,54.1752,0,5.55166,8.00176,-0.0407153,-3.38415,5.97561,-37.5305,-7.00543,0.177231,6.01389,-0.792683,64.8476,11.4329
6751.41,37.2114,53.5678,0,5.60914,7.86045,-0.110171,-3.56707,3.53659,-39.1463,-7.1156,0.191602,5.79355,-0.365854,63.689,11.5244
6751.42,36.7868,52.9623,0,5.50136,7.5012,-0.263452,-2.59146,3.90244,-41.372,-7.12039,0.189207,5.68338,0.0304878,64.2988,11.7378
6751.43,36.437,52.3572,0,6.19352,7.92272,-0.0934058,-2.68293,3.87195,-38.2012,-7.19464,0.232317,5.62111,0.243902,64.5122,11.3415
6751.44,36.1498,51.7964,0,6.31806,7.69041,-0.237107,-1.58537,3.41463,-35.3659,-7.18266,0.225132,5.71691,0.335366,64.7561,11.372
6751.45,35.8409,51.25,0,6.00192,7.5994,-0.0215552,0.853659,3.59756,-35.9146,-7.2617,0.217947,5.73847,-0.0914634,64.4207,10.8841
6751.46,35.5415,50.7061,0,5.98755,7.85806,0.102986,0.97561,2.04268,-33.5366,-7.26888,0.280217,5.64506,-0.945122,64.3598,10.6098
6751.47,35.0948,50.148,0,4.43318,7.85327,0.802332,5.27439,-14.3293,-33.1402,-7.28325,0.311353,5.47501,-1.7378,64.7256,10.3659
6751.48,34.7663,49.5726,0,5.26904,7.87961,0.256267,1.06707,-2.89634,-30.8232,-7.34073,0.308958,5.32173,-1.92073,65.061,10.4268
6751.49,34.4432,49.0139,0,5.23551,7.68322,-0.0550855,-1.12805,-0.426829,-31.9512,-7.38385,0.323328,5.32173,-1.67683,64.3902,10.3354
6751.5,34.125,48.4565,0,5.48459,8.05206,-0.220342,-1.82927,1.25,-32.1037,-7.49881,0.287402,5.30018,-1.34146,63.4756,10.3354
6751.51,33.8139,47.8868,0,5.49896,7.8868,-0.143701,-2.07317,2.9878,-33.2927,-7.65448,0.287402,5.23791,-1.92073,63.3537,10.3963
6751.52,33.5017,47.3282,0,5.58279,7.97062,-0.117356,-0.97561,4.29878,-34.2988,-7.76705,0.253872,5.25707,-2.2561,62.8354,10.2744
6751.53,33.1856,46.7518,0,5.62351,8.1263,-0.263452,0.27439,7.10366,-34.6646,-7.90835,0.136516,5.15169,-2.95732,62.378,10.0305
6751.54,32.9173,46.1456,0,5.69057,7.96823,-0.483794,1.0061,5.15244,-32.1646,-7.99937,0.129331,4.95051,-3.20122,62.0122,9.5122
6751.55,32.624,45.5378,0,5.45346,8.42328,-0.126936,0.457317,1.03659,-29.939,-7.97542,0.0934058,4.81159,-3.01829,61.9512,9.26829
6751.56,32.3201,44.9927,0,5.26904,8.75619,-0.234712,-1.37195,2.19512,-27.7744,-7.99458,0.241897,5.01038,-2.7439,61.2805,9.2378
6751.57,32.002,44.4186,0,4.84033,8.42568,-0.0910107,-4.63415,3.20122,-27.4695,-8.00895,0.330513,4.77327,-3.38415,60.5488,9.60366
6751.58,31.6497,43.8367,0,4.55054,8.15983,-0.229922,-0.365854,2.68293,-30.122,-8.05206,0.364043,4.65352,-3.90244,60.6707,9.81707
6751.59,31.3117,43.2798,0,4.98164,8.61249,-0.0742456,-3.59756,2.37805,-31.2195,-8.18618,0.332908,4.73974,-4.02439,60.061,10.3049
6751.6,30.9879,42.689,0,4.96248,8.36101,-0.153281,-3.23171,-0.670732,-31.7683,-8.27,0.268242,4.5194,-3.62805,59.6951,10.0305
6751.61,30.677,42.1036,0,5.14929,8.64363,0.0359253,-2.86585,-1.82927,-31.311,-8.37538,0.158071,4.49066,-3.38415,59.0854,9.63415
6751.62,30.3969,41.5056,0,5.37682,8.48555,0.134121,-3.81098,-1.37195,-32.0122,-8.43765,0.112566,4.35415,-3.32317,59.0549,9.54268
6751.63,30.1392,40.9289,0,5.37442,8.33706,-0.0886157,-2.7439,-0.670732,-31.2195,-8.42807,0.0981958,4.33738,-3.04878,58.7195,9.39024
6751.64,29.8981,40.356,0,5.36005,8.4137,-0.258662,-2.2561,0.548781,-29.4207,-8.45921,0.0742456,4.26313,-2.53049,57.561,9.42073
6751.65,29.6498,39.8269,0,5.09421,8.03769,-0.241897,-3.01829,1.82927,-30.3659,-8.464,0.126936,4.36373,-2.71341,56.4329,9.2378
6751.66,29.3842,39.2821,0,4.94093,8.15744,-0.488584,-7.62195,5.06098,-30.2744,-8.52627,0.189207,4.22242,-3.59756,55.7012,9.26829
6751.67,29.1337,38.7119,0,4.69903,8.41849,-0.893342,0.243902,0.27439,-25.122,-8.46879,0.232317,3.97813,-4.11585,56.0976,9.26829
6751.68,28.8508,38.1636,0,4.68945,9.19209,0.0455054,0.884146,-0.853659,-24.5732,-8.55262,0.256267,4.01405,-4.26829,55.7317,9.26829
6751.69,28.5512,37.5974,0,4.45713,9.14418,0.0886157,-2.46951,-2.46951,-24.7256,-8.64842,0.237107,3.87514,-4.29878,54.6951,9.17683
6751.7,28.2449,37.0033,0,4.49306,9.09389,0.0981958,-4.87805,-5.36585,-26.6463,-8.68913,0.193997,3.66438,-3.47561,54.7561,9.35976
6751.71,27.9401,36.4118,0,4.37331,8.7514,-0.229922,-3.87195,-5.15244,-27.6524,-8.75619,0.191602,3.59732,-2.62195,54.3902,9.39024
6751.72,27.6586,35.8308,0,4.52419,8.56219,-0.210762,-1.4939,-3.17073,-28.5366,-8.83523,0.186812,3.57097,-2.59146,53.7805,9.7561
6751.73,27.2214,35.2876,0,3.2692,7.06052,0.584385,-8.78049,-0.182927,-38.872,-8.93582,0.170046,3.67875,-3.71951,53.0183,9.66463
6751.74,26.9565,34.7321,0,4.45713,7.56347,-0.531694,-1.79878,4.2378,-33.75,-9.00767,0.131726,3.55181,-4.39024,52.622,9.32927
6751.75,26.7418,34.1489,0,5.18043,9.11065,-0.0119751,0.823171,6.18902,-27.3476,-9.03162,0.0838257,3.33387,-3.96341,51.6463,8.96341
6751.76,26.4898,33.5323,0,4.6655,9.06036,0.210762,-3.20122,2.80488,-26.7378,-9.00048,0.122146,3.07042,-2.28659,52.1341,8.65854
6751.77,26.2986,32.9946,0,4.90261,9.08431,-0.174836,-1.58537,0.426829,-23.3232,-8.99809,0.162861,3.31231,-1.25,51.5854,8.56707
6751.78,26.1085,32.4481,0,4.88344,9.50583,-0.122146,0.731707,-2.10366,-21.2195,-9.09628,0.155676,3.21172,-1.46341,51.0976,8.59756
6751.79,25.9001,31.908,0,4.32301,9.14658,0.0143701,-4.42073,-1.64634,-19.6037,-9.1849,0.186812,3.1734,-2.31707,50.7927,8.38415
6751.8,25.6636,31.3542,0,3.91107,8.80649,-0.232317,-4.5122,0.365854,-20.1524,-9.25915,0.220342,3.03928,-2.5,50.6402,8.41463
6751.81,25.4174,30.8192,0,3.81527,8.6077,-0.335303,-2.43902,2.19512,-21.5244,-9.31902,0.213157,3.04407,-2.37805,49.2073,8.01829
6751.82,25.1771,30.2942,0,3.93262,8.35143,-0.270637,0.304878,2.07317,-24.1159,-9.33579,0.256267,2.99617,-2.31707,47.1037,8.14024
6751.83,24.8148,29.7808,0,3.04167,6.86413,0.337698,-12.378,2.56098,-34.3598,-9.30944,0.280217,2.94587,-2.2561,46.2805,7.92683
6751.84,24.5469,29.2549,0,4.40444,8.87115,-0.280217,-1.95122,0.487805,-30.5793,-9.35495,0.258662,2.81175,-2.13415,46.128,8.01829
6751.85,24.2992,28.7052,0,4.52898,9.37411,0.138911,-1.0061,2.37805,-27.8049,-9.39087,0.146096,2.62255,-1.82927,46.2805,8.14024
6751.86,24.1015,28.1711,0,4.64155,9.70462,0.273032,-2.40854,5.21341,-22.7439,-9.34776,0.138911,2.58183,-0.792683,45.2744,8.17073
6751.87,23.8857,27.643,0,3.85838,8.86876,-0.0455054,-2.56098,6.43293,-20.8232,-9.39327,0.0431104,2.52675,-0.518293,44.6037,8.01829
6751.88,23.6832,27.1125,0,4.05716,9.41722,-0.114961,2.22561,8.65854,-19.4817,-9.35974,0.0670605,2.41418,-0.182927,43.75,7.95732
6751.89,23.4945,26.6017,0,3.95897,9.49625,0.301772,2.2561,5.4878,-17.1037,-9.37411,0.141306,2.41178,0.579268,43.0488,7.9878
6751.9,23.2977,26.114,0,3.76497,9.45793,0.459844,-2.10366,1.67683,-16.4329,-9.47949,0.225132,2.4501,1.0061,41.5549,8.96341
6751.91,23.0866,25.5919,0,3.47517,9.25436,0.213157,-3.75,-1.28049,-16.0061,-9.46512,0.273032,2.20821,0.762195,41.2195,9.48171
6751.92,22.8712,25.1218,0,3.44404,9.14418,0.102986,-3.71951,-2.46951,-16.9817,-9.60163,0.289797,2.38065,0.823171,41.0366,9.93902
6751.93,22.669,24.6316,0,3.53744,9.10347,0.107776,-3.68902,-3.68902,-17.2866,-9.73575,0.241897,2.23695,1.06707,39.939,9.72561
6751.94,22.4734,24.1135,0,3.54463,8.70829,0.0934058,-3.9939,-4.87805,-18.9024,-9.79323,0.258662,2.03577,0.914634,39.2683,9.20732
6751.95,22.0038,23.6388,0,1.92799,6.82102,0.912502,-19.939,-5,-34.2683,-9.81719,0.277822,2.14354,0.548781,38.5366,9.02439
6751.96,21.7507,23.1698,0,3.81527,8.63405,-1.08973,-8.44512,2.22561,-29.5732,-9.82916,0.342488,2.08606,0.213415,37.7744,8.56707
6751.97,21.5135,22.7026,0,4.13859,10.0735,-0.308958,-1.03659,1.43293,-25.3963,-9.82677,0.352068,2.00942,-1.03659,37.6524,8.44512
6751.98,21.3015,22.2269,0,3.99489,10.107,0.105381,-4.45122,2.59146,-21.7378,-9.84832,0.371228,1.89207,-0.945122,37.1037,8.68902
6751.99,21.0049,21.7489,0,3.00575,8.91426,0.0934058,-7.0122,3.04878,-24.8171,-9.83874,0.296982,1.79387,-0.853659,35.9756,8.71951
6752,20.7979,21.2613,0,4.00926,9.81,-0.514929,2.53049,6.15854,-23.628,-9.82916,0.261057,1.66454,-0.213415,35.6707,8.62805
6752.01,20.5795,20.7914,0,3.82485,9.49865,0.261057,-0.792683,7.07317,-24.6037,-9.84593,0.280217,1.65975,-0.304878,34.6341,8.87195
6752.02,20.4159,20.315,0,4.16973,9.4268,-0.00718506,-2.07317,13.0183,-23.3841,-9.81479,0.251477,1.54239,0.0914634,34.5732,8.96341
6752.03,20.278,19.8467,0,4.24158,9.61121,0.110171,-3.17073,13.4146,-21.0061,-9.76689,0.285007,1.48731,0.609756,34.1463,9.35976
6752.04,20.1402,19.4348,0,3.66677,8.95019,-0.165256,-0.396341,11.6159,-18.1402,-9.80281,0.313748,1.65975,0.640244,33.3232,9.11585
6752.05,19.9026,18.9948,0,2.88121,8.63644,0.546064,-3.5061,10.0915,-20.7927,-9.82197,0.256267,1.46575,0.579268,32.8354,8.35366
6752.06,19.721,18.5527,0,3.2237,8.89031,-0.234712,-3.81098,14.5122,-18.5976,-9.82677,0.249082,1.37953,0.243902,32.7744,7.80488
6752.07,19.5041,18.1343,0,2.96743,9.34537,-0.344883,1.55488,9.35976,-17.8354,-9.76928,0.287402,1.39869,0.426829,32.439,7.40854
6752.08,19.2223,17.7122,0,2.79978,9.7597,0.723296,-6.61585,4.35976,-21.6159,-9.72138,0.373623,1.30289,0.762195,31.7073,7.37805
6752.09,18.9712,17.2927,0,3.15424,9.44356,0.170046,-6.92073,3.65854,-24.0854,-9.66151,0.395178,1.23344,0.213415,31.9207,7.40854
6752.1,18.7421,16.9156,0,2.93629,8.53345,-0.0981958,-3.10976,3.10976,-23.4146,-9.73815,0.404758,1.35558,-0.457317,31.4329,7.7439
6752.11,18.5481,16.52,0,3.49194,9.72378,0.0718506,3.75,1.46341,-21.8598,-9.79563,0.390388,1.21667,-1.12805,31.2195,8.07927
6752.12,18.4187,16.1206,0,4.03321,10.0447,0.122146,-1.58537,1.85976,-20,-9.79084,0.421523,1.13045,-0.884146,30.4573,8.35366
6752.13,18.371,15.7278,0,4.25116,9.87227,0.124541,-3.04878,2.37805,-14.8171,-9.79563,0.486189,1.08973,-0.457317,29.5427,8.78049
6752.14,18.3189,15.3426,0,3.77455,9.11784,0.0335303,-3.35366,1.34146,-13.7195,-9.74773,0.486189,1.04902,-0.579268,28.5366,8.84146
6752.15,18.289,14.9624,0,3.85838,9.19209,0.112566,-1.64634,2.22561,-12.1341,-9.79323,0.385598,1.0083,-0.518293,27.9878,8.5061
6752.16,18.2835,14.5752,0,3.93023,9.26394,-0.0958008,-0.792683,4.11585,-10.1524,-9.81479,0.311353,0.914897,-0.701219,28.1098,7.83537
6752.17,18.2642,14.2012,0,3.73144,9.21125,-0.186812,0.853659,8.38415,-9.66463,-9.92736,0.220342,0.914897,-0.457317,27.3171,7.37805
6752.18,18.2146,13.8261,0,3.43446,9.19209,-0.179626,2.04268,11.0976,-9.60366,-9.91538,0.234712,0.843047,-0.243902,26.7073,6.79878
6752.19,18.1409,13.4517,0,3.23088,9.12742,-0.0550855,3.2622,12.4695,-10.122,-9.85072,0.246687,0.775986,0.365854,26.5549,6.55488
6752.2,17.9927,13.0907,0,2.72074,8.56219,0.385598,1.70732,12.6524,-14.0854,-9.87706,0.320933,0.771196,0.27439,26.2195,6.89024
6752.21,17.6136,12.7633,0,1.70525,6.81862,0.182021,-10.7927,15.0305,-30.6098,-9.90341,0.483794,0.857417,-0.0914634,25.3354,7.56098
6752.22,17.4727,12.4291,0,3.60211,9.2352,-0.555645,3.71951,18.3232,-21.9207,-9.89383,0.514929,0.768801,-0.335366,24.0854,8.32317
6752.23,17.3543,12.122,0,3.42009,9.54655,0.440684,2.5,12.2561,-16.6463,-9.91538,0.522114,0.831072,-0.792683,23.3232,8.75
6752.24,17.1782,11.8252,0,3.01293,9.88904,0.948428,-1.98171,8.14024,-17.1341,-9.97286,0.505349,0.826282,-1.52439,22.1037,8.78049
6752.25,17.0601,11.5179,0,3.12071,9.57289,0.239502,0.792683,8.71951,-13.8415,-9.99202,0.488584,0.728086,-2.34756,20.9146,8.20122
6752.26,16.9449,11.2078,0,2.97461,9.58247,0.306563,1.52439,6.70732,-12.1341,-9.98484,0.467029,0.661025,-2.92683,20.5183,7.95732
6752.27,16.9099,10.8941,0,3.58774,10.598,-0.0598755,8.01829,6.85976,-7.16463,-9.95131,0.462239,0.589175,-3.14024,20.3963,7.5
6752.28,16.8384,10.5572,0,2.97461,10.0208,0.522114,-0.335366,2.95732,-6.52439,-9.92736,0.337698,0.431104,-3.20122,20.061,7.28659
6752.29,16.7819,10.1985,0,2.88121,9.31184,-0.0742456,0.152439,4.11585,-6.4939,-9.86988,0.277822,0.275427,-3.01829,20.3963,6.95122
6752.3,16.7322,9.86263,0,2.87163,9.19448,0.122146,1.15854,5,-6.21951,-9.86748,0.268242,0.313748,-2.65244,20.9451,7.16463
6752.31,16.6788,9.54575,0,2.83091,9.15616,0.179626,1.85976,5.64024,-6.37195,-9.91059,0.285007,0.340093,-2.68293,21.1585,7.16463
6752.32,16.6279,9.23438,0,2.87402,9.24478,0.191602,2.71341,5.27439,-6.40244,-9.91299,0.397573,0.308958,-2.65244,20.6402,7.40854
6752.33,16.5914,8.9505,0,3.02251,9.39806,0.198787,2.89634,5.4878,-6.18902,-9.89143,0.507744,0.373623,-2.62195,19.7256,7.80488
6752.34,16.5697,8.68502,0,3.10634,9.41482,0.114961,2.59146,6.46341,-5.64024,-9.96328,0.58199,0.407153,-3.04878,18.9024,8.32317
6752.35,16.5485,8.43252,0,3.11113,9.46991,0.0311353,2.77439,7.53049,-5.4878,-10.0735,0.517324,0.421523,-3.9939,17.6829,8.38415
6752.36,16.5402,8.16865,0,3.17101,9.47709,0.0431104,3.32317,9.11585,-4.87805,-10.1357,0.457449,0.328118,-4.72561,17.1341,7.22561
6752.37,16.5234,7.90198,0,3.06083,9.35016,-0.0191602,3.81098,11.0061,-5,-10.1549,0.349673,0.268242,-4.5122,15.8841,6.52439
6752.38,16.4903,7.59684,0,2.92432,9.27112,0.00958008,5.21341,12.1951,-5.39634,-10.1214,0.273032,0.0479004,-4.26829,15.122,5.67073
6752.39,16.3298,7.26817,0,2.1627,8.22929,-0.510139,7.10366,16.4329,-12.7744,-10.0447,0.275427,-0.110171,-3.62805,15.061,5.2439
6752.4,16.1126,6.94522,0,2.36149,9.49386,0.538879,-6.15854,12.5915,-17.3476,-9.99921,0.251477,-0.141306,-2.83537,15.6402,5.21341
6752.41,16.0502,6.63534,0,3.24525,9.50583,-0.574805,3.17073,15.4878,-11.9512,-9.96568,0.342488,-0.138911,-2.43902,16.4634,5.2439
6752.42,15.9796,6.37808,0,3.02251,10.5093,0.366438,7.07317,11.4329,-7.19512,-10.0016,0.395178,0.0383203,-2.40854,16.2805,5.82317
6752.43,15.9117,6.15642,0,2.53633,9.89622,0.376018,3.14024,8.07927,-3.53659,-10.0543,0.380808,0.150886,-3.41463,15.9756,5.91463
6752.44,15.8169,5.93134,0,2.28964,9.51302,0.193997,4.14634,6.95122,-4.72561,-10.0543,0.397573,0.0958008,-4.32927,14.8476,6.03659
6752.45,15.7211,5.6829,0,2.39981,9.76928,0.304167,3.14024,4.84756,-5.64024,-10.0758,0.392783,-0.0479004,-4.63415,14.1159,5.57927
6752.46,15.6645,5.42566,0,2.71835,9.69983,0.239502,2.19512,4.81707,-5.64024,-10.1022,0.390388,-0.131726,-4.7561,13.3232,5.60976
6752.47,15.6361,5.16727,0,2.89797,9.41722,0.0790356,2.92683,4.90854,-5.85366,-10.0615,0.368833,-0.182021,-3.78049,12.7134,5.18293
6752.48,15.6249,4.90369,0,2.93869,9.31423,0.150886,3.84146,4.84756,-5.03049,-9.98484,0.402363,-0.249082,-3.04878,12.0732,4.93902
6752.49,15.6035,4.65762,0,2.81894,9.4244,0.179626,3.84146,5,-4.32927,-9.87467,0.361648,-0.215552,-2.37805,12.0732,4.72561
6752.5,15.5675,4.40299,0,2.67045,9.48667,0.153281,2.59146,5.21341,-3.93293,-9.77407,0.361648,-0.292192,-1.98171,12.1037,5.09146
6752.51,15.522,4.16322,0,2.56267,9.37411,0.237107,2.31707,3.81098,-4.05488,-9.67588,0.399968,-0.268242,-2.04268,12.8963,5.21341
6752.52,15.4759,3.95545,0,2.57465,9.35495,0.320933,2.0122,2.92683,-4.42073,-9.70701,0.455054,-0.172441,-2.56098,13.2622,6.15854
6752.53,15.4335,3.7506,0,2.60099,9.46033,0.433499,2.10366,2.77439,-4.11585,-9.7597,0.435894,-0.196392,-2.83537,13.0793,6.79878
6752.54,15.4085,3.53359,0,2.76385,9.54655,0.399968,1.85976,3.56707,-4.05488,-9.78126,0.445474,-0.285007,-2.83537,12.2256,7.19512
6752.55,15.4006,3.32078,0,2.86205,9.57768,0.318538,2.53049,3.78049,-3.44512,-9.78126,0.455054,-0.304167,-2.68293,11.9512,7.37805
6752.56,15.4152,3.11536,0,3.01054,9.55852,0.241897,2.10366,3.59756,-3.07927,-9.85311,0.428708,-0.311353,-2.77439,11.4024,7.40854
6752.57,15.4307,2.88707,0,3.00575,9.48428,0.167651,1.95122,5.12195,-3.17073,-9.88904,0.385598,-0.447869,-2.16463,11.372,7.46951
6752.58,15.4403,2.6409,0,2.90037,9.40285,0.153281,2.53049,6.34146,-2.89634,-9.96328,0.306563,-0.570015,-1.43293,11.0976,7.40854
6752.59,15.4277,2.37231,0,2.71116,9.31184,0.277822,3.75,5.54878,-3.07927,-9.99681,0.234712,-0.713716,-0.213415,11.7073,7.10366
6752.6,15.385,2.12248,0,2.48843,9.37171,0.304167,3.65854,5.21341,-3.10976,-10.0351,0.215552,-0.680186,0.487805,11.8598,6.79878
6752.61,15.3274,1.89223,0,2.46687,9.56331,0.0790356,3.93293,5.36585,-3.93293,-10.0399,0.205972,-0.637075,1.34146,12.3476,6.67683
6752.62,15.2753,1.6769,0,2.52435,9.50823,0.198787,3.20122,4.32927,-4.35976,-10.0303,0.263452,-0.61073,1.98171,12.3476,6.79878
6752.63,15.1394,1.48694,0,2.06211,8.69871,0.253872,1.4939,4.32927,-9.90854,-9.94412,0.344883,-0.531694,2.10366,11.9817,7.5
6752.64,14.9717,1.29546,0,2.54591,9.22322,0.275427,-5.54878,4.05488,-17.7134,-9.87467,0.443079,-0.56762,2.2561,11.8293,8.47561
6752.65,14.9593,1.11821,0,3.4129,9.77886,-0.464634,0.152439,9.20732,-9.96951,-9.87706,0.450264,-0.538879,1.89024,11.6159,8.93293
6752.66,14.92,0.936366,0,2.77343,9.87946,0.342488,2.40854,4.17683,-5.4878,-9.9561,0.344883,-0.593965,1.67683,12.0732,9.14634
6752.67,14.8945,0.765606,0,2.70877,10.2794,0.380808,2.83537,2.16463,-2.2561,-10.004,0.287402,-0.579595,1.85976,12.1037,8.71951
6752.68,14.8383,0.602604,0,2.32796,9.59445,0.193997,0.945122,0.640244,-2.92683,-9.98723,0.249082,-0.574805,2.22561,11.4329,7.89634
6752.69,14.7872,0.411423,0,2.43334,9.46512,0.0958008,2.34756,0.0304878,-4.32927,-10.0519,0.244292,-0.732876,2.62195,11.128,7.62195
6752.7,14.7538,0.228965,0,2.55309,9.50583,0.105381,1.31098,-0.426829,-3.93293,-10.1142,0.253872,-0.732876,3.20122,10.3963,6.92073
6752.71,14.736,0.049294,0,2.65129,9.40285,0.0646655,1.18902,0.152439,-3.93293,-10.1932,0.182021,-0.759221,3.93293,9.72561,6.52439
6752.72,14.7222,-0.143574,0,2.6441,9.39566,-0.0598755,0.914634,1.15854,-3.53659,-10.1812,0.172441,-0.850232,4.54268,9.48171,5.85366
6752.73,14.7074,-0.326729,0,2.6465,9.44117,-0.114961,1.70732,1.31098,-3.53659,-10.0878,0.261057,-0.833467,5.12195,9.05488,5.54878
6752.74,14.6946,-0.505656,0,2.63692,9.43877,0.0335303,2.62195,1.40244,-3.29268,-10.0423,0.332908,-0.843047,5.15244,9.2378,5.45732
6752.75,14.6722,-0.656983,0,2.54112,9.46033,0.0359253,2.92683,1.09756,-3.04878,-9.85311,0.416733,-0.737666,4.57317,9.02439,5.54878
6752.76,14.6371,-0.796697,0,2.4525,9.5226,-0.00958008,2.5,0.731707,-3.07927,-9.79563,0.428708,-0.708926,4.08537,9.08537,5.7622
6752.77,14.5829,-0.905064,0,2.31359,9.58966,0.122146,2.56098,0.548781,-3.17073,-9.93454,0.407153,-0.60594,3.17073,8.47561,5.88415
6752.78,14.537,-1.03644,0,2.41897,9.69983,0.0766406,0.823171,0.457317,-3.44512,-10.0878,0.330513,-0.737666,2.77439,7.7439,5.7622
6752.79,14.5156,-1.17392,0,2.6465,9.67827,-0.0383203,0.152439,2.04268,-3.78049,-10.174,0.258662,-0.795146,2.92683,7.34756,5.21341
6752.8,14.4913,-1.32078,0,2.53154,9.51541,-0.0598755,0.640244,1.64634,-3.32317,-10.2052,0.191602,-0.864602,2.9878,7.53049,4.84756
6752.81,14.4591,-1.50405,0,2.51717,9.5202,0.165256,0.548781,1.31098,-3.96341,-10.1405,0.229922,-1.04902,3.35366,8.29268,4.69512
6752.82,14.1465,-1.67359,0,1.02746,7.74789,0.479004,-8.01829,-3.81098,-17.8049,-10.1261,0.261057,-1.01788,3.78049,9.02439,4.84756
6752.83,13.9698,-1.84128,0,2.34233,8.81128,-0.364043,0.670732,7.13415,-19.5427,-10.0735,0.273032,-1.03465,4.32927,8.65854,5.12195
6752.84,13.938,-1.97946,0,2.886,9.97047,0.201182,1.52439,1.09756,-7.68293,-10.0399,0.282612,-0.929268,4.48171,8.32317,5.30488
6752.85,13.9185,-2.1108,0,2.90995,10.3369,0.155676,0.945122,1.0061,-5.64024,-9.92017,0.251477,-0.912502,4.69512,7.71341,5.7622
6752.86,13.9451,-2.23583,0,3.11113,10.3058,-0.246687,2.80488,3.90244,-3.32317,-9.86748,0.251477,-0.902922,4.72561,7.2561,5.54878
6752.87,13.9453,-2.35138,0,2.65368,9.64235,0.191602,0.457317,1.4939,-3.14024,-9.87467,0.285007,-0.883762,4.69512,6.79878,5.73171
6752.88,13.9485,-2.45614,0,2.67284,9.50583,0.0886157,1.25,1.03659,-3.47561,-9.8579,0.301772,-0.855022,4.48171,6.40244,5.42683
6752.89,13.9533,-2.54413,0,2.67763,9.4747,0.0239502,1.79878,2.04268,-3.47561,-9.88664,0.368833,-0.802332,4.63415,6.21951,5.33537
6752.9,13.961,-2.63066,0,2.67524,9.49865,0.0526904,2.10366,3.41463,-3.14024,-9.89862,0.411943,-0.811912,3.53659,5.79268,5.15244
6752.91,13.9722,-2.72432,0,2.62973,9.39806,0.0335303,1.67683,4.60366,-2.7439,-9.91538,0.452659,-0.859812,3.38415,5.94512,5.03049
6752.92,13.9918,-2.82678,0,2.64889,9.30465,0.0119751,2.37805,4.90854,-2.59146,-9.96807,0.409548,-0.919688,3.20122,5.94512,4.90854
6752.93,14.0266,-2.94038,0,2.73751,9.31663,0.102986,2.68293,5.70122,-2.34756,-9.97047,0.440684,-0.986748,2.80488,5.70122,4.78659
6752.94,14.0729,-3.06639,0,2.73032,9.37171,0.0311353,3.20122,6.52439,-1.64634,-9.90341,0.416733,-1.05381,2.62195,5.51829,5.09146
6752.95,14.1124,-3.18062,0,2.71835,9.43159,0.0431104,3.29268,6.12805,-1.64634,-9.86748,0.402363,-1.01788,2.65244,4.90854,5.12195
6752.96,14.1438,-3.28356,0,2.65847,9.47949,-0.0407153,3.23171,7.34756,-1.43293,-9.82677,0.354463,-0.981958,2.89634,4.5122,5.57927
6752.97,14.1417,-3.37044,0,2.5028,9.49386,0.0455054,3.87195,7.59146,-1.89024,-9.82677,0.318538,-0.924478,2.34756,3.84146,5.33537
6752.98,14.1303,-3.46974,0,2.46448,9.54894,0.0550855,4.08537,7.13415,-2.0122,-9.82916,0.335303,-0.989143,2.07317,3.65854,5.30488
6752.99,14.1144,-3.54081,0,2.45729,9.68067,0.00958008,3.78049,6.67683,-1.92073,-9.83635,0.344883,-0.886157,1.67683,3.44512,5.51829
6753,14.0934,-3.62174,0,2.43573,9.68306,0.0502954,3.41463,5.82317,-2.16463,-9.84593,0.356858,-0.948428,1.40244,4.05488,5.82317
6753.01,14.0719,-3.67032,0,2.47406,9.51302,0.00479004,3.5061,5.85366,-3.2622,-9.89622,0.385598,-0.828677,0.548781,3.87195,6.34146
6753.02,14.077,-3.7328,0,2.66805,9.58008,0.0694556,3.35366,5.7622,-2.83537,-9.93933,0.383203,-0.895737,-0.0609756,3.41463,6.25
6753.03,14.0994,-3.7931,0,2.67284,9.47949,0.0646655,2.68293,6.70732,-2.0122,-9.99921,0.390388,-0.898132,-1.21951,3.01829,6.31098
6753.04,14.1056,-3.86718,0,2.57225,9.50344,0.0766406,3.01829,6.79878,-2.04268,-9.98005,0.316143,-0.967588,-1.40244,3.23171,6.03659
6753.05,14.0987,-3.98179,0,2.43334,9.43159,0.100591,3.23171,6.0061,-1.7378,-9.96568,0.313748,-1.14961,-1.7378,3.2622,5.88415
6753.06,14.0573,-4.08407,0,2.22976,9.29268,0.0431104,3.01829,5.57927,-2.80488,-9.96807,0.349673,-1.12566,-1.64634,3.62805,5.94512
6753.07,13.968,-4.18054,0,2.12199,9.18969,-0.213157,6.09756,6.85976,-6.95122,-9.89383,0.392783,-1.1065,-1.37195,3.47561,5.88415
6753.08,13.8015,-4.28264,0,1.82021,9.35974,0.61073,-2.31707,2.56098,-10.9451,-9.93215,0.332908,-1.13284,-1.40244,2.77439,5.85366
6753.09,13.7206,-4.3748,0,2.50759,9.05557,-0.225132,-6.43293,4.81707,-11.6768,-9.94891,0.277822,-1.1065,-1.18902,2.59146,5.94512
6753.1,13.6213,-4.46641,0,2.52914,9.65911,-0.0742456,0.548781,5.36585,-12.0732,-9.99442,0.227527,-1.11608,-1.40244,2.31707,5.82317
6753.11,13.6436,-4.54317,0,2.87881,10.0758,-0.119751,4.84756,5.2439,-2.77439,-10.004,0.241897,-1.06578,-1.43293,2.07317,5.79268
6753.12,13.6187,-4.60841,0,2.36628,10.0782,0.6251,0.304878,2.2561,-1.43293,-10.0447,0.258662,-1.04423,-1.55488,2.13415,5.67073
6753.13,13.6036,-4.6705,0,2.31838,9.52739,-0.0670605,1.58537,2.40854,-1.70732,-9.99202,0.285007,-1.01309,-1.58537,1.58537,5.97561
6753.14,13.5961,-4.76165,0,2.37107,9.65911,-0.0191602,2.10366,3.17073,-1.34146,-9.98005,0.306563,-1.10171,-1.89024,1.34146,6.09756
6753.15,13.5854,-4.87686,0,2.36149,9.64474,0.0574805,1.85976,3.32317,-1.55488,-10.0136,0.289797,-1.17595,-1.76829,1.09756,6.43293
6753.16,13.565,-5.00758,0,2.28245,9.59684,0.0718506,1.18902,3.14024,-1.4939,-10.0782,0.210762,-1.29331,-2.0122,1.37195,6.43293
6753.17,13.531,-5.14624,0,2.18905,9.52499,0.0311353,0.518293,2.95732,-1.76829,-10.0854,0.239502,-1.35319,-1.76829,1.43293,6.09756
6753.18,13.4912,-5.25552,0,2.17468,9.56092,0.00958008,0.304878,2.5,-2.31707,-10.0519,0.249082,-1.29571,-1.25,1.7378,5.91463
6753.19,13.4592,-5.35524,0,2.23695,9.54415,0.0958008,0.365854,0.792683,-2.56098,-10.0232,0.273032,-1.22864,-0.792683,1.18902,6.43293
6753.2,13.4427,-5.44519,0,2.33035,9.616,0.179626,0.243902,-0.701219,-2.10366,-9.99202,0.246687,-1.152,-0.914634,0.579268,6.52439
6753.21,13.4369,-5.55687,0,2.41897,9.60163,0.0143701,0.0914634,-0.884146,-2.28659,-9.96807,0.239502,-1.16637,-0.914634,0.182927,6.79878
6753.22,13.4402,-5.60419,0,2.48124,9.58247,-0.0335303,-0.0304878,0.335366,-2.28659,-9.9537,0.189207,-1.06339,-0.670732,-0.27439,6.76829
6753.23,13.4584,-5.6571,0,2.53872,9.53697,0,-0.152439,0.97561,-1.95122,-9.9537,0.210762,-1.1065,-0.823171,-0.670732,6.79878
6753.24,13.4718,-5.69153,0,2.51717,9.52978,0.00958008,0.213415,0.609756,-2.04268,-9.92257,0.229922,-1.07297,-1.0061,-0.853659,6.76829
6753.25,13.4791,-5.70064,0,2.44531,9.52978,0.0143701,0.243902,1.12805,-1.76829,-9.9058,0.251477,-1.0107,-0.823171,-0.792683,6.58537
6753.26,13.4771,-5.74041,0,2.39981,9.54415,-0.0239502,0.609756,1.06707,-1.89024,-9.88185,0.318538,-1.08973,-0.518293,-0.884146,6.52439
6753.27,13.4821,-5.7747,0,2.46448,9.53457,0.0287402,0.548781,1.03659,-2.07317,-9.9058,0.299377,-1.08255,-0.792683,-0.792683,6.64634
6753.28,13.482,-5.82492,0,2.42615,9.53697,-0.0550855,0.457317,0.914634,-2.04268,-9.93933,0.287402,-1.13284,-1.06707,-0.762195,6.85976
6753.29,13.4714,-5.87923,0,2.36388,9.59205,0.0335303,0.0914634,1.58537,-2.0122,-10.004,0.222737,-1.16158,-1.37195,-0.731707,6.76829
6753.3,13.4564,-5.91656,0,2.32077,9.56331,-0.0431104,-0.213415,1.95122,-1.98171,-9.98723,0.249082,-1.12326,-1.37195,-0.701219,6.61585
6753.31,13.4378,-5.96635,0,2.31119,9.57289,-0.0143701,-0.152439,1.52439,-2.19512,-9.93694,0.244292,-1.14961,-1.43293,-0.640244,6.4939
6753.32,13.4341,-5.97768,0,2.43334,9.58008,-0.0431104,-0.335366,0.579268,-2.34756,-9.91778,0.273032,-1.06578,-1.46341,-0.792683,6.67683
6753.33,13.4378,-5.99435,0,2.49322,9.54894,-0.0574805,0,0.243902,-2.46951,-9.91538,0.256267,-1.08494,-1.61585,-1.0061,6.70732
6753.34,13.456,-6.00989,0,2.56986,9.53697,0.0383203,-0.152439,0.243902,-2.19512,-9.9082,0.217947,-1.08973,-1.92073,-1.37195,6.79878
6753.35,13.4755,-6.03892,0,2.5507,9.47709,-0.0119751,0.121951,0.213415,-2.10366,-9.93694,0.189207,-1.13763,-1.67683,-1.34146,6.79878
6753.36,13.5141,-6.07715,0,2.54351,9.41961,0.0574805,0.762195,-0.213415,-1.31098,-9.88904,0.193997,-1.16637,-1.37195,-1.40244,7.2561
6753.37,13.5333,-6.10766,0,2.47645,9.49625,-0.00239502,0.0304878,1.46341,-1.40244,-9.89143,0.198787,-1.1544,-1.28049,-1.58537,6.95122
6753.38,13.5482,-6.12696,0,2.44292,9.53936,-0.0790356,0.396341,1.58537,-1.18902,-9.83874,0.208367,-1.11608,-1.18902,-1.58537,7.07317
6753.39,13.5416,-6.15346,0,2.36867,9.54655,0.00479004,0.152439,1.55488,-1.7378,-9.89143,0.253872,-1.14242,-1.18902,-1.28049,7.0122
6753.4,13.5376,-6.16435,0,2.37825,9.59205,-0.0143701,0.853659,1.4939,-1.52439,-9.92496,0.241897,-1.10889,-1.43293,-1.7378,6.52439
6753.41,13.5292,-6.18645,0,2.39262,9.61361,0.0502954,0.0914634,1.28049,-1.98171,-9.98484,0.215552,-1.15679,-1.37195,-1.70732,6.37195
6753.42,13.5299,-6.21065,0,2.46448,9.55852,0.0143701,0.152439,0.548781,-2.22561,-9.97286,0.277822,-1.16877,-1.61585,-1.82927,6.61585
6753.43,13.5422,-6.23418,0,2.54112,9.53457,-0.00239502,0.182927,0.365854,-2.19512,-9.98005,0.292192,-1.16877,-1.46341,-1.67683,6.52439
6753.44,13.5574,-6.25737,0,2.47645,9.51062,0.0479004,0.121951,0.487805,-1.52439,-9.92736,0.265847,-1.16637,-1.15854,-1.76829,6.55488
6753.45,13.5691,-6.28975,0,2.41657,9.48667,0.00239502,-0.0609756,0.945122,-1.21951,-9.89862,0.256267,-1.18793,-1.34146,-1.40244,6.76829
6753.46,13.5617,-6.31542,0,2.33514,9.53218,-0.0335303,-0.182927,1.18902,-1.37195,-9.89862,0.246687,-1.18074,-1.25,-1.76829,6.89024
6753.47,13.5613,-6.33834,0,2.38304,9.53218,0.00239502,0.121951,1.09756,-1.46341,-9.88904,0.196392,-1.16637,-1.03659,-1.37195,6.67683
6753.48,13.5533,-6.34191,0,2.38783,9.6663,0.0622705,-0.213415,1.21951,-1.67683,-9.88425,0.229922,-1.11129,-1.18902,-1.67683,6.85976
6753.49,13.545,-6.34145,0,2.42855,9.616,0.0598755,-0.396341,0.426829,-2.34756,-9.89143,0.217947,-1.09931,-1.31098,-1.7378,6.64634
6753.5,13.5284,-6.35428,0,2.36628,9.61121,0.0574805,-0.548781,0.823171,-2.37805,-9.92017,0.213157,-1.14482,-1.37195,-1.46341,6.76829
6753.51,13.5166,-6.35152,0,2.36149,9.52739,0.0335303,-0.548781,0.670732,-2.19512,-9.90101,0.256267,-1.09452,-1.25,-1.85976,6.76829
6753.52,13.5129,-6.35274,0,2.43094,9.48907,0.00718506,-0.548781,0.0914634,-2.43902,-9.91059,0.225132,-1.10889,-0.945122,-1.76829,6.89024
6753.53,13.5227,-6.36751,0,2.48843,9.47709,0.0574805,-0.579268,-0.487805,-2.07317,-9.91538,0.225132,-1.15679,-0.670732,-1.79878,6.67683
6753.54,13.542,-6.38144,0,2.5028,9.47709,0.0215552,-0.701219,0.0304878,-1.64634,-9.93694,0.208367,-1.15919,-0.701219,-1.79878,7.0122
6753.55,13.5625,-6.40955,0,2.48364,9.47949,-0.0143701,-0.213415,0.335366,-1.40244,-9.91299,0.222737,-1.2023,-0.213415,-1.55488,6.64634
6753.56,13.5892,-6.41915,0,2.47645,9.5202,0.0311353,-0.762195,0.365854,-0.945122,-9.87227,0.237107,-1.14242,-0.0914634,-1.67683,6.61585
6753.57,13.5979,-6.42393,0,2.39741,9.51781,0.0119751,-0.243902,0.213415,-1.03659,-9.86988,0.244292,-1.12805,0.121951,-1.7378,6.28049
6753.58,13.5957,-6.43136,0,2.36628,9.60882,0.0359253,-0.792683,0.182927,-1.03659,-9.89143,0.241897,-1.14003,-0.27439,-1.67683,6.76829
6753.59,13.5881,-6.40803,0,2.37586,9.59684,-0.0167651,-0.853659,0.213415,-1.64634,-9.9082,0.227527,-1.03944,-0.152439,-1.70732,6.52439
6753.6,13.57,-6.41407,0,2.36388,9.59924,0.00239502,-1.0061,0,-2.43902,-9.90101,0.241897,-1.13284,-0.182927,-1.52439,6.67683
6753.61,13.5572,-6.42899,0,2.41897,9.54176,0.0479004,-0.609756,-0.182927,-2.80488,-9.89383,0.244292,-1.15679,-0.396341,-1.18902,6.64634
6753.62,13.5462,-6.45872,0,2.41418,9.53218,0.0215552,-0.640244,0.487805,-2.65244,-9.89622,0.285007,-1.2023,-0.213415,-1.15854,6.82927
6753.63,13.5299,-6.48456,0,2.37346,9.5705,0.0191602,-0.792683,0.609756,-2.56098,-9.89622,0.244292,-1.19032,-0.396341,-0.945122,7.28659
6753.64,13.5145,-6.4932,0,2.3567,9.5705,0.0311353,-1.31098,0.548781,-2.31707,-9.93215,0.208367,-1.1544,-0.0914634,-1.06707,7.19512
6753.65,13.5118,-6.51624,0,2.40939,9.48188,0.0407153,-1.03659,0.487805,-2.16463,-9.94173,0.222737,-1.1999,0,-1.12805,7.19512
6753.66,13.506,-6.51014,0,2.44052,9.49625,-0.0119751,-1.40244,0.914634,-2.68293,-9.94891,0.232317,-1.11847,-0.0914634,-1.34146,7.22561
6753.67,13.5037,-6.51925,0,2.47885,9.55373,0.00958008,-1.31098,0.426829,-2.65244,-9.94652,0.208367,-1.16637,0.518293,-1.52439,7.37805
6753.68,13.4975,-6.52629,0,2.46208,9.53936,0.0359253,-1.43293,0.731707,-2.83537,-9.92736,0.227527,-1.15679,0.853659,-1.25,7.34756
6753.69,13.4853,-6.52968,0,2.41418,9.5226,-0.00958008,-1.34146,0.884146,-2.89634,-9.92496,0.225132,-1.14721,0.152439,-1.37195,7.53049
6753.7,13.4717,-6.53911,0,2.42855,9.54415,-0.0359253,-0.884146,0.548781,-3.14024,-9.89622,0.225132,-1.16398,0.121951,-1.46341,7.43902
6753.71,13.4659,-6.53545,0,2.48843,9.54894,0.0455054,-1.31098,0.701219,-3.10976,-9.89143,0.229922,-1.12326,0.487805,-1.55488,7.80488
6753.72,13.4678,-6.54995,0,2.50519,9.50823,-0.00479004,-1.43293,1.40244,-2.77439,-9.89143,0.215552,-1.18553,0.457317,-1.85976,7.80488
6753.73,13.4662,-6.5521,0,2.46687,9.48188,-0.0383203,-1.18902,1.85976,-2.7439,-9.91059,0.174836,-1.14721,0.579268,-1.92073,7.92683
6753.74,13.4617,-6.563,0,2.44292,9.50104,0.100591,-1.18902,1.95122,-2.68293,-9.92017,0.191602,-1.18074,0.579268,-2.0122,7.80488
6753.75,13.4437,-6.57058,0,2.35909,9.51302,0.117356,-1.37195,1.25,-2.89634,-9.94173,0.201182,-1.17356,0.670732,-2.07317,7.86585
6753.76,13.422,-6.59259,0,2.32796,9.52978,-0.0311353,-1.76829,1.37195,-2.86585,-9.91299,0.215552,-1.21667,0.609756,-1.61585,8.07927
6753.77,13.3923,-6.60548,0,2.28964,9.55134,-0.00479004,-1.95122,0.792683,-3.17073,-9.98244,0.191602,-1.2023,0.396341,-1.92073,8.01829
6753.78,13.3597,-6.5955,0,2.32796,9.62798,0.00958008,-2.16463,0.518293,-3.75,-9.99202,0.167651,-1.12087,-0.0914634,-2.22561,7.80488
6753.79,13.3327,-6.5936,0,2.36628,9.57529,0.00239502,-2.53049,0.579268,-3.87195,-9.96807,0.167651,-1.14721,0,-2.37805,7.62195
6753.8,13.3165,-6.59131,0,2.48843,9.58726,0.00479004,-2.89634,0.304878,-4.20732,-9.96328,0.217947,-1.14482,0.152439,-2.59146,8.10976
6753.81,13.3077,-6.60197,0,2.53393,9.54894,0.0359253,-2.9878,-0.0914634,-4.14634,-9.94652,0.234712,-1.19511,0.121951,-2.83537,8.5061
6753.82,13.2945,-6.60701,0,2.46208,9.48188,0.0407153,-3.56707,-0.335366,-3.9939,-9.91778,0.193997,-1.17116,-0.0304878,-3.01829,8.93293
6753.83,13.2625,-6.60702,0,2.31359,9.54655,-0.00239502,-3.5061,-0.0609756,-3.96341,-9.94412,0.124541,-1.1544,-0.304878,-2.95732,8.9939
6753.84,13.2198,-6.60658,0,2.23216,9.63037,-0.0455054,-3.84146,0.121951,-3.90244,-9.95849,0.107776,-1.1544,-0.396341,-3.17073,8.87195
6753.85,13.1777,-6.61294,0,2.25611,9.58247,-0.0263452,-4.05488,-0.853659,-4.35976,-9.93933,0.117356,-1.18074,-0.152439,-3.32317,8.5061
6753.86,13.1436,-6.62554,0,2.38065,9.60163,-0.0311353,-4.05488,-1.09756,-5.03049,-9.93933,0.129331,-1.20709,-0.335366,-3.07927,8.75
6753.87,13.1191,-6.63206,0,2.47885,9.5705,-0.00958008,-4.20732,-1.09756,-5.33537,-9.92257,0.105381,-1.18314,-0.0609756,-3.5061,8.9939
6753.88,13.0961,-6.61902,0,2.49082,9.54176,0.0550855,-3.84146,-0.762195,-5.45732,-9.90341,0.0646655,-1.09931,-0.609756,-3.75,8.75
6753.89,13.0777,-6.62533,0,2.54351,9.55134,0.0790356,-3.9939,-1.12805,-5.60976,-9.97526,0.0143701,-1.18793,-0.335366,-3.75,8.5061
6753.9,13.0568,-6.63908,0,2.49322,9.5681,0.0263452,-4.2378,-1.28049,-5.27439,-9.9537,-0.00239502,-1.21906,-0.152439,-3.9939,8.53659
6753.91,13.0323,-6.6636,0,2.43573,9.53697,0.00239502,-4.39024,-1.09756,-5.12195,-9.94412,0.0191602,-1.26457,0.487805,-3.5061,8.20122
6753.92,13.0137,-6.6823,0,2.47885,9.49146,-0.00479004,-4.17683,-0.823171,-5.21341,-9.88904,0.112566,-1.23823,0.670732,-3.78049,8.04878
6753.93,12.9968,-6.69012,0,2.48364,9.39327,0.0311353,-3.59756,-1.18902,-5.42683,-9.87706,0.177231,-1.19272,0.701219,-3.38415,8.5061
6753.94,12.9803,-6.69605,0,2.5507,9.52978,0.00718506,-4.14634,-1.61585,-5.7622,-9.88664,0.167651,-1.18793,0.487805,-3.62805,8.75
6753.95,12.9592,-6.71629,0,2.5028,9.51541,-0.0191602,-4.26829,-0.487805,-5.7622,-9.90341,0.162861,-1.2526,0.0304878,-3.84146,8.44512
6753.96,12.9349,-6.72638,0,2.45969,9.53457,-0.0407153,-4.29878,-0.27439,-5.57927,-9.93454,0.0814307,-1.21667,-0.0914634,-3.90244,8.59756
6753.97,12.9125,-6.70991,0,2.51238,9.54415,-0.0718506,-4.5122,0.121951,-6.0061,-9.95849,0.0886157,-1.1065,-0.396341,-4.45122,8.44512
6753.98,12.8894,-6.70441,0,2.53633,9.52739,-0.0598755,-4.5122,0.304878,-6.43293,-9.96328,0.107776,-1.152,-1.21951,-4.39024,8.35366
6753.99,12.869,-6.69991,0,2.57944,9.54655,-0.0335303,-4.20732,0.670732,-6.64634,-9.93454,0.150886,-1.152,-1.61585,-4.26829,8.62805
6754,12.8592,-6.69593,0,2.6441,9.50104,-0.0191602,-4.02439,1.70732,-6.4939,-9.92257,0.148491,-1.152,-1.85976,-4.14634,8.47561
6754.02,12.8519,-6.7113,0,2.65129,9.4244,-0.0287402,-3.93293,2.80488,-6.58537,-9.91059,0.148491,-1.23344,-2.53049,-4.11585,8.93293
6754.02,12.8385,-6.70305,0,2.56986,9.39566,0.0838257,-3.41463,3.81098,-6.37195,-9.89862,0.162861,-1.13284,-3.10976,-4.32927,8.78049
6754.03,12.8267,-6.70417,0,2.58662,9.43638,0.0646655,-3.65854,3.41463,-6.31098,-9.93215,0.184417,-1.17595,-3.17073,-4.32927,8.56707
6754.04,12.8246,-6.70539,0,2.68721,9.50344,0.0886157,-4.17683,3.56707,-6.28049,-9.96568,0.182021,-1.18074,-3.56707,-4.57317,8.75
6754.05,12.834,-6.71185,0,2.81415,9.52978,0,-4.05488,4.17683,-6.46341,-9.9561,0.177231,-1.2023,-4.29878,-4.20732,8.56707
6754.06,12.8656,-6.72374,0,2.95545,9.47709,0.0981958,-3.75,5.2439,-5.97561,-9.93215,0.172441,-1.22386,-4.42073,-4.11585,8.59756
6754.07,12.9268,-6.7353,0,3.08239,9.31902,0.0910107,-2.71341,6.82927,-5,-9.97047,0.201182,-1.22864,-4.78659,-3.84146,8.53659
6754.08,13.0205,-6.72728,0,3.24525,9.19209,0.126936,-1.7378,7.40854,-4.17683,-9.99921,0.292192,-1.14961,-4.48171,-3.75,9.11585
6754.09,13.1875,-6.72434,0,3.61408,9.19448,0.225132,-1.31098,6.4939,-2.59146,-9.96568,0.337698,-1.16637,-4.02439,-4.20732,9.60366
6754.1,13.7689,-6.72588,0,4.05477,9.09149,0.0431104,-1.31098,5.97561,0.0304878,-9.96568,0.368833,-1.18553,-3.38415,-4.39024,9.93902
6754.11,14.0947,-6.72209,0,4.62239,8.83762,0.00479004,-2.40854,5.06098,3.41463,-10.016,0.392783,-1.16877,-2.31707,-4.93902,10.2744
6754.12,14.5059,-6.68605,0,5.07744,8.49034,0.177231,-2.19512,3.84146,7.68293,-10.0136,0.335303,-1.02507,-0.457317,-5.57927,10.7317
6754.13,15.0328,-6.66065,0,5.60914,8.2724,0.342488,-2.77439,2.13415,13.689,-9.91778,0.196392,-1.0562,1.28049,-6.67683,10.3963
6754.14,15.647,-6.63161,0,5.93246,8.19097,0.541274,-3.32317,0.823171,20.061,-9.8579,0.184417,-1.02986,3.75,-7.19512,10.0305
6754.15,16.3253,-6.60348,0,5.98755,8.25084,0.766406,-3.38415,-1.28049,27.7439,-9.79563,0.215552,-1.02267,6.98171,-7.7439,9.35976
6754.16,17.0301,-6.54783,0,5.82469,8.51669,0.941243,-3.56707,-1.37195,35.0915,-9.74294,0.244292,-0.893342,10.122,-8.04878,8.59756
6754.17,17.7712,-6.49644,0,5.87498,8.85678,0.938848,-4.14634,-0.182927,41.8902,-9.69504,0.270637,-0.898132,12.9878,-8.5061,7.31707
6754.18,18.5123,-6.42954,0,5.63548,9.24717,0.811912,-5.67073,1.46341,47.8963,-9.616,0.308958,-0.816702,15.8232,-9.54268,6.21951
6754.19,19.2539,-6.36802,0,5.39358,9.51302,0.711321,-6.40244,5.18293,53.1402,-9.58487,0.395178,-0.826282,17.9878,-10.2744,5.88415
6754.2,19.9753,-6.28715,0,5.01038,9.91538,0.696951,-7.68293,7.71341,58.2012,-9.5705,0.474214,-0.732876,19.878,-10.7012,5.67073
6754.21,20.7175,-6.21675,0,4.73495,9.97286,0.871787,-9.87805,7.19512,64.6646,-9.66151,0.58199,-0.771196,20.3049,-10.9756,5.64024
6754.22,21.4344,-6.17099,0,4.84752,10.6578,0.708926,-8.87195,6.85976,65.5183,-9.74533,0.59636,-0.871787,20.8232,-10.2744,6.0061
6754.23,22.1388,-6.16252,0,4.65352,10.5932,0.64426,-8.68902,5.64024,67.2256,-9.79563,0.64426,-1.02986,20.6402,-8.96341,6.18902
6754.24,22.7998,-6.17532,0,4.39726,10.7656,0.845442,-8.2622,5.97561,67.2866,-9.85072,0.802332,-1.12566,20.061,-6.85976,6.52439
6754.25,23.3878,-6.22688,0,3.77695,10.6147,1.23104,-10.3049,3.93293,66.5549,-9.86988,0.955613,-1.2981,19.3902,-5.27439,7.19512
6754.26,23.9424,-6.30131,0,3.46559,10.4327,1.14961,-11.2195,2.22561,66.8293,-9.96328,1.05381,-1.40827,18.1707,-3.5061,7.9878
6754.27,24.4679,-6.38147,0,3.18059,10.1237,0.831072,-9.45122,0.731707,66.8902,-10.0495,1.13763,-1.43941,16.6463,-2.56098,8.78049
6754.28,24.9519,-6.45741,0,2.91953,10.0375,0.761616,-7.43902,1.67683,66.2195,-10.2004,1.21906,-1.44659,15.5793,-2.07317,9.2378
6754.29,25.3505,-6.49616,0,2.38304,10.0806,1.02028,-6.67683,-0.213415,64.4512,-10.3896,1.22864,-1.35079,14.3293,-3.01829,9.78659
6754.3,25.6592,-6.53177,0,1.88009,9.81,1.21427,-4.48171,-7.56098,61.0976,-10.4806,1.20948,-1.36277,12.4085,-4.45122,9.87805
6754.31,25.9333,-6.5611,0,1.89207,9.67348,1.05381,0.396341,-16.6768,57.7439,-10.4878,1.2526,-1.34361,11.311,-5.97561,10.2744
6754.32,26.2211,-6.58436,0,2.28485,9.75491,0.895737,0.731707,-23.75,55.3963,-10.3968,1.22864,-1.31008,10.7012,-6.89024,10.9146
6754.33,26.5925,-6.60436,0,3.30752,9.78605,0.450264,-2.13415,-22.8963,53.2927,-10.2507,1.10171,-1.28134,10.1524,-7.2561,11.5549
6754.34,27.0439,-6.62221,0,4.24397,9.64953,0.249082,-3.35366,-20.2744,51.8902,-10.0711,1.03225,-1.2526,10,-7.13415,11.8902
6754.35,27.5485,-6.64298,0,4.80441,9.34058,0.316143,-3.62805,-15.4268,51.128,-9.94173,0.977168,-1.2526,9.72561,-7.07317,12.4085
6754.36,28.081,-6.63873,0,5.10139,9.02922,0.387993,-2.71341,-9.14634,50.4268,-9.81479,0.886157,-1.13045,9.78659,-6.95122,12.2866
6754.37,28.6235,-6.6176,0,5.11576,8.82804,0.409548,-1.15854,-2.43902,51.25,-9.70462,0.871787,-1.04423,9.78659,-7.16463,12.439
6754.38,29.1578,-6.57639,0,4.95051,8.68913,0.522114,0.213415,3.23171,52.378,-9.64474,0.876577,-0.948428,9.42073,-7.7439,12.7744
6754.39,29.7124,-6.51626,0,5.08463,8.53345,0.550855,2.22561,10.5488,53.2622,-9.60882,0.902922,-0.857417,8.9939,-8.10976,13.0488
6754.4,30.2786,-6.46768,0,5.13253,8.45202,0.56283,4.14634,16.7683,54.6037,-9.62079,0.912502,-0.898132,8.23171,-8.75,13.5976
6754.41,30.8876,-6.4094,0,5.36724,8.15744,0.529299,6.92073,21.5549,55.8841,-9.63756,0.946033,-0.850232,7.07317,-9.14634,13.9939
6754.42,31.4856,-6.36207,0,5.34089,8.25084,0.728086,8.68902,25.3049,56.8902,-9.62319,1.03465,-0.886157,6.03659,-9.5122,13.9939
6754.43,32.0905,-6.31863,0,5.47022,8.24366,0.785566,10.1829,27.1646,57.4695,-9.65672,1.1041,-0.898132,4.96951,-9.72561,13.689
6754.44,32.7312,-6.27945,0,5.61393,8.02811,0.773591,10.5183,29.8476,59.5122,-9.616,1.20709,-0.905317,3.59756,-9.93902,13.5061
6754.45,33.3623,-6.26833,0,5.3864,7.85566,0.764011,10.9756,33.9024,60.9146,-9.60882,1.19751,-1.01788,2.46951,-9.72561,12.5915
6754.46,33.9341,-6.26749,0,5.01278,7.96584,0.950823,10.6402,34.2988,60.7622,-9.55613,1.1999,-1.05381,1.55488,-9.26829,12.0122
6754.47,34.452,-6.27332,0,4.6655,7.68322,0.900527,9.45122,34.9085,58.2927,-9.54176,1.19511,-1.08015,0.945122,-8.87195,11.4939
6754.48,34.9294,-6.30156,0,4.53138,7.39343,0.826282,9.57317,31.8902,54.7256,-9.59445,1.18553,-1.18314,0.670732,-8.81098,10.8232
6754.49,35.407,-6.32982,0,4.76609,7.28565,0.948428,9.78659,27.9878,52.2866,-9.6184,1.18314,-1.19032,-0.365854,-8.10976,9.87805
6754.5,35.8301,-6.34491,0,4.73735,7.52515,0.773591,8.84146,18.75,49.7256,-9.69025,1.16637,-1.14721,-0.731707,-8.2622,9.05488
6754.51,36.2476,-6.34531,0,4.88105,7.56826,0.684976,8.5061,11.8902,48.75,-9.80521,1.14003,-1.09931,-2.37805,-8.5061,7.95732
6754.52,36.6724,-6.3583,0,5.099,7.61856,0.708926,7.13415,7.86585,48.3537,-9.82677,1.07297,-1.15679,-3.9939,-8.20122,7.2561
6754.53,37.0582,-6.38384,0,5.25946,7.77423,0.713716,7.83537,3.01829,44.6646,-9.84832,1.01549,-1.21667,-5.42683,-8.04878,6.31098
6754.54,37.448,-6.42662,0,5.44867,7.58982,0.893342,6.43293,-3.41463,42.5915,-9.80281,0.926873,-1.29092,-6.55488,-7.80488,5.42683
6754.55,37.8077,-6.48322,0,5.25707,7.24733,0.505349,7.56098,-6.15854,39.7561,-9.74533,0.946033,-1.35079,-7.62195,-7.46951,4.84756
6754.56,38.121,-6.54003,0,5.06786,7.24014,0.66342,7.04268,-7.89634,37.7134,-9.75731,0.967588,-1.36277,-8.47561,-7.10366,4.35976
6754.57,38.3835,-6.6086,0,4.79722,7.26409,0.929268,4.72561,-11.0061,36.3415,-9.76449,0.941243,-1.42504,-9.57317,-6.98171,4.29878
6754.58,38.6334,-6.67385,0,4.81878,7.01022,0.804727,5.85366,-14.4512,33.4146,-9.83395,0.929268,-1.43222,-10.061,-6.70732,4.39024
6754.59,38.824,-6.7207,0,5.03433,7.18985,0.912502,7.83537,-17.7134,26.8598,-9.91059,0.902922,-1.37235,-10.7012,-6.18902,4.17683
6754.6,39.0008,-6.77522,0,5.37203,7.25451,0.835862,4.69512,-18.4146,22.7439,-9.94412,0.902922,-1.42025,-11.311,-6.7378,3.84146
6754.61,39.2117,-6.83224,0,5.87019,7.03657,0.275427,4.63415,-18.9939,19.8171,-9.92975,0.852627,-1.43941,-11.4939,-7.04268,3.29268
6754.62,39.4465,-6.89938,0,6.19113,6.74677,-0.0814307,6.92073,-20.7317,17.1646,-9.91059,0.852627,-1.4921,-11.9207,-7.2561,2.9878
6754.63,39.7217,-6.95524,0,6.32046,6.51685,0.105381,7.5,-18.4451,18.5366,-9.8603,0.823887,-1.44659,-12.1646,-7.56098,2.83537
6754.64,39.9343,-6.99677,0,6.06419,6.62941,0.182021,9.2378,-15.9756,16.128,-9.83395,0.790356,-1.38911,-12.5915,-7.53049,1.89024
6754.65,40.0646,-7.04033,0,6.05461,6.95514,0.332908,9.32927,-9.69512,11.0366,-9.85311,0.821492,-1.40827,-13.75,-7.71341,1.64634
6754.66,40.1876,-7.07022,0,6.07377,6.69647,0.337698,8.62805,-3.68902,8.17073,-9.82197,0.893342,-1.35079,-14.4817,-7.31707,1.06707
6754.67,40.3143,-7.10407,0,6.22226,6.66534,0.359253,10.2439,1.67683,7.10366,-9.81479,0.981958,-1.37235,-15.2439,-7.22561,0.731707
6754.68,40.4473,-7.14217,0,6.40189,6.59349,0.63468,11.4024,3.10976,5.64024,-9.69264,1.06818,-1.37953,-16.4329,-7.19512,0.609756
6754.69,40.5641,-7.17007,0,6.5887,6.80425,0.768801,10.5183,3.04878,4.20732,-9.63756,1.08973,-1.33403,-17.439,-7.10366,1.0061
6754.7,40.7117,-7.22129,0,6.77791,6.59109,0.799937,10.7622,3.71951,3.38415,-9.6184,1.0562,-1.43701,-17.9268,-7.22561,1.0061
6754.71,40.8715,-7.25094,0,6.68929,6.51445,0.330513,9.7561,8.44512,2.13415,-9.63756,1.01788,-1.35558,-19.2683,-7.53049,1.09756
6754.72,41.1183,-7.30302,0,6.38512,6.29172,-0.105381,11.0366,12.622,-0.945122,-9.73575,0.876577,-1.47294,-19.3598,-7.71341,0.853659
6754.73,41.1361,-7.3728,0,6.15041,6.39231,-0.0143701,13.3841,14.8476,-4.26829,-9.82437,0.828677,-1.57353,-19.7561,-7.31707,0.243902
6754.74,41.1368,-7.47258,0,6.22226,6.36596,0.320933,13.9329,16.4329,-6.52439,-9.81479,0.819097,-1.71723,-19.2988,-7.10366,-0.0609756
6754.75,41.1304,-7.59401,0,6.30369,6.37075,0.59157,14.5732,16.128,-7.92683,-9.78366,0.811912,-1.825,-19.2988,-6.7378,-0.396341
6754.76,41.1052,-7.73608,0,6.21987,6.32285,0.718506,13.9024,15.7622,-9.5122,-9.78605,0.785566,-1.93757,-18.3232,-6.12805,0
6754.77,41.0284,-7.90921,0,5.99713,6.37075,0.711321,15.0305,14.5427,-12.2561,-9.79084,0.807122,-2.10043,-17.5,-5.51829,0.0914634
6754.78,40.8814,-8.07218,0,5.64985,6.3947,0.627495,16.3415,11.6768,-15.8841,-9.93694,0.780776,-2.1148,-17.0427,-5.06098,0.335366
6754.79,40.6561,-8.21805,0,5.27383,6.44739,0.61552,18.2317,6.4939,-19.7256,-10.1046,0.675395,-2.10283,-16.372,-5.12195,0.548781
6754.8,40.3668,-8.36706,0,5.13492,6.48332,0.524509,20.5183,-0.762195,-24.878,-10.1716,0.764011,-2.15791,-15.8232,-4.96951,0.579268
6754.81,40.1018,-8.50312,0,5.62111,6.38273,0.57241,21.8293,-6.12805,-29.0854,-10.1261,0.878972,-2.1172,-15.1524,-5.27439,1.28049
6754.82,39.8456,-8.60217,0,6.23663,6.53122,0.819097,21.9512,-7.10366,-33.4451,-10.095,1.06099,-1.96631,-15.0305,-5.64024,2.04268
6754.83,39.5886,-8.74229,0,6.83778,6.76354,1.05141,23.5366,-6.34146,-37.378,-10.0495,1.18553,-2.1627,-14.5427,-5.2439,3.75
6754.84,39.238,-8.87228,0,6.88089,7.54192,0.845442,23.5366,-11.0366,-41.4634,-10.119,1.14721,-2.15312,-13.689,-4.60366,5.51829
6754.85,38.7758,-8.97328,0,6.60786,8.3682,0.55804,23.3537,-20.0915,-45.2439,-10.2986,1.06339,-2.08127,-11.8598,-4.72561,7.65244
6754.86,38.1283,-9.0582,0,5.91091,9.77168,0.565225,21.311,-31.7073,-50.5488,-10.6099,0.814307,-2.08367,-9.66463,-4.02439,9.90854
6754.87,37.4709,-9.10397,0,5.92767,10.0184,0.349673,14.1768,-44.4207,-51.7378,-10.8446,0.376018,-1.95434,-7.07317,-3.68902,10.5793
6754.88,36.9495,-9.13263,0,6.5863,9.58487,0.304167,7.80488,-56.7378,-47.1341,-11.0842,-0.0215552,-1.91841,-4.7561,-2.71341,9.93902
6754.89,36.643,-9.14531,0,8.11672,8.85439,0.598755,3.9939,-64.4817,-42.622,-11.2015,-0.435894,-1.86093,-3.01829,-1.4939,8.14024
6754.9,36.4988,-9.00942,0,10.2243,8.62926,0.926873,5.88415,-60.122,-41.6463,-11.8553,-0.720901,-1.19751,0.548781,-3.01829,6.31098
6754.91,36.3826,-8.85128,0,12.0996,9.51062,2.06211,9.2378,-46.4024,-43.1402,-12.3104,-0.936453,-1.08734,6.21951,-6.12805,4.84756
6754.92,36.2331,-8.73965,0,12.9499,11.2638,2.22976,2.0122,-36.6159,-40.9756,-12.332,-0.950823,-1.31008,11.9817,-6.28049,4.39024
6754.93,36.0867,-8.7012,0,11.8051,11.6877,1.30768,-10.0915,-25.3963,-33.4146,-12.0182,-1.00591,-1.64538,16.8293,-2.5,4.26829
6754.94,35.958,-8.61699,0,8.48555,10.4782,0.704136,-21.4329,-14.1159,-19.0854,-11.7763,-0.886157,-1.35558,19.6646,3.87195,4.45122
6754.95,35.7195,-8.39667,0,5.15408,9.01485,0.507744,-23.3232,-9.69512,-11.6768,-11.7643,-0.330513,-0.62031,19.5732,7.28659,4.72561
6754.96,35.2402,-8.09502,0,2.91474,8.48076,0.217947,-21.6768,-17.8049,-14.7256,-11.326,0.356858,-0.146096,19.6341,8.32317,5.18293
6754.97,34.5285,-7.76707,0,1.65017,8.62686,-0.474214,-20.9146,-33.0793,-22.8049,-10.9189,1.24302,0.0431104,19.1768,8.2622,7.2561
6754.98,33.6534,-7.34584,0,0.548459,8.41849,-1.41785,-18.0183,-47.8659,-26.4329,-10.7297,1.65496,0.546064,16.25,8.96341,8.78049
6754.99,32.5247,-6.84637,0,-1.01309,8.08798,-2.43094,-4.7561,-57.8049,-31.9207,-10.6602,1.79387,0.991538,11.4329,9.57317,8.65854
6755,31.2912,-6.24857,0,-1.36277,8.72506,-2.23695,-0.609756,-66.7073,-41.372,-10.4495,1.98308,1.52323,5.67073,9.17683,6.76829
6755.01,30.0717,-5.59008,0,-0.55325,8.71548,-2.12917,-4.72561,-72.2561,-53.1707,-10.1094,2.23216,1.85614,-1.06707,7.22561,4.29878
6755.02,28.981,-4.86301,0,1.0562,9.07473,-2.32556,-8.62805,-69.6951,-63.4756,-9.59684,2.32796,2.14354,-6.61585,4.87805,3.2622
6755.03,28.0514,-3.96396,0,2.80457,9.3765,-2.19863,-10.122,-59.9695,-69.6951,-9.19927,2.1651,2.28964,-12.1037,2.34756,3.04878
6755.04,27.2896,-1.28419,0,4.31104,9.49865,-1.77231,-8.2622,-45.5488,-70.3049,-9.02204,1.70765,2.43573,-16.1585,-0.0304878,3.65854
6755.05,26.6484,-0.544893,0,5.36963,9.86509,-1.03704,-5.91463,-29.939,-68.0183,-9.07473,1.05381,2.3088,-19.3598,-2.68293,4.20732
6755.06,26.1054,0.00212797,0,5.63548,9.74773,-0.835862,-2.83537,-11.4939,-62.3171,-9.29986,0.349673,2.15312,-19.8171,-5.12195,4.63415
6755.07,25.5495,0.460177,0,4.77806,9.89862,-0.574805,-0.304878,2.37805,-56.0366,-9.36932,-0.342488,1.89925,-18.9634,-5.88415,4.84756
6755.08,24.9087,0.814241,0,3.42488,9.83874,-0.749641,3.59756,11.9207,-52.4085,-9.58966,-0.857417,1.57832,-17.5915,-6.76829,5.03049
6755.09,24.161,1.06214,0,2.23216,10.0064,-0.457449,0.762195,10.4878,-51.128,-9.72378,-1.08494,1.19511,-15.0915,-5.70122,6.25
6755.1,23.3593,1.23628,0,1.62622,9.71899,-0.646655,-1.92073,6.09756,-51.8902,-9.83156,-0.960403,0.924478,-11.4634,-4.78659,7.89634
6755.11,22.5809,1.38241,0,1.64777,9.20406,-1.05141,-2.80488,1.95122,-52.4695,-9.49386,-1.06818,0.754431,-7.56098,-3.10976,9.48171
6755.12,21.8251,1.59404,0,1.74836,8.98611,-1.2526,-1.12805,-1.76829,-53.5061,-9.29028,-0.840652,0.761616,-4.48171,-1.61585,10.5183
6755.13,21.105,1.88899,0,1.96871,9.08191,-1.32684,0.365854,-2.56098,-53.9024,-9.137,-0.627495,0.704136,-1.12805,-0.792683,10.9451
6755.14,20.3304,2.0847,0,1.57353,9.4747,-0.764011,-1.52439,-8.47561,-55.2134,-9.26873,-0.395178,0.701741,2.07317,-1.15854,10.7012
6755.15,19.518,2.16962,0,1.12566,8.85439,-0.680186,-5,-18.3841,-56.189,-9.54415,-0.263452,0.570015,4.96951,-1.43293,8.90244
6755.16,18.7662,2.1896,0,1.69567,10.0806,-0.205972,-9.78659,-26.128,-56.372,-9.94412,-0.215552,0.433499,7.53049,-1.18902,6.21951
6755.17,18.0516,2.1983,0,2.019,9.91299,-0.58199,-14.6037,-26.6159,-58.1098,-10.1932,-0.102986,0.411943,8.81098,-0.609756,3.41463
6755.18,17.3691,2.20629,0,2.23455,10.0639,-0.524509,-15.9756,-33.1098,-58.3537,-10.2195,0.0287402,0.411943,9.02439,-0.487805,0.914634
6755.19,16.6711,2.24443,0,2.019,9.43638,-0.862207,-16.5244,-35.7622,-60.4268,-10.0998,0.146096,0.498164,8.35366,-0.97561,-0.914634
6755.2,15.9936,2.29554,0,2.25371,9.09628,-1.26697,-15.0305,-35.0915,-63.5061,-9.87467,0.227527,0.55325,7.31707,-1.70732,-1.52439
6755.21,15.2715,2.34888,0,2.06451,8.80888,-1.47773,-12.2866,-36.6768,-67.9573,-9.68306,0.335303,0.584385,5.57927,-2.68293,-1.4939
6755.22,14.6062,2.41012,0,2.77343,9.49865,-1.36995,-8.9939,-37.3171,-69.939,-9.56331,0.426313,0.63468,3.68902,-3.81098,-0.609756
6755.23,14.0575,2.44176,0,3.5087,9.63037,-1.25739,-6.98171,-36.9512,-67.0427,-9.4723,0.438289,0.524509,1.76829,-4.93902,0.670732
6755.24,13.5711,2.44178,0,3.63564,9.41003,-1.28613,-10.061,-32.2866,-64.0549,-9.43638,0.340093,0.397573,0.823171,-5.97561,1.52439
6755.25,13.1178,2.40615,0,3.41051,9.04838,-1.4921,-8.59756,-24.1463,-60.7012,-9.35495,0.268242,0.246687,-0.579268,-6.95122,2.07317
6755.26,12.6906,2.34743,0,3.36021,8.88792,-1.61185,-6.34146,-14.6037,-59.0854,-9.30226,0.0526904,0.143701,-0.670732,-8.04878,2.2561
6755.27,12.1635,2.27972,0,2.51477,7.20422,-1.71244,-3.75,-3.71951,-67.1646,-9.2304,-0.158071,0.0958008,-0.487805,-8.81098,1.58537
6755.28,11.6831,2.20256,0,3.56618,8.64602,-1.80345,-2.22561,3.59756,-69.939,-9.1849,-0.318538,0.0455054,0.27439,-9.66463,0.823171
6755.29,11.3151,2.09223,0,4.05716,9.53218,-1.38672,2.22561,9.02439,-60.7622,-9.08191,-0.500559,-0.100591,1.64634,-10.3963,0.335366
6755.3,10.9529,1.96857,0,3.51589,9.1849,-1.01788,0.487805,11.7073,-56.6159,-9.14179,-0.684976,-0.172441,3.41463,-10.2134,-0.579268
6755.31,10.5205,1.8315,0,2.85247,8.72985,-0.342488,-4.26829,11.372,-58.689,-9.16334,-0.797541,-0.246687,5.03049,-10.061,-1.0061
6755.32,10.187,1.64512,0,3.75779,9.10107,-1.59508,-1.61585,18.1707,-58.3537,-9.14658,-0.888552,-0.467029,6.95122,-9.87805,-0.97561
6755.33,9.86274,1.43893,0,3.4632,9.60882,-0.962798,2.80488,17.7744,-52.7439,-9.12742,-0.958008,-0.574805,8.41463,-8.93293,-0.487805
6755.34,9.59757,1.19959,0,3.46559,9.74294,-0.737666,5.91463,16.5549,-46.8902,-9.03401,-0.888552,-0.732876,9.54268,-8.10976,0.579268
6755.35,9.3289,0.967124,0,2.9315,9.46272,-0.131726,1.82927,8.93293,-42.9573,-8.95498,-0.720901,-0.732876,11.25,-6.89024,1.95122
6755.36,9.06149,0.716736,0,2.7399,8.9909,-0.514929,0.914634,4.93902,-42.8354,-8.84241,-0.550855,-0.823887,11.8902,-6.18902,3.84146
6755.37,8.8133,0.455538,0,2.76864,8.94779,-0.855022,1.40244,3.78049,-41.9207,-8.7059,-0.323328,-0.886157,12.439,-5.94512,5.94512
6755.38,8.5431,0.193018,0,2.56507,8.96695,-1.18793,1.89024,3.78049,-42.1646,-8.64363,-0.0287402,-0.917292,12.5305,-5.60976,7.89634
6755.39,8.00501,-0.069784,0,1.30529,7.28565,-1.5376,2.07317,7.9878,-58.2012,-8.72985,0.292192,-0.948428,12.1037,-4.87805,9.69512
6755.4,7.64343,-0.287836,0,2.94348,8.86397,-2.10762,1.06707,13.4146,-58.0488,-8.88792,0.538879,-0.826282,11.0671,-4.45122,10.5488
6755.41,7.223,-0.484348,0,2.71595,9.62798,-1.21427,-0.396341,13.5976,-59.4512,-8.81846,0.632285,-0.740061,9.2378,-3.87195,11.4024
6755.42,6.71092,-0.797382,0,1.8753,9.43398,-0.898132,-2.9878,9.57317,-60.4573,-8.84241,0.981958,-0.938848,7.68293,-2.40854,12.1341
6755.43,6.08681,-1.94538,0,1.17595,8.69871,-0.543669,-5.42683,3.35366,-65.7012,-8.75619,0.696951,-1.38432,7.13415,-0.640244,12.2561
6755.44,5.44826,-2.5588,0,1.4442,8.76577,-0.732876,-7.53049,5.33537,-71.8293,-8.83762,0.570015,-1.42264,7.53049,1.37195,11.5854
6755.45,4.79253,-3.01173,0,1.31487,9.13939,-0.922083,-4.7561,5.06098,-72.5,-9.09868,0.373623,-1.21906,8.01829,1.06707,11.6463
6755.46,4.14731,-3.46061,0,1.59508,9.58726,0.119751,-2.92683,4.69512,-75.3354,-9.38848,0.170046,-1.12326,8.38415,0.335366,12.0732
6755.47,3.604,-3.75189,0,2.54112,10.2483,-0.330513,-5.67073,7.80488,-75.3963,-9.73096,-0.174836,-1.20709,8.01829,0.640244,12.1037
6755.48,3.07962,-3.95728,0,2.33035,10.1669,-0.790356,-4.57317,7.7439,-72.5,-9.9537,-0.476609,-1.35319,8.20122,1.64634,12.0732
6755.49,2.50757,-4.11707,0,2.15073,10.689,-0.0191602,-6.0061,4.02439,-75.3049,-10.0447,-0.62989,-1.36756,8.10976,3.17073,12.1646
6755.5,2.01322,-4.24711,0,2.26329,10.5932,-0.251477,-10.9451,0.335366,-69.939,-10.1932,-0.661025,-1.31487,8.35366,5.03049,11.5854
6755.51,1.59325,-4.32282,0,2.5483,9.96568,-1.11847,-11.372,0.762195,-68.0183,-10.38,-0.58199,-1.11368,7.95732,5.60976,11.25
6755.52,1.19993,-4.40826,0,2.33993,9.12023,-1.69567,-6.64634,2.68293,-66.25,-10.4519,-0.455054,-1.18074,7.40854,5.88415,10.7927
6755.53,0.960234,-4.49139,0,3.32668,9.99681,-1.09931,-2.89634,-2.07317,-59.5732,-10.5333,-0.275427,-1.19511,7.13415,6.18902,9.7561
6755.54,0.886182,-4.60555,0,4.31104,10.2914,-1.43222,-4.60366,0.487805,-51.9817,-10.6578,-0.124541,-1.37235,7.7439,7.07317,8.2622
6755.55,0.933265,-4.77627,0,4.80441,10.3776,-1.67172,-2.37805,2.46951,-44.0854,-10.7105,-0.0742456,-1.67172,9.29878,9.08537,6.70732
6755.56,1.11537,-4.99983,0,5.10858,10.7752,-1.06578,0.792683,2.16463,-31.2805,-10.7776,-0.00239502,-1.9711,11.7073,11.6159,5
6755.57,1.34198,-5.24744,0,4.98883,10.6794,-1.152,-1.18902,4.7561,-25.7012,-10.8734,-0.203577,-2.15073,14.1768,12.9573,3.93293
6755.58,1.60688,-5.49664,0,5.02954,10.6986,-0.740061,-0.121951,6.89024,-21.6159,-10.7297,-0.380808,-2.17707,16.6159,14.2988,3.14024
6755.59,1.91105,-5.70369,0,5.11816,10.8638,-0.0191602,-2.46951,6.89024,-17.1646,-10.6411,-0.665815,-1.99984,18.4146,16.4024,2.07317
6755.6,2.2268,-5.74966,0,4.90739,10.6818,0.229922,-5.79268,2.77439,-14.2378,-11.041,-0.835862,-1.31247,18.7805,17.3171,0.731707
6755.61,2.56858,-5.55051,0,4.86668,10.4686,0.287402,-9.84756,-2.89634,-11.4634,-11.7332,-0.399968,-0.131726,16.4024,15.6402,-0.670732
6755.62,2.95864,-5.20306,0,5.06068,10.2674,0.112566,-13.2927,-8.07927,-8.5061,-12.4541,0.191602,0.716111,9.72561,13.5976,-2.13415
6755.63,3.4375,-4.83699,0,5.6259,10.3896,0.347278,-14.2378,-12.622,-3.53659,-13.2492,1.24781,0.950823,0.640244,12.8354,-4.5122
6755.64,4.02086,-4.54411,0,6.43302,10.7656,0.452659,-16.9512,-13.0183,3.29268,-13.4504,2.08367,0.617915,-9.87805,14.4512,-7.28659
6755.65,4.74281,-4.31242,0,7.38145,11.1392,0.546064,-18.7805,-12.1341,13.4451,-13.3115,2.81894,0.323328,-19.4512,17.1037,-9.08537
6755.66,5.62656,-4.17463,0,8.44244,11.0434,1.04902,-20.7622,-14.3598,23.5366,-12.8373,2.94108,-0.165256,-27.561,19.2683,-9.42073
6755.67,6.6892,-4.01836,0,9.48907,10.883,1.70525,-27.2256,-18.0488,36.0671,-11.8362,2.38304,-0.0287402,-33.5671,18.0183,-8.35366
6755.68,7.90292,-3.80567,0,9.32381,10.2387,2.02619,-35.7927,-12.8049,51.128,-10.5764,1.27176,0.261057,-36.9207,12.439,-6.09756
6755.69,9.21002,-3.48523,0,8.18139,9.62079,2.08367,-41.9207,1.06707,67.1037,-10.0687,0.0407153,0.723296,-36.0976,4.08537,-3.65854
6755.7,10.5933,-3.04807,0,7.09165,9.0891,2.1148,-43.0793,3.23171,82.4695,-9.99681,-1.03225,0.938848,-29.4817,-1.79878,-1.06707
6755.71,11.9749,-2.40345,0,5.93965,9.33579,1.30529,-40.8537,-2.7439,96.3415,-10.0615,-0.881367,2.3567,-28.6585,-9.20732,0.0914634
6755.72,13.3072,-2.12511,0,4.68705,9.98005,-0.651445,-36.7073,4.48171,109.055,-10.2555,-2.51956,0.799937,-11.4939,-3.75,-0.121951
6755.73,14.4798,-1.44996,0,2.40699,10.8111,-2.61776,-32.0732,27.7439,121.189,-9.6184,-1.81063,1.94236,-2.07317,1.85976,-1.03659
6755.74,15.4843,-1.04226,0,0.0383203,11.9895,-2.97461,-28.3841,42.6524,131.677,-9.24717,-1.72681,1.43941,5.94512,6.76829,-1.52439
6755.75,16.4234,-0.633035,0,-1.08015,13.0289,-1.98547,-21.9817,32.8354,137.104,-9.05078,-1.0562,1.48731,12.8049,9.02439,0.670732
6755.76,17.3668,-0.226745,0,-0.907712,14.351,-0.265847,-17.8659,5.06098,137.165,-9.12742,-0.344883,1.55437,15.3049,8.75,3.96341
6755.77,18.2625,0.155357,0,-0.205972,14.5042,-0.146096,-15.8537,-19.0854,128.506,-9.60163,0.177231,1.59508,16.0061,6.76829,6.64634
6755.78,19.1094,0.483057,0,1.1041,14.1354,-0.63947,-8.23171,-29.2683,114.573,-10.1836,0.522114,1.50886,14.5732,5.7622,8.17073
6755.79,19.981,0.707797,0,2.33035,13.9438,-0.56283,-1.15854,-22.1951,108.567,-10.5572,0.799937,1.14242,12.7439,6.0061,8.56707
6755.8,20.8248,0.920805,0,2.04056,13.278,-0.579595,1.55488,-10.2744,109.055,-10.7345,1.03465,1.14721,10.2744,5.57927,7.77439
6755.81,21.6847,1.13809,0,1.98068,12.3918,-0.684976,5.2439,0.548781,111.707,-10.6794,1.2023,1.19511,6.92073,4.48171,6.76829
6755.82,22.5263,1.33712,0,1.41785,11.9919,-0.258662,7.9878,6.7378,116.372,-10.3824,1.36516,1.07297,3.10976,2.80488,6.12805
6755.83,23.3766,1.51801,0,1.30768,12.0757,-0.395178,9.54268,11.7073,120.122,-9.83874,1.42743,0.847837,-0.914634,1.79878,7.59146
6755.84,24.2254,1.72717,0,1.17595,11.8074,-0.613125,10.7317,17.0427,122.713,-9.30705,1.46575,0.704136,-3.93293,1.15854,9.45122
6755.85,25.0134,2.03395,0,0.622705,11.8098,-0.60594,8.44512,21.9207,123.689,-8.95019,1.3939,0.64426,-6.43293,0.579268,12.3171
6755.86,25.7204,2.40955,0,0.0742456,11.0363,-0.962798,8.47561,26.25,122.409,-8.76817,1.30529,0.5772,-8.53659,0.0609756,15.4878
6755.87,26.3969,2.55461,0,0.141306,10.2483,-1.19751,13.5671,33.3537,119.909,-8.71308,1.12805,0.548459,-10.2134,-0.945122,17.8659
6755.88,26.9365,2.53941,0,-0.833467,10.2866,-0.368833,9.45122,27.5305,118.384,-8.74901,0.931663,0.359253,-10.9451,-1.70732,18.7805
6755.89,27.5025,2.51522,0,-0.141306,9.23999,-0.756826,13.1402,32.0427,114.512,-8.7993,0.768801,0.325723,-11.189,-2.34756,18.0793
6755.9,28.1285,2.49448,0,0.550855,9.00288,-0.819097,15.9451,36.9817,112.866,-8.86397,0.704136,0.323328,-11.8293,-2.89634,17.3476
6755.91,28.7715,2.46835,0,0.840652,8.73464,-1.24062,18.3537,41.2195,111.799,-8.95737,0.534089,0.294587,-11.0671,-3.68902,16.25
6755.92,29.3816,2.43643,0,0.936453,8.71308,-1.2981,22.6524,45.5488,108.445,-9.02204,0.476609,0.263452,-10.5488,-4.60366,14.7256
6755.93,29.9633,2.41463,0,1.16637,8.45681,-1.45378,29.6951,50.5183,103.293,-9.15856,0.368833,0.299377,-10.061,-5.15244,13.7195
6755.94,30.4652,2.35884,0,1.28852,8.7514,-1.03944,32.9878,54.0549,95.2744,-9.20885,0.342488,0.160466,-10.061,-5.51829,12.4085
6755.95,30.8091,2.29171,0,0.929268,8.78493,-0.735271,32.9268,54.6037,84.939,-9.15616,0.426313,0.107776,-9.90854,-5.15244,12.1341
6755.96,31.0228,2.19109,0,0.574805,8.50471,-0.641865,32.4695,56.2195,76.7988,-9.0412,0.57241,-0.0311353,-10.2134,-4.90854,11.8293
