time,angle1,angle2,intgangle,accX1,accY1,accZ1,gyroX1,gyroY1,gyroZ1,accX2,accY2,accZ2,gyroX2,gyroY2,gyroZ2
6589.63,95.3955,-0.102402,0,9.66151,-1.0586,1.7316,-0.426829,-0.945122,-1.21951,-9.92736,-0.143701,-0.0431104,-0.121951,0.609756,6.82927
6589.64,95.4042,-0.112167,0,9.67827,-1.05381,1.71723,-0.518293,-1.12805,-1.4939,-9.92975,-0.131726,-0.0383203,0.0304878,0.518293,6.85976
6589.65,95.4102,-0.138567,0,9.72857,-1.04662,1.72202,-0.548781,-0.853659,-1.4939,-9.9561,-0.158071,-0.0742456,0.0304878,0.426829,6.82927
6589.66,95.4106,-0.143997,0,9.74054,-1.02746,1.69088,-0.609756,-1.06707,-1.64634,-9.9537,-0.177231,-0.0335303,0.243902,0.121951,7.16463
6589.67,95.4069,-0.133729,0,9.74054,-0.979563,1.61903,-0.426829,-1.18902,-1.37195,-9.9537,-0.177231,-0.00718506,-0.0914634,0.0914634,6.95122
6589.68,95.4046,-0.0770225,0,9.73096,-1.00112,1.6358,-0.396341,-1.03659,-1.55488,-9.97286,-0.160466,0.0742456,-0.0609756,-0.0609756,7.13415
6589.69,95.4027,-0.0416998,0,9.70222,-0.986748,1.62861,-0.640244,-0.97561,-1.40244,-9.96089,-0.150886,0.0479004,0.0914634,-0.0914634,6.92073
6589.7,95.3994,-0.0671279,0,9.69743,-0.986748,1.63819,-0.914634,-0.914634,-1.52439,-9.92975,-0.117356,-0.0526904,0,0.182927,6.61585
6589.71,95.3987,-0.0899033,0,9.65432,-1.0083,1.74118,-0.914634,-0.579268,-1.64634,-9.87946,-0.0981958,-0.0622705,-0.121951,0.670732,6.95122
6589.72,95.4073,-0.12432,0,9.65911,-1.02986,1.71483,-0.945122,-0.457317,-1.28049,-9.92975,-0.105381,-0.119751,-0.152439,1.40244,6.70732
6589.73,95.419,-0.122767,0,9.68306,-1.07776,1.6813,-0.914634,-0.670732,-1.52439,-9.9561,-0.100591,-0.0167651,-0.213415,0.914634,6.55488
6589.74,95.4242,-0.123102,0,9.72617,-1.07057,1.67891,-0.97561,-0.731707,-1.76829,-9.94652,-0.126936,-0.0215552,0.243902,0.609756,6.4939
6589.75,95.431,-0.124565,0,9.70222,-1.0562,1.62143,-0.823171,-1.0061,-1.55488,-9.9561,-0.134121,-0.0239502,-0.0304878,0.243902,6.67683
6589.76,95.4297,-0.128136,0,9.74533,-1.02028,1.59029,-0.487805,-1.15854,-1.64634,-9.97047,-0.117356,-0.0287402,0,0.396341,6.46341
6589.77,95.4283,-0.146099,0,9.74054,-1.02746,1.57113,-0.457317,-0.884146,-1.7378,-9.9537,-0.110171,-0.0526904,-0.0304878,0.0609756,6.4939
6589.78,95.4221,-0.13547,0,9.72138,-1.00591,1.57592,-0.518293,-0.823171,-1.89024,-9.94891,-0.138911,-0.00479004,0.152439,0.27439,6.55488
6589.79,95.4229,-0.0897587,0,9.69264,-1.03704,1.62622,-0.609756,-0.884146,-1.76829,-9.93933,-0.146096,0.0574805,-0.0304878,-0.152439,6.55488
6589.8,95.4288,-0.0915037,0,9.7118,-1.06339,1.59029,-0.518293,-0.609756,-1.67683,-9.92736,-0.153281,-0.0191602,-0.27439,-0.304878,6.58537
6589.81,95.4273,-0.0745898,0,9.69743,-1.03465,1.67172,-0.396341,-0.518293,-1.89024,-9.95849,-0.141306,0.0143701,-0.548781,-0.152439,6.79878
6589.82,95.4288,-0.110115,0,9.68546,-1.06818,1.70286,-0.670732,-0.121951,-2.04268,-9.92257,-0.131726,-0.0718506,-0.640244,0.0609756,7.04268
6589.83,95.4363,-0.147111,0,9.69983,-1.07057,1.64059,-0.335366,-0.182927,-1.64634,-9.95131,-0.122146,-0.0910107,-0.670732,0.304878,6.70732
6589.84,95.4389,-0.191496,0,9.71659,-1.05141,1.65256,-0.426829,0.0304878,-1.7378,-9.94891,-0.138911,-0.100591,-0.518293,0.0609756,6.70732
6589.85,95.4408,-0.219604,0,9.71899,-1.04183,1.61185,-0.0609756,-0.640244,-1.67683,-9.95849,-0.134121,-0.0886157,-0.335366,-0.304878,6.7378
6589.86,95.4379,-0.243211,0,9.73336,-1.0107,1.60706,0.0609756,-0.884146,-1.64634,-10.004,-0.119751,-0.0862207,-0.548781,-0.304878,6.55488
6589.87,95.4325,-0.269289,0,9.75252,-1.02746,1.59508,0.0609756,-0.762195,-2.0122,-10.0232,-0.136516,-0.0934058,-0.426829,-0.213415,6.61585
6589.88,95.4263,-0.258679,0,9.72138,-0.998723,1.59987,-0.0304878,-0.884146,-1.79878,-9.96568,-0.143701,-0.0239502,-0.457317,-0.518293,6.55488
6589.89,95.4263,-0.248734,0,9.69743,-1.04183,1.64059,-0.0609756,-0.609756,-1.85976,-9.9561,-0.182021,-0.0263452,-0.27439,-0.243902,6.76829
6589.9,95.4232,-0.265971,0,9.70941,-1.02507,1.67172,-0.365854,-0.0914634,-1.89024,-9.91299,-0.205972,-0.0790356,-0.152439,-0.457317,6.82927
6589.91,95.4205,-0.293937,0,9.69264,-1.02507,1.67172,-0.396341,0.457317,-1.89024,-9.92017,-0.203577,-0.110171,0.0609756,-0.640244,6.79878
6589.92,95.4199,-0.29645,0,9.70222,-1.03704,1.66933,-0.579268,0.182927,-1.85976,-9.94652,-0.201182,-0.0574805,0.213415,-0.670732,6.89024
6589.93,95.418,-0.304439,0,9.73815,-1.02267,1.64298,-0.731707,0,-1.7378,-10.0064,-0.191602,-0.0742456,0.121951,-0.945122,6.70732
6589.94,95.409,-0.308835,0,9.73575,-0.977168,1.63819,-0.579268,-0.152439,-1.76829,-10.0279,-0.162861,-0.0694556,0.579268,-1.61585,6.34146
6589.95,95.4067,-0.285349,0,9.71659,-1.02028,1.61903,-0.365854,-0.579268,-1.79878,-10.0399,-0.112566,0.0263452,0.853659,-1.76829,6.09756
6589.96,95.3995,-0.282382,0,9.73096,-0.986748,1.63819,-0.609756,-0.640244,-1.76829,-10.0136,-0.107776,-0.0407153,1.18902,-2.13415,6.12805
6589.97,95.3908,-0.271405,0,9.69743,-0.993933,1.5879,-0.548781,-0.518293,-2.04268,-9.97526,-0.102986,-0.00958008,0.884146,-2.34756,6.28049
6589.98,95.3861,-0.269823,0,9.69743,-1.00112,1.62861,-0.365854,-0.27439,-1.82927,-9.92496,-0.107776,-0.0431104,0.823171,-2.16463,6.37195
6589.99,95.3826,-0.271508,0,9.66869,-1.0107,1.69088,-0.579268,-0.182927,-1.89024,-9.96328,-0.117356,-0.0550855,0.823171,-2.22561,6.15854
6590,95.3833,-0.26796,0,9.72138,-1.02746,1.67172,-0.701219,0,-1.70732,-9.94412,-0.124541,-0.0359253,0.762195,-2.22561,5.73171
6590.01,95.3903,-0.263362,0,9.69983,-1.06339,1.70286,-0.518293,-0.0304878,-1.67683,-9.99921,-0.0958008,-0.0311353,0.640244,-2.43902,5.51829
6590.02,95.4021,-0.268139,0,9.6639,-1.09213,1.6813,-0.304878,0.0304878,-1.70732,-10.0016,-0.0670605,-0.0670605,0.640244,-2.62195,5.79268
6590.03,95.4125,-0.258216,0,9.64474,-1.07536,1.62861,-0.243902,-0.365854,-1.64634,-9.97286,-0.0622705,-0.00958008,0.396341,-2.77439,5.45732
6590.04,95.4145,-0.246171,0,9.66869,-1.06339,1.66454,-0.243902,-0.731707,-2.0122,-9.95131,-0.0335303,0,0.304878,-2.65244,5.97561
6590.05,95.4218,-0.225318,0,9.63756,-1.07297,1.65017,-0.0914634,-0.945122,-1.79878,-9.88425,-0.0574805,0.0383203,-0.335366,-3.01829,5.64024
6590.06,95.4224,-0.220274,0,9.6663,-1.04902,1.62861,0,-1.37195,-1.95122,-9.8579,-0.0934058,-0.0215552,-0.365854,-2.7439,5.88415
6590.07,95.4202,-0.214837,0,9.68067,-1.04902,1.64059,0.0609756,-1.21951,-2.13415,-9.85311,-0.155676,-0.0191602,-0.121951,-2.7439,5.79268
6590.08,95.4104,-0.194894,0,9.74294,-1.01549,1.65975,0.0304878,-1.34146,-2.28659,-9.90341,-0.170046,0.0383203,-0.0304878,-2.71341,6.09756
6590.09,95.402,-0.175099,0,9.70701,-1.04183,1.66693,-0.487805,-1.40244,-2.53049,-9.92257,-0.162861,0.0383203,0.182927,-2.34756,5.79268
6590.1,95.3885,-0.161909,0,9.70701,-0.998723,1.64538,-0.396341,-0.792683,-2.5,-9.95849,-0.167651,0.0167651,0.335366,-2.2561,5.60976
6590.11,95.3748,-0.145014,0,9.73096,-1.00351,1.63101,-0.640244,-0.853659,-2.56098,-9.95131,-0.138911,0.0335303,0.609756,-2.34756,5.51829
6590.12,95.3615,-0.119911,0,9.73096,-1.00112,1.6334,-0.579268,-0.762195,-2.53049,-9.91778,-0.110171,0.0646655,0.396341,-2.19512,5.51829
6590.13,95.3517,-0.0726075,0,9.73336,-0.993933,1.60945,-0.548781,-0.853659,-2.16463,-9.92496,-0.105381,0.160466,0.396341,-2.62195,5.45732
6590.14,95.3415,-0.0519046,0,9.69025,-0.986748,1.60466,-0.731707,-0.762195,-2.19512,-9.9058,-0.0862207,0.0622705,-0.0914634,-2.31707,5.51829
6590.15,95.3309,-0.0158567,0,9.69025,-0.960403,1.63101,-0.487805,-1.21951,-1.92073,-9.8555,-0.0958008,0.124541,-0.182927,-2.5,5.73171
6590.16,95.3229,0.00887487,0,9.67827,-0.979563,1.63819,-0.426829,-1.61585,-1.98171,-9.8579,-0.114961,0.0814307,-0.609756,-2.0122,5.54878
6590.17,95.3159,0.0200835,0,9.68067,-1.00112,1.65017,-0.0304878,-1.82927,-2.16463,-9.89622,-0.158071,0.0383203,-0.792683,-1.89024,5.85366
6590.18,95.308,0.0283501,0,9.68067,-0.996328,1.67172,-0.365854,-2.40854,-2.19512,-9.9082,-0.160466,0.0287402,-0.487805,-1.61585,5.73171
6590.19,95.3016,0.0649509,0,9.74773,-1.02746,1.66693,-0.0609756,-2.68293,-2.34756,-9.88904,-0.182021,0.114961,-0.518293,-1.43293,5.94512
6590.2,95.2911,0.100764,0,9.76449,-0.986748,1.61424,-0.365854,-2.95732,-2.22561,-9.9082,-0.193997,0.119751,-0.579268,-1.43293,6.21951
6590.21,95.2887,0.132079,0,9.73815,-1.02986,1.59269,-0.518293,-2.34756,-2.10366,-9.89622,-0.160466,0.114961,-0.670732,-1.55488,6.31098
6590.22,95.2818,0.167314,0,9.74294,-1.0083,1.60706,-0.701219,-2.16463,-2.22561,-9.9082,-0.114961,0.117356,-0.457317,-1.06707,6.4939
6590.23,95.2742,0.208007,0,9.75012,-1.00112,1.5855,-0.670732,-2.19512,-2.19512,-9.87706,-0.124541,0.136516,-0.731707,-1.06707,6.79878
6590.24,95.2664,0.242312,0,9.73575,-1.00112,1.55916,-0.609756,-2.37805,-2.2561,-9.87946,-0.165256,0.112566,-0.853659,-0.670732,6.58537
6590.25,95.2531,0.25495,0,9.72617,-0.981958,1.55437,-0.579268,-1.98171,-2.53049,-9.86509,-0.210762,0.0670605,-0.609756,-0.487805,6.82927
6590.26,95.2403,0.230506,0,9.74533,-0.965193,1.59987,-1.0061,-1.67683,-2.28659,-9.89862,-0.287402,-0.00479004,-0.518293,-0.396341,6.89024
6590.27,95.2323,0.243289,0,9.76928,-1.02267,1.61424,-1.34146,-1.18902,-2.53049,-9.88904,-0.292192,0.0646655,0.121951,-0.396341,6.89024
6590.28,95.235,0.247669,0,9.81958,-1.05141,1.64538,-1.34146,-0.365854,-1.95122,-9.90101,-0.292192,0.0502954,0.121951,-0.365854,6.76829
6590.29,95.2361,0.2806,0,9.91059,-1.04423,1.65256,-1.31098,0.304878,-1.85976,-9.89143,-0.261057,0.105381,0.213415,-0.335366,7.0122
6590.3,95.2447,0.296429,0,9.97286,-1.06818,1.55437,-0.335366,0.609756,-1.4939,-9.88425,-0.225132,0.0766406,0.152439,0.213415,7.2561
6590.31,95.2443,0.271639,0,9.89622,-1.0562,1.45857,0.0304878,-0.701219,-2.10366,-9.91299,-0.222737,-0.0143701,0.152439,1.03659,7.37805
6590.32,95.2328,0.263663,0,9.83156,-0.960403,1.62382,-1.06707,-2.13415,-2.0122,-9.89622,-0.193997,0.0263452,0.213415,1.06707,7.68293
6590.33,95.222,0.247808,0,9.75731,-0.969983,1.63101,-3.07927,-2.37805,-2.19512,-9.8603,-0.193997,0.00479004,0.213415,1.03659,7.5
6590.34,95.2184,0.239503,0,9.73815,-1.02028,1.63101,-3.90244,-0.426829,-2.22561,-9.85311,-0.162861,0.0191602,0.213415,1.40244,7.37805
6590.35,95.2319,0.20015,0,9.7142,-1.0562,1.49449,-2.7439,1.67683,-1.4939,-9.82916,-0.177231,-0.0910107,0.121951,1.95122,7.31707
6590.36,95.2657,0.15116,0,9.64474,-1.08734,1.33163,-1.43293,3.04878,-0.945122,-9.8124,-0.129331,-0.143701,0.243902,2.40854,6.79878
6590.37,95.3155,0.138143,0,9.59445,-1.13763,1.34121,-0.853659,2.9878,-0.823171,-9.79803,-0.124541,-0.0191602,0.548781,2.31707,7.13415
6590.38,95.37,0.123831,0,9.46512,-1.22386,1.36516,-0.518293,0.243902,-1.31098,-9.7621,-0.143701,-0.0263452,0.426829,2.40854,6.95122
6590.39,95.4012,0.110247,0,9.4747,-1.26936,1.38432,-0.945122,-3.5061,-2.40854,-9.7597,-0.0934058,-0.0287402,0.121951,2.86585,7.2561
6590.4,95.4166,0.0840885,0,9.6184,-1.24781,1.55437,-1.31098,-4.87805,-2.92683,-9.76689,-0.0814307,-0.0862207,-0.304878,3.96341,7.31707
6590.41,95.4204,0.064546,0,9.76449,-1.20948,1.59748,-0.640244,-3.47561,-3.20122,-9.79803,-0.0407153,-0.0646655,-0.762195,5.03049,7.13415
6590.42,95.4353,0.0497611,0,9.87227,-1.1999,1.55437,-0.426829,-1.15854,-2.13415,-9.85072,0.00718506,-0.0479004,-1.06707,5.54878,7.0122
6590.43,95.453,0.048892,0,9.93454,-1.17595,1.55916,0.701219,0.457317,-1.64634,-9.92975,-0.00718506,0.00958008,-1.34146,5.51829,7.37805
6590.44,95.4634,0.0420452,0,9.82197,-1.1041,1.45378,1.34146,0.701219,-1.58537,-9.9537,0.0143701,-0.0167651,-1.4939,5.2439,7.37805
6590.45,95.455,0.0349091,0,9.60163,-1.01309,1.48491,1.43293,0.396341,-2.2561,-9.96328,-0.0431104,-0.0191602,-1.70732,5.36585,7.2561
6590.46,95.4388,0.0302647,0,9.45314,-0.991538,1.51365,0.884146,-0.579268,-2.89634,-9.9561,-0.0502954,-0.00958008,-1.55488,5.30488,7.46951
6590.47,95.419,0.0290696,0,9.50583,-0.993933,1.5376,0.365854,-0.640244,-3.20122,-9.94173,-0.0646655,0.00479004,-1.43293,5.51829,7.86585
6590.48,95.3969,0.0312575,0,9.68306,-0.996328,1.30289,1.25,-0.701219,-3.2622,-9.89862,-0.0958008,0.0191602,-1.34146,5.45732,7.71341
6590.49,95.3712,0.0250552,0,9.76928,-0.969983,1.22864,2.80488,-1.4939,-3.23171,-9.9537,-0.167651,-0.0167651,-1.0061,5.64024,7.40854
6590.5,95.3321,0.0334615,0,9.73336,-0.888552,1.33403,3.2622,-2.22561,-3.65854,-9.94412,-0.143701,0.0455054,-1.06707,5.36585,7.16463
6590.51,95.2989,0.040916,0,9.68067,-0.890947,1.57113,2.43902,-2.10366,-3.23171,-10.0064,-0.172441,0.0431104,-1.31098,5.36585,6.61585
6590.52,95.2765,0.0635934,0,9.82197,-0.962798,1.61185,0.823171,0.0914634,-2.95732,-9.98244,-0.174836,0.110171,-1.40244,5.03049,6.06707
6590.53,95.2603,0.0892515,0,10.0543,-0.984353,1.43462,1.0061,1.89024,-2.37805,-9.98484,-0.0766406,0.126936,-2.04268,4.93902,6.0061
6590.54,95.246,0.120705,0,10.107,-0.998723,1.37474,1.58537,1.61585,-2.34756,-9.94891,0.0167651,0.155676,-2.16463,4.81707,6.28049
6590.55,95.2314,0.137158,0,9.85072,-0.972378,1.51605,2.7439,0.701219,-2.40854,-9.90101,0.0335303,0.0958008,-3.29268,4.84756,6.67683
6590.56,95.218,0.145129,0,9.57768,-0.941243,1.56634,2.77439,0.518293,-2.31707,-9.89622,0.00958008,0.0622705,-3.29268,4.96951,7.37805
6590.57,95.2059,0.147673,0,9.49625,-0.924478,1.63819,2.10366,0.914634,-2.13415,-9.90341,-0.0335303,0.0407153,-3.87195,5.39634,7.71341
6590.58,95.1984,0.154579,0,9.63516,-0.974773,1.62861,1.28049,2.04268,-2.19512,-9.87706,-0.0886157,0.0598755,-4.11585,5.39634,7.86585
6590.59,95.202,0.146783,0,9.83874,-1.04183,1.55197,1.28049,1.64634,-1.82927,-9.8603,-0.0981958,-0.00239502,-3.87195,5.39634,8.04878
6590.6,95.1883,0.119693,0,9.84593,-0.991538,1.36516,1.79878,0.152439,-2.65244,-9.79563,-0.124541,-0.0862207,-3.68902,5.94512,7.83537
6590.61,95.1699,0.0991142,0,9.6639,-0.984353,1.37714,1.98171,-2.7439,-3.2622,-9.73575,-0.155676,-0.0622705,-3.84146,6.40244,7.80488
6590.62,95.1657,0.0742555,0,9.32142,-1.04902,1.26936,2.16463,-3.9939,-3.2622,-9.74054,-0.177231,-0.0838257,-3.87195,6.92073,7.68293
6590.63,95.1511,0.0414409,0,9.1346,-1.00351,1.50407,2.13415,-2.77439,-3.90244,-9.76928,-0.205972,-0.122146,-3.9939,7.5,6.70732
6590.64,95.1419,0.0212916,0,9.331,-1.02986,1.62382,0.945122,-1.06707,-3.47561,-9.86269,-0.198787,-0.0742456,-3.9939,7.13415,6.25
6590.65,95.1281,-0.0210622,0,9.8555,-1.03225,1.45857,1.92073,0.884146,-3.23171,-9.91299,-0.119751,-0.174836,-3.90244,7.40854,6.43293
6590.66,95.0843,-0.0691632,0,9.96807,-0.859812,1.50647,2.77439,1.12805,-4.05488,-9.96089,-0.112566,-0.208367,-2.9878,7.2561,6.89024
6590.67,95.0409,-0.130268,0,9.98005,-0.809517,1.56395,3.44512,0.487805,-3.47561,-10.0112,-0.148491,-0.275427,-2.71341,6.7378,7.7439
6590.68,94.9774,-0.189196,0,9.68546,-0.656235,1.61664,3.44512,1.4939,-4.02439,-10.0567,-0.217947,-0.277822,-2.5,6.67683,8.44512
6590.69,94.913,-0.2347,0,9.62798,-0.62989,1.70046,2.89634,2.71341,-3.96341,-10.0974,-0.270637,-0.229922,-1.4939,5.70122,8.81098
6590.7,94.8405,-0.257053,0,9.60163,-0.57241,1.66693,2.16463,3.32317,-4.2378,-10.1812,-0.268242,-0.136516,-0.823171,4.42073,8.9939
6590.71,94.7757,-0.27646,0,9.72857,-0.63947,1.81542,1.46341,2.37805,-4.35976,-10.2579,-0.292192,-0.126936,-0.914634,3.29268,9.29878
6590.72,94.7305,-0.29937,0,9.89862,-0.828677,1.73399,1.21951,1.55488,-4.63415,-10.2172,-0.237107,-0.138911,0.0304878,2.34756,9.26829
6590.73,94.6796,-0.353304,0,9.88904,-0.816702,1.62622,1.52439,0.914634,-5.18293,-10.1261,-0.160466,-0.261057,-0.182927,2.28659,9.08537
6590.74,94.6329,-0.40719,0,9.62798,-0.840652,1.59029,1.21951,-1.31098,-5.39634,-10.0447,-0.182021,-0.263452,-0.792683,2.19512,8.96341
6590.75,94.5916,-0.464845,0,9.41722,-0.850232,1.60466,0.27439,-2.71341,-5.30488,-9.99202,-0.201182,-0.273032,-0.426829,1.89024,8.01829
6590.76,94.5504,-0.542256,0,9.46991,-0.819097,1.60227,-0.0914634,-2.28659,-4.93902,-9.97286,-0.158071,-0.323328,-0.487805,1.43293,7.43902
6590.77,94.5231,-0.628511,0,9.59924,-0.855022,1.59029,-0.304878,-0.304878,-3.93293,-10.0088,-0.0838257,-0.354463,-0.792683,1.25,6.98171
6590.78,94.5008,-0.748753,0,9.80281,-0.847837,1.62143,-0.487805,1.25,-3.20122,-10.0303,-0.0335303,-0.428708,-0.304878,0.853659,7.07317
6590.79,94.4775,-0.871388,0,10.0136,-0.847837,1.70525,-0.609756,2.31707,-3.10976,-10.0519,0.00718506,-0.423918,-0.365854,0.579268,7.19512
6590.8,94.4628,-0.993315,0,10.0663,-0.900527,1.65735,-1.03659,1.52439,-2.89634,-10.0471,-0.00479004,-0.402363,-0.243902,0.27439,7.65244
6590.81,94.4491,-1.16162,0,10.0782,-0.910107,1.54718,-0.640244,0.945122,-2.92683,-9.99202,-0.0646655,-0.474214,0.0609756,-0.0914634,7.86585
6590.82,94.4302,-1.27499,0,9.81958,-0.833467,1.54718,-0.304878,0.0304878,-2.83537,-9.94173,-0.134121,-0.445474,0.152439,-0.487805,7.83537
6590.83,94.4203,-1.33443,0,9.46272,-0.895737,1.61424,-0.579268,-0.457317,-3.20122,-9.99202,-0.129331,-0.376018,0.0914634,-0.823171,7.46951
6590.84,94.4273,-1.3703,0,9.37411,-1.01788,1.76752,-1.15854,0.0609756,-3.2622,-9.99442,-0.107776,-0.344883,0.0609756,-1.34146,7.28659
6590.85,94.4472,-1.43889,0,9.52739,-1.16877,1.68609,-1.31098,1.06707,-3.53659,-9.94412,-0.0622705,-0.426313,0.396341,-1.03659,7.31707
6590.86,94.4561,-1.57276,0,9.78126,-1.14721,1.47773,-0.182927,1.55488,-3.84146,-9.91538,-0.0263452,-0.471819,0.335366,0.0609756,7.2561
6590.87,94.4413,-1.74009,0,9.72378,-0.977168,1.40827,0.426829,0.396341,-4.20732,-9.9082,-0.00958008,-0.603545,0.365854,0.365854,7.04268
6590.88,94.3986,-1.86796,0,9.32621,-0.823887,1.53042,0.182927,-1.58537,-5.60976,-9.91538,-0.0119751,-0.60594,0.97561,0.731707,6.79878
6590.89,94.3616,-1.92659,0,9.43638,-0.819097,1.55676,0.152439,-2.13415,-4.93902,-10.1022,-0.00479004,-0.462239,1.40244,-0.396341,6.25
6590.9,94.3275,-1.90092,0,9.56092,-0.804727,1.74118,0.0914634,-0.914634,-4.42073,-10.3201,-0.0239502,-0.244292,1.52439,-2.34756,6.61585
6590.91,94.2894,-1.84291,0,9.94891,-0.761616,1.62861,0.426829,0.27439,-3.9939,-10.471,0.0335303,-0.0862207,1.95122,-4.81707,6.40244
6590.92,94.2312,-1.77729,0,10.0926,-0.58678,1.62622,0.731707,0.884146,-3.93293,-10.5692,0.0934058,-0.0407153,1.52439,-6.67683,6.61585
6590.93,94.1604,-1.69608,0,9.79323,-0.495769,1.62622,0.213415,-1.21951,-4.45122,-10.5046,0.129331,0.0431104,0.914634,-7.46951,6.4939
6590.94,94.1025,-1.62247,0,9.46033,-0.62031,1.71244,0.213415,-1.95122,-5.06098,-10.3848,0.114961,0.0215552,-0.27439,-8.81098,6.31098
6590.95,94.0688,-1.54252,0,9.35734,-0.814307,1.7292,0.243902,-1.34146,-5.2439,-10.2076,0.0598755,0.0622705,-1.46341,-9.45122,6.31098
6590.96,94.0473,-1.49796,0,9.77168,-0.936453,1.71483,0.213415,-0.396341,-5.09146,-9.98005,-0.0335303,-0.0814307,-2.16463,-10.122,6.06707
6590.97,94.0278,-1.49445,0,10.186,-0.936453,1.63819,-0.182927,-0.762195,-4.48171,-9.78366,-0.0622705,-0.249082,-1.85976,-9.90854,5.79268
6590.98,93.9987,-1.53879,0,10.2507,-0.850232,1.56395,-0.213415,-1.46341,-4.45122,-9.58966,-0.0215552,-0.445474,-1.76829,-9.2378,5.54878
6590.99,93.9722,-1.62443,0,9.87706,-0.833467,1.45857,-0.701219,-3.23171,-4.42073,-9.52739,-0.0311353,-0.622705,-0.884146,-8.07927,5.70122
6591,93.9484,-1.67356,0,9.45314,-0.819097,1.50168,-0.152439,-3.38415,-4.48171,-9.63277,-0.0311353,-0.488584,0.0914634,-7.9878,5.54878
6591.01,93.9227,-1.67505,0,9.30226,-0.773591,1.61903,-0.487805,-0.640244,-4.32927,-9.8603,-0.0359253,-0.301772,0.823171,-8.41463,5.2439
6591.02,93.8921,-1.66591,0,9.34537,-0.699346,1.5879,-0.701219,1.06707,-3.90244,-10.1453,-0.0622705,-0.263452,0.97561,-8.75,5.12195
6591.03,93.8617,-1.62689,0,9.6184,-0.720901,1.58311,-0.97561,2.13415,-3.93293,-10.3752,-0.189207,-0.131726,0.884146,-9.42073,4.93902
6591.04,93.8209,-1.54051,0,9.84593,-0.713716,1.55676,-1.34146,2.19512,-4.7561,-10.3848,-0.134121,0.0910107,0.0914634,-10.5793,4.42073
6591.05,93.7937,-1.45553,0,10.0735,-0.850232,1.5376,-1.46341,-1.15854,-4.84756,-10.2555,-0.105381,0.0981958,-0.121951,-11.4634,4.66463
6591.06,93.7631,-1.40477,0,10.1453,-0.862207,1.51126,-0.579268,-2.34756,-5.30488,-10.0375,-0.100591,-0.0407153,-0.640244,-11.8598,4.87805
6591.07,93.7407,-1.36911,0,10.1166,-0.907712,1.35319,0,-2.92683,-5.09146,-9.77886,-0.0934058,-0.0958008,-0.945122,-11.5244,5.12195
6591.08,93.7147,-1.3419,0,9.7621,-0.819097,1.38911,0.0914634,-2.46951,-4.84756,-9.68067,-0.126936,-0.124541,-1.0061,-11.128,5
6591.09,93.6924,-1.34711,0,9.53218,-0.756826,1.4442,-0.548781,-1.28049,-4.02439,-9.69504,-0.110171,-0.258662,-0.396341,-11.0976,5
6591.1,93.6726,-1.34104,0,9.45314,-0.699346,1.52084,-1.0061,1.03659,-3.23171,-9.80042,-0.114961,-0.213157,0.579268,-10.4878,5.21341
6591.11,93.6515,-1.31292,0,9.57768,-0.62031,1.57353,-0.27439,2.62195,-2.2561,-10.0256,-0.102986,-0.119751,1.06707,-10.8232,5.36585
6591.12,93.6426,-1.25171,0,9.80042,-0.797541,1.65975,0.121951,2.43902,-3.10976,-10.2722,-0.105381,0.0311353,1.85976,-11.9512,5.33537
6591.13,93.591,-1.15991,0,9.92017,-0.493374,1.64298,1.15854,1.37195,-3.56707,-10.4399,-0.124541,0.182021,2.07317,-13.6585,5.36585
6591.14,93.5253,-1.03799,0,9.78605,-0.426313,1.54718,1.46341,0.213415,-4.42073,-10.5644,-0.182021,0.340093,2.37805,-15.1524,5.09146
6591.15,93.4684,-0.904423,0,9.93215,-0.495769,1.53281,1.12805,-1.03659,-4.42073,-10.5405,-0.205972,0.414338,2.10366,-16.9207,5.45732
6591.16,93.4217,-0.756147,0,9.77168,-0.598755,1.48012,1.76829,-1.64634,-4.84756,-10.3752,-0.160466,0.498164,1.61585,-18.3841,5.39634
6591.17,93.3882,-0.627969,0,10.1477,-0.66342,1.37235,2.37805,-1.40244,-4.08537,-10.1716,-0.105381,0.423918,1.06707,-19.0244,5.39634
6591.18,93.3539,-0.53179,0,10.0687,-0.598755,1.33403,1.92073,-1.18902,-3.53659,-10.0639,-0.0598755,0.299377,0.640244,-19.5732,5.54878
6591.19,93.3139,-0.411666,0,9.82677,-0.495769,1.35798,0.945122,-1.25,-3.04878,-9.93694,-0.0526904,0.416733,0.335366,-20.2439,5.64024
6591.2,93.2914,-0.29622,0,9.65432,-0.570015,1.46575,-0.182927,-0.884146,-2.46951,-9.93933,-0.0550855,0.416733,0.0914634,-20.7622,5.42683
6591.21,93.2806,-0.210749,0,9.59924,-0.603545,1.74118,-0.335366,0.182927,-1.92073,-9.98723,-0.0862207,0.306563,0.0304878,-21.0061,5.30488
6591.22,93.2761,-0.144613,0,9.62558,-0.603545,1.88488,-0.579268,-0.0609756,-1.40244,-10.0279,-0.153281,0.237107,0,-21.189,5.03049
6591.23,93.2692,-0.0707873,0,9.70462,-0.574805,1.86812,0.0609756,-1.61585,-1.09756,-10.0447,-0.196392,0.282612,0.0914634,-21.8293,4.93902
6591.24,93.251,0.0192796,0,9.82677,-0.522114,1.81782,0.0304878,-3.62805,-1.15854,-10.0878,-0.241897,0.368833,0.97561,-22.1646,4.63415
6591.25,93.2283,0.117159,0,9.87706,-0.488584,1.74597,0.0914634,-5.03049,-0.945122,-10.0327,-0.265847,0.416733,1.18902,-22.7134,5
6591.26,93.2101,0.200341,0,9.84832,-0.502954,1.5855,0.121951,-5.4878,-0.762195,-9.97526,-0.253872,0.366438,1.70732,-23.0183,5.12195
6591.27,93.2169,0.282726,0,9.83635,-0.57241,1.63101,0.0304878,-4.26829,0.0609756,-9.87946,-0.229922,0.373623,1.67683,-23.2317,5.18293
6591.28,93.2444,0.359419,0,9.83156,-0.646655,1.55676,-0.609756,-2.62195,0.304878,-9.84832,-0.208367,0.361648,2.31707,-23.5061,5.57927
6591.29,93.2891,0.450493,0,9.80281,-0.742456,1.55437,-1.34146,-0.670732,1.18902,-9.81479,-0.174836,0.435894,2.46951,-23.5061,5.60976
6591.3,93.3496,0.5492,0,9.71899,-0.833467,1.52323,-2.37805,0.365854,1.46341,-9.86509,-0.167651,0.486189,2.5,-24.5732,5.85366
6591.31,93.4224,0.652717,0,9.62558,-0.912502,1.37953,-2.34756,0.945122,1.89024,-9.92496,-0.184417,0.526904,2.83537,-25.122,5.85366
6591.32,93.5214,0.760315,0,9.55852,-1.0083,1.41546,-2.31707,0.640244,1.15854,-9.92736,-0.160466,0.56283,2.53049,-25.2439,5.88415
6591.33,93.6351,0.872665,0,9.55613,-1.03944,1.38911,-2.04268,-0.792683,0.823171,-9.93933,-0.170046,0.603545,2.34756,-24.7561,5.42683
6591.34,93.7848,0.969511,0,9.60882,-1.02028,1.42983,-1.25,-1.85976,0,-9.91538,-0.148491,0.55325,1.70732,-25.1829,5.09146
6591.35,93.8532,1.07415,0,9.72378,-1.00112,1.40827,-0.823171,-2.56098,-0.823171,-9.9058,-0.124541,0.603545,1.4939,-25.3049,5.12195
6591.36,93.9028,1.21433,0,9.74054,-0.986748,1.4442,-0.945122,-3.23171,-1.15854,-9.9537,-0.102986,0.780776,1.21951,-26.0366,5.2439
6591.37,93.9317,1.36483,0,9.75491,-0.941243,1.37474,-0.884146,-3.35366,-1.58537,-9.98244,-0.0814307,0.852627,0.762195,-26.8598,5.15244
6591.38,93.9454,1.50797,0,9.75252,-0.910107,1.38672,-1.21951,-3.17073,-2.10366,-9.97526,-0.102986,0.845442,0.701219,-27.2866,5.12195
6591.39,93.9581,1.64194,0,9.74773,-1.03944,1.46336,-1.43293,-2.46951,-3.35366,-10.0232,-0.0981958,0.833467,0.670732,-27.7744,5.39634
6591.4,93.9636,1.79251,0,9.78844,-1.09452,1.40109,-1.40244,-0.426829,-4.48171,-9.9561,-0.100591,0.924478,0.487805,-28.1707,5.82317
6591.41,93.9497,1.93029,0,9.86269,-0.962798,1.3484,-0.335366,1.03659,-4.7561,-9.9537,-0.0981958,0.893342,0.426829,-28.9024,6.12805
6591.42,93.9169,2.06898,0,9.9082,-0.828677,1.33403,-0.365854,1.43293,-5.06098,-9.93454,-0.134121,0.919688,0.914634,-28.9939,6.09756
6591.43,93.8811,2.24984,0,9.94412,-0.778381,1.29571,-0.365854,2.34756,-4.81707,-9.92017,-0.153281,1.12805,0.853659,-30.061,5.79268
6591.44,93.8445,2.46182,0,9.86269,-0.749641,1.31247,-0.152439,2.31707,-4.69512,-9.96807,-0.174836,1.30289,1.0061,-31.5549,5.73171
6591.45,93.8093,2.66984,0,9.80042,-0.775986,1.31487,0.304878,2.2561,-5,-9.96807,-0.150886,1.32205,0.853659,-32.3171,5.42683
6591.46,93.7744,2.87374,0,9.80521,-0.792751,1.3484,0.548781,1.79878,-5.2439,-9.93933,-0.174836,1.33642,0.640244,-32.5,5.57927
6591.47,93.7403,3.1084,0,9.79323,-0.747246,1.36995,0.701219,1.25,-4.69512,-9.86988,-0.160466,1.49928,0.27439,-32.7439,5.2439
6591.48,93.7022,3.33629,0,9.83635,-0.699346,1.40109,0.701219,1.55488,-4.57317,-9.81479,-0.129331,1.50168,0.121951,-33.2012,5.36585
6591.49,93.665,3.5607,0,9.76689,-0.673001,1.36037,0.914634,1.55488,-4.29878,-9.81,-0.122146,1.52563,-0.0609756,-33.0488,5.12195
6591.5,93.633,3.79155,0,9.77647,-0.682581,1.46096,1.03659,2.43902,-3.96341,-9.76449,-0.141306,1.5855,0,-33.7805,5.18293
6591.51,93.601,4.02525,0,9.77407,-0.689766,1.51605,1.0061,3.17073,-4.11585,-9.69264,-0.182021,1.62622,0.0304878,-34.0854,5.60976
6591.52,93.5699,4.26009,0,9.82677,-0.708926,1.45378,1.15854,3.04878,-4.26829,-9.72138,-0.232317,1.67651,-0.0609756,-34.5122,5.45732
6591.53,93.5356,4.51235,0,9.89143,-0.711321,1.50886,1.37195,3.20122,-4.63415,-9.76928,-0.282612,1.80345,0,-34.5427,5.06098
6591.54,93.4994,4.76743,0,9.92975,-0.684976,1.43941,1.64634,3.62805,-4.54268,-9.8124,-0.347278,1.86812,0.579268,-35.2744,5.03049
6591.55,93.4655,5.02152,0,9.96089,-0.694556,1.48012,1.85976,4.26829,-4.48171,-9.78844,-0.349673,1.90404,1.03659,-35.6402,4.5122
6591.56,93.4338,5.27521,0,9.84114,-0.730481,1.50886,1.70732,4.72561,-4.84756,-9.76449,-0.340093,1.94236,1.70732,-35.8232,4.29878
6591.57,93.3941,5.54191,0,9.75731,-0.684976,1.55437,1.37195,4.60366,-5.2439,-9.65911,-0.261057,2.02379,1.70732,-35.6402,3.96341
6591.58,93.3502,5.82417,0,9.65432,-0.670605,1.57832,0.97561,5.09146,-5.67073,-9.54176,-0.232317,2.1148,2.16463,-34.939,3.84146
6591.59,93.3045,6.08256,0,9.62319,-0.665815,1.56634,0.518293,4.60366,-5.91463,-9.44117,-0.167651,2.03816,2.0122,-33.7805,4.11585
6591.6,93.2636,6.32442,0,9.67827,-0.641865,1.62382,0.243902,4.32927,-5.18293,-9.44356,-0.201182,2.01182,2.28659,-33.0793,4.26829
6591.61,93.2125,6.57688,0,9.68785,-0.5772,1.64298,0.121951,4.29878,-5.51829,-9.48907,-0.153281,2.11001,2.46951,-32.9878,4.02439
6591.62,93.1681,6.853,0,9.75731,-0.58678,1.6837,0.152439,3.84146,-5,-9.60403,-0.136516,2.28485,2.16463,-33.8415,3.75
6591.63,93.122,7.13935,0,9.7118,-0.548459,1.71004,0.853659,3.47561,-4.84756,-9.69743,-0.0287402,2.4022,1.64634,-34.5732,3.07927
6591.64,93.0864,7.44535,0,9.7118,-0.59636,1.71962,0.97561,3.14024,-4.45122,-9.69983,-0.00239502,2.54351,1.18902,-34.9695,2.2561
6591.65,93.0659,7.77059,0,9.65432,-0.641865,1.7316,0.823171,2.59146,-3.62805,-9.6639,0.0239502,2.67763,0.487805,-34.6951,2.04268
6591.66,93.0414,8.08576,0,9.63756,-0.670605,1.62622,1.28049,1.70732,-4.42073,-9.48907,0,2.64171,0.731707,-34.8476,1.95122
6591.67,93.0176,8.36563,0,9.66151,-0.687371,1.60945,1.52439,1.31098,-4.57317,-9.35255,-0.0934058,2.5028,0.426829,-34.6646,2.2561
6591.68,92.9899,8.67342,0,9.68306,-0.701741,1.67651,1.12805,0.182927,-5.15244,-9.2328,-0.170046,2.64171,0.365854,-34.6037,2.65244
6591.69,92.9628,8.995,0,9.68785,-0.730481,1.67651,1.37195,-0.0914634,-5.4878,-9.17772,-0.289797,2.7399,0.853659,-34.6646,2.83537
6591.7,92.9279,9.31863,0,9.73336,-0.65384,1.64298,1.89024,0.243902,-5.36585,-9.14418,-0.304167,2.79499,0.640244,-34.6037,3.62805
6591.71,92.8836,9.64207,0,9.68785,-0.570015,1.62382,1.4939,1.15854,-5.42683,-9.13221,-0.292192,2.84768,0.853659,-33.8415,4.42073
6591.72,92.8387,9.95769,0,9.77647,-0.56283,1.60466,1.34146,1.52439,-5.42683,-9.11305,-0.239502,2.86444,1.06707,-32.9268,4.72561
6591.73,92.7948,10.2992,0,9.72617,-0.524509,1.70525,0.945122,2.16463,-5,-9.11784,-0.265847,3.03688,0.914634,-32.3171,5.30488
6591.74,92.7566,10.6459,0,9.74054,-0.58199,1.77471,0.518293,2.53049,-5.18293,-9.16574,-0.275427,3.13748,1.18902,-32.1341,5.4878
6591.75,92.7216,10.9925,0,9.67109,-0.57241,1.7316,0.518293,2.59146,-4.87805,-9.14179,-0.292192,3.19017,1.37195,-32.2561,5.30488
6591.76,92.6763,11.3483,0,9.69504,-0.522114,1.71004,0.853659,2.04268,-5.36585,-9.17772,-0.313748,3.30752,1.40244,-32.378,5.2439
6591.77,92.6454,11.6731,0,9.72378,-0.598755,1.67412,1.0061,1.12805,-4.90854,-9.15137,-0.364043,3.2213,1.15854,-31.8293,4.96951
6591.78,92.6021,11.9736,0,9.69264,-0.589175,1.61424,0.97561,0.701219,-6.12805,-9.12502,-0.407153,3.16143,1.18902,-30.8232,4.87805
6591.79,92.547,12.2462,0,9.81479,-0.526904,1.62143,1.31098,0.365854,-6.58537,-9.10107,-0.407153,3.08239,1.46341,-29.5122,4.32927
6591.8,92.4977,12.5586,0,9.72378,-0.543669,1.58311,1.34146,0.365854,-6.37195,-9.06994,-0.361648,3.30034,1.89024,-28.689,4.60366
6591.81,92.4314,12.9244,0,9.63995,-0.428708,1.62143,0.396341,0.152439,-6.85976,-9.06275,-0.311353,3.59732,1.79878,-29.1159,4.84756
6591.82,92.3668,13.2662,0,9.69743,-0.431104,1.65017,-0.518293,0.213415,-6.82927,-9.04599,-0.273032,3.54702,1.55488,-29.3902,5.7622
6591.83,92.3041,13.6197,0,9.67588,-0.435894,1.65975,-0.182927,0.579268,-6.82927,-9.01725,-0.251477,3.6524,1.31098,-29.1159,5.79268
6591.84,92.2489,13.9656,0,9.78366,-0.416733,1.6334,-0.762195,0.609756,-5.91463,-8.95737,-0.265847,3.65719,1.21951,-29.3293,6.34146
6591.85,92.1924,14.3047,0,9.89383,-0.385598,1.54,0.426829,1.34146,-5.73171,-8.9909,-0.246687,3.7027,0.731707,-28.9634,6.52439
6591.86,92.1296,14.6303,0,9.93694,-0.292192,1.54239,1.21951,1.28049,-5.36585,-9.01246,-0.287402,3.71228,0.335366,-28.628,6.15854
6591.87,92.0863,14.9315,0,10.0016,-0.392783,1.60706,0.945122,1.64634,-4.66463,-9.04838,-0.366438,3.67396,0.701219,-27.5305,5.97561
6591.88,92.0552,15.279,0,9.94652,-0.467029,1.64298,0.27439,2.07317,-4.42073,-9.0412,-0.411943,3.9446,0.792683,-27.6524,5.7622
6591.89,92.0049,15.5768,0,9.81,-0.330513,1.68849,0.243902,2.13415,-4.87805,-8.97653,-0.435894,3.74821,0.914634,-27.5,5.33537
6591.9,91.9576,15.8321,0,9.7118,-0.354463,1.64298,0.27439,2.0122,-5,-8.83283,-0.407153,3.54942,1.67683,-26.4329,5.60976
6591.91,91.9069,16.1398,0,9.75491,-0.308958,1.6358,0.518293,2.59146,-4.87805,-8.72027,-0.431104,3.78653,2.22561,-26.189,6.06707
6591.92,91.8545,16.461,0,9.77647,-0.256267,1.66933,0.457317,2.37805,-4.5122,-8.78972,-0.433499,3.93502,2.5,-27.2256,6.7378
6591.93,91.8122,16.7799,0,9.7597,-0.287402,1.65975,0.27439,3.07927,-3.96341,-8.81128,-0.476609,3.9925,3.10976,-27.8354,7.53049
6591.94,91.8027,17.0595,0,9.79803,-0.459844,1.62143,-0.213415,4.02439,-2.92683,-8.84241,-0.438289,3.88233,3.41463,-27.561,7.56098
6591.95,91.778,17.3621,0,9.73336,-0.373623,1.73399,0.27439,2.92683,-3.38415,-8.83283,-0.349673,4.038,3.23171,-26.7683,7.80488
6591.96,91.7514,17.7109,0,9.76928,-0.368833,1.67412,0.914634,2.59146,-3.53659,-8.82804,-0.304167,4.31343,2.65244,-26.4634,7.59146
6591.97,91.7229,18.0531,0,9.81479,-0.342488,1.65496,1.03659,1.89024,-3.44512,-8.81607,-0.253872,4.34217,2.28659,-26.1585,7.40854
6591.98,91.7005,18.3024,0,9.78366,-0.380808,1.73399,0.121951,2.07317,-3.38415,-8.78254,-0.217947,3.95178,2.28659,-25.061,6.67683
6591.99,91.6778,18.4619,0,9.72617,-0.359253,1.71483,-1.0061,1.7378,-3.23171,-8.62686,-0.225132,3.52307,3.38415,-23.3841,5.64024
6592,91.6565,18.7204,0,9.67348,-0.354463,1.69328,-1.37195,2.59146,-3.10976,-8.68674,-0.268242,4.02603,3.47561,-24.6037,5.2439
6592.01,91.6316,19.0213,0,9.69504,-0.308958,1.65735,-1.40244,2.9878,-2.92683,-8.84002,-0.311353,4.34696,2.16463,-27.439,4.26829
6592.02,91.6143,19.3323,0,9.69025,-0.349673,1.66933,-1.55488,3.44512,-2.77439,-8.95498,-0.320933,4.50982,1.37195,-28.9939,4.05488
6592.03,91.6155,19.6165,0,9.74294,-0.464634,1.70525,-1.70732,3.29268,-2.5,-9.01725,-0.311353,4.46911,1.58537,-29.1463,3.93293
6592.04,91.6215,19.9228,0,9.77168,-0.534089,1.76513,-1.61585,3.01829,-2.80488,-8.97174,-0.273032,4.61281,1.46341,-28.9329,4.93902
6592.05,91.6277,20.2403,0,9.78844,-0.555645,1.75794,-0.670732,2.43902,-2.9878,-8.79451,-0.241897,4.63676,1.18902,-28.3537,6.37195
6592.06,91.618,20.5746,0,9.77168,-0.510139,1.81542,-0.27439,1.67683,-3.87195,-8.61728,-0.273032,4.68705,0.945122,-28.1402,7.9878
6592.07,91.6002,20.8306,0,9.73815,-0.495769,1.73878,0.0914634,0.640244,-4.5122,-8.42568,-0.294587,4.27511,1.46341,-27.5915,9.02439
6592.08,91.5741,20.963,0,9.78126,-0.414338,1.60466,0.579268,0.365854,-4.39024,-8.32988,-0.354463,3.71707,2.7439,-25.7012,9.45122
6592.09,91.5425,21.1193,0,9.81479,-0.344883,1.59029,0.304878,1.34146,-4.14634,-8.37299,-0.443079,3.86556,4.42073,-25.5793,8.81098
6592.1,91.5125,21.3412,0,9.80281,-0.299377,1.61903,-0.243902,2.65244,-3.5061,-8.56699,-0.467029,4.28709,4.60366,-28.4146,8.04878
6592.11,91.4875,21.6118,0,9.77168,-0.318538,1.59987,-0.792683,3.41463,-3.32317,-8.78733,-0.447869,4.67508,4.20732,-32.2256,7.10366
6592.12,91.476,21.86,0,9.71659,-0.399968,1.57592,-0.426829,4.08537,-3.10976,-9.06994,-0.392783,4.76369,3.47561,-34.5732,5.88415
6592.13,91.4686,22.1147,0,9.75731,-0.438289,1.65256,0.731707,4.2378,-3.17073,-9.14897,-0.229922,4.88824,3.20122,-35.5183,5.88415
6592.14,91.4885,22.3745,0,9.99681,-0.538879,1.58071,1.58537,6.15854,-1.95122,-9.06036,-0.0598755,4.91937,2.89634,-35.2744,5.7622
6592.15,91.4807,22.6692,0,9.91299,-0.390388,1.50886,2.13415,5.70122,-2.56098,-8.8472,0.0119751,5.03433,2.46951,-35.4268,6.12805
6592.16,91.468,23.0005,0,9.88664,-0.411943,1.59748,3.01829,4.35976,-3.2622,-8.66279,0.0335303,5.17564,1.06707,-36.2195,6.58537
6592.17,91.4606,23.3445,0,9.81719,-0.476609,1.62143,2.59146,3.75,-3.56707,-8.50711,0.0311353,5.21396,0.0609756,-37.1341,6.70732
6592.18,91.4576,23.5867,0,9.70462,-0.524509,1.67891,2.0122,4.20732,-3.78049,-8.26042,0.0239502,4.63197,-0.609756,-36.311,6.52439
6592.19,91.4511,23.7585,0,9.72138,-0.512534,1.65735,2.0122,4.29878,-3.96341,-8.05924,-0.0263452,4.24158,-0.121951,-33.7195,6.40244
6592.2,91.4595,24.0365,0,9.75491,-0.574805,1.6334,1.89024,4.5122,-3.32317,-7.98021,-0.126936,4.72298,0.0304878,-32.3476,6.34146
6592.21,91.4549,24.318,0,9.58487,-0.519719,1.74597,1.92073,4.60366,-3.96341,-8.08559,-0.251477,4.8547,-0.304878,-33.1098,6.09756
6592.22,91.4612,24.5341,0,9.58966,-0.548459,1.69088,-0.121951,8.96341,-3.35366,-8.26761,-0.280217,4.69903,0,-32.622,5.97561
6592.23,91.4499,24.7971,0,9.616,-0.534089,1.56634,2.04268,6.28049,-4.72561,-8.39454,-0.208367,5.04631,0.579268,-33.0793,6.28049
6592.24,91.4713,25.0915,0,9.83874,-0.627495,1.64538,2.0122,6.92073,-2.77439,-8.43047,-0.136516,5.28102,0.884146,-34.2683,6.52439
6592.25,91.4678,25.4036,0,9.63277,-0.502954,1.79147,3.84146,5.64024,-3.62805,-8.48076,-0.119751,5.46543,0.518293,-34.939,6.31098
6592.26,91.4296,25.7254,0,9.85311,-0.347278,1.81542,4.45122,3.65854,-5.03049,-8.4161,-0.107776,5.53968,0.396341,-35.5183,6.09756
6592.27,91.4438,26.0693,0,10.0184,-0.723296,1.81542,5.88415,3.38415,-4.17683,-8.23647,-0.0814307,5.60435,0.670732,-35.7622,5.70122
6592.28,91.3959,26.4307,0,9.75491,-0.352068,2.0693,4.63415,2.28659,-6.15854,-8.09038,-0.0670605,5.66901,0.335366,-35.2744,5.42683
6592.29,91.3915,26.7712,0,9.45314,-0.570015,2.18905,2.53049,1.64634,-4.72561,-7.91793,-0.0479004,5.51573,0.121951,-34.2988,5.70122
6592.3,91.3744,27.1022,0,9.67348,-0.529299,1.88009,4.20732,1.89024,-5.33537,-7.82932,-0.256267,5.47501,-0.27439,-32.8963,6.15854
6592.31,91.3171,27.4561,0,9.59924,-0.323328,1.81782,5.03049,0.914634,-6.98171,-7.67125,-0.471819,5.54926,-1.0061,-32.2866,6.28049
6592.32,91.2618,27.8356,0,9.78844,-0.342488,1.9232,3.14024,0.365854,-7.04268,-7.61856,-0.574805,5.71452,-1.52439,-33.2927,5.88415
6592.33,91.2566,28.2167,0,10.0519,-0.651445,1.96631,1.61585,1.64634,-5.54878,-7.58742,-0.550855,5.77679,-1.4939,-35.2744,5.91463
6592.34,91.1816,28.5822,0,9.56571,-0.229922,2.18426,2.5,-1.61585,-7.89634,-7.52515,-0.435894,5.72649,-0.884146,-35.7317,6.43293
6592.35,91.0803,28.9506,0,9.68306,-0.141306,1.97589,2.07317,-5,-9.63415,-7.43654,-0.287402,5.75044,0.121951,-34.8171,6.76829
6592.36,90.9861,29.3009,0,9.69025,-0.143701,1.8274,-0.97561,-4.87805,-9.14634,-7.43175,-0.225132,5.72889,0.548781,-33.9024,7.71341
6592.37,90.8483,29.6562,0,9.62319,0.0455054,1.8753,-2.80488,-3.59756,-11.4939,-7.42935,-0.191602,5.82708,1.03659,-33.2317,7.80488
6592.38,90.7228,29.9962,0,9.57289,-0.136516,1.96871,-1.0061,-3.96341,-12.7439,-7.44851,-0.189207,5.83666,1.7378,-32.3171,7.89634
6592.39,90.6128,30.3463,0,10.471,-0.342488,1.48491,-1.34146,5.21341,-13.5671,-7.44372,-0.203577,5.95881,2.13415,-32.5,7.43902
6592.4,90.4483,30.6993,0,9.54655,0.213157,1.82261,0.518293,3.2622,-12.9268,-7.47486,-0.165256,6.07377,1.58537,-33.1707,6.37195
6592.41,90.3441,31.0449,0,9.6663,-0.0383203,1.74118,1.03659,1.95122,-10.1829,-7.5515,-0.165256,6.17197,1.06707,-33.75,5.70122
6592.42,90.2373,31.3666,0,9.76449,0.146096,1.81782,1.09756,3.07927,-8.44512,-7.59461,-0.193997,6.15041,-0.396341,-33.3537,4.60366
6592.43,90.1196,31.7017,0,9.82437,0.258662,1.90404,1.92073,0.213415,-8.44512,-7.49162,-0.244292,6.21268,-0.487805,-32.6829,3.71951
6592.44,90.0485,32.0565,0,9.75012,-0.0431104,1.93997,1.82927,-0.731707,-7.53049,-7.3599,-0.273032,6.28693,-0.426829,-31.7988,3.9939
6592.45,89.9803,32.4344,0,9.61121,-0.0574805,1.88728,0.609756,-1.58537,-7.56098,-7.22577,-0.277822,6.38033,-0.762195,-31.2195,3.9939
6592.46,89.9222,32.8311,0,9.66151,-0.0910107,1.73399,1.37195,-0.823171,-7.07317,-7.07249,-0.296982,6.43542,-0.914634,-30.6707,4.35976
6592.47,89.8647,33.1989,0,9.74773,-0.0287402,1.66933,1.95122,-0.640244,-6.37195,-6.96711,-0.273032,6.26777,-1.18902,-29.2683,4.87805
6592.48,89.8223,33.574,0,9.89622,-0.0383203,1.64298,1.67683,-0.0609756,-5.06098,-6.8785,-0.256267,6.31088,-0.670732,-26.9817,5.39634
6592.49,89.8395,33.9518,0,10.0303,-0.251477,1.74118,0.213415,3.2622,-2.10366,-6.7827,-0.210762,6.32285,-0.609756,-25.1524,6.09756
6592.5,89.7973,34.3256,0,9.7597,0.0622705,1.67412,1.06707,2.83537,-3.87195,-6.79946,-0.227527,6.40189,-0.640244,-23.5671,6.4939
6592.51,89.7596,34.6811,0,9.63277,-0.00718506,1.93039,1.82927,0.884146,-4.35976,-6.77312,-0.244292,6.35878,-0.213415,-22.3171,6.31098
6592.52,89.7276,35.0185,0,9.7597,-0.0479004,1.86572,2.80488,1.03659,-4.35976,-6.84736,-0.249082,6.40668,-0.548781,-21.25,6.12805
6592.53,89.698,35.3565,0,9.74773,-0.0526904,1.88249,2.40854,0.884146,-4.2378,-6.83778,-0.227527,6.47853,-0.0609756,-20.0305,5.60976
6592.54,89.6936,35.6908,0,9.75731,-0.100591,1.96392,0.792683,1.21951,-2.53049,-6.85694,-0.256267,6.55277,-0.121951,-19.8171,5.51829
6592.55,89.6632,36.0155,0,9.59684,-0.0263452,1.88967,2.19512,0.121951,-4.08537,-6.86652,-0.282612,6.58391,-0.518293,-19.2073,4.96951
6592.56,89.6326,36.3305,0,9.61121,-0.0502954,1.85135,2.31707,-0.182927,-4.45122,-6.84497,-0.289797,6.58151,-0.701219,-18.8415,4.87805
6592.57,89.6003,36.6405,0,9.70701,0.0239502,1.88728,2.92683,0.365854,-3.78049,-6.81623,-0.205972,6.59828,-1.15854,-18.0793,4.63415
6592.58,89.5779,36.9451,0,9.81,-0.0287402,1.82021,3.14024,0.609756,-3.5061,-6.74677,-0.179626,6.57193,-1.03659,-17.2866,5.09146
6592.59,89.5599,37.2397,0,9.90341,0.0263452,1.88249,2.65244,0.640244,-2.46951,-6.75635,-0.184417,6.59349,-0.914634,-16.4024,5.60976
6592.6,89.5951,37.5197,0,9.82197,-0.198787,1.79866,1.58537,4.84756,-1.25,-6.77791,-0.198787,6.59828,-0.762195,-16.189,6.34146
6592.61,89.5696,37.7937,0,9.67588,-0.00718506,1.76752,2.95732,0.97561,-3.56707,-6.83778,-0.222737,6.68689,-0.945122,-16.0061,6.58537
6592.62,89.6007,38.0641,0,9.84114,-0.282612,1.74836,2.46951,2.19512,-2.0122,-6.83778,-0.256267,6.73,-1.18902,-15.5488,6.85976
6592.63,89.5698,38.3161,0,9.62319,0.0862207,1.81063,3.93293,2.34756,-2.89634,-6.86652,-0.234712,6.71324,-1.12805,-15.0305,6.98171
6592.64,89.5259,38.5704,0,9.6639,0.155676,1.87051,3.20122,1.89024,-3.41463,-6.80186,-0.225132,6.72282,-0.792683,-14.7866,6.7378
6592.65,89.508,38.8214,0,9.82437,-0.0239502,1.78429,3.62805,3.14024,-3.17073,-6.81383,-0.244292,6.77551,-0.762195,-13.9329,6.61585
6592.66,89.4976,39.0639,0,9.7142,-0.0359253,1.96871,3.71951,2.62195,-2.68293,-6.78988,-0.227527,6.76114,-1.09756,-13.5061,6.03659
6592.67,89.4962,39.2969,0,9.52739,-0.0790356,2.09564,2.71341,0.884146,-2.5,-6.75156,-0.258662,6.72521,-1.43293,-12.3171,5.82317
6592.68,89.4883,39.5338,0,9.51781,-0.0790356,2.00703,3.23171,-1.03659,-3.01829,-6.73958,-0.268242,6.79228,-1.58537,-11.3415,5.36585
6592.69,89.4867,39.7629,0,9.62798,-0.167651,1.99505,3.71951,0.457317,-3.44512,-6.72042,-0.378413,6.7827,-1.40244,-10.8232,5.18293
6592.7,89.4717,39.9848,0,9.59445,-0.146096,2.12678,2.95732,0.640244,-4.42073,-6.6845,-0.409548,6.75875,-1.67683,-10.0915,5.2439
6592.71,89.4514,40.2052,0,9.69025,-0.0694556,2.01661,1.67683,0.762195,-4.05488,-6.62702,-0.390388,6.74438,-1.46341,-9.2378,5.15244
6592.72,89.488,40.4381,0,9.59924,-0.213157,2.04774,1.18902,1.95122,-1.55488,-6.5408,-0.359253,6.7827,-1.28049,-8.59756,5.4878
6592.73,89.4556,40.6605,0,9.58008,-0.0215552,1.88967,2.71341,-2.40854,-4.63415,-6.55277,-0.316143,6.78749,-0.670732,-7.22561,6.28049
6592.74,89.4386,40.8884,0,9.65672,-0.0694556,1.99026,2.62195,-2.31707,-3.78049,-6.54559,-0.265847,6.86413,-0.762195,-6.64634,6.52439
6592.75,89.4451,41.116,0,9.72138,-0.177231,2.0693,1.64634,-1.61585,-2.92683,-6.54319,-0.280217,6.90484,-0.823171,-5.36585,6.67683
6592.76,89.3826,41.3089,0,9.54894,0.239502,2.18426,2.07317,-2.07317,-4.54268,-6.61504,-0.316143,6.80904,-0.823171,-4.54268,7.0122
6592.77,89.3285,41.5188,0,9.72138,0.122146,2.01421,1.79878,-0.884146,-5.30488,-6.61983,-0.325723,6.95514,-0.640244,-4.26829,6.37195
6592.78,89.2699,41.7345,0,9.7118,0.177231,1.95434,1.89024,0.914634,-5.21341,-6.53361,-0.299377,6.9264,-0.396341,-3.90244,6.09756
6592.79,89.2104,41.9646,0,9.75012,0.222737,2.09325,1.18902,-1.79878,-4.87805,-6.46416,-0.292192,6.92161,-0.335366,-3.23171,6.25
6592.8,89.161,42.2104,0,9.80042,0.217947,1.8753,0.609756,-1.89024,-4.02439,-6.44739,-0.328118,6.92161,-0.731707,-2.53049,5.97561
6592.81,89.1096,42.4638,0,9.99681,0.285007,1.8753,0.579268,-0.853659,-3.56707,-6.50487,-0.399968,6.94077,-0.487805,-1.95122,5.67073
6592.82,89.0719,42.7435,0,9.8124,0.193997,1.94715,0.731707,-1.76829,-3.32317,-6.50727,-0.416733,6.94316,-0.213415,-1.46341,5.39634
6592.83,89.0217,43.0065,0,9.90341,0.282612,1.97589,-0.426829,-2.13415,-3.62805,-6.50487,-0.457449,6.94556,-0.152439,-1.46341,5.4878
6592.84,88.9965,43.2495,0,9.36453,0.105381,2.03816,1.03659,-3.5061,-3.32317,-6.5384,-0.464634,6.88568,0.0609756,-1.25,5.36585
6592.85,88.9611,43.4716,0,9.60163,0.203577,1.92799,0.0609756,-2.07317,-3.14024,-6.55756,-0.479004,6.95274,0.182927,-1.37195,5.97561
6592.86,88.9363,43.69,0,9.65432,0.155676,1.93039,0.0304878,-1.40244,-2.80488,-6.57433,-0.495769,6.96951,0.518293,-1.21951,5.97561
6592.87,88.9185,43.906,0,9.74533,0.131726,1.96392,0.0609756,-1.03659,-2.5,-6.60307,-0.479004,6.9719,0.884146,-0.97561,6.43293
6592.88,88.8929,44.1028,0,9.78605,0.179626,1.88488,-0.0304878,-1.58537,-2.68293,-6.58391,-0.457449,6.88329,1.25,-0.853659,6.7378
6592.89,88.8619,44.2994,0,9.79563,0.191602,1.85614,0.0914634,-1.7378,-3.14024,-6.59109,-0.409548,6.91921,1.70732,-0.762195,6.64634
6592.9,88.8398,44.4731,0,9.79084,0.172441,1.75315,-0.0304878,-1.67683,-2.56098,-6.60067,-0.352068,6.93119,1.95122,-0.823171,6.92073
6592.91,88.8237,44.6622,0,9.82437,0.162861,1.75076,-0.243902,-0.640244,-2.16463,-6.64139,-0.325723,6.95514,1.67683,-0.396341,6.76829
6592.92,88.8076,44.8488,0,9.78126,0.153281,1.7292,-0.396341,0.335366,-2.31707,-6.67252,-0.289797,6.95514,1.46341,0.0914634,6.64634
6592.93,88.7973,44.9883,0,9.77407,0.124541,1.75555,-0.701219,0.853659,-2.19512,-6.69887,-0.229922,6.98867,0.884146,-0.335366,6.40244
6592.94,88.7936,45.0811,0,9.81958,0.129331,1.54239,-0.670732,2.5,-1.61585,-6.71563,-0.237107,7.00783,0.487805,-0.884146,6.31098
6592.95,88.8104,45.1573,0,9.84114,0.0742456,1.45378,-0.304878,3.90244,-0.945122,-6.72042,-0.225132,6.9719,0.27439,-0.823171,6.12805
6592.96,88.8424,45.1945,0,9.72138,0.0479004,1.63819,0.0609756,4.11585,-0.579268,-6.75395,-0.239502,6.92161,-0.304878,-1.15854,6.70732
6592.97,88.8702,45.1783,0,9.83635,0.0167651,1.54479,-0.487805,7.22561,-0.884146,-6.74917,-0.332908,6.74677,-0.365854,-0.884146,6.79878
6592.98,88.9015,45.1745,0,9.72138,-0.0814307,1.6837,-0.27439,7.5,-1.4939,-6.78988,-0.325723,6.81862,-0.121951,-1.06707,6.82927
6592.99,88.9387,45.145,0,9.86748,-0.158071,1.62622,1.12805,7.92683,-1.64634,-6.86892,-0.455054,6.78509,-0.609756,-1.64634,6.76829
6593,88.9572,45.1051,0,10.0208,-0.0119751,1.62143,1.28049,10.8232,-1.31098,-6.97669,-0.474214,6.8282,-0.518293,-1.79878,6.64634
6593.01,88.9614,45.0722,0,9.95849,-0.100591,1.54479,0.27439,12.7134,-3.10976,-7.02459,-0.471819,6.88089,-0.579268,-2.19512,6.89024
6593.02,88.9555,45.0345,0,9.9082,-0.122146,1.80345,0.548781,7.37805,-4.2378,-7.08207,-0.447869,6.88568,-0.304878,-2.89634,6.61585
6593.03,88.9378,44.9804,0,10.0806,-0.00239502,1.94715,0.731707,7.80488,-4.02439,-7.08926,-0.486189,6.7827,0.121951,-3.41463,6.89024
6593.04,88.935,44.9314,0,9.69983,-0.246687,2.20581,2.2561,4.48171,-5.45732,-7.00064,-0.469424,6.70366,0.579268,-4.26829,6.61585
6593.05,88.901,44.8851,0,9.96328,0.0359253,1.98787,2.92683,5.12195,-5.2439,-6.95514,-0.500559,6.65815,1.15854,-5.18293,6.64634
6593.06,88.8723,44.8412,0,9.64235,-0.0143701,1.86572,3.90244,5.97561,-5.36585,-7.00304,-0.514929,6.70605,1.55488,-5.4878,6.58537
6593.07,88.8234,44.8097,0,9.88425,0.0910107,1.91841,2.59146,8.75,-6.21951,-7.08207,-0.502954,6.84257,2.22561,-6.76829,6.52439
6593.08,88.7834,44.7744,0,9.59684,-0.0886157,2.05732,1.76829,3.44512,-7.56098,-7.17548,-0.426313,6.90005,2.71341,-7.9878,6.52439
6593.09,88.7276,44.7306,0,9.88904,-0.0455054,1.84417,2.28659,4.87805,-8.71951,-7.1635,-0.352068,6.8282,3.10976,-8.59756,6.61585
6593.1,88.675,44.6923,0,9.55373,-0.00958008,2.08367,3.29268,2.92683,-8.07927,-7.06052,-0.296982,6.75156,3.04878,-9.11585,6.98171
6593.11,88.6817,44.685,0,9.87946,-0.205972,2.3567,1.4939,3.90244,-4.54268,-7.01262,-0.356858,6.88089,2.40854,-10.061,7.0122
6593.12,88.6167,44.6998,0,10.0423,0.229922,2.09804,3.5061,2.86585,-6.64634,-7.03657,-0.385598,7.03657,2.40854,-11.8293,7.19512
6593.13,88.5721,44.708,0,10.0782,0.0335303,1.86093,3.14024,5.12195,-6.98171,-7.06291,-0.462239,7.02459,2.7439,-12.8354,7.77439
6593.14,88.5343,44.6911,0,9.89862,-0.0143701,1.95913,3.78049,6.37195,-6.95122,-7.07968,-0.507744,6.88808,3.47561,-13.5366,8.32317
6593.15,88.5363,44.6511,0,10.3992,-0.0814307,2.43334,0.487805,7.43902,-3.78049,-7.0222,-0.560435,6.68929,5.7622,-14.4207,8.17073
6593.16,88.4918,44.6126,0,9.63756,0.00718506,2.04056,2.0122,3.38415,-7.43902,-7.02699,-0.593965,6.69168,7.46951,-15.8841,8.35366
6593.17,88.4368,44.5493,0,9.48907,-0.0958008,1.91841,5.45732,0.304878,-9.87805,-7.13476,-0.622705,6.6366,9.84756,-17.622,7.9878
6593.18,88.3504,44.4662,0,9.80042,0.280217,2.16749,2.19512,0.853659,-8.65854,-7.21859,-0.519719,6.58151,11.0671,-18.9024,8.07927
6593.19,88.2703,44.3911,0,9.93215,0.232317,2.08367,3.5061,-0.97561,-8.81098,-7.33834,-0.431104,6.71563,11.372,-21.6768,7.46951
6593.2,88.1615,44.3368,0,9.93215,0.476609,1.86812,4.72561,-2.13415,-9.02439,-7.46767,-0.308958,6.93837,11.372,-24.939,8.01829
6593.21,88.1026,44.2908,0,9.53936,0.117356,2.16749,6.37195,-1.55488,-8.32317,-7.53713,-0.205972,7.03657,10.061,-28.6585,8.23171
6593.22,88.0641,44.2893,0,9.54176,-0.0526904,2.36628,5.18293,-2.19512,-8.44512,-7.45809,-0.0814307,7.22817,7.95732,-30.4878,8.07927
6593.23,88.0489,44.2906,0,9.98484,-0.0862207,2.42136,2.5,-1.67683,-6.52439,-7.33834,0.0167651,7.12758,6.37195,-31.5244,8.07927
6593.24,87.9975,44.3212,0,9.02443,-0.0455054,1.93039,0.823171,-0.121951,-9.81707,-7.12758,0.100591,7.10363,5.4878,-32.3476,7.95732
6593.25,87.9206,44.3722,0,9.35974,-0.0287402,2.16749,-1.64634,-0.914634,-12.2866,-7.00783,0.114961,7.118,5.70122,-32.6829,8.04878
6593.26,87.8635,44.4214,0,9.36932,-0.170046,1.88488,-1.79878,-3.90244,-12.1951,-6.94077,0.0886157,7.05094,5.85366,-33.1402,8.56707
6593.27,87.7618,44.4405,0,9.34776,0.217947,2.53393,-0.823171,-6.55488,-12.0122,-6.92879,0.0526904,6.86652,6.37195,-32.8354,8.35366
6593.28,87.6626,44.4987,0,10.3249,0.0910107,2.01661,-0.609756,-10.0305,-13.6585,-6.97669,-0.0191602,7.16111,6.79878,-33.0488,8.20122
6593.29,87.542,44.5779,0,10.289,0.0862207,1.89207,1.70732,-14.7256,-16.0976,-7.07728,-0.110171,7.41259,6.43293,-34.6951,7.59146
6593.3,87.3985,44.6733,0,9.86748,0.251477,2.52435,0.792683,-11.0366,-16.6768,-7.08207,-0.198787,7.54431,6.76829,-35.9146,5.97561
6593.31,87.2829,44.8238,0,9.65911,-0.0167651,2.32317,0.0609756,-7.71341,-17.3171,-6.79946,-0.217947,7.63053,7.37805,-35.9146,5.2439
6593.32,87.1792,45.0359,0,9.27831,-0.158071,2.17707,1.52439,-6.40244,-18.1098,-6.47374,-0.0622705,7.71675,7.7439,-35.0305,5.33537
6593.33,87.0498,45.2728,0,8.97174,0.00718506,2.53393,-0.365854,-7.07317,-18.872,-6.32764,0.0526904,7.77184,7.62195,-34.3902,6.55488
6593.34,86.9222,45.5155,0,9.43159,-0.134121,2.37107,-0.914634,-13.75,-20.7012,-6.33004,0.165256,7.88201,6.82927,-34.4207,7.71341
6593.35,86.8064,45.7665,0,10.1429,-0.170046,2.1172,-1.4939,-19.1463,-20.061,-6.21747,0.277822,7.86764,6.25,-34.3598,8.68902
6593.36,86.6476,46.0117,0,9.67109,0.0359253,1.84417,-0.426829,-24.1463,-22.2866,-6.21747,0.335303,7.89877,6.82927,-33.872,9.84756
6593.37,86.4738,46.2684,0,9.98484,0.148491,2.13636,-0.457317,-21.4634,-22.8354,-6.17197,0.354463,7.99458,6.98171,-32.7134,10.2439
6593.38,86.2941,46.5647,0,10.1884,0.275427,2.05732,-0.426829,-16.4024,-22.378,-6.01629,0.376018,8.15983,6.34146,-31.0061,10.3659
6593.39,86.0909,46.8642,0,10.0519,0.517324,2.12438,-2.13415,-10.5488,-22.2866,-5.87259,0.387993,8.0784,4.81707,-28.7805,10.7012
6593.4,85.8914,47.1652,0,9.63277,0.498164,2.22976,-5.85366,-14.2073,-22.2866,-5.82229,0.383203,8.11193,3.53659,-27.1037,10.1829
6593.41,85.7194,47.4607,0,10.0351,0.342488,1.64777,-1.21951,-14.6341,-21.9512,-5.76002,0.311353,8.07361,3.07927,-26.4634,9.35976
6593.42,85.5462,47.7615,0,9.45314,0.414338,2.32077,-4.35976,-11.5244,-21.2805,-5.65464,0.277822,8.05445,2.83537,-26.0976,8.20122
6593.43,85.3835,48.0594,0,9.86748,0.419128,1.83219,-2.31707,-12.3171,-20.7317,-5.51813,0.160466,7.92751,3.17073,-24.9695,7.10366
6593.44,85.215,48.3475,0,9.94173,0.534089,1.7292,0.731707,-12.7439,-20.3354,-5.41274,-0.0814307,7.79339,3.32317,-23.4451,6.79878
6593.45,85.0357,48.6797,0,9.77168,0.608335,1.85614,-1.85976,-7.80488,-20.7927,-5.1924,-0.308958,7.88201,5.21341,-22.8659,7.0122
6593.46,84.8832,48.9939,0,10.0327,0.376018,1.38432,-0.335366,-3.04878,-21.311,-5.0032,-0.368833,7.56108,7.46951,-21.6159,7.80488
6593.47,84.7346,49.3469,0,9.89862,0.330513,1.40109,2.40854,-4.32927,-21.7073,-4.72777,-0.172441,7.51078,8.87195,-19.4817,9.72561
6593.48,84.5762,49.7125,0,9.46272,0.510139,1.26697,3.62805,-4.57317,-20.6098,-4.69424,0.0646655,7.65688,8.87195,-18.1402,11.8902
6593.49,84.4072,50.0424,0,9.27591,0.694556,0.783171,2.80488,-3.65854,-19.5732,-4.73495,0.313748,7.56587,8.01829,-16.8598,13.4451
6593.5,84.2717,50.3752,0,9.59205,0.55804,1.58071,6.58537,-10.6402,-18.4451,-4.81399,0.543669,7.81495,5.91463,-15.8841,13.4756
6593.51,84.1426,50.6795,0,9.18969,0.55325,1.66693,6.70732,-10.7012,-17.8354,-5.02236,0.627495,8.0305,4.20732,-16.5549,13.3232
6593.52,84.0157,50.9371,0,9.14658,0.57241,1.25978,8.41463,-13.2622,-17.5915,-5.1948,0.61073,8.0305,2.46951,-16.7378,12.1341
6593.53,83.8478,51.1634,0,9.46991,0.953218,1.58311,5.82317,-13.9939,-17.622,-5.22833,0.55804,7.92033,1.09756,-16.3415,10.8537
6593.54,83.6794,51.4081,0,9.8555,0.969983,1.5879,4.32927,-11.6159,-18.2622,-5.19959,0.407153,8.08798,0.0304878,-16.128,9.54268
6593.55,83.4925,51.6612,0,9.85072,1.14482,1.77471,3.29268,-10.3659,-18.4451,-5.06307,0.268242,8.01374,-0.426829,-16.7073,8.5061
6593.56,83.2778,51.8947,0,9.77647,1.33642,1.57113,0.670732,-6.92073,-19.2988,-4.99601,0.0838257,7.8365,0.0609756,-15.8841,7.59146
6593.57,83.0647,52.1366,0,9.64235,1.2981,1.26936,0.579268,-6.09756,-19.8171,-4.89781,0.0574805,7.81734,0.731707,-14.2988,7.19512
6593.58,82.8399,52.3855,0,9.25915,1.32924,1.53042,2.77439,-9.29878,-20.4268,-4.82836,0.0287402,7.83411,1.4939,-13.6585,7.16463
6593.59,82.6069,52.6425,0,9.31663,1.42504,1.60227,3.04878,-10.4878,-20.6402,-4.88105,0.0119751,8.06164,1.52439,-13.9634,6.76829
6593.6,82.3661,52.9251,0,9.76449,1.65735,1.76513,1.15854,-10.2134,-20,-4.84273,0.122146,8.28916,1.0061,-15.061,6.4939
6593.61,82.1605,53.2164,0,10.1094,1.57592,1.36995,0.853659,-10.5488,-18.4756,-4.81638,0.277822,8.41131,-0.213415,-15.5488,6.85976
6593.62,81.9565,53.4932,0,9.8124,1.71723,1.53521,-0.426829,-8.10976,-16.5549,-4.81878,0.306563,8.38975,-1.28049,-15.5488,7.16463
6593.63,81.7584,53.7349,0,9.38369,1.70046,1.1999,-2.62195,-6.92073,-15.6707,-4.86668,0.337698,8.27,-2.04268,-14.878,7.13415
6593.64,81.6048,53.9754,0,9.40524,1.36995,1.16637,-2.19512,-5.97561,-15.5793,-4.88344,0.246687,8.3682,-2.5,-14.9085,7.10366
6593.65,81.4098,54.2032,0,9.92496,1.63819,1.16158,-3.38415,-8.84146,-17.8963,-4.92656,0.162861,8.4137,-2.31707,-15.9146,6.79878
6593.66,81.2086,54.4202,0,10.0423,1.62861,1.08973,-1.18902,-10.3354,-19.2683,-4.98643,0.0622705,8.49992,-1.25,-16.5244,6.43293
6593.67,80.987,54.6193,0,9.72378,1.69328,0.969983,-1.12805,-8.5061,-20.3963,-5.04152,-0.0431104,8.5119,-0.27439,-16.9512,6.46341
6593.68,80.7584,54.8248,0,9.7597,1.76513,0.840652,1.12805,-6.67683,-20.7927,-5.05349,-0.0455054,8.658,0.0609756,-16.5549,6.15854
6593.69,80.5105,55.043,0,9.58487,1.86812,0.922083,2.62195,-6.43293,-21.6463,-5.0511,0.0287402,8.83762,0.182927,-16.7073,5.73171
6593.7,80.2647,55.2761,0,9.79803,1.90883,1.22146,0.579268,-7.46951,-21.9512,-5.06307,0.208367,9.07473,-0.853659,-17.7134,5.36585
6593.71,80.0589,55.4992,0,10.0279,1.53521,1.0562,3.14024,-9.72561,-23.1098,-5.1469,0.244292,9.21603,-2.46951,-18.9634,5.57927
6593.72,79.8367,55.7167,0,10.2052,1.62861,1.27415,3.23171,-9.66463,-24.4512,-5.14211,0.261057,9.2352,-3.5061,-20,5.64024
6593.73,79.5833,55.9294,0,10.2651,1.81303,0.910107,4.17683,-7.59146,-26.1585,-5.08942,0.215552,9.17532,-3.56707,-21.2805,5.15244
6593.74,79.2927,56.1311,0,10.0184,2.05732,0.843047,4.78659,-6.06707,-27.2256,-5.08463,0.107776,9.14179,-3.5061,-21.372,5
6593.75,78.9864,56.3189,0,9.86509,2.17468,1.15679,6.67683,-6.58537,-27.7439,-5.0511,-0.0191602,9.02683,-3.20122,-20.9756,5.36585
6593.76,78.6647,56.4958,0,9.77407,2.23695,0.946033,7.2561,-8.41463,-28.9939,-5.05589,-0.124541,9.00288,-3.23171,-20.7927,5.73171
6593.77,78.3209,56.667,0,9.80281,2.46927,1.12326,8.44512,-10.3963,-29.3598,-5.10858,-0.191602,9.10586,-2.28659,-22.622,5.91463
6593.78,77.9769,56.8669,0,9.97526,2.42615,0.955613,9.08537,-10.8841,-31.0366,-5.08463,-0.162861,9.40045,-2.10366,-25.1829,6.43293
6593.79,77.6085,57.0859,0,9.98963,2.5483,1.28134,9.63415,-9.17683,-32.9268,-4.95051,-0.100591,9.41482,-2.07317,-26.8293,6.70732
6593.8,77.2219,57.3329,0,10.3609,2.75906,1.28134,7.68293,-6.79878,-34.2988,-4.80441,-0.0431104,9.50583,-2.10366,-27.7439,6.89024
6593.81,76.8324,57.598,0,10.4351,2.76146,1.64298,3.56707,0.0304878,-35.5793,-4.70621,-0.0215552,9.60163,-1.7378,-27.9878,6.89024
6593.82,76.4712,57.8634,0,10.7249,2.54112,1.29571,2.68293,0.762195,-36.5244,-4.73256,-0.00239502,9.77168,-1.40244,-28.5366,6.76829
6593.83,76.0761,58.1233,0,9.79323,2.53393,1.38672,3.59756,3.84146,-38.3232,-4.62239,-0.153281,9.59924,-0.823171,-27.9878,6.4939
6593.84,75.6571,58.3472,0,9.68785,2.71595,0.967588,4.45122,1.40244,-39.2073,-4.59365,-0.193997,9.27112,-0.304878,-27.4695,5
6593.85,75.1911,58.548,0,9.26154,3.00096,1.3484,3.44512,0.914634,-40.1829,-4.63915,-0.282612,9.21603,0.27439,-27.5305,4.54268
6593.86,74.7387,58.7572,0,9.53457,2.84289,1.01788,4.84756,-3.2622,-42.5,-4.76848,-0.124541,9.64235,0,-29.2378,5.33537
6593.87,74.2508,58.9503,0,9.52978,3.08239,1.20948,6.21951,-4.87805,-44.3598,-4.88824,0.112566,9.79323,-0.182927,-32.4695,6.37195
6593.88,73.7428,59.1425,0,9.44356,3.21172,1.43941,6.64634,-3.75,-45.6402,-4.78525,0.366438,9.65432,-0.670732,-34.1159,7.22561
6593.89,73.2224,59.3607,0,9.5681,3.4153,1.04902,5.15244,-2.46951,-46.189,-4.67268,0.474214,9.78605,-1.7378,-35.8537,8.07927
6593.9,72.6966,59.5999,0,9.80521,3.55181,1.24062,3.44512,-4.48171,-47.2561,-4.55054,0.431104,9.8555,-3.04878,-37.4085,7.7439
6593.91,72.1722,59.8083,0,9.98723,3.72905,1.75315,3.87195,-2.95732,-47.0427,-4.46671,0.249082,9.43877,-3.20122,-37.8354,7.07317
6593.92,71.6471,60.0363,0,10.095,3.88712,1.43701,4.08537,-4.57317,-46.9817,-4.30625,-0.0574805,9.39566,-2.28659,-38.1098,5.85366
6593.93,71.1231,60.2897,0,10.1621,4.14817,1.27415,5.30488,-2.34756,-45.6098,-4.12183,-0.239502,9.36453,-0.640244,-38.9024,4.96951
6593.94,70.5844,60.5532,0,9.90341,4.16733,1.31487,5.33537,-2.37805,-46.9207,-3.9446,-0.277822,9.18011,1.06707,-39.5122,4.2378
6593.95,70.055,60.8603,0,9.7597,3.77455,1.09213,4.2378,-0.182927,-50.4878,-3.74102,-0.273032,9.31184,1.64634,-39.4512,4.63415
6593.96,69.5375,61.2294,0,9.51062,3.47996,0.708926,3.87195,-1.21951,-52.5,-3.52068,-0.237107,9.6663,2.43902,-39.2073,5.70122
6593.97,69.018,61.6528,0,9.28549,3.49673,0.522114,4.78659,-0.548781,-52.6524,-3.24286,-0.136516,9.81958,2.65244,-39.6646,7.10366
6593.98,68.4826,62.0657,0,8.95258,3.57337,0.720901,5.73171,1.34146,-53.0488,-3.10874,-0.0119751,9.50583,3.44512,-38.3232,8.71951
6593.99,67.9834,62.4698,0,9.34776,3.47278,0.821492,7.04268,-1.85976,-53.2622,-3.02491,0.134121,9.36213,3.90244,-35.6402,10
6594,67.4688,62.8616,0,9.55852,3.77934,1.21427,6.70732,-2.31707,-53.4146,-3.07042,0.249082,9.56092,3.93293,-33.628,10.9146
6594.01,66.9694,63.2174,0,9.40524,3.57337,1.09213,6.46341,0.487805,-54.4817,-3.20693,0.308958,9.69025,3.20122,-32.1951,10.8841
6594.02,66.4767,63.5471,0,9.2328,3.25962,0.924478,7.68293,3.56707,-57.5915,-3.19735,0.232317,9.49625,3.23171,-30.7317,10.5488
6594.03,65.9455,63.8987,0,8.82565,3.26681,1.01309,7.95732,4.08537,-60.7622,-3.03449,0.210762,9.49865,3.32317,-28.5976,10
6594.04,65.4016,64.2723,0,9.02683,3.49433,0.934058,8.75,1.09756,-61.4024,-2.8836,0.263452,9.55134,2.28659,-26.5854,9.35976
6594.05,64.8014,64.6645,0,9.00288,4.14338,1.27415,7.62195,-2.22561,-61.0061,-2.75906,0.285007,9.65672,1.03659,-24.9085,9.35976
6594.06,64.2443,65.0349,0,9.20646,4.25834,1.11368,8.90244,-6.34146,-57.622,-2.76385,0.447869,9.57529,0.487805,-24.0244,9.66463
6594.07,63.6912,65.3902,0,9.32621,4.69663,1.12087,8.38415,-3.56707,-54.4512,-2.73751,0.498164,9.48188,-0.121951,-22.2866,10.1524
6594.08,63.1092,65.7086,0,9.04599,4.79962,0.886157,7.22561,0.335366,-56.0366,-2.78301,0.656235,9.29268,-0.853659,-20.8232,10.3354
6594.09,62.5759,65.986,0,8.79691,4.26074,0.802332,7.89634,1.46341,-56.5549,-2.84289,0.701741,9.08431,-0.152439,-18.1098,10.4573
6594.1,62.0445,66.2632,0,8.78014,4.39007,0.804727,10.0915,0.0304878,-55.9756,-2.85726,0.684976,9.29268,-0.487805,-15.9756,10.7012
6594.11,61.4681,66.5359,0,8.25084,4.68226,0.682581,9.66463,-0.731707,-55.5183,-2.92192,0.60594,9.60163,-1.52439,-15.0915,10.5793
6594.12,60.8855,66.7784,0,8.29635,4.96009,0.66821,7.31707,-3.07927,-54.6646,-2.99856,0.476609,9.56092,-2.77439,-14.6951,9.81707
6594.13,60.2264,67.0032,0,8.04487,5.45346,0.804727,10.2439,-7.9878,-57.0122,-3.0273,0.273032,9.53457,-3.62805,-14.0244,8.75
6594.14,59.677,67.2439,0,8.51908,5.11816,0.845442,11.0671,-11.1585,-53.5671,-2.886,0.0550855,9.44835,-4.17683,-13.3537,8.17073
6594.15,59.1641,67.5093,0,8.7538,5.25467,0.905317,12.2256,-13.9939,-51.0061,-2.70158,-0.0526904,9.35255,-4.32927,-12.0427,7.71341
6594.16,58.6953,67.79,0,8.44723,4.88584,0.773591,15.0305,-13.689,-49.4512,-2.51717,-0.170046,9.10347,-3.9939,-10.6402,7.5
6594.17,58.2392,68.107,0,8.55501,4.86189,0.900527,15.3963,-12.0427,-50,-2.3064,-0.205972,9.07952,-2.04268,-8.87195,8.62805
6594.18,57.8248,68.4457,0,8.54064,4.6176,0.883762,15.7317,-15.3049,-49.1463,-2.1148,-0.148491,8.8496,-0.365854,-6.18902,10.3354
6594.19,57.389,68.8359,0,8.50471,5.01517,0.953218,14.7256,-10.3963,-47.8354,-2.03577,0.0143701,8.85678,0.579268,-3.35366,11.6768
6594.2,56.8317,69.4009,0,7.94907,5.63548,0.855022,11.5854,-12.1951,-51.311,-2.1627,0.0718506,9.11305,0.97561,-1.31098,12.9878
6594.21,56.2859,69.9972,0,8.06403,5.64027,0.948428,9.84756,-10.0915,-52.0122,-2.3567,0.150886,9.01246,1.7378,0.731707,13.4756
6594.22,55.777,70.2155,0,8.05685,5.45585,0.809517,10.4878,-12.2256,-51.128,-2.57465,0.117356,9.18969,1.61585,2.2561,13.1402
6594.23,55.2535,70.3696,0,8.14307,5.69296,0.756826,10.9451,-12.6829,-51.9207,-2.79499,-0.0191602,9.60163,0.853659,2.80488,12.3476
6594.24,54.7994,70.5051,0,8.29395,5.32413,0.512534,11.9512,-11.7988,-50.5183,-2.80457,-0.0574805,9.55852,0.0914634,3.53659,11.0061
6594.25,54.3259,70.6377,0,8.08798,5.50854,0.59157,13.0793,-14.1768,-50.2439,-2.71835,-0.0455054,9.3765,-0.457317,5,10.4573
6594.26,53.7404,70.7962,0,7.6473,6.13365,0.63947,11.9207,-13.4756,-53.5061,-2.54591,0.0814307,9.27591,-0.914634,6.18902,10.4878
6594.27,53.2098,70.9417,0,7.92272,5.92288,0.498164,12.5915,-16.6159,-53.0793,-2.45729,0.105381,8.86636,-1.46341,8.71951,11.25
6594.28,52.7,71.0845,0,7.66167,5.80553,0.361648,12.8049,-18.2012,-51.2805,-2.38544,0.217947,8.66518,-2.43902,12.0427,12.0427
6594.29,52.177,71.2399,0,7.61856,6.1576,0.907712,13.1402,-21.4939,-50,-2.36149,0.385598,8.85918,-3.04878,13.1402,13.0793
6594.3,51.7118,71.39,0,7.82932,6.05221,0.706531,14.2683,-20.6707,-47.7134,-2.44052,0.457449,9.17053,-2.77439,13.5976,13.5671
6594.31,51.2613,71.5037,0,7.48923,5.91809,0.507744,14.8476,-20.5793,-45.9146,-2.48364,0.299377,8.85678,-2.83537,15.1524,13.5061
6594.32,50.8266,71.5769,0,7.69999,5.99713,0.301772,18.1098,-19.0549,-46.0366,-2.62494,-0.0119751,8.82804,-2.04268,17.8963,12.9878
6594.33,50.3971,71.6619,0,7.87961,6.19352,0.457449,14.8171,-19.1159,-45.8841,-2.55309,-0.124541,8.8017,-1.03659,20.2744,11.7988
6594.34,50.0071,71.7603,0,7.91314,6.09772,0.409548,13.7805,-17.1646,-43.8415,-2.48603,-0.124541,8.81846,-1.21951,22.2256,10.8537
6594.35,49.5872,71.8532,0,7.66406,6.38033,0.555645,10.9756,-12.7744,-43.2927,-2.4525,-0.0167651,8.68195,-1.15854,23.872,10.3963
6594.36,49.2241,71.9338,0,7.66885,6.03305,0.311353,10.9146,-7.80488,-41.5854,-2.47406,0.126936,8.63405,-1.79878,25.0915,10.1524
6594.37,48.8477,71.9704,0,7.56347,6.26777,0.356858,11.4939,-6.43293,-40.7012,-2.56028,0.126936,8.37059,-1.46341,27.0122,9.78659
6594.38,48.4998,71.9988,0,7.58263,6.35159,0.414338,9.72561,-5.70122,-37.9573,-2.60339,0.114961,8.42568,-1.25,28.872,9.02439
6594.39,48.1601,72.0043,0,7.5515,6.26058,0.308958,8.29268,-5.70122,-38.4146,-2.71595,-0.155676,8.50232,-0.792683,29.6951,8.9939
6594.4,47.7729,71.989,0,7.34073,6.36836,0.201182,8.20122,-9.69512,-41.3415,-2.76625,-0.323328,8.40173,0.0304878,31.9207,8.59756
6594.41,47.3883,71.9697,0,7.04854,6.08335,0.162861,8.38415,-8.5061,-42.1646,-2.72793,-0.308958,8.23647,1.06707,34.6951,8.75
6594.42,46.9692,71.9805,0,6.89766,6.24861,0.378413,7.62195,-8.81098,-43.6585,-2.66566,-0.239502,8.4161,1.46341,37.0122,9.78659
6594.43,46.5365,71.9795,0,6.91203,6.49769,0.114961,5.79268,-9.90854,-43.75,-2.73272,-0.122146,8.48555,1.79878,39.1159,10.5183
6594.44,46.1538,71.9589,0,7.1659,6.27735,-0.177231,6.09756,-8.75,-43.628,-2.78541,0.0143701,8.40412,1.52439,41.5549,11.4634
6594.45,45.7992,71.9145,0,7.47246,6.5384,0.0862207,5.51829,-5.03049,-41.6159,-2.85726,0.124541,8.32509,1.52439,44.4207,11.311
6594.46,45.449,71.8466,0,7.43414,6.48092,0.0335303,6.76829,0.487805,-42.1037,-2.96024,0.184417,8.32748,1.18902,46.6463,11.311
6594.47,45.1393,71.7468,0,7.60658,6.28214,-0.129331,7.71341,3.65854,-41.7988,-3.03449,0.234712,8.14786,0.945122,49.6646,10.3659
6594.48,44.8756,71.6376,0,7.51318,6.02587,0.0239502,10.3049,5.7622,-39.4207,-3.15185,0.263452,8.3179,0.304878,52.1037,9.35976
6594.49,44.5686,71.5023,0,7.22817,6.39231,0.112566,11.2805,4.78659,-38.75,-3.28836,0.251477,8.34185,0.0609756,53.3841,8.78049
6594.5,44.2962,71.3328,0,7.23535,6.13604,-0.244292,9.02439,5.7622,-38.2622,-3.33626,0.210762,8.05445,0.243902,56.4939,8.20122
6594.51,43.9379,71.1475,0,6.77072,6.58391,0.232317,8.44512,3.75,-39.6341,-3.4153,0.186812,8.02571,0.304878,59.5122,8.14024
6594.52,43.6103,70.9472,0,6.85934,6.45218,-0.138911,7.7439,0.243902,-39.1768,-3.51349,0.198787,8.04008,-0.884146,61.6463,8.59756
6594.53,43.2674,70.7104,0,6.72761,6.52164,-0.354463,8.71951,-3.56707,-39.6341,-3.62606,0.182021,7.87722,-1.15854,63.2622,8.53659
6594.54,42.8885,70.4384,0,6.63181,6.9264,-0.0862207,9.93902,-3.9939,-39.6646,-3.79132,0.165256,7.82932,-1.55488,64.8781,8.87195
6594.55,42.5261,70.1269,0,6.54798,6.95035,-0.296982,8.07927,-5.21341,-37.8049,-3.91107,0.234712,7.6449,-1.09756,67.1951,8.84146
6594.56,42.1608,69.7834,0,6.40189,6.89526,-0.170046,5.54878,-6.70732,-37.9878,-4.01405,0.244292,7.48444,-1.67683,69.3598,8.35366
6594.57,41.8601,69.4278,0,6.60307,6.55277,-0.316143,6.12805,-8.41463,-36.9207,-4.10027,0.280217,7.44612,-1.92073,71.7988,8.35366
6594.58,41.5358,69.0719,0,6.60067,6.79467,-0.220342,6.34146,-8.23171,-37.8049,-4.23918,0.296982,7.58503,-2.7439,72.5305,7.95732
6594.59,41.2509,68.6416,0,6.69408,6.50966,-0.371228,7.16463,-9.96951,-37.7744,-4.41881,0.318538,7.23056,-2.92683,73.5976,7.40854
6594.6,40.9737,68.1655,0,6.64857,6.44021,-0.378413,6.09756,-12.0122,-37.8049,-4.54096,0.299377,6.99106,-2.83537,76.0671,6.89024
6594.61,40.6934,67.6996,0,6.64139,6.4929,-0.60115,7.5,-13.3537,-38.1402,-4.70861,0.275427,7.18985,-3.14024,76.7988,6.34146
6594.62,40.3603,67.1859,0,6.65815,6.98627,-0.294587,8.07927,-12.9878,-39.9695,-4.92656,0.205972,7.06531,-2.68293,77.7744,5.91463
6594.63,40.0218,66.6574,0,6.66534,6.92879,-0.313748,6.28049,-12.0732,-41.7378,-5.01517,0.189207,6.96232,-3.01829,79.3902,5.45732
6594.64,39.7004,66.0906,0,6.79228,6.82102,-0.550855,4.69512,-9.2378,-42.7134,-5.18043,0.160466,6.81144,-3.81098,81.0061,5.09146
6594.65,39.4142,65.542,0,6.86413,6.59588,-0.780776,3.59756,-3.32317,-42.3476,-5.27144,0.167651,6.90484,-4.72561,81.4329,4.5122
6594.66,39.1491,64.9538,0,6.93358,6.445,-0.684976,4.84756,-0.823171,-42.7134,-5.42472,0.141306,6.72042,-5.4878,81.1281,4.35976
6594.67,38.8395,64.3364,0,6.74917,6.85934,-0.464634,6.21951,2.04268,-42.5915,-5.5301,0.150886,6.53601,-5.67073,81.4024,4.35976
6594.68,38.4896,63.7125,0,6.53361,7.30481,-0.380808,4.35976,5.33537,-41.7683,-5.64506,0.122146,6.4905,-5.54878,81.4329,4.39024
6594.69,38.1503,63.1386,0,6.33962,7.19943,-0.479004,5.15244,8.56707,-40.4878,-5.76481,0.143701,6.77791,-6.21951,80.1829,4.7561
6594.7,37.7877,62.4667,0,6.11448,7.36229,-0.428708,6.4939,8.53659,-40.1829,-5.90851,0.0622705,6.24142,-6.15854,80.8537,5.12195
6594.71,37.4114,61.8092,0,5.98994,7.41977,-0.529299,5.12195,7.07317,-40.7012,-6.02108,-0.0167651,6.29411,-5.70122,82.1951,5.03049
6594.72,37.0378,61.1589,0,6.01629,7.44851,-0.65384,5.27439,5.15244,-41.2195,-6.23903,-0.0239502,6.41386,-4.96951,81.3719,5.09146
6594.73,36.6594,60.4683,0,6.08814,7.67604,-0.256267,6.7378,4.87805,-41.4329,-6.3492,-0.0574805,6.1576,-3.84146,81.311,5.64024
6594.74,36.2722,59.7713,0,6.08335,7.84369,0.177231,6.21951,6.55488,-41.8293,-6.35159,-0.0431104,5.98036,-3.23171,82.6829,5.7622
6594.75,35.8786,59.1473,0,5.97078,7.97542,0.423918,4.17683,6.64634,-41.2805,-6.37315,-0.0287402,6.24621,-3.65854,82.7439,6.34146
6594.76,35.5109,58.4783,0,5.75523,7.51318,0.220342,1.70732,3.20122,-40.7317,-6.47134,-0.0215552,5.9636,-3.90244,82.3781,7.04268
6594.77,35.1181,57.7357,0,5.3864,7.48444,-0.146096,2.77439,-0.731707,-40.5488,-6.56714,-0.0526904,5.53729,-3.20122,83.1707,7.16463
6594.78,34.7395,57.0644,0,5.42232,7.61856,-0.0790356,2.71341,-6.55488,-39.2988,-6.75395,-0.0287402,5.91091,-2.86585,82.7134,6.98171
6594.79,34.3491,56.4481,0,5.21635,7.89159,-0.155676,3.44512,-12.2561,-37.2256,-6.8761,0.0167651,6.16957,-4.26829,80.3963,6.61585
6594.8,33.9769,55.8052,0,4.95769,7.597,-0.268242,2.9878,-13.9634,-35.4878,-6.96232,0.100591,5.96839,-5.64024,78.8719,6.28049
6594.81,33.5598,55.0837,0,5.00559,8.45921,0.124541,1.7378,-14.3293,-35.7012,-6.94556,0.213157,5.42232,-5.27439,79.6037,6.52439
6594.82,33.1526,54.4057,0,5.1469,8.25803,-0.292192,-0.762195,-14.0854,-38.2317,-6.90484,0.241897,5.46543,-4.42073,80.7317,7.10366
6594.83,32.7602,53.6826,0,5.36245,8.2724,-0.548459,-1.82927,-11.8293,-39.6341,-7.0222,0.165256,5.20438,-3.32317,80.4268,7.95732
6594.84,32.4105,52.9496,0,5.7217,8.24126,-0.55325,0.152439,-10.7927,-39.7866,-7.20422,0.0119751,5.15169,-2.13415,80.3049,8.56707
6594.85,32.0868,52.3018,0,5.79355,8.24605,-0.514929,2.10366,-7.40854,-38.5061,-7.43654,-0.110171,5.59956,-2.19512,78.3537,8.68902
6594.86,31.7879,51.6252,0,5.8678,8.25324,-0.399968,2.0122,-4.48171,-37.2866,-7.51078,-0.110171,5.37682,-2.53049,77.1646,8.56707
6594.87,31.5261,50.8832,0,5.92049,8.15744,-0.416733,-0.0304878,-1.4939,-35.2439,-7.58982,-0.160466,4.98164,-2.2561,78.75,8.5061
6594.88,31.2838,50.1245,0,5.73847,7.99697,-0.725691,0.579268,1.37195,-33.1707,-7.6952,-0.119751,4.83075,-0.640244,80.1219,8.2622
6594.89,31.0321,49.3183,0,5.47501,7.89877,-0.713716,3.9939,5.12195,-32.7134,-7.80537,-0.0526904,4.53617,1.25,80.3354,8.5061
6594.9,30.7432,48.6245,0,5.23791,8.37538,-0.752036,7.19512,6.0061,-31.4939,-7.92272,0.0670605,4.98643,1.7378,78.0488,8.44512
6594.91,30.4221,47.9393,0,4.9553,8.58375,-0.467029,7.37805,3.65854,-31.25,-8.05206,0.213157,4.97206,1.03659,75.4878,8.65854
6594.92,30.0793,47.2011,0,4.62718,8.40412,-0.208367,8.38415,6.15854,-31.7378,-8.10235,0.373623,4.6152,-0.27439,74.5122,9.08537
6594.93,29.709,46.5009,0,4.47629,8.53824,-0.0359253,6.55488,9.35976,-32.8659,-8.16941,0.447869,4.69424,-1.67683,73.4756,9.35976
6594.94,29.3459,45.7888,0,4.45474,8.73703,0.00958008,1.52439,7.28659,-31.5549,-8.2724,0.399968,4.56251,-1.79878,72.2866,9.54268
6594.95,28.9843,45.035,0,4.25834,8.35862,-0.146096,0.396341,3.90244,-32.1037,-8.40173,0.342488,4.30146,-1.34146,72.5,9.2378
6594.96,28.6255,44.3485,0,4.41402,8.45921,-0.126936,2.7439,0.548781,-33.689,-8.44484,0.289797,4.50024,-1.21951,71.3719,8.90244
6594.97,28.2668,43.6556,0,4.54096,8.84241,-0.0814307,3.71951,-2.9878,-33.6585,-8.48555,0.253872,4.36133,-2.13415,71.0061,8.62805
6594.98,27.9155,42.9234,0,4.49785,8.89031,-0.196392,3.32317,-4.57317,-32.9268,-8.48795,0.225132,4.05237,-2.68293,71.8293,8.41463
6594.99,27.568,42.2849,0,4.29667,8.53585,-0.308958,3.59756,-5.09146,-33.0183,-8.67476,0.193997,4.44755,-3.84146,69.7561,8.59756
6595,27.2272,41.5922,0,4.33499,9.00527,-0.160466,2.34756,-6.67683,-30.9756,-8.77056,0.261057,4.11464,-3.68902,68.8415,8.38415
6595.01,26.9073,40.8661,0,4.34696,8.86397,-0.359253,0.0609756,-6.52439,-30.3963,-8.70829,0.189207,3.80329,-3.29268,68.0793,8.20122
6595.02,26.5939,40.1905,0,4.29427,8.63884,-0.481399,0.396341,-5.88415,-31.0061,-8.64123,0.217947,3.87275,-2.19512,67.3781,8.44512
6595.03,26.2746,39.527,0,4.34936,8.96456,-0.617915,1.4939,-3.5061,-31.128,-8.66039,0.249082,3.81287,-2.43902,66.1585,8.90244
6595.04,25.973,38.8138,0,4.34936,8.94779,-0.368833,0.426829,-3.87195,-30.061,-8.71548,0.256267,3.49433,-2.0122,66.8902,8.81098
6595.05,25.6818,38.1558,0,4.28709,8.56459,-0.328118,1.61585,-2.7439,-30.9756,-8.84002,0.234712,3.66677,-2.0122,66.7073,8.81098
6595.06,25.4157,37.5467,0,4.58886,8.89031,-0.490979,2.83537,0.792683,-30.4573,-9.01006,0.256267,3.84161,-3.04878,64.3598,8.96341
6595.07,25.1568,36.8921,0,4.37331,8.69153,-0.349673,2.56098,0.884146,-29.0549,-9.03401,0.227527,3.52786,-3.41463,63.5671,8.56707
6595.08,24.8797,36.2532,0,4.12183,8.80409,-0.414338,3.07927,2.28659,-28.1402,-9.09628,0.237107,3.50391,-3.78049,62.2256,8.29268
6595.09,24.5901,35.5938,0,3.95178,8.87115,-0.538879,4.35976,1.89024,-27.7744,-9.07952,0.280217,3.28836,-5.03049,61.7988,7.95732
6595.1,24.29,34.9272,0,3.83922,8.68913,-0.490979,5.51829,-1.18902,-29.0854,-9.01964,0.390388,3.11592,-4.42073,60.4573,8.10976
6595.11,24.0175,34.3538,0,3.92544,8.95258,-0.364043,4.90854,-5.51829,-26.5549,-9.07233,0.488584,3.43446,-4.54268,58.0183,8.75
6595.12,23.7047,33.7586,0,3.5566,8.53106,-0.244292,3.10976,-4.57317,-29.0854,-9.13221,0.467029,3.25244,-4.7561,56.4024,9.29878
6595.13,23.4375,33.1562,0,3.92783,9.35016,-0.265847,4.14634,-4.35976,-25.3963,-9.21125,0.419128,3.13987,-6.37195,55.9451,8.87195
6595.14,23.1904,32.568,0,3.87035,8.90229,-0.368833,3.47561,-6.03659,-25.3354,-9.35734,0.265847,3.14466,-7.34756,55.2134,7.83537
6595.15,22.9294,31.9627,0,3.72186,8.96695,-0.385598,3.9939,-4.45122,-25.3049,-9.26633,0.227527,2.9315,-7.71341,55.2134,7.34756
6595.16,22.6675,31.361,0,3.67396,9.0412,-0.589175,3.93293,-2.07317,-25.061,-9.31663,0.182021,2.85486,-8.29268,53.8415,6.55488
6595.17,22.4194,30.751,0,3.76737,9.15137,-0.771196,1.0061,-1.55488,-24.7256,-9.35734,0.179626,2.72074,-7.7439,51.7073,7.0122
6595.18,22.1891,30.1404,0,3.74821,8.79691,-0.910107,1.31098,1.58537,-24.8476,-9.29268,0.225132,2.59141,-7.65244,50.7012,7.46951
6595.19,21.9457,29.5436,0,3.6045,8.44723,-0.866997,2.68293,6.82927,-26.7073,-9.30465,0.162861,2.5483,-7.31707,49.4512,8.04878
6595.2,21.7439,28.9795,0,3.97573,9.25915,-1.0083,5.15244,10.4878,-23.2317,-9.41722,0.162861,2.61776,-6.64634,48.1402,8.59756
6595.21,21.5467,28.3784,0,3.87514,9.09628,-0.692161,4.20732,12.1646,-22.8354,-9.48428,0.110171,2.37107,-5.67073,47.2561,9.05488
6595.22,21.3381,27.7864,0,3.81527,9.3286,-0.419128,5.88415,12.622,-22.7134,-9.52739,0.110171,2.31598,-4.42073,47.3476,8.9939
6595.23,21.1464,27.2065,0,3.88951,9.9058,-0.270637,7.19512,11.8598,-19.7561,-9.53697,0.172441,2.26808,-4.5122,47.378,9.26829
6595.24,20.9191,26.6045,0,3.30992,9.68067,-0.0694556,3.71951,11.0671,-18.5671,-9.616,0.167651,2.08606,-4.93902,47.9573,9.17683
6595.25,20.6401,26.0468,0,2.75427,9.49865,-0.0335303,1.92073,9.14634,-18.7805,-9.65672,0.148491,2.18665,-5.30488,47.9268,8.53659
6595.26,20.336,25.5153,0,2.62734,9.2831,-0.0215552,1.98171,6.09756,-21.1585,-9.74773,0.182021,2.22497,-5.4878,46.7073,8.32317
6595.27,20.0105,24.979,0,2.56986,8.83283,-0.153281,0.670732,3.5061,-24.8171,-9.71659,0.215552,2.10043,-5.70122,45.9451,8.68902
6595.28,19.6908,24.4308,0,2.8836,8.90229,-0.529299,-1.40244,1.67683,-28.4146,-9.74054,0.198787,1.95673,-5.39634,45,9.54268
6595.29,19.4624,23.9173,0,3.31231,9.32621,-0.498164,1.37195,-0.701219,-23.0183,-9.76928,0.301772,2.019,-4.57317,42.8354,10.5793
6595.3,19.2741,23.34,0,3.44404,9.25436,-0.373623,2.95732,-0.670732,-21.1585,-9.72617,0.277822,1.6358,-4.45122,42.1951,11.311
6595.31,19.1017,22.7546,0,3.44643,9.44356,-0.416733,3.17073,1.31098,-19.1768,-9.83635,0.179626,1.51605,-3.14024,41.2805,11.4939
6595.32,18.9442,22.2153,0,3.40093,9.25436,-0.62031,2.40854,1.55488,-18.2622,-9.93933,0.0215552,1.6334,-2.40854,39.6951,10.8537
6595.33,18.7781,21.686,0,3.32429,8.71069,-0.950823,3.96341,4.93902,-20.9146,-9.9537,-0.0862207,1.58311,-1.52439,38.0793,9.93902
6595.34,18.576,21.1431,0,3.25004,8.79691,-0.890947,4.02439,6.18902,-23.689,-9.86988,-0.0407153,1.41546,-1.06707,37.561,9.20732
6595.35,18.4284,20.6534,0,3.74342,10.0663,-0.792751,6.12805,8.62805,-18.7805,-9.74773,0,1.5376,-0.152439,37.3476,8.78049
6595.36,18.2714,20.1881,0,3.34584,9.39566,-0.641865,3.96341,8.20122,-18.4146,-9.67109,0.162861,1.54718,-0.0304878,37.5,9.2378
6595.37,18.1005,19.7026,0,3.09197,9.06994,-0.589175,4.35976,11.0366,-18.5671,-9.58966,0.225132,1.36756,-0.243902,38.1707,9.78659
6595.38,17.9176,19.2141,0,2.91234,9.12742,-0.426313,4.78659,12.0427,-17.8354,-9.60642,0.352068,1.27415,-0.213415,38.3841,10.7622
6595.39,17.7173,18.7401,0,2.73511,9.17772,-0.661025,3.71951,10.5488,-17.7439,-9.65432,0.421523,1.25978,-0.853659,37.9878,10.9756
6595.4,17.5216,18.2503,0,2.67524,9.26394,-0.502954,4.35976,6.40244,-16.6768,-9.79803,0.440684,1.12566,-1.52439,37.1951,10.9756
6595.41,17.3032,17.7641,0,2.46687,9.30705,-0.526904,4.08537,1.4939,-16.8293,-9.97526,0.416733,1.07536,-1.40244,36.0976,10.2134
6595.42,17.1001,17.2936,0,2.68242,9.2304,-0.65384,2.92683,-1.95122,-18.4756,-10.1836,0.328118,1.08015,-1.98171,35,9.2378
6595.43,16.8412,16.8332,0,2.45969,8.24366,-0.687371,0.426829,-0.97561,-25.4268,-10.3489,0.158071,1.0562,-1.67683,32.4695,7.86585
6595.44,16.6481,16.3707,0,3.35542,9.27112,-1.38432,1.64634,2.92683,-25.9451,-10.2866,0.102986,0.955613,-2.07317,30.7927,5.94512
6595.45,16.4875,15.9064,0,3.34824,9.89862,-0.840652,1.4939,0.97561,-20.5488,-10.2411,0.00718506,0.859812,-1.89024,30.7927,4.66463
6595.46,16.3882,15.4398,0,3.54463,10.0423,-0.900527,2.40854,0.97561,-16.1585,-10.1214,-0.0862207,0.756826,-1.55488,31.189,4.63415
6595.47,16.2934,14.9861,0,3.20933,9.10586,-1.0586,2.07317,4.96951,-15.8537,-9.88185,-0.0191602,0.716111,-0.914634,32.378,5.45732
6595.48,16.1953,14.5212,0,3.08718,8.89271,-0.876577,4.14634,7.68293,-15.8232,-9.69983,0.0479004,0.5772,-0.823171,32.622,6.85976
6595.49,16.1032,14.122,0,3.02251,8.93103,-0.55325,4.42073,7.7439,-14.5122,-9.58726,0.229922,0.771196,-1.21951,31.8598,8.14024
6595.5,16.0094,13.7033,0,2.95306,9.06275,-0.742456,4.29878,7.59146,-13.5366,-9.62798,0.275427,0.622705,-0.853659,30.4878,9.11585
6595.51,15.9023,13.2883,0,2.87642,9.51302,-0.787961,4.2378,9.20732,-12.5915,-9.81,0.249082,0.5772,-0.457317,29.1463,9.63415
6595.52,15.7796,12.8954,0,2.80936,9.74054,-0.766406,4.26829,10.5183,-12.8963,-10.004,0.225132,0.613125,-0.27439,28.6585,8.93293
6595.53,15.6276,12.514,0,2.59381,9.72617,-0.64905,4.87805,9.84756,-13.7805,-10.0567,0.174836,0.598755,-0.762195,28.5976,8.04878
6595.54,15.3939,12.1379,0,2.17228,9.12023,-0.756826,3.81098,9.96951,-19.2988,-10.119,0.117356,0.55804,-1.28049,28.2622,6.64634
6595.55,15.066,11.7482,0,1.98547,8.97414,-0.864602,-0.213415,7.16463,-27.5,-10.1333,-0.0191602,0.431104,-1.67683,28.3232,5.42683
6595.56,14.8092,11.3473,0,2.48843,9.89622,-0.795146,5.36585,6.25,-24.2683,-10.119,-0.124541,0.311353,-1.85976,27.8659,4.48171
6595.57,14.6064,10.9348,0,2.56267,9.88904,-0.526904,1.92073,7.71341,-20.122,-10.0208,-0.105381,0.186812,-1.21951,27.439,4.11585
6595.58,14.4463,10.5123,0,2.49322,9.68785,-0.5772,3.17073,7.31707,-15.9756,-9.92975,0.0335303,0.0694556,-1.25,27.4085,4.96951
6595.59,14.3083,10.1286,0,2.37586,9.17292,-0.546064,2.31707,7.19512,-14.2378,-9.9058,0.251477,0.165256,-0.884146,27.0732,6.61585
6595.6,14.2003,9.76124,0,2.47885,9.17053,-0.548459,2.13415,4.72561,-12.6829,-9.91538,0.359253,0.170046,-1.64634,26.25,8.23171
6595.61,14.1187,9.447,0,2.62973,9.38129,-0.522114,1.12805,1.61585,-11.311,-9.93694,0.423918,0.337698,-2.07317,24.3902,8.96341
6595.62,14.058,9.13766,0,2.78062,9.63995,-0.63947,0.731707,0.121951,-10.2134,-9.89383,0.385598,0.301772,-3.07927,22.5305,9.57317
6595.63,14.0058,8.80886,0,2.81654,9.65911,-0.802332,1.37195,0.518293,-9.81707,-9.90101,0.306563,0.162861,-2.89634,21.7683,9.32927
6595.64,13.9474,8.49081,0,2.80217,9.64714,-0.843047,2.13415,1.09756,-10.4268,-9.93933,0.153281,0.153281,-2.83537,21.4634,8.44512
6595.65,13.8876,8.1586,0,2.78541,9.64474,-0.907712,2.2561,3.17073,-10.5183,-10.0303,-0.0934058,0.0359253,-2.71341,20.9146,6.7378
6595.66,13.8123,7.7572,0,2.59381,9.46512,-0.905317,1.79878,5.70122,-10.6098,-10.0351,-0.256267,-0.328118,-2.04268,21.25,5.21341
6595.67,13.7224,7.35461,0,2.39502,9.1346,-0.869392,2.19512,6.12805,-10.9756,-10.0088,-0.205972,-0.402363,-0.365854,21.6463,4.66463
6595.68,13.6313,7.00526,0,2.38544,9.04599,-0.900527,3.32317,6.92073,-11.4329,-9.97526,-0.0502954,-0.237107,0.365854,21.3415,4.90854
6595.69,13.5343,6.68298,0,2.44292,9.08191,-0.929268,3.53659,9.42073,-12.8049,-9.94891,0.0455054,-0.179626,1.0061,19.9695,5.79268
6595.7,13.3836,6.36697,0,2.29443,8.40173,-0.720901,-0.487805,12.561,-18.9329,-9.89862,0.141306,-0.208367,0.670732,18.3841,7.13415
6595.71,13.2855,6.07678,0,2.9315,9.49386,-1.18553,3.75,17.7134,-17.7134,-9.9058,0.261057,-0.150886,0.213415,17.8659,7.95732
6595.72,13.2058,5.76274,0,2.81894,10.6698,-0.783171,6.52439,15.3659,-11.2195,-10.0208,0.330513,-0.308958,-0.701219,17.7134,8.53659
6595.73,13.133,5.46419,0,2.39023,10.3537,-0.431104,5.39634,10.1829,-7.0122,-10.1525,0.270637,-0.299377,-1.28049,17.6524,8.32317
6595.74,13.0203,5.16975,0,1.96631,9.68785,-0.574805,3.53659,7.62195,-8.10976,-10.174,0.265847,-0.335303,-1.70732,16.8598,7.40854
6595.75,12.9027,4.88536,0,1.9711,9.73815,-0.692161,2.59146,5.45732,-8.78049,-10.1525,0.201182,-0.342488,-1.79878,16.0976,6.37195
6595.76,12.8112,4.59521,0,2.15312,9.69025,-0.840652,1.76829,3.68902,-8.56707,-10.0878,0.170046,-0.416733,-1.40244,15.3963,5.39634
6595.77,12.7443,4.30208,0,2.31838,9.62319,-0.883762,1.76829,4.78659,-8.32317,-10.0256,0.100591,-0.479004,-0.97561,14.4512,4.81707
6595.78,12.6936,3.97974,0,2.34712,9.331,-0.969983,2.13415,6.92073,-7.9878,-10.0447,0.0119751,-0.661025,-0.548781,14.7256,4.42073
6595.79,12.646,3.64909,0,2.29682,9.09868,-0.962798,2.28659,8.14024,-7.86585,-10.107,0.0407153,-0.759221,0.365854,14.939,4.14634
6595.8,12.5954,3.30732,0,2.22497,9.12742,-0.814307,3.2622,7.13415,-7.31707,-10.107,0.100591,-0.866997,0.27439,15.8841,4.63415
6595.81,12.5482,2.99339,0,2.22258,9.4723,-0.708926,3.10976,5.12195,-6.06707,-10.1645,0.158071,-0.807122,0.304878,16.1585,5.30488
6595.82,12.5068,2.6857,0,2.29443,9.73096,-0.62031,2.07317,2.5,-5.70122,-10.2004,0.205972,-0.838257,0.304878,15.9146,5.7622
6595.83,12.4672,2.43263,0,2.29922,9.79563,-0.646655,2.07317,-0.182927,-5.4878,-10.0375,0.275427,-0.637075,-0.335366,14.8171,6.37195
6595.84,12.4323,2.183,0,2.37825,9.85311,-0.711321,1.43293,-0.365854,-5.82317,-10.016,0.0862207,-0.665815,-0.365854,13.689,6.7378
6595.85,12.4067,1.93916,0,2.45729,9.7142,-0.780776,0.853659,2.10366,-6.21951,-9.84353,0.222737,-0.673001,-0.701219,12.8049,6.4939
6595.86,12.3674,1.70467,0,2.31838,9.64474,-0.64426,1.43293,1.70732,-6.28049,-9.78126,0.301772,-0.670605,-0.823171,12.1646,6.15854
6595.87,12.346,1.48763,0,2.43573,9.50823,-0.665815,1.52439,3.68902,-6.28049,-9.76449,0.349673,-0.63468,-0.640244,11.5549,6.34146
6595.88,12.3059,1.27701,0,2.24174,9.49865,-0.61552,2.22561,2.2561,-6.0061,-9.7621,0.390388,-0.64426,-0.640244,11.0976,6.52439
6595.89,12.2557,1.05726,0,2.15552,9.4244,-0.64905,2.89634,0.792683,-6.31098,-9.80521,0.373623,-0.723296,-0.792683,10.7622,6.98171
6595.9,12.2173,0.795574,0,2.28724,9.45075,-0.893342,1.7378,2.83537,-6.67683,-9.95849,0.296982,-0.958008,-0.731707,11.2805,6.79878
6595.91,12.1695,0.535373,0,2.17707,9.24957,-0.934058,2.92683,3.41463,-6.98171,-10.1237,0.184417,-1.01309,-0.365854,12.2256,6.28049
6595.92,12.1363,0.262537,0,2.3088,9.38369,-0.912502,3.20122,4.35976,-6.76829,-10.2315,0.146096,-1.12805,0.0609756,12.6829,5.94512
6595.93,12.1291,-0.00137123,0,2.50998,9.56331,-0.768801,3.14024,5.73171,-6.0061,-10.2195,0.258662,-1.13524,0.731707,12.7439,5.73171
6595.94,12.1266,-0.23015,0,2.46208,9.58247,-0.689766,2.7439,5.09146,-4.96951,-10.119,0.287402,-1.01309,0.640244,12.378,6.7378
6595.95,12.1114,-0.436805,0,2.31119,9.61361,-0.699346,2.62195,4.02439,-4.45122,-9.94891,0.263452,-0.938848,0.670732,11.6768,7.62195
6595.96,12.077,-0.622785,0,2.11241,9.70222,-0.66342,2.71341,4.2378,-3.87195,-9.86509,0.220342,-0.876577,0.670732,11.189,7.9878
6595.97,12.0157,-0.796879,0,1.90165,9.69504,-0.589175,1.61585,1.98171,-4.20732,-9.78605,0.167651,-0.850232,0.548781,10.7927,7.95732
6595.98,11.9475,-0.954708,0,1.89207,9.64474,-0.725691,1.09756,0.579268,-5.06098,-9.74533,0.143701,-0.807122,0.640244,9.57317,7.83537
6595.99,11.8944,-1.09592,0,2.01182,9.65432,-0.706531,1.03659,-0.121951,-5.06098,-9.72857,0.239502,-0.761616,0.457317,8.71951,7.71341
6596,11.8604,-1.24815,0,2.18665,9.55373,-0.778381,1.0061,-0.487805,-5.51829,-9.75731,0.318538,-0.835862,0,8.56707,7.37805
6596.01,11.8472,-1.40605,0,2.31119,9.37171,-0.775986,1.70732,-0.182927,-5.45732,-9.80521,0.356858,-0.890947,0.243902,8.44512,7.46951
6596.02,11.8528,-1.55667,0,2.44771,9.43638,-0.914897,2.04268,0.670732,-5,-9.93694,0.354463,-0.898132,-0.121951,8.93293,7.34756
6596.03,11.8684,-1.72443,0,2.50998,9.51302,-0.972378,1.64634,1.21951,-4.5122,-10.016,0.268242,-1.0083,-0.182927,8.78049,7.34756
6596.04,11.8845,-1.89522,0,2.47885,9.50104,-1.08494,1.28049,4.17683,-4.14634,-10.0615,0.179626,-1.0562,-0.152439,8.87195,7.07317
6596.05,11.8877,-2.07966,0,2.36149,9.44117,-1.17356,1.79878,7.5,-4.20732,-10.0806,0.167651,-1.14961,-0.365854,9.29878,7.04268
6596.06,11.858,-2.27925,0,2.1651,9.11544,-0.991538,1.09756,9.39024,-6.06707,-9.99681,0.203577,-1.24062,-0.27439,8.9939,7.31707
6596.07,11.672,-2.45177,0,1.45378,8.38496,-0.63947,-0.243902,5.97561,-14.8476,-9.92736,0.294587,-1.14721,-0.182927,8.65854,7.56098
6596.08,11.5279,-2.60159,0,1.95913,8.85678,-0.847837,2.2561,6.52439,-16.3415,-9.86748,0.306563,-1.07057,-0.914634,8.35366,7.77439
6596.09,11.4849,-2.73785,0,2.33275,11.1105,-0.296982,4.72561,4.60366,-5.06098,-9.84114,0.253872,-1.03465,-1.31098,7.65244,7.37805
6596.1,11.4179,-2.87884,0,1.78908,10.1764,-0.431104,2.07317,1.67683,-3.65854,-9.85072,0.222737,-1.08015,-1.92073,6.95122,7.19512
6596.11,11.3552,-3.03485,0,1.83219,9.81,-0.792751,1.92073,0.213415,-4.66463,-9.91778,0.227527,-1.17835,-2.04268,6.34146,6.7378
6596.12,11.3021,-3.19988,0,1.91362,9.56331,-0.759221,1.85976,-0.731707,-5.33537,-9.97526,0.261057,-1.2526,-1.64634,6.03659,6.70732
6596.13,11.2785,-3.3631,0,2.12199,9.51541,-0.802332,1.52439,-1.46341,-5.03049,-10.0902,0.282612,-1.28852,-1.40244,5.94512,6.82927
6596.14,11.28,-3.50922,0,2.28485,9.4723,-0.924478,0.579268,-0.762195,-4.60366,-10.1669,0.270637,-1.2502,-1.18902,5.82317,6.70732
6596.15,11.3113,-3.66637,0,2.39262,9.38608,-1.00591,0.213415,0.609756,-3.41463,-10.2387,0.277822,-1.33642,-0.945122,6.03659,7.04268
6596.16,11.3575,-3.82217,0,2.4046,9.37411,-0.946033,0.914634,2.31707,-2.59146,-10.1333,0.270637,-1.34361,-0.823171,5.51829,6.85976
6596.17,11.3974,-3.96942,0,2.30401,9.44835,-0.804727,1.58537,3.01829,-2.04268,-10.0806,0.251477,-1.32445,-0.701219,5.12195,6.82927
6596.18,11.4038,-4.10629,0,2.09564,9.54176,-0.886157,1.70732,4.26829,-1.95122,-9.96328,0.258662,-1.28373,-0.518293,4.45122,6.98171
6596.19,11.3853,-4.23294,0,1.9735,9.63277,-0.866997,2.37805,3.41463,-2.31707,-9.89143,0.246687,-1.2502,-0.792683,4.17683,7.0122
6596.2,11.3492,-4.35844,0,1.86333,9.6663,-0.804727,2.19512,2.37805,-2.59146,-9.83635,0.234712,-1.25739,-0.518293,4.02439,6.85976
6596.21,11.3023,-4.47067,0,1.825,9.74054,-0.735271,1.37195,1.18902,-3.17073,-9.83395,0.280217,-1.22625,-0.243902,4.35976,7.10366
6596.22,11.2637,-4.5633,0,1.86812,9.67827,-0.778381,0.365854,0.457317,-3.10976,-9.88664,0.268242,-1.16398,-0.396341,3.93293,7.10366
6596.23,11.2235,-4.64523,0,1.84417,9.69025,-0.732876,-0.213415,0.762195,-3.01829,-9.89622,0.244292,-1.12805,-0.27439,3.38415,7.2561
6596.24,11.1876,-4.73302,0,1.87291,9.67588,-0.692161,-0.182927,0.213415,-3.07927,-9.9561,0.215552,-1.16877,-0.518293,3.07927,7.56098
6596.25,11.16,-4.83305,0,1.90883,9.57289,-0.809517,-0.0304878,-0.823171,-3.01829,-9.95849,0.205972,-1.21906,-0.670732,2.59146,7.2561
6596.26,11.1466,-4.94817,0,1.99266,9.46751,-0.855022,0.152439,-0.152439,-3.01829,-9.96568,0.227527,-1.29571,-0.304878,2.53049,7.2561
6596.27,11.1377,-5.06732,0,2.03816,9.42201,-0.862207,0.762195,-0.0304878,-3.2622,-9.92496,0.265847,-1.346,-0.457317,3.01829,7.13415
6596.28,11.1467,-5.19166,0,2.14354,9.48667,-0.826282,0.182927,-0.243902,-2.77439,-9.94412,0.285007,-1.3963,-0.0609756,3.14024,7.37805
6596.29,11.172,-5.3,0,2.20581,9.51302,-0.886157,-0.243902,0.152439,-2.19512,-9.93694,0.263452,-1.35319,0.426829,3.2622,7.34756
6596.3,11.1864,-5.39187,0,2.10283,9.58008,-0.814307,-0.182927,0.762195,-1.79878,-9.92496,0.299377,-1.3005,0.457317,3.23171,7.13415
6596.31,11.1887,-5.49763,0,2.02858,9.6184,-0.857417,-0.701219,0.0914634,-1.7378,-9.89622,0.273032,-1.35558,0.701219,2.77439,7.04268
6596.32,11.1916,-5.59514,0,2.03098,9.58726,-0.878972,0.182927,-0.0609756,-1.79878,-9.85072,0.234712,-1.31247,0.670732,2.31707,6.98171
6596.33,11.1834,-5.67775,0,2.00463,9.61121,-0.833467,0.640244,-0.335366,-2.28659,-9.81719,0.232317,-1.25978,0.609756,2.16463,7.0122
6596.34,11.1845,-5.77698,0,2.0669,9.55134,-0.962798,0.640244,-0.731707,-2.37805,-9.82197,0.189207,-1.32445,0.792683,1.98171,6.67683
6596.35,11.2015,-5.8636,0,2.15791,9.53218,-0.823887,0.304878,-0.762195,-2.19512,-9.87227,0.186812,-1.29331,0.762195,1.76829,7.07317
6596.36,11.2362,-5.94747,0,2.21539,9.54176,-0.883762,-0.27439,0.457317,-1.67683,-9.89622,0.237107,-1.31487,1.0061,1.95122,6.85976
6596.37,11.2625,-6.02559,0,2.12678,9.57768,-0.821492,0,1.67683,-1.31098,-9.87227,0.249082,-1.30768,0.853659,2.0122,7.10366
6596.38,11.2724,-6.0791,0,2.05972,9.60882,-0.843047,-0.121951,1.31098,-1.46341,-9.9058,0.277822,-1.23104,0.609756,1.82927,7.19512
6596.39,11.2842,-6.13927,0,2.09564,9.57529,-0.938848,0.426829,1.40244,-1.7378,-9.91059,0.285007,-1.24062,0.457317,1.34146,7.16463
6596.4,11.3075,-6.22679,0,2.20821,9.55373,-0.962798,1.06707,2.92683,-2.04268,-9.88904,0.258662,-1.31966,-0.0609756,1.18902,6.95122
6596.41,11.3357,-6.34499,0,2.18905,9.50104,-1.0083,1.06707,4.17683,-1.7378,-9.97047,0.244292,-1.3963,0.0914634,0.762195,6.76829
6596.42,11.3487,-6.50717,0,2.09804,9.48907,-0.926873,1.37195,5.18293,-1.79878,-9.99681,0.225132,-1.56155,0.426829,0.853659,6.76829
6596.43,11.3535,-6.6485,0,2.02858,9.51302,-0.840652,0.97561,3.71951,-1.55488,-10.0327,0.287402,-1.59508,0.731707,1.21951,6.85976
6596.44,11.3407,-6.76413,0,1.93518,9.59684,-0.785566,0.457317,1.70732,-1.46341,-10.0543,0.399968,-1.57353,0.914634,1.52439,7.07317
6596.45,11.2949,-6.84408,0,1.75555,9.7142,-0.718506,-0.365854,0.426829,-1.15854,-10.0639,0.407153,-1.45617,0.426829,1.31098,7.65244
6596.46,11.2394,-6.92098,0,1.68849,9.74773,-0.737666,-0.365854,-2.28659,-1.64634,-10.0782,0.342488,-1.46336,-0.243902,1.31098,7.59146
6596.47,11.1938,-6.96385,0,1.75794,9.75731,-0.835862,-0.792683,-3.56707,-2.13415,-10.1046,0.229922,-1.34121,-0.701219,0.670732,7.10366
6596.48,11.1605,-7.05946,0,1.84896,9.63037,-0.855022,-0.670732,-4.48171,-2.65244,-10.0615,0.172441,-1.41067,-0.640244,0,6.64634
6596.49,11.15,-7.12821,0,1.98068,9.64953,-0.826282,-0.853659,-4.02439,-2.16463,-9.96807,0.174836,-1.40109,-0.396341,-0.579268,6.28049
6596.5,11.1562,-7.1783,0,2.05972,9.57768,-0.835862,-1.12805,-3.04878,-1.95122,-9.86509,0.256267,-1.35319,0.213415,-0.670732,6.52439
6596.51,11.1878,-7.24495,0,2.15791,9.53697,-0.857417,-1.37195,-2.83537,-1.4939,-9.8076,0.232317,-1.35798,1.06707,-0.243902,6.7378
6596.52,11.2352,-7.26268,0,2.19623,9.44596,-0.869392,-1.18902,-2.46951,-1.31098,-9.77647,0.208367,-1.27415,1.06707,-0.213415,6.52439
6596.53,11.2831,-7.29784,0,2.19384,9.45554,-0.821492,-0.945122,-2.07317,-1.21951,-9.83635,0.251477,-1.31247,1.7378,0.0609756,6.28049
6596.54,11.3416,-7.29698,0,2.2106,9.48188,-0.862207,-0.518293,-1.18902,-0.914634,-9.9058,0.287402,-1.26697,1.89024,0.0914634,6.0061
6596.55,11.3952,-7.29278,0,2.17468,9.54176,-0.919688,-0.182927,-1.21951,-0.670732,-9.93215,0.301772,-1.26457,1.46341,0,6.12805
6596.56,11.4586,-7.2873,0,2.18905,9.57529,-0.965193,-0.0304878,-0.213415,-0.396341,-9.94412,0.352068,-1.26218,1.64634,-0.182927,5.85366
6596.57,11.4907,-7.28441,0,2.12917,9.58487,-0.878972,0.579268,1.09756,-0.792683,-9.93215,0.376018,-1.26457,1.06707,-0.243902,5.79268
6596.58,11.5147,-7.30982,0,2.07648,9.57768,-0.775986,1.09756,1.34146,-0.640244,-9.87946,0.414338,-1.31726,0.884146,-0.426829,6.03659
6596.59,11.4965,-7.34024,0,1.91841,9.69743,-0.799937,-0.426829,2.13415,-0.426829,-9.91299,0.385598,-1.34121,0.670732,-0.518293,6.25
6596.6,11.4551,-7.33973,0,1.81063,9.67827,-0.799937,-1.09756,1.70732,-0.701219,-9.89622,0.306563,-1.27415,0.152439,-0.670732,6.28049
6596.61,11.4179,-7.35429,0,1.81303,9.63995,-0.814307,-0.823171,0.762195,-0.97561,-9.9082,0.244292,-1.31008,-0.457317,-0.548781,6.25
6596.62,11.4001,-7.39926,0,1.92081,9.6639,-0.845442,-0.97561,-0.27439,-1.28049,-9.87706,0.227527,-1.37235,-0.213415,-0.457317,5.82317
6596.63,11.4039,-7.44581,0,2.05972,9.59205,-0.814307,-0.731707,-0.853659,-1.64634,-9.88425,0.244292,-1.3963,-0.152439,-0.670732,6.21951
6596.64,11.428,-7.50493,0,2.18665,9.5705,-0.819097,-0.853659,-1.25,-1.64634,-9.88185,0.301772,-1.42264,0.304878,-0.487805,6.4939
6596.65,11.4656,-7.587,0,2.17947,9.53457,-0.804727,-1.21951,0.487805,-1.09756,-9.88904,0.277822,-1.4921,0.487805,-0.548781,6.85976
6596.66,11.507,-7.64149,0,2.10283,9.51781,-0.816702,-1.12805,0.487805,-0.457317,-9.91059,0.205972,-1.43941,1.06707,-0.426829,6.52439
6596.67,11.5361,-7.67281,0,2.07888,9.53697,-0.807122,-0.579268,0.0914634,-0.548781,-9.94173,0.249082,-1.40588,1.58537,-0.487805,6.95122
6596.68,11.5519,-7.68378,0,2.07169,9.57529,-0.816702,-0.670732,0.0304878,-0.884146,-9.94173,0.220342,-1.36756,1.46341,-0.701219,6.85976
6596.69,11.5675,-7.68682,0,2.05493,9.56092,-0.826282,-0.640244,0.0609756,-0.731707,-9.92975,0.282612,-1.3484,1.06707,-0.823171,6.95122
6596.7,11.5653,-7.69141,0,1.9735,9.5681,-0.847837,-1.09756,0.0609756,-0.609756,-9.90341,0.332908,-1.3484,1.18902,-0.670732,6.85976
6596.71,11.5569,-7.67761,0,1.95434,9.58487,-0.807122,-0.701219,-0.548781,-0.701219,-9.90101,0.383203,-1.2981,1.12805,-1.12805,6.76829
6596.72,11.5575,-7.65867,0,2.01421,9.61361,-0.740061,-0.457317,-0.823171,-0.945122,-9.92017,0.340093,-1.28134,1.12805,-1.21951,6.7378
6596.73,11.564,-7.64939,0,2.019,9.61361,-0.831072,-1.03659,-0.823171,-0.609756,-9.89622,0.330513,-1.30289,1.34146,-1.37195,6.98171
6596.74,11.5758,-7.61979,0,2.05493,9.58726,-0.855022,-0.792683,-1.28049,-0.823171,-9.89862,0.344883,-1.23823,1.28049,-1.37195,7.19512
6596.75,11.6086,-7.61181,0,2.1148,9.53936,-0.819097,-0.914634,-1.70732,-0.609756,-9.87227,0.294587,-1.29571,0.97561,-1.61585,7.31707
6596.76,11.6489,-7.60017,0,2.12917,9.53457,-0.759221,-1.09756,-1.12805,-0.457317,-9.89383,0.325723,-1.28373,0.97561,-1.7378,7.0122
6596.77,11.6852,-7.59913,0,2.11241,9.53218,-0.785566,-0.823171,-0.548781,-0.396341,-9.9058,0.256267,-1.31966,0.914634,-1.43293,7.0122
6596.78,11.7417,-7.61147,0,2.16749,9.5226,-0.804727,-1.0061,-0.548781,-0.243902,-9.89143,0.265847,-1.36516,1.03659,-1.89024,6.92073
6596.79,11.7894,-7.62071,0,2.12917,9.54655,-0.780776,-0.853659,0.640244,0.0914634,-9.86509,0.249082,-1.35079,1.09756,-1.67683,6.76829
6596.8,11.8011,-7.6318,0,2.04056,9.59445,-0.787961,-0.792683,0.457317,-0.0609756,-9.87467,0.299377,-1.36037,1.58537,-1.70732,6.82927
6596.81,11.8064,-7.66374,0,2.03337,9.57768,-0.783171,-0.914634,-0.731707,-0.365854,-9.8579,0.285007,-1.43222,1.4939,-1.76829,6.89024
6596.82,11.8236,-7.68318,0,2.08367,9.59684,-0.759221,-0.945122,-0.670732,-0.365854,-9.91059,0.318538,-1.3939,1.34146,-1.25,6.89024
6596.83,11.8582,-7.69261,0,2.13396,9.59205,-0.723296,-1.03659,-0.762195,-0.213415,-9.9058,0.340093,-1.36756,1.25,-1.40244,7.0122
6596.84,11.902,-7.70731,0,2.19863,9.52739,-0.761616,-0.884146,-0.0609756,-0.548781,-9.91778,0.337698,-1.38911,1.4939,-1.4939,7.19512
6596.85,11.9517,-7.70865,0,2.16031,9.54655,-0.862207,-1.06707,1.03659,0.0304878,-9.93215,0.337698,-1.35079,1.7378,-1.98171,7.07317
6596.86,11.9717,-7.69875,0,2.08127,9.55613,-0.871787,-1.15854,1.70732,0,-9.91538,0.371228,-1.30768,1.52439,-2.0122,7.28659
6596.87,11.9972,-7.69424,0,2.10522,9.55373,-0.843047,-1.09756,1.43293,-0.0609756,-9.89383,0.356858,-1.32205,1.64634,-2.5,7.22561
6596.88,12.0246,-7.68434,0,2.10283,9.5226,-0.840652,-1.09756,1.12805,0.0304878,-9.89622,0.376018,-1.3005,1.34146,-2.5,7.5
6596.89,12.0385,-7.67119,0,2.06211,9.47949,-0.775986,-0.884146,-0.0914634,-0.0914634,-9.88664,0.349673,-1.28613,1.03659,-2.28659,7.5
6596.9,12.0431,-7.6763,0,2.06451,9.55134,-0.706531,-1.25,-1.03659,-0.335366,-9.90341,0.275427,-1.35558,0.579268,-2.34756,6.98171
6596.91,12.0656,-7.67641,0,2.10283,9.46272,-0.696951,-1.7378,-1.82927,-0.304878,-9.86509,0.263452,-1.33163,0.457317,-1.82927,6.70732
6596.92,12.1381,-7.70572,0,2.21779,9.43638,-0.792751,-1.70732,-2.28659,0.0304878,-9.82677,0.256267,-1.42504,0.97561,-1.7378,6.52439
6596.93,12.2161,-7.74026,0,2.27287,9.42201,-0.838257,-1.25,-2.86585,0.27439,-9.80521,0.273032,-1.4442,1.0061,-1.7378,6.31098
6596.94,12.3195,-7.74502,0,2.39502,9.35734,-0.876577,-1.09756,-2.71341,0.548781,-9.79803,0.306563,-1.3484,1.43293,-1.58537,6.46341
6596.95,12.4344,-7.77052,0,2.50759,9.33339,-0.972378,-0.213415,-1.70732,0.823171,-9.82437,0.249082,-1.42504,1.43293,-1.79878,6.18902
6596.96,12.5263,-7.7765,0,2.54112,9.44835,-0.855022,-0.0609756,0.731707,1.37195,-9.84114,0.232317,-1.36516,1.76829,-1.82927,6.0061
6596.97,12.6074,-7.77341,0,2.52675,9.49625,-0.864602,0.27439,2.71341,1.61585,-9.88904,0.237107,-1.34121,2.10366,-1.85976,6.03659
6596.98,12.6764,-7.78925,0,2.49082,9.56331,-0.895737,0.670732,4.08537,1.85976,-9.88185,0.253872,-1.40827,2.31707,-2.0122,5.91463
6596.99,12.7419,-7.78527,0,2.48124,9.59205,-0.759221,0.823171,4.63415,1.4939,-9.89622,0.287402,-1.34121,2.37805,-1.89024,6.03659
6597,12.7845,-7.77777,0,2.3543,9.6184,-0.838257,0.548781,4.48171,1.21951,-9.9058,0.368833,-1.32924,2.2561,-1.89024,6.46341
6597.01,12.8211,-7.76172,0,2.29922,9.52499,-0.828677,0.609756,4.54268,1.09756,-9.90341,0.443079,-1.2981,1.76829,-1.79878,6.98171
6597.02,12.825,-7.73377,0,2.13875,9.57289,-0.766406,0.823171,3.71951,1.15854,-9.96807,0.364043,-1.26936,1.06707,-1.40244,6.70732
6597.03,12.8046,-7.73085,0,2.03098,9.59924,-0.696951,0.396341,2.92683,1.0061,-9.98963,0.323328,-1.3484,-0.121951,-1.34146,6.92073
6597.04,12.7799,-7.74039,0,2.02619,9.5681,-0.744851,-0.0609756,0.97561,0.792683,-9.97286,0.328118,-1.38193,-0.609756,-0.97561,6.28049
6597.05,12.7539,-7.76516,0,2.04295,9.5681,-0.821492,-0.609756,-0.243902,0.548781,-9.92736,0.349673,-1.41546,-1.0061,-0.823171,5.79268
6597.06,12.7461,-7.80142,0,2.1148,9.49865,-0.907712,0.0914634,0.0609756,0.27439,-9.89622,0.361648,-1.43222,-1.31098,-0.518293,6.09756
6597.07,12.7678,-7.83112,0,2.22258,9.53936,-0.819097,0,0.0304878,0.0304878,-9.86748,0.313748,-1.42264,-1.31098,-0.640244,6.09756
6597.08,12.7957,-7.85553,0,2.27766,9.57529,-0.852627,-0.335366,0.548781,-0.243902,-9.88425,0.277822,-1.41306,-1.15854,-0.457317,6.37195
6597.09,12.8073,-7.8616,0,2.26329,9.58487,-0.761616,-0.0609756,0.457317,-0.731707,-9.88664,0.277822,-1.37953,-1.28049,-0.701219,6.31098
6597.1,12.8071,-7.87701,0,2.22258,9.62558,-0.716111,-0.365854,0.579268,-0.762195,-9.91059,0.251477,-1.41306,-1.0061,-1.03659,6.61585
6597.11,12.812,-7.88144,0,2.27048,9.5202,-0.835862,-0.182927,0.609756,-1.37195,-9.94412,0.193997,-1.38911,-1.21951,-0.97561,6.46341
6597.12,12.8358,-7.89333,0,2.35909,9.48188,-0.785566,0.0304878,0.823171,-1.28049,-9.99202,0.210762,-1.41546,-1.25,-0.762195,6.34146
6597.13,12.8706,-7.92244,0,2.42136,9.46751,-0.723296,-0.0304878,0.701219,-1.28049,-9.9537,0.232317,-1.45378,-0.792683,-0.670732,6.40244
6597.14,12.9392,-7.92039,0,2.43813,9.42201,-0.780776,-0.0914634,1.34146,-0.518293,-9.92736,0.294587,-1.37714,-0.823171,-0.579268,6.52439
6597.15,12.9996,-7.95146,0,2.3567,9.46033,-0.804727,-0.304878,2.43902,0.121951,-9.9082,0.299377,-1.45857,-0.701219,-0.762195,7.19512
6597.16,13.0287,-7.97287,0,2.28724,9.50104,-0.804727,-0.579268,2.86585,0.365854,-9.88185,0.320933,-1.43701,-0.426829,-0.853659,7.34756
6597.17,13.0169,-7.98077,0,2.1627,9.48907,-0.795146,-0.182927,2.2561,-0.0304878,-9.87946,0.337698,-1.40588,-0.609756,-0.945122,7.28659
6597.18,12.9857,-7.9756,0,2.10762,9.55613,-0.768801,-0.518293,1.18902,-0.335366,-9.9082,0.289797,-1.37474,-0.823171,-1.18902,6.67683
6597.19,12.9586,-7.97619,0,2.11959,9.58247,-0.852627,-0.701219,0.640244,-0.97561,-9.89622,0.251477,-1.38911,-1.0061,-1.06707,6.64634
6597.2,12.939,-7.99423,0,2.18665,9.59445,-0.855022,-0.365854,0.243902,-1.67683,-9.82916,0.306563,-1.42264,-1.21951,-0.792683,6.61585
6597.21,12.9263,-7.99107,0,2.26329,9.58726,-0.790356,-0.579268,-0.243902,-2.16463,-9.85072,0.313748,-1.37714,-1.52439,-0.426829,6.92073
6597.22,12.9347,-7.98363,0,2.37346,9.49625,-0.720901,-0.579268,0.152439,-2.0122,-9.86509,0.299377,-1.36995,-1.46341,-0.365854,6.95122
6597.23,12.9543,-7.98165,0,2.41657,9.43877,-0.811912,-0.335366,0,-1.85976,-9.91778,0.296982,-1.38672,-1.79878,-0.640244,7.22561
6597.24,12.985,-7.9656,0,2.44292,9.45554,-0.790356,-0.0304878,0.945122,-1.46341,-9.93454,0.237107,-1.35798,-1.46341,-0.426829,7.07317
6597.25,13.0299,-7.94176,0,2.4501,9.42919,-0.764011,-0.548781,0.914634,-1.03659,-9.91778,0.261057,-1.33163,-1.67683,-0.609756,6.85976
6597.26,13.0781,-7.92145,0,2.44292,9.40045,-0.828677,-0.152439,1.52439,-0.914634,-9.86509,0.251477,-1.32924,-1.64634,-0.640244,6.85976
6597.27,13.1313,-7.9073,0,2.5028,9.3789,-0.874182,-0.182927,1.70732,-1.09756,-9.86748,0.299377,-1.34121,-1.61585,-0.579268,6.70732
6597.28,13.1889,-7.91402,0,2.50759,9.4268,-0.871787,-0.0609756,2.59146,-0.853659,-9.81,0.323328,-1.37714,-1.82927,-0.487805,6.85976
6597.29,13.2207,-7.90825,0,2.4046,9.45793,-0.895737,0.27439,3.53659,-0.853659,-9.82197,0.308958,-1.35319,-1.37195,-0.548781,6.7378
6597.3,13.2229,-7.90648,0,2.28724,9.53936,-0.819097,0.0914634,3.62805,-0.792683,-9.85072,0.313748,-1.36516,-1.79878,-0.27439,6.61585
6597.31,13.2181,-7.93309,0,2.26808,9.49865,-0.780776,0.640244,2.77439,-1.18902,-9.92257,0.292192,-1.43701,-1.4939,-0.426829,6.34146
6597.32,13.203,-7.94154,0,2.21779,9.56092,-0.708926,0.426829,2.10366,-1.0061,-9.95131,0.282612,-1.40348,-1.82927,-0.182927,6.82927
6597.33,13.1984,-7.93556,0,2.26569,9.5681,-0.737666,0.121951,1.31098,-0.914634,-9.96807,0.270637,-1.37953,-1.64634,-0.0609756,6.43293
6597.34,13.2015,-7.92377,0,2.31359,9.53936,-0.797541,-0.426829,1.28049,-1.12805,-9.95131,0.256267,-1.36277,-1.55488,-0.304878,6.61585
6597.35,13.2027,-7.92771,0,2.29682,9.54176,-0.785566,-0.304878,1.09756,-1.03659,-9.93694,0.215552,-1.39151,-1.25,-0.304878,6.7378
6597.36,13.2009,-7.93932,0,2.28245,9.51302,-0.699346,-0.579268,0.914634,-1.15854,-9.93694,0.189207,-1.41067,-1.43293,-0.487805,6.64634
6597.37,13.1936,-7.95226,0,2.27048,9.50583,-0.732876,-1.12805,0.731707,-1.46341,-9.92496,0.220342,-1.41067,-1.21951,-0.27439,6.46341
6597.38,13.165,-7.95376,0,2.15791,9.50583,-0.740061,-0.579268,1.21951,-1.82927,-9.92496,0.225132,-1.38911,-1.52439,-0.0304878,6.67683
6597.39,13.1394,-7.9386,0,2.18905,9.49386,-0.864602,-0.365854,1.34146,-2.16463,-9.90341,0.277822,-1.35079,-1.58537,-0.457317,6.46341
6597.4,13.1193,-7.94598,0,2.23695,9.50583,-0.821492,-0.487805,1.15854,-2.31707,-9.89622,0.304167,-1.3939,-1.67683,-0.152439,6.55488
6597.41,13.1002,-7.95119,0,2.27048,9.55613,-0.759221,-0.182927,1.28049,-2.53049,-9.9082,0.318538,-1.3963,-1.46341,-0.670732,6.64634
6597.42,13.0877,-7.94236,0,2.30401,9.53697,-0.778381,-0.518293,1.34146,-2.43902,-9.88185,0.316143,-1.36037,-1.52439,-0.579268,6.7378
6597.43,13.0794,-7.92851,0,2.34472,9.53457,-0.843047,-0.731707,0.762195,-2.56098,-9.92496,0.304167,-1.35079,-1.46341,-0.701219,6.58537
6597.44,13.0719,-7.92589,0,2.33514,9.51302,-0.740061,-0.426829,0.823171,-2.46951,-9.92975,0.263452,-1.37714,-1.28049,-0.609756,6.7378
6597.45,13.0786,-7.9268,0,2.42136,9.48667,-0.737666,-0.579268,1.21951,-2.34756,-9.86988,0.229922,-1.37714,-1.43293,-0.823171,6.92073
6597.46,13.0833,-7.9121,0,2.41418,9.41961,-0.795146,-0.182927,1.40244,-2.59146,-9.92736,0.208367,-1.33882,-1.34146,-1.21951,6.64634
6597.47,13.0895,-7.90351,0,2.39741,9.46751,-0.804727,-0.213415,2.65244,-2.19512,-9.92257,0.227527,-1.35319,-1.43293,-1.34146,6.67683
6597.48,13.088,-7.87962,0,2.34712,9.4723,-0.826282,-0.579268,3.44512,-2.22561,-9.92736,0.225132,-1.30768,-1.4939,-1.18902,6.46341
6597.49,13.0912,-7.87513,0,2.36388,9.46512,-0.821492,-0.701219,2.77439,-2.07317,-9.90101,0.256267,-1.35798,-1.55488,-1.18902,6.34146
6597.5,13.08,-7.87727,0,2.29443,9.49865,-0.797541,-0.640244,2.56098,-2.34756,-9.88904,0.296982,-1.37474,-1.7378,-1.03659,6.43293
6597.51,13.0606,-7.88148,0,2.23695,9.55373,-0.761616,-0.701219,2.71341,-2.22561,-9.87706,0.296982,-1.37953,-1.79878,-1.09756,6.52439
6597.52,13.0285,-7.89705,0,2.18186,9.55613,-0.780776,-0.609756,2.31707,-2.83537,-9.87706,0.285007,-1.41067,-1.92073,-0.97561,6.76829
6597.53,12.9988,-7.88799,0,2.19384,9.51781,-0.809517,-0.823171,1.64634,-2.92683,-9.8603,0.253872,-1.34361,-2.04268,-1.03659,6.79878
6597.54,12.9728,-7.86745,0,2.24174,9.49146,-0.795146,-0.884146,1.46341,-3.29268,-9.8603,0.193997,-1.30289,-2.16463,-1.43293,6.7378
6597.55,12.9509,-7.85371,0,2.31119,9.52739,-0.785566,-1.09756,1.18902,-3.65854,-9.9058,0.177231,-1.32445,-2.19512,-1.58537,6.89024
6597.56,12.9493,-7.85213,0,2.43573,9.50104,-0.869392,-1.28049,2.0122,-3.29268,-9.9082,0.174836,-1.36277,-2.10366,-1.70732,6.7378
6597.57,12.9537,-7.83843,0,2.45969,9.48667,-0.816702,-1.28049,2.86585,-3.07927,-9.93454,0.205972,-1.32445,-1.92073,-1.67683,7.10366
6597.58,12.9649,-7.84253,0,2.46927,9.46751,-0.814307,-1.03659,3.07927,-2.71341,-9.91299,0.217947,-1.37953,-1.85976,-1.52439,6.92073
6597.59,12.9755,-7.84307,0,2.47645,9.49865,-0.814307,-0.670732,4.11585,-2.71341,-9.9058,0.203577,-1.36756,-1.85976,-1.55488,7.10366
6597.6,12.9682,-7.84444,0,2.34472,9.50583,-0.797541,-0.579268,5.18293,-2.77439,-9.86748,0.215552,-1.36516,-1.7378,-1.61585,7.28659
6597.61,12.9446,-7.86042,0,2.24413,9.50823,-0.840652,-0.548781,4.45122,-3.10976,-9.89383,0.172441,-1.41546,-1.70732,-1.43293,7.16463
6597.62,12.918,-7.87309,0,2.25132,9.4723,-0.819097,-0.945122,3.35366,-3.62805,-9.87706,0.198787,-1.40827,-1.7378,-1.70732,6.85976
6597.63,12.8857,-7.90422,0,2.23455,9.46991,-0.907712,-0.762195,3.32317,-4.05488,-9.87227,0.205972,-1.47054,-1.31098,-1.61585,7.13415
6597.64,12.8579,-7.92817,0,2.29682,9.49625,-0.859812,-0.97561,4.11585,-4.32927,-9.87946,0.177231,-1.45617,-0.579268,-1.76829,7.31707
6597.65,12.8273,-7.92758,0,2.30401,9.52499,-0.802332,-1.06707,5.18293,-4.66463,-9.89143,0.213157,-1.37714,-0.609756,-2.10366,7.59146
6597.66,12.7891,-7.92101,0,2.23216,9.56571,-0.792751,-1.18902,5.06098,-4.54268,-9.87227,0.193997,-1.35319,-1.03659,-1.89024,7.83537
6597.67,12.7532,-7.91889,0,2.23695,9.51781,-0.787961,-1.25,4.14634,-4.57317,-9.92496,0.134121,-1.37474,-1.15854,-2.40854,7.89634
6597.68,12.7131,-7.91764,0,2.20102,9.52499,-0.754431,-1.46341,3.68902,-4.63415,-9.93694,0.0934058,-1.37953,-1.0061,-2.77439,8.10976
6597.69,12.6751,-7.93713,0,2.22018,9.50344,-0.737666,-1.58537,3.04878,-4.78659,-9.95131,0.0694556,-1.46815,-0.853659,-3.07927,8.04878
6597.7,12.6335,-7.96172,0,2.22497,9.56092,-0.795146,-1.7378,3.32317,-5.12195,-9.94173,0.0526904,-1.4897,-0.457317,-2.86585,7.95732
6597.71,12.5927,-7.99514,0,2.22976,9.55134,-0.749641,-1.92073,2.83537,-5.21341,-9.9537,0.0862207,-1.52323,0.0609756,-2.2561,8.2622
6597.72,12.5426,-8.01573,0,2.16989,9.54415,-0.759221,-2.46951,1.09756,-5.54878,-9.97286,0.174836,-1.48252,0.548781,-2.2561,8.75
6597.73,12.4931,-8.03652,0,2.14594,9.57529,-0.742456,-3.07927,0.0914634,-5.2439,-10.0064,0.136516,-1.4897,0.548781,-2.04268,9.02439
6597.74,12.4358,-8.05759,0,2.09325,9.58487,-0.773591,-3.93293,-0.884146,-5.4878,-10.0495,0.0550855,-1.50407,0.457317,-2.2561,8.56707
6597.75,12.3768,-8.07805,0,2.12678,9.61361,-0.756826,-4.17683,-1.18902,-6.09756,-10.0064,0.0502954,-1.50168,0.548781,-2.56098,8.65854
6597.76,12.3195,-8.09606,0,2.17707,9.52739,-0.802332,-4.2378,-1.28049,-6.85976,-9.96807,0.0574805,-1.49449,0.426829,-3.35366,8.41463
6597.77,12.2595,-8.11852,0,2.18186,9.55852,-0.912502,-3.75,-1.28049,-7.22561,-9.92736,0.112566,-1.51126,1.03659,-3.53659,8.41463
6597.78,12.1931,-8.13041,0,2.16031,9.58247,-0.857417,-3.38415,-1.25,-7.68293,-9.90341,0.0622705,-1.46815,0.97561,-4.20732,8.38415
6597.79,12.1254,-8.1407,0,2.1627,9.61361,-0.857417,-3.20122,-0.792683,-7.89634,-9.88664,0.0694556,-1.46096,0.762195,-4.29878,8.29268
6597.8,12.0527,-8.15467,0,2.17707,9.59924,-0.869392,-3.68902,-0.426829,-8.75,-9.9082,0.0550855,-1.48252,0.97561,-4.5122,8.38415
6597.81,11.9708,-8.15096,0,2.13636,9.616,-0.922083,-3.32317,0,-9.32927,-9.89862,0.0383203,-1.40588,0.609756,-3.96341,8.96341
6597.82,11.8804,-8.17214,0,2.10043,9.62798,-0.852627,-3.32317,0.0609756,-9.90854,-9.86748,0.0574805,-1.50647,0.487805,-3.59756,8.81098
6597.83,11.7795,-8.18925,0,2.08367,9.68785,-0.790356,-3.81098,0.182927,-10.8232,-9.91778,0.0790356,-1.50168,0.579268,-3.90244,9.29878
6597.84,11.6729,-8.2006,0,2.07648,9.69983,-0.766406,-4.2378,-0.0914634,-11.4939,-9.89862,0.0550855,-1.47773,0.304878,-4.26829,9.66463
6597.85,11.5739,-8.2,0,2.11959,9.59445,-0.799937,-4.42073,-1.03659,-11.7073,-9.94412,0.0526904,-1.43462,-0.0914634,-4.81707,10.061
6597.86,11.4841,-8.19766,0,2.22976,9.57768,-0.783171,-4.57317,-1.25,-12.2866,-9.96328,0.0526904,-1.42983,-0.182927,-5.09146,10.122
6597.87,11.4133,-8.20221,0,2.39502,9.53457,-0.787961,-4.84756,-1.25,-12.561,-9.96807,0.0574805,-1.46096,-0.426829,-5.33537,10.122
6597.88,11.3708,-8.20519,0,2.56986,9.44835,-0.866997,-5,-1.52439,-12.1037,-9.95849,0.0479004,-1.45378,-0.731707,-5.73171,10.2439
6597.89,11.3597,-8.19386,0,2.71835,9.35974,-0.888552,-5.15244,-1.7378,-10.9756,-9.94652,0.0646655,-1.38911,-0.426829,-6.15854,10.2744
6597.9,11.3858,-8.16919,0,2.91234,9.24238,-0.881367,-5.30488,-0.97561,-9.84756,-9.92017,0.0910107,-1.32445,-0.701219,-6.4939,10.5488
6597.91,11.4532,-8.13588,0,3.09437,9.137,-0.775986,-5.4878,-0.853659,-8.07927,-9.87706,0.105381,-1.27655,-0.548781,-7.07317,10.8232
6597.92,11.5548,-8.08399,0,3.24046,9.14418,-0.696951,-5.67073,-0.426829,-6.15854,-9.82916,0.0886157,-1.18314,-0.762195,-7.46951,10.4573
6597.93,11.6982,-8.02753,0,3.44883,9.18969,-0.785566,-5.09146,-0.243902,-4.26829,-9.85072,0.105381,-1.15679,-1.31098,-7.71341,10.4573
6597.94,11.8926,-7.98814,0,3.6045,9.29986,-0.737666,-4.81707,1.21951,-2.40854,-9.84593,0.0958008,-1.22146,-1.7378,-7.7439,9.84756
6597.95,12.3392,-7.99191,0,3.61887,9.137,-0.823887,-3.84146,2.9878,-0.365854,-9.83874,0.167651,-1.40348,-1.92073,-7.10366,9.5122
6597.96,12.6569,-7.98578,0,3.74342,8.87594,-0.819097,-3.35366,3.53659,1.67683,-9.9082,0.201182,-1.36995,-1.79878,-7.0122,9.45122
6597.97,12.9685,-7.98354,0,4.10985,8.55262,-0.852627,-3.04878,2.5,4.2378,-9.97765,0.308958,-1.3963,-0.579268,-7.5,9.54268
6597.98,13.375,-7.99604,0,4.63197,8.464,-0.833467,-2.28659,2.34756,9.39024,-9.94891,0.378413,-1.45857,1.67683,-8.38415,10.7622
6597.99,13.8829,-8.01357,0,5.05589,8.38017,-0.60115,-1.92073,0.335366,15.6402,-9.98484,0.364043,-1.4897,4.57317,-9.48171,11.5854
6598,14.5,-7.97093,0,5.52291,8.25803,-0.392783,-3.10976,-1.79878,22.378,-9.97765,0.256267,-1.22386,7.56098,-11.3415,12.1341
6598.01,15.2388,-7.88151,0,5.93486,8.19815,-0.337698,-2.80488,-3.14024,31.7073,-9.93933,0.186812,-1.00591,10.122,-13.3841,12.561
6598.02,16.0877,-7.76114,0,6.23424,8.1287,-0.0215552,-3.14024,-3.14024,41.2195,-9.82437,0.177231,-0.845442,12.1341,-15.4573,12.2866
6598.03,17.034,-7.62533,0,6.41626,8.00176,0.198787,-2.89634,-1.85976,50.3659,-9.73575,0.275427,-0.752036,13.811,-17.2866,11.4329
6598.04,18.0398,-7.49956,0,6.5863,8.23408,0.208367,-2.77439,2.28659,58.5061,-9.64714,0.469424,-0.766406,15.5488,-18.75,10.5793
6598.05,19.0785,-7.4034,0,6.67971,8.70111,0.0814307,-3.44512,9.66463,66.25,-9.53218,0.64426,-0.862207,16.8902,-19.6341,9.5122
6598.06,20.1245,-7.30187,0,6.52643,9.18729,-0.170046,-5.36585,21.3415,73.4451,-9.50104,0.811912,-0.821492,17.6524,-20.6707,7.95732
6598.07,21.1323,-7.20241,0,5.92049,9.63516,-0.467029,-5.06098,33.9634,79.4817,-9.55613,0.993933,-0.819097,18.4756,-21.9512,6.58537
6598.08,22.077,-7.11479,0,5.42232,10.4782,-0.498164,-5.51829,43.9024,83.689,-9.74054,1.21427,-0.869392,18.3537,-22.3476,5.03049
6598.09,22.9413,-7.10446,0,4.8092,11.2566,-0.217947,-5.45732,48.3537,86.0366,-9.63516,0.948428,-1.17595,17.7134,-21.1585,4.02439
6598.1,23.7166,-7.11711,0,4.14817,11.7524,0.0239502,-4.57317,48.9634,86.25,-10.0471,1.16158,-1.32684,17.9573,-20.0305,3.41463
6598.11,24.4008,-7.12587,0,3.42967,11.8266,0.0215552,-5.45732,47.1037,85.2134,-10.1597,1.03944,-1.32445,17.2256,-17.9878,3.2622
6598.12,24.9809,-7.16314,0,2.61057,11.7835,0.184417,-5.85366,43.0183,83.5061,-10.2555,0.926873,-1.46815,16.2195,-16.1585,4.05488
6598.13,25.441,-7.23254,0,1.65496,11.9032,0.476609,-7.53049,31.372,81.7683,-10.3465,0.926873,-1.6358,14.3293,-13.8415,5.06098
6598.14,25.8638,-7.27218,0,1.91362,11.3021,0.627495,-5.12195,25.2134,75.4573,-10.5333,0.888552,-1.53521,12.2561,-11.8598,6.52439
6598.15,26.2267,-7.29648,0,1.82979,11.1871,0.675395,-8.81098,13.0488,70.8537,-10.7465,0.855022,-1.49928,10.5183,-11.4024,8.01829
6598.16,26.585,-7.30065,0,2.11001,10.8159,0.268242,-13.5061,4.72561,67.561,-10.9333,0.807122,-1.43222,9.45122,-12.378,9.2378
6598.17,26.9978,-7.30877,0,2.85965,10.4758,-0.102986,-14.8476,1.92073,65.2134,-10.8111,0.833467,-1.43701,8.81098,-13.2622,10.061
6598.18,27.4907,-7.31051,0,3.77216,9.84114,-0.313748,-15,1.76829,62.5915,-10.4231,0.840652,-1.35798,8.90244,-14.2378,10.9451
6598.19,28.0329,-7.30389,0,4.44995,9.62558,-0.256267,-14.6037,2.62195,60.7927,-10.004,0.838257,-1.26697,9.02439,-15.061,11.4939
6598.2,28.6022,-7.28458,0,4.83794,9.40045,-0.0167651,-14.8171,4.69512,59.7256,-9.72857,0.821492,-1.17595,9.42073,-15.3354,11.6463
6598.21,29.213,-7.26144,0,5.2427,9.12502,0.129331,-13.1707,9.63415,59.7256,-9.51541,0.785566,-1.13045,9.96951,-15.122,11.6768
6598.22,29.8447,-7.22326,0,5.34808,8.78254,0.285007,-11.2805,14.6646,60.122,-9.40045,0.730481,-1.04902,10.6707,-14.1768,11.0671
6598.23,30.4808,-7.15947,0,5.22593,8.43765,0.457449,-9.32927,21.1585,60.9756,-9.29507,0.708926,-0.924478,11.189,-13.628,10.7317
6598.24,31.1153,-7.09612,0,5.23072,8.30832,0.65384,-8.23171,27.6829,61.25,-9.22083,0.761616,-0.907712,10.5793,-12.5915,9.81707
6598.25,31.7479,-7.01541,0,5.2882,8.26042,0.874182,-9.81707,30.6402,61.4634,-9.2304,0.859812,-0.826282,10.122,-11.5854,9.66463
6598.26,32.4085,-6.92909,0,5.47022,8.00895,0.917292,-9.90854,33.3841,62.1341,-9.29507,0.958008,-0.795146,9.11585,-10.8537,10.2439
6598.27,33.0705,-6.85526,0,5.38879,7.80776,0.847837,-10,34.9085,63.0488,-9.38848,1.04662,-0.840652,7.95732,-10.4573,10.3049
6598.28,33.7248,-6.80234,0,5.40316,7.72633,0.792751,-8.2622,38.1098,62.8963,-9.48428,1.13045,-0.924478,6.37195,-9.7561,10.2439
6598.29,34.3584,-6.7563,0,5.26186,7.63532,0.852627,-8.75,38.0793,62.9268,-9.50344,1.17356,-0.946033,4.81707,-9.08537,9.96951
6598.3,34.9709,-6.75168,0,5.16366,7.62095,1.17356,-10.0305,34.6037,62.9878,-9.43159,1.23104,-1.1041,3.2622,-7.46951,9.45122
6598.31,35.5882,-6.76859,0,5.22354,7.41498,1.10171,-12.439,27.622,62.5915,-9.39806,1.2502,-1.18793,1.82927,-5.79268,8.07927
6598.32,36.196,-6.81061,0,5.07505,7.09884,0.704136,-10.1829,21.5549,62.0732,-9.38608,1.26457,-1.28852,0.27439,-4.32927,6.85976
6598.33,36.7559,-6.8629,0,4.79483,6.99825,0.574805,-8.2622,18.811,60.7622,-9.45554,1.22146,-1.33403,-1.0061,-3.20122,5.18293
6598.34,37.2901,-6.92053,0,4.80441,7.04854,0.661025,-7.56098,16.9207,59.5732,-9.59205,1.21427,-1.37714,-1.89024,-2.80488,3.93293
6598.35,37.8381,-7.00211,0,4.9553,6.75156,0.809517,-6.58537,14.6037,57.9878,-9.65672,1.18553,-1.48252,-3.32317,-2.56098,2.13415
6598.36,38.3443,-7.06435,0,5.10379,6.86173,1.09452,-8.04878,4.81707,54.0854,-9.63037,1.18314,-1.41306,-4.45122,-2.40854,1.03659
6598.37,38.8427,-7.09581,0,5.54926,6.94316,0.725691,-12.3171,-5.27439,50.2744,-9.68306,1.152,-1.32205,-5.33537,-2.62195,0.335366
6598.38,39.3005,-7.12571,0,5.5804,6.93358,0.0838257,-12.8659,-7.34756,46.7378,-9.69743,1.06578,-1.32684,-6.15854,-2.86585,-0.0304878
6598.39,39.7092,-7.14972,0,5.38879,6.76593,0.265847,-9.32927,-6.34146,43.2622,-9.76928,0.967588,-1.31966,-7.53049,-2.92683,-0.243902
6598.4,40.0559,-7.19274,0,5.15408,6.75875,0.407153,-6.31098,-7.43902,40.2439,-9.80281,0.869392,-1.38672,-9.11585,-2.07317,-0.853659
6598.41,40.3546,-7.28365,0,5.07026,6.74198,0.277822,-6.15854,-11.7683,36.8293,-9.69025,0.917292,-1.42983,-10.7012,-0.731707,-1.76829
6598.42,40.619,-7.39913,0,5.10618,6.65097,0.462239,-6.4939,-15.5183,32.7744,-9.5681,1.00112,-1.38193,-11.9512,0,-1.85976
6598.43,40.9051,-7.50272,0,5.54208,6.33243,0.524509,-6.21951,-20.2744,28.0183,-9.45075,1.02028,-1.45857,-13.3232,0.97561,-1.79878
6598.44,41.2276,-7.60425,0,6.06898,6.11209,0.356858,-3.96341,-20.4573,24.9695,-9.43638,1.02507,-1.47773,-14.2378,1.06707,-1.7378
6598.45,41.5415,-7.71404,0,6.30369,6.07377,0.380808,-1.76829,-16.8598,22.1646,-9.33818,0.996328,-1.48012,-14.9695,1.0061,-1.58537
6598.46,41.8643,-7.89052,0,6.5887,6.10011,0.330513,-0.426829,-9.60366,21.372,-9.33818,1.02028,-1.57832,-15.6098,0.640244,-1.46341
6598.47,42.1416,-8.04851,0,6.69168,6.38991,0.862207,-0.731707,-9.32927,19.2073,-9.36932,0.984353,-1.59987,-15.7622,0.731707,-1.25
6598.48,42.4291,-8.15811,0,6.94316,6.27495,0.598755,-1.92073,-4.42073,17.5915,-9.48188,0.979563,-1.59987,-16.2195,1.03659,-1.03659
6598.49,42.7134,-8.24815,0,6.86173,6.02587,0.498164,1.37195,0.457317,16.189,-9.55852,0.981958,-1.57113,-17.378,0.823171,-0.853659
6598.5,42.9463,-8.33151,0,6.68929,6.10969,0.60115,5.36585,4.05488,13.811,-9.72138,0.967588,-1.64777,-18.5061,1.21951,-0.97561
6598.51,43.15,-8.39075,0,6.39231,5.94683,0.342488,10.2134,8.87195,12.378,-9.84593,0.936453,-1.64059,-20.3354,1.61585,-1.25
6598.52,43.3184,-8.49263,0,6.28453,5.9636,0.768801,14.2378,11.6768,10.3354,-9.92017,0.914897,-1.82021,-21.7988,1.64634,-1.43293
6598.53,43.466,-8.62827,0,6.46895,5.96599,1.07297,12.0122,11.8902,6.85976,-9.87706,0.962798,-1.98547,-22.0122,2.04268,-1.82927
6598.54,43.6134,-8.78466,0,6.77791,5.99234,1.07297,10.3963,10.6098,3.59756,-9.8076,0.981958,-2.05732,-22.3476,1.92073,-1.89024
6598.55,43.7803,-8.97066,0,7.03896,6.19113,1.12566,9.11585,8.38415,1.79878,-9.74054,0.883762,-2.14354,-21.5854,1.70732,-1.06707
6598.56,43.9583,-9.15366,0,7.17308,6.46416,0.673001,11.0061,7.46951,0.792683,-9.8579,0.799937,-2.15791,-21.0061,1.37195,-0.853659
6598.57,44.0571,-9.34173,0,7.04136,6.68929,0.60594,13.1707,8.5061,1.03659,-9.92496,0.730481,-2.17468,-20.061,1.03659,-0.0609756
6598.58,44.1239,-9.55248,0,6.64139,6.3492,0.617915,13.9024,8.20122,-1.4939,-9.99681,0.656235,-2.17947,-19.5732,0.457317,0.0914634
6598.59,44.1166,-9.71996,0,6.30609,5.96599,0.589175,14.8476,7.83537,-5.85366,-10.0279,0.584385,-2.12199,-19.7256,0.487805,0
6598.6,44.0382,-9.91167,0,5.98276,5.8678,0.603545,16.7683,7.7439,-10.9451,-10.0519,0.665815,-2.17707,-19.8171,0.243902,0.243902
6598.61,43.8974,-10.099,0,5.87498,5.90372,0.60594,17.8049,8.68902,-16.0366,-10.0088,0.740061,-2.26569,-20.9451,0.609756,0.27439
6598.62,43.7248,-10.259,0,6.06658,5.92528,0.766406,19.1463,10.5488,-21.25,-10.0639,0.795146,-2.39981,-22.0122,1.64634,0.426829
6598.63,43.5542,-10.431,0,6.37554,5.78876,0.838257,20.9756,11.5854,-25.6402,-10.0782,0.855022,-2.5483,-23.1098,2.34756,0.365854
6598.64,43.3953,-10.6071,0,6.79707,5.63548,0.905317,23.9939,12.8354,-30.061,-10.1022,0.969983,-2.6441,-23.7195,3.07927,0.396341
6598.65,43.2256,-10.8067,0,7.24493,5.73368,1.17835,26.25,14.878,-34.1463,-10.0615,1.06818,-2.78541,-24.878,3.44512,1.06707
6598.66,43.0266,-10.962,0,7.41977,5.76721,1.10889,26.0671,13.5976,-38.5061,-10.1788,1.12087,-2.65847,-25.3659,3.90244,1.89024
6598.67,42.6796,-11.0925,0,6.83539,6.42823,0.340093,25.7927,14.0549,-43.0183,-10.3728,1.19272,-2.58902,-25.6707,2.31707,3.20122
6598.68,42.0391,-11.2309,0,5.42711,7.81495,0.0622705,27.1951,19.2683,-49.2378,-10.677,1.01788,-2.69679,-25.1524,1.46341,3.96341
6598.69,41.1332,-11.3675,0,4.36612,9.43638,0.632285,27.5305,21.7683,-57.3171,-11.0794,0.63947,-2.76864,-22.7134,0.518293,5.15244
6598.7,40.1112,-11.4687,0,4.1362,10.0399,1.94715,25.9146,14.1159,-66.0366,-11.4123,0.184417,-2.76146,-19.0244,0.701219,6.18902
6598.71,39.3361,-11.4547,0,6.57912,9.74294,3.4129,15.7927,-3.2622,-66.6768,-11.8817,-0.332908,-2.34233,-13.5671,-0.609756,7.34756
6598.72,38.8143,-11.3682,0,9.31423,10.2459,3.99489,5.67073,-27.0732,-59.2378,-12.4661,-1.08494,-2.04056,-7.0122,-3.2622,8.47561
6598.73,38.4832,-11.218,0,11.8673,11.1536,3.14945,-1.0061,-56.372,-50.0305,-12.9331,-1.99984,-1.72681,0.0914634,-6.03659,7.80488
6598.74,38.2408,-11.0118,0,13.9749,12.9882,3.64522,1.37195,-61.9512,-42.3171,-13.0576,-2.81415,-1.38432,7.40854,-7.92683,6.43293
6598.75,38.0132,-10.835,0,13.6253,14.9449,5.55884,-5.36585,-48.2012,-31.6159,-13.163,-3.11832,-1.52084,15.4878,-8.96341,4.66463
6598.76,37.9105,-10.7302,0,11.8865,13.6085,4.44516,-14.7256,-56.9207,-16.8598,-12.4469,-3.23328,-1.79626,23.3537,-3.38415,4.84756
6598.77,37.8456,-10.6543,0,7.90596,10.8159,1.42025,-20.7622,-81.1281,-3.04878,-11.7332,-2.53872,-1.81542,29.0244,4.69512,7.34756
6598.78,37.4128,-10.5354,0,2.886,8.32988,-0.993933,-23.9939,-90.8537,3.07927,-10.6243,-1.22386,-1.41546,31.0061,12.622,11.9207
6598.79,34.2172,-10.316,0,-0.941243,6.78509,-1.69328,-26.7073,-85,-2.53049,-9.9561,0.225132,-0.855022,29.3902,17.6829,16.7988
6598.8,32.7824,-9.95584,0,-3.07281,5.84624,-0.833467,-25.9146,-84.2683,-20,-10.0878,1.59748,-0.198787,25.6707,18.4146,19.1463
6598.81,31.2044,-9.4354,0,-2.94348,6.24621,-0.182021,-23.7195,-99.0854,-42.622,-10.9404,4.0883,0.6251,18.4146,16.8902,21.3415
6598.82,29.8336,-8.92944,0,-0.965193,7.25691,-0.797541,-30.6402,-118.415,-60.7317,-10.7177,2.67524,0.637075,16.128,12.1951,19.9695
6598.83,28.7726,-8.39233,0,1.61903,7.86285,-3.46799,-34.939,-130.457,-71.1281,-11.4171,4.05477,0.934058,8.62805,8.81098,16.311
