time,angle1,angle2,intgangle,accX1,accY1,accZ1,gyroX1,gyroY1,gyroZ1,accX2,accY2,accZ2,gyroX2,gyroY2,gyroZ2
6802.14,84.4385,-2.46452,0,9.90101,0.917292,-0.60115,-2.2561,-3.62805,-2.07317,-9.94891,-0.265847,-0.507744,-1.0061,0.609756,8.5061
6802.15,84.4313,-2.45816,0,9.89862,0.888552,-0.646655,-2.43902,-2.95732,-1.85976,-9.93694,-0.270637,-0.414338,-0.731707,0.396341,8.59756
6802.16,84.4337,-2.4678,0,9.92257,0.840652,-0.65863,-2.40854,-2.65244,-1.70732,-9.96568,-0.292192,-0.447869,-0.640244,0.426829,8.62805
6802.17,84.4426,-2.51129,0,9.92257,0.819097,-0.593965,-2.37805,-2.22561,-1.4939,-9.93215,-0.313748,-0.512534,-0.487805,0.304878,8.84146
6802.18,84.4636,-2.54947,0,9.92736,0.792751,-0.5772,-1.92073,-2.10366,-1.06707,-9.91059,-0.308958,-0.507744,0,0.304878,9.02439
6802.19,84.4801,-2.56657,0,9.9058,0.790356,-0.60115,-1.98171,-1.28049,-1.28049,-9.92017,-0.296982,-0.486189,0.426829,0.97561,8.87195
6802.2,84.5039,-2.58884,0,9.81719,0.740061,-0.593965,-1.67683,-0.243902,-1.31098,-9.89383,-0.241897,-0.502954,0.548781,1.06707,8.75
6802.21,84.5218,-2.61234,0,9.8555,0.773591,-0.65384,-1.7378,-0.0609756,-1.28049,-9.86748,-0.225132,-0.514929,0.884146,1.37195,8.29268
6802.22,84.5389,-2.60417,0,9.84114,0.787961,-0.711321,-1.34146,-0.182927,-1.15854,-9.91778,-0.146096,-0.426313,0.518293,1.40244,7.80488
6802.23,84.5632,-2.60579,0,9.74533,0.785566,-0.692161,-1.12805,-0.182927,-0.823171,-9.91778,-0.0766406,-0.455054,-0.0914634,1.85976,7.43902
6802.24,84.5887,-2.61426,0,9.78366,0.768801,-0.641865,-0.640244,-0.335366,-0.884146,-9.9082,-0.0862207,-0.476609,0.0609756,1.55488,7.10366
6802.25,84.6166,-2.64747,0,9.79084,0.730481,-0.65384,-0.487805,0.121951,-1.06707,-9.93215,-0.0814307,-0.555645,-1.03659,1.43293,7.19512
6802.26,84.6512,-2.6672,0,9.76449,0.713716,-0.543669,-0.121951,0.518293,-0.914634,-9.95131,-0.0838257,-0.519719,-0.945122,1.37195,7.31707
6802.27,84.6946,-2.68764,0,9.77647,0.680186,-0.524509,0.0304878,1.06707,-0.823171,-9.98005,-0.0886157,-0.517324,-1.28049,0.853659,7.5
6802.28,84.7261,-2.72852,0,9.93933,0.752036,-0.59636,0.609756,1.4939,-0.609756,-9.9537,-0.131726,-0.555645,-1.40244,0.487805,7.28659
6802.29,84.7527,-2.78006,0,9.75491,0.754431,-0.510139,0.548781,2.34756,-0.731707,-9.92017,-0.186812,-0.5772,-1.40244,0.396341,7.46951
6802.3,84.7586,-2.82807,0,9.57768,0.720901,-0.404758,-0.0914634,1.34146,-1.98171,-9.94652,-0.162861,-0.5772,-1.61585,0.304878,7.59146
6802.31,84.7614,-2.83573,0,9.57529,0.696951,-0.397573,-0.335366,-0.27439,-2.40854,-9.93694,-0.186812,-0.505349,-1.61585,0.27439,7.40854
6802.32,84.7513,-2.86773,0,9.5681,0.761616,-0.308958,-0.335366,-1.21951,-2.68293,-9.9537,-0.177231,-0.55804,-1.67683,0.365854,7.43902
6802.33,84.7305,-2.88307,0,9.62079,0.799937,-0.308958,-0.640244,-1.92073,-3.23171,-9.97765,-0.208367,-0.541274,-1.09756,1.0061,7.31707
6802.34,84.711,-2.89629,0,9.72138,0.819097,-0.366438,-0.518293,-2.07317,-3.01829,-9.94173,-0.217947,-0.534089,-0.792683,0.884146,7.40854
6802.35,84.698,-2.87996,0,9.89383,0.826282,-0.457449,-0.182927,-1.4939,-2.53049,-9.97765,-0.263452,-0.462239,-0.670732,0.823171,7.22561
6802.36,84.6885,-2.8657,0,10.0016,0.869392,-0.522114,0.335366,-1.4939,-1.82927,-9.93933,-0.263452,-0.469424,-0.914634,0.457317,7.0122
6802.37,84.6726,-2.87816,0,9.99681,0.924478,-0.548459,0.609756,-1.28049,-1.70732,-9.94891,-0.227527,-0.526904,-0.823171,0.670732,7.04268
6802.38,84.6588,-2.86733,0,9.93215,0.919688,-0.584385,0.152439,-1.18902,-1.52439,-9.9537,-0.225132,-0.474214,-0.365854,0.670732,6.98171
6802.39,84.6507,-2.8595,0,9.83874,0.871787,-0.536484,0.0609756,-0.853659,-1.61585,-9.93215,-0.227527,-0.476609,-0.487805,0.884146,6.85976
6802.4,84.6378,-2.8463,0,9.78844,0.917292,-0.574805,0,-0.243902,-1.31098,-9.93694,-0.217947,-0.469424,-0.426829,0.365854,7.04268
6802.41,84.6318,-2.83061,0,9.77647,0.864602,-0.59636,-0.213415,0.304878,-1.52439,-9.94891,-0.244292,-0.464634,-0.548781,0.243902,6.85976
6802.42,84.6261,-2.78471,0,9.73575,0.886157,-0.598755,-0.548781,0.884146,-1.15854,-9.88664,-0.205972,-0.380808,-0.548781,0.731707,7.28659
6802.43,84.6195,-2.76451,0,9.7621,0.864602,-0.58199,-0.426829,0.97561,-1.58537,-9.87946,-0.208367,-0.433499,-0.640244,0.701219,7.28659
6802.44,84.6351,-2.76894,0,9.80281,0.759221,-0.5772,-0.182927,1.03659,-1.34146,-9.89143,-0.177231,-0.488584,-0.701219,1.03659,7.28659
6802.45,84.6447,-2.75015,0,9.84832,0.821492,-0.560435,0.640244,0.823171,-1.03659,-9.89622,-0.215552,-0.421523,-0.884146,1.34146,7.5
6802.46,84.6437,-2.74321,0,9.86748,0.881367,-0.589175,0.823171,0.701219,-0.97561,-9.91778,-0.225132,-0.455054,-0.884146,1.25,7.28659
6802.47,84.6506,-2.72258,0,9.81719,0.850232,-0.57241,1.25,-0.243902,-0.823171,-9.92736,-0.210762,-0.416733,-0.762195,1.12805,7.28659
6802.48,84.6581,-2.70665,0,9.76928,0.826282,-0.574805,1.21951,-0.335366,-1.03659,-9.93454,-0.186812,-0.433499,-1.31098,0.731707,7.46951
6802.49,84.6573,-2.66723,0,9.74533,0.869392,-0.579595,1.25,0.0304878,-0.97561,-9.96089,-0.205972,-0.392783,-0.731707,0.304878,7.2561
6802.5,84.6666,-2.68313,0,9.71899,0.850232,-0.505349,1.28049,0.304878,-0.579268,-9.92496,-0.232317,-0.493374,-0.792683,0.335366,7.28659
6802.51,84.6784,-2.68977,0,9.83156,0.821492,-0.546064,0.884146,0.609756,-0.853659,-9.97765,-0.251477,-0.481399,-0.640244,0.426829,7.22561
6802.52,84.6786,-2.68941,0,9.81719,0.893342,-0.555645,0.945122,0.914634,-0.518293,-9.96807,-0.220342,-0.467029,-0.609756,0.548781,7.2561
6802.53,84.6912,-2.71329,0,9.81479,0.843047,-0.457449,0.457317,0.823171,-0.518293,-9.91538,-0.217947,-0.522114,-1.0061,0.731707,7.53049
6802.54,84.7019,-2.72337,0,9.76449,0.847837,-0.498164,0.609756,0.731707,-0.487805,-9.93215,-0.239502,-0.498164,-0.243902,1.12805,7.34756
6802.55,84.719,-2.74223,0,9.74294,0.847837,-0.471819,0.640244,0.579268,-0.121951,-9.94173,-0.215552,-0.517324,-0.396341,0.701219,7.65244
6802.56,84.7303,-2.7546,0,9.71659,0.866997,-0.483794,0.701219,-0.0304878,0.0304878,-9.94173,-0.208367,-0.507744,-0.609756,0.914634,7.83537
6802.57,84.7521,-2.75438,0,9.69743,0.831072,-0.462239,0.457317,-0.27439,0.518293,-9.98244,-0.222737,-0.479004,-0.579268,0.853659,7.5
6802.58,84.7825,-2.74539,0,9.70701,0.799937,-0.479004,0.182927,-0.640244,0.304878,-9.93454,-0.208367,-0.455054,-0.823171,0.792683,7.5
6802.59,84.8078,-2.77543,0,9.77168,0.816702,-0.490979,0.213415,-0.945122,0.152439,-9.94891,-0.162861,-0.543669,-0.701219,0.548781,7.37805
6802.6,84.8242,-2.79019,0,9.77407,0.840652,-0.459844,0.335366,-0.762195,0.243902,-9.98005,-0.165256,-0.517324,-0.640244,0.579268,7.37805
6802.61,84.8486,-2.79961,0,9.76689,0.811912,-0.514929,0.213415,-1.21951,0.152439,-9.92257,-0.174836,-0.502954,-0.914634,0.457317,7.43902
6802.62,84.8746,-2.79299,0,9.80521,0.780776,-0.517324,0.243902,-1.43293,-0.304878,-9.90341,-0.208367,-0.467029,-0.731707,0.853659,7.5
6802.63,84.9003,-2.78351,0,9.80042,0.783171,-0.490979,-0.152439,-0.853659,-0.243902,-9.91538,-0.229922,-0.459844,-0.670732,0.792683,7.28659
6802.64,84.917,-2.81818,0,9.79563,0.795146,-0.505349,-0.426829,-0.884146,-0.426829,-9.91538,-0.205972,-0.56762,-0.609756,0.823171,7.53049
6802.65,84.9264,-2.84616,0,9.79084,0.807122,-0.462239,-0.823171,-0.518293,-0.609756,-9.91059,-0.177231,-0.56762,-0.152439,1.21951,7.2561
6802.66,84.948,-2.8558,0,9.76449,0.742456,-0.467029,-0.884146,-0.548781,-0.731707,-9.9058,-0.141306,-0.522114,-0.518293,1.58537,7.71341
6802.67,84.972,-2.87011,0,9.79803,0.728086,-0.517324,-1.09756,-0.426829,-0.731707,-9.86748,-0.136516,-0.538879,-0.365854,1.82927,7.65244
6802.68,84.9944,-2.89672,0,9.80521,0.720901,-0.541274,-0.609756,-0.426829,-0.823171,-9.92736,-0.131726,-0.58199,-0.487805,1.55488,7.5
6802.69,85.0101,-2.91569,0,9.76689,0.732876,-0.589175,-0.670732,-0.304878,-0.97561,-9.92736,-0.112566,-0.55804,-0.457317,1.31098,7.65244
6802.7,85.0196,-2.91286,0,9.78605,0.778381,-0.608335,-0.396341,-0.27439,-0.762195,-9.9561,-0.134121,-0.498164,-0.518293,1.09756,7.5
6802.71,85.0257,-2.93997,0,9.79084,0.768801,-0.58678,-0.152439,-0.335366,-1.06707,-9.99921,-0.162861,-0.58678,-1.03659,1.12805,7.53049
6802.72,85.0285,-2.95259,0,9.77647,0.768801,-0.60594,0.0304878,-0.426829,-1.25,-9.97286,-0.198787,-0.546064,-0.792683,1.0061,7.53049
6802.73,85.0307,-2.98968,0,9.78126,0.799937,-0.58199,0.0304878,-0.335366,-0.884146,-10.0279,-0.232317,-0.617915,-0.579268,0.914634,7.37805
6802.74,85.0276,-3.02256,0,9.77647,0.804727,-0.574805,-0.0914634,-0.304878,-1.18902,-10.0303,-0.196392,-0.613125,-0.457317,0.914634,7.13415
6802.75,85.0289,-3.04849,0,9.84832,0.790356,-0.61073,-0.213415,0,-1.12805,-10.0232,-0.184417,-0.58678,-0.396341,0.457317,7.19512
6802.76,85.0367,-3.08595,0,9.8603,0.766406,-0.574805,-0.121951,0.426829,-1.0061,-10.0064,-0.172441,-0.617915,-0.27439,0.518293,7.13415
6802.77,85.0415,-3.08609,0,9.82916,0.797541,-0.579595,0.0609756,0.579268,-0.762195,-9.9537,-0.182021,-0.536484,-0.152439,0.518293,6.95122
6802.78,85.0543,-3.11424,0,9.85072,0.768801,-0.507744,0.0609756,0.579268,-0.670732,-9.94173,-0.220342,-0.59157,0.0304878,-0.304878,7.10366
6802.79,85.0548,-3.18407,0,9.79803,0.826282,-0.517324,0.365854,0.731707,-0.518293,-9.96089,-0.234712,-0.661025,0.640244,-0.0304878,6.95122
6802.8,85.062,-3.22532,0,9.77407,0.816702,-0.500559,0.0914634,0.579268,-0.182927,-10.0088,-0.222737,-0.65863,0.762195,-0.670732,7.13415
6802.81,85.0747,-3.26339,0,9.77407,0.787961,-0.510139,0.27439,0.365854,-0.335366,-10.0543,-0.203577,-0.65384,1.09756,-0.457317,6.64634
6802.82,85.0919,-3.29823,0,9.74773,0.771196,-0.479004,0.182927,0.396341,-0.304878,-10.0495,-0.177231,-0.65384,1.58537,-0.487805,6.40244
6802.83,85.0971,-3.32629,0,9.73096,0.785566,-0.474214,0.457317,0.182927,-0.701219,-10.0088,-0.114961,-0.64426,1.70732,-0.609756,5.85366
6802.84,85.113,-3.33756,0,9.72378,0.747246,-0.457449,0,0.182927,-0.609756,-9.92736,-0.0790356,-0.60115,1.82927,-0.457317,5.70122
6802.85,85.1257,-3.31139,0,9.70941,0.749641,-0.416733,-0.0609756,0.213415,-0.701219,-9.93694,-0.0790356,-0.524509,1.46341,-0.457317,5.21341
6802.86,85.1331,-3.30084,0,9.73815,0.759221,-0.421523,0.0914634,-0.0609756,-0.853659,-9.90341,-0.0526904,-0.550855,1.21951,-0.518293,5.51829
6802.87,85.1435,-3.28504,0,9.73815,0.747246,-0.392783,-0.182927,-0.243902,-0.823171,-9.89143,-0.0311353,-0.541274,0.731707,-0.27439,5.06098
6802.88,85.164,-3.2701,0,9.73575,0.718506,-0.397573,-0.243902,-0.670732,-0.640244,-9.9058,-0.0287402,-0.538879,0.396341,-0.396341,5.27439
6802.89,85.1821,-3.26238,0,9.73096,0.716111,-0.440684,-0.27439,-0.548781,-0.731707,-9.99921,-0.0143701,-0.555645,0.27439,-0.335366,4.66463
6802.9,85.1893,-3.25348,0,9.74773,0.725691,-0.455054,-0.152439,-0.884146,-1.15854,-9.97765,0.0143701,-0.55325,-0.335366,-0.0609756,5.03049
6802.91,85.1999,-3.23195,0,9.70462,0.708926,-0.467029,-0.182927,-0.853659,-1.12805,-9.96568,0.0526904,-0.529299,-0.457317,-0.0609756,5
6802.92,85.2038,-3.22272,0,9.72857,0.720901,-0.505349,0.0609756,-0.914634,-1.37195,-9.97526,0.0191602,-0.543669,-1.15854,-0.457317,5.09146
6802.93,85.2081,-3.22551,0,9.70701,0.708926,-0.457449,-0.0304878,-1.52439,-1.46341,-9.96089,-0.0455054,-0.56762,-1.64634,-0.548781,5.09146
6802.94,85.2142,-3.22642,0,9.7597,0.641865,-0.512534,-0.121951,-1.46341,-2.04268,-9.97765,-0.105381,-0.565225,-1.52439,-0.762195,5.12195
6802.95,85.1987,-3.21371,0,9.78366,0.792751,-0.479004,0.152439,-1.58537,-1.98171,-9.94412,-0.220342,-0.526904,-1.7378,-1.0061,5.57927
6802.96,85.173,-3.19496,0,9.76449,0.866997,-0.495769,0,-1.85976,-1.92073,-10.0016,-0.232317,-0.500559,-1.70732,-1.58537,5.51829
6802.97,85.156,-3.18231,0,9.79084,0.819097,-0.565225,0.152439,-2.40854,-1.85976,-10.0423,-0.253872,-0.514929,-1.4939,-2.13415,5.39634
6802.98,85.1457,-3.17035,0,9.80281,0.752036,-0.579595,-0.213415,-1.85976,-2.19512,-10.0375,-0.191602,-0.514929,-1.43293,-2.16463,5.36585
6802.99,85.1322,-3.16797,0,9.83156,0.778381,-0.60594,-0.365854,-2.16463,-2.19512,-9.98484,-0.210762,-0.546064,-1.0061,-2.16463,5.4878
6803,85.1189,-3.14861,0,9.8603,0.773591,-0.560435,0.0609756,-1.76829,-2.28659,-9.97765,-0.186812,-0.481399,-1.43293,-2.2561,5.15244
6803.01,85.1006,-3.12821,0,9.8124,0.807122,-0.62031,-0.243902,-1.25,-2.31707,-9.9537,-0.170046,-0.469424,-1.40244,-2.68293,5
6803.02,85.0912,-3.11272,0,9.81719,0.742456,-0.637075,-0.213415,-0.609756,-2.34756,-9.94652,-0.174836,-0.486189,-2.0122,-2.46951,5.12195
6803.03,85.0783,-3.09406,0,9.76928,0.764011,-0.694556,-0.213415,-0.640244,-2.37805,-9.93215,-0.131726,-0.469424,-2.04268,-2.65244,5
6803.04,85.0672,-3.08078,0,9.81,0.768801,-0.65384,0.182927,0,-2.22561,-9.92257,-0.222737,-0.486189,-2.19512,-2.77439,5.12195
6803.05,85.0612,-3.07856,0,9.79803,0.747246,-0.641865,0.121951,-0.0609756,-2.07317,-9.9082,-0.246687,-0.526904,-1.82927,-2.71341,5.4878
6803.06,85.0562,-3.08982,0,9.82677,0.761616,-0.65384,0.518293,-0.426829,-1.85976,-9.93694,-0.306563,-0.58199,-2.0122,-2.86585,5.60976
6803.07,85.0461,-3.10856,0,9.81,0.790356,-0.65863,0.335366,-0.304878,-1.92073,-9.94652,-0.316143,-0.613125,-1.79878,-2.68293,5.64024
6803.08,85.0384,-3.11578,0,9.83156,0.756826,-0.617915,0.518293,-0.396341,-2.16463,-9.9058,-0.287402,-0.56762,-1.55488,-2.46951,5.91463
6803.09,85.0308,-3.10582,0,9.83635,0.780776,-0.60594,0.731707,-0.152439,-1.89024,-9.88425,-0.268242,-0.502954,-1.37195,-2.34756,5.91463
6803.1,85.0281,-3.10571,0,9.80521,0.766406,-0.56283,0.579268,0.213415,-1.67683,-9.9058,-0.268242,-0.538879,-1.64634,-2.10366,5.82317
6803.11,85.0227,-3.09248,0,9.79563,0.780776,-0.58678,0.670732,0.548781,-1.70732,-9.95849,-0.222737,-0.493374,-1.43293,-2.16463,5.73171
6803.12,85.019,-3.06669,0,9.83156,0.792751,-0.584385,0.701219,0.640244,-1.46341,-9.93454,-0.205972,-0.445474,-1.18902,-2.07317,5.70122
6803.13,85.0095,-3.03379,0,9.79323,0.819097,-0.61552,0.731707,0.487805,-1.55488,-9.93694,-0.237107,-0.411943,-1.21951,-2.2561,5.60976
6803.14,85.0054,-3.01117,0,9.79803,0.792751,-0.550855,0.579268,0.518293,-1.4939,-9.88185,-0.241897,-0.443079,-1.15854,-2.22561,5.85366
6803.15,84.9987,-2.98751,0,9.78844,0.821492,-0.57241,0.884146,0.518293,-1.31098,-9.91299,-0.261057,-0.435894,-1.34146,-2.2561,5.91463
6803.16,84.9964,-2.97691,0,9.75491,0.804727,-0.483794,0.97561,0.396341,-1.18902,-9.88425,-0.234712,-0.479004,-1.4939,-2.22561,6.12805
6803.17,84.9998,-2.94974,0,9.76689,0.787961,-0.526904,0.731707,0.27439,-1.03659,-9.89143,-0.232317,-0.421523,-0.853659,-1.95122,6.82927
6803.18,85.0055,-2.93619,0,9.72617,0.773591,-0.479004,0.609756,0.182927,-1.03659,-9.90341,-0.232317,-0.462239,-1.03659,-2.2561,6.79878
6803.19,85.0157,-2.91733,0,9.73815,0.740061,-0.512534,0.701219,0.365854,-1.15854,-9.92736,-0.241897,-0.443079,-1.43293,-2.07317,7.07317
6803.2,85.014,-2.89938,0,9.74773,0.804727,-0.519719,0.426829,-0.182927,-1.09756,-9.9082,-0.261057,-0.443079,-1.43293,-2.0122,7.16463
6803.21,85.0156,-2.86878,0,9.79563,0.775986,-0.543669,0.27439,-0.182927,-1.28049,-9.90341,-0.287402,-0.395178,-1.18902,-2.0122,7.53049
6803.22,85.0081,-2.82771,0,9.79323,0.816702,-0.498164,0.457317,-0.0914634,-1.43293,-9.9082,-0.287402,-0.344883,-1.4939,-2.34756,7.53049
6803.23,85.0064,-2.79905,0,9.82916,0.799937,-0.548459,0.213415,-0.365854,-1.25,-9.88664,-0.296982,-0.383203,-1.15854,-2.37805,7.68293
6803.24,85.0038,-2.78572,0,9.79803,0.809517,-0.560435,0.426829,-0.27439,-1.15854,-9.87467,-0.296982,-0.438289,-0.853659,-1.95122,7.56098
6803.25,85.0016,-2.77654,0,9.81,0.821492,-0.55325,0.152439,0.396341,-0.97561,-9.83874,-0.306563,-0.450264,-0.823171,-1.7378,7.59146
6803.26,84.9987,-2.74671,0,9.75731,0.811912,-0.574805,0.121951,0.182927,-1.12805,-9.86988,-0.261057,-0.392783,-0.701219,-1.31098,7.80488
6803.27,84.9967,-2.72576,0,9.77168,0.787961,-0.56762,-0.0304878,0.0914634,-1.40244,-9.89862,-0.253872,-0.421523,-0.579268,-0.945122,8.01829
6803.28,85.0006,-2.71672,0,9.78605,0.771196,-0.543669,-0.0304878,0.365854,-1.21951,-9.93454,-0.220342,-0.452659,-0.518293,-0.640244,7.89634
6803.29,85.0042,-2.68418,0,9.76689,0.775986,-0.548459,-0.182927,0.121951,-1.15854,-9.93215,-0.215552,-0.392783,-0.182927,-0.762195,7.92683
6803.3,85.009,-2.65455,0,9.80281,0.773591,-0.5772,-0.518293,0.335366,-1.12805,-9.92736,-0.253872,-0.390388,-0.335366,-0.884146,8.14024
6803.31,85.0153,-2.63393,0,9.77168,0.775986,-0.565225,-0.396341,0.0609756,-0.97561,-9.93933,-0.239502,-0.404758,-0.487805,-1.06707,8.32317
6803.32,85.0148,-2.60574,0,9.81479,0.807122,-0.565225,-0.304878,0.335366,-1.03659,-9.92736,-0.251477,-0.376018,-0.731707,-1.21951,8.20122
6803.33,85.0208,-2.58464,0,9.81479,0.773591,-0.536484,-0.579268,0.0609756,-1.03659,-9.92257,-0.234712,-0.392783,-0.182927,-1.15854,8.59756
6803.34,85.0254,-2.57273,0,9.83395,0.787961,-0.541274,-0.27439,0.0914634,-0.945122,-9.95131,-0.234712,-0.419128,-0.365854,-0.884146,8.17073
6803.35,85.0266,-2.56069,0,9.83156,0.783171,-0.5772,-0.579268,0.121951,-1.21951,-9.94652,-0.244292,-0.419128,-0.0304878,-0.670732,8.53659
6803.36,85.0314,-2.57854,0,9.78126,0.768801,-0.59157,-0.640244,0.243902,-1.12805,-9.94652,-0.222737,-0.483794,-0.152439,-0.487805,8.10976
6803.37,85.0402,-2.58292,0,9.79803,0.778381,-0.598755,-0.579268,0.396341,-0.762195,-9.9561,-0.210762,-0.459844,-0.0609756,-0.762195,8.10976
6803.38,85.047,-2.5633,0,9.77886,0.766406,-0.598755,-0.518293,0.731707,-1.0061,-9.97526,-0.172441,-0.399968,-0.304878,-0.853659,8.04878
6803.39,85.0506,-2.538,0,9.77647,0.783171,-0.589175,-0.457317,0.670732,-0.97561,-9.94891,-0.138911,-0.380808,0.0304878,-0.884146,8.01829
6803.4,85.0625,-2.54216,0,9.77886,0.732876,-0.617915,-0.365854,0.701219,-1.06707,-9.95849,-0.138911,-0.452659,0,-0.823171,8.20122
6803.41,85.0773,-2.54853,0,9.77168,0.740061,-0.57241,0,0.701219,-0.823171,-9.92496,-0.100591,-0.457449,-0.27439,-0.853659,8.10976
6803.42,85.0883,-2.55237,0,9.79084,0.730481,-0.57241,0.182927,0.426829,-1.09756,-9.9082,-0.102986,-0.450264,-0.182927,-0.640244,8.14024
6803.43,85.1031,-2.52505,0,9.7597,0.735271,-0.5772,-0.182927,0.304878,-0.823171,-9.96807,-0.143701,-0.380808,-0.335366,-0.640244,7.83537
6803.44,85.1172,-2.52237,0,9.76928,0.730481,-0.59157,0.0609756,0.243902,-0.884146,-9.9537,-0.110171,-0.433499,-0.518293,-0.518293,7.89634
6803.45,85.1304,-2.52177,0,9.79563,0.716111,-0.529299,0.396341,0.548781,-1.06707,-9.91538,-0.0981958,-0.435894,-0.518293,-0.27439,7.7439
6803.46,85.1414,-2.52156,0,9.78844,0.735271,-0.55804,0.457317,0.640244,-0.945122,-9.9537,-0.0981958,-0.438289,-0.609756,-0.426829,7.62195
6803.47,85.1503,-2.48501,0,9.76928,0.716111,-0.534089,0.640244,0.762195,-1.25,-9.9561,-0.0814307,-0.376018,-0.335366,-0.0609756,7.7439
6803.48,85.1548,-2.49267,0,9.80042,0.744851,-0.522114,0.487805,0.457317,-1.18902,-9.93454,-0.0910107,-0.445474,-0.670732,-0.213415,7.62195
6803.49,85.1597,-2.50373,0,9.77407,0.732876,-0.5772,0.365854,0.731707,-1.28049,-9.9537,-0.117356,-0.452659,-0.762195,-0.0914634,7.83537
6803.5,85.1668,-2.48044,0,9.77886,0.728086,-0.512534,0.701219,0.609756,-1.18902,-9.97526,-0.114961,-0.385598,-0.457317,-0.487805,7.10366
6803.51,85.1728,-2.46691,0,9.7597,0.718506,-0.538879,0.609756,0.609756,-1.34146,-10.0375,-0.114961,-0.402363,-0.243902,-0.640244,7.16463
6803.52,85.1738,-2.45935,0,9.76449,0.728086,-0.505349,0.884146,0.335366,-1.55488,-9.99202,-0.112566,-0.411943,-0.762195,-0.792683,7.19512
6803.53,85.1711,-2.4505,0,9.76689,0.742456,-0.522114,0.853659,0.0609756,-1.64634,-9.95131,-0.0742456,-0.404758,-0.548781,-0.945122,7.34756
6803.54,85.1715,-2.43723,0,9.74054,0.713716,-0.526904,1.0061,0.0914634,-1.7378,-9.98484,-0.0958008,-0.395178,-1.0061,-0.731707,7.46951
6803.55,85.1633,-2.42751,0,9.74294,0.766406,-0.481399,1.09756,0.365854,-1.76829,-9.97765,-0.134121,-0.399968,-1.0061,-0.884146,7.5
6803.56,85.1569,-2.4167,0,9.76689,0.756826,-0.471819,0.914634,-0.182927,-1.76829,-9.95131,-0.122146,-0.392783,-0.97561,-1.06707,7.43902
6803.57,85.1485,-2.40551,0,9.80042,0.780776,-0.495769,0.945122,-0.121951,-1.67683,-9.97047,-0.126936,-0.390388,-0.945122,-1.06707,7.28659
6803.58,85.1403,-2.41659,0,9.8124,0.785566,-0.510139,0.518293,0.182927,-1.61585,-10.016,-0.138911,-0.452659,-1.0061,-1.0061,7.10366
6803.59,85.1316,-2.40535,0,9.80521,0.785566,-0.546064,0.487805,0.152439,-1.67683,-9.9537,-0.0981958,-0.390388,-0.731707,-1.0061,7.07317
6803.6,85.1302,-2.39815,0,9.82677,0.749641,-0.560435,0.792683,0.304878,-1.58537,-9.93933,-0.129331,-0.399968,-1.12805,-0.853659,6.89024
6803.61,85.1241,-2.3828,0,9.77886,0.768801,-0.529299,0.487805,0.426829,-1.67683,-9.93215,-0.102986,-0.376018,-1.25,-0.97561,7.07317
6803.62,85.1201,-2.38094,0,9.74533,0.737666,-0.467029,0.609756,0.213415,-1.89024,-9.93933,-0.136516,-0.409548,-1.06707,-0.914634,6.67683
6803.63,85.1085,-2.38307,0,9.73096,0.792751,-0.550855,0.579268,0.0914634,-1.79878,-9.92496,-0.131726,-0.419128,-0.97561,-0.97561,6.67683
6803.64,85.1009,-2.36478,0,9.75491,0.771196,-0.55325,0.579268,0.182927,-1.79878,-9.92257,-0.170046,-0.361648,-1.03659,-1.18902,6.70732
6803.65,85.0941,-2.35779,0,9.74054,0.766406,-0.512534,0.487805,-0.152439,-1.79878,-9.92257,-0.177231,-0.387993,-1.18902,-1.70732,6.76829
6803.66,85.0906,-2.33696,0,9.77168,0.735271,-0.519719,0.487805,-0.121951,-1.95122,-9.93694,-0.119751,-0.340093,-1.03659,-1.76829,6.79878
6803.67,85.0866,-2.32453,0,9.80042,0.773591,-0.541274,0.487805,-0.0304878,-1.55488,-9.9082,-0.136516,-0.366438,-0.914634,-1.52439,6.92073
6803.68,85.0825,-2.34035,0,9.80521,0.775986,-0.522114,0.457317,0.121951,-1.55488,-9.94412,-0.134121,-0.447869,-0.762195,-1.03659,6.7378
6803.69,85.0672,-2.33857,0,9.82916,0.826282,-0.517324,0.670732,-0.0609756,-1.85976,-9.93933,-0.138911,-0.402363,-0.396341,-0.914634,7.04268
6803.7,85.0501,-2.35454,0,9.8124,0.850232,-0.481399,0.731707,-0.0304878,-1.70732,-9.95849,-0.162861,-0.452659,-0.304878,-1.09756,6.98171
6803.71,85.038,-2.33234,0,9.80281,0.804727,-0.479004,0.731707,-0.0304878,-1.92073,-9.95849,-0.158071,-0.347278,-0.152439,-1.12805,7.07317
6803.72,85.025,-2.32152,0,9.78126,0.823887,-0.541274,0.457317,0.213415,-1.7378,-10.0016,-0.182021,-0.371228,-0.304878,-1.79878,7.10366
6803.73,85.0268,-2.30669,0,9.77886,0.756826,-0.565225,0.457317,-0.0914634,-1.46341,-10.0232,-0.196392,-0.354463,-0.0609756,-1.95122,6.98171
6803.74,85.023,-2.30317,0,9.75012,0.783171,-0.524509,0.457317,0.0609756,-1.52439,-10.0351,-0.191602,-0.392783,-0.0914634,-2.28659,7.10366
6803.75,85.0172,-2.29955,0,9.78126,0.792751,-0.538879,0.396341,0.152439,-1.58537,-10.0016,-0.167651,-0.390388,0.0914634,-2.37805,7.2561
6803.76,85.0093,-2.30165,0,9.74533,0.804727,-0.495769,0.548781,0.121951,-1.58537,-9.99921,-0.174836,-0.411943,0.335366,-2.53049,7.34756
6803.77,85.0049,-2.29973,0,9.80521,0.790356,-0.534089,0.426829,0,-1.55488,-9.96328,-0.158071,-0.395178,0.304878,-2.65244,7.62195
6803.78,84.9981,-2.2908,0,9.79563,0.811912,-0.498164,0.304878,-0.365854,-1.46341,-9.96328,-0.165256,-0.366438,0.548781,-3.01829,7.53049
6803.79,84.9926,-2.27628,0,9.79323,0.816702,-0.505349,0.335366,-0.426829,-1.31098,-9.98005,-0.114961,-0.342488,0.304878,-3.07927,7.31707
6803.8,84.9871,-2.27311,0,9.84832,0.814307,-0.526904,0.365854,0.0304878,-1.40244,-9.9561,-0.160466,-0.385598,0.213415,-2.59146,7.40854
6803.81,84.9838,-2.27618,0,9.81,0.804727,-0.560435,-0.27439,-0.0304878,-1.34146,-9.9561,-0.179626,-0.409548,0.335366,-2.65244,7.37805
6803.82,84.9864,-2.26717,0,9.78844,0.787961,-0.548459,0,-0.0914634,-1.12805,-9.9561,-0.193997,-0.361648,0.640244,-3.07927,7.43902
6803.83,84.9919,-2.24763,0,9.75731,0.737666,-0.526904,-0.335366,-0.0304878,-1.4939,-9.9561,-0.196392,-0.318538,0.640244,-2.83537,7.43902
6803.84,84.996,-2.23687,0,9.77886,0.752036,-0.550855,-0.426829,0,-1.43293,-9.97765,-0.167651,-0.349673,0.792683,-3.38415,7.31707
6803.85,84.9987,-2.22106,0,9.75252,0.783171,-0.531694,-0.182927,0.0914634,-1.12805,-9.93694,-0.160466,-0.325723,1.12805,-3.32317,7.10366
6803.86,84.9988,-2.20305,0,9.76689,0.773591,-0.56762,0.0304878,0.213415,-1.43293,-9.91778,-0.129331,-0.313748,0.914634,-3.23171,7.46951
6803.87,84.9898,-2.18919,0,9.77886,0.845442,-0.526904,-0.0304878,-0.121951,-1.12805,-9.94412,-0.158071,-0.328118,1.09756,-3.32317,7.59146
6803.88,84.9828,-2.17133,0,9.77168,0.843047,-0.517324,0.0914634,-0.396341,-1.0061,-9.94652,-0.162861,-0.308958,1.4939,-3.41463,7.68293
6803.89,84.9869,-2.14881,0,9.79563,0.799937,-0.510139,-0.152439,-0.731707,-0.884146,-10.0112,-0.124541,-0.287402,1.40244,-3.59756,7.65244
6803.9,84.9951,-2.12273,0,9.77407,0.778381,-0.541274,0,-0.609756,-0.884146,-10.0519,-0.126936,-0.268242,1.09756,-3.96341,7.16463
6803.91,85.0006,-2.11215,0,9.80521,0.771196,-0.529299,0.27439,-0.487805,-1.12805,-10.0567,-0.0814307,-0.330513,0.701219,-4.20732,7.37805
6803.92,84.9935,-2.09249,0,9.80281,0.874182,-0.555645,0.304878,-0.426829,-0.243902,-10.0854,-0.0622705,-0.289797,1.37195,-4.57317,7.19512
6803.93,84.9909,-2.0617,0,9.8124,0.852627,-0.522114,0.213415,-0.396341,-0.457317,-10.083,-0.0814307,-0.237107,0.701219,-5.51829,7.34756
6803.94,85.0096,-2.01633,0,9.8124,0.802332,-0.555645,0.457317,-0.487805,-0.0304878,-10.1118,-0.0455054,-0.167651,0.548781,-6.12805,7.10366
6803.95,85.0416,-1.98288,0,9.85072,0.735271,-0.5772,0.457317,-0.579268,-0.27439,-10.1094,-0.0526904,-0.213157,0.609756,-7.10366,7.19512
6803.96,85.0739,-1.95186,0,9.78126,0.749641,-0.514929,0.27439,-0.182927,-0.0609756,-10.095,-0.0574805,-0.217947,0.426829,-7.37805,7.53049
6803.97,85.0921,-1.91651,0,9.76928,0.761616,-0.510139,0.518293,-0.0914634,-0.396341,-10.1142,-0.0335303,-0.193997,0.243902,-7.92683,7.62195
6803.98,85.1212,-1.88681,0,9.7597,0.708926,-0.531694,0.365854,-0.0914634,-0.487805,-10.1118,-0.0431104,-0.213157,0.335366,-8.2622,7.71341
6803.99,85.1351,-1.85952,0,9.76449,0.747246,-0.512534,0.945122,-0.365854,-0.670732,-10.0687,-0.0239502,-0.217947,-0.304878,-8.5061,7.71341
6804,85.1485,-1.8105,0,9.77886,0.771196,-0.55804,0.97561,-0.27439,-0.365854,-10.0591,-0.0455054,-0.117356,0.0609756,-9.42073,7.9878
6804.01,85.1722,-1.77894,0,9.77168,0.725691,-0.565225,0.945122,-0.365854,-0.426829,-10.0543,-0.0934058,-0.186812,0.0914634,-10.2744,8.07927
6804.02,85.1866,-1.73498,0,9.78366,0.708926,-0.534089,0.579268,-0.243902,-0.97561,-10.0423,-0.143701,-0.126936,0,-11.189,8.44512
6804.03,85.2034,-1.70922,0,9.82916,0.627495,-0.579595,0.335366,-0.457317,-1.58537,-10.0758,-0.141306,-0.201182,0.396341,-12.0122,8.65854
6804.04,85.2095,-1.69821,0,9.84593,0.651445,-0.56762,0.609756,-0.243902,-1.98171,-10.1046,-0.177231,-0.263452,0.701219,-12.5915,8.90244
6804.05,85.2094,-1.65893,0,9.8555,0.637075,-0.55804,0.701219,-0.0304878,-2.56098,-10.1285,-0.119751,-0.136516,0.701219,-13.2927,8.84146
6804.06,85.2055,-1.62045,0,9.86748,0.62031,-0.64905,0.304878,0.121951,-3.04878,-10.1453,-0.0981958,-0.134121,0.579268,-14.2073,8.90244
6804.07,85.1951,-1.58402,0,9.86509,0.641865,-0.641865,0.518293,0.670732,-3.38415,-10.0902,-0.0646655,-0.136516,0.426829,-15.061,8.81098
6804.08,85.1803,-1.54295,0,9.89383,0.66821,-0.6251,0.579268,1.37195,-3.53659,-10.1118,-0.0718506,-0.110171,0.27439,-15.6402,9.2378
6804.09,85.1505,-1.50392,0,9.87706,0.787961,-0.64426,0.518293,2.0122,-3.59756,-10.1094,-0.0886157,-0.112566,-0.579268,-16.2805,9.45122
6804.1,85.1201,-1.45446,0,9.80042,0.835862,-0.55325,0.518293,2.31707,-3.04878,-10.1285,-0.0694556,-0.0598755,-0.731707,-16.9207,9.81707
6804.11,85.0936,-1.40844,0,9.75491,0.807122,-0.505349,0,2.10366,-3.04878,-10.1285,-0.0431104,-0.0670605,-0.792683,-17.561,10.2134
6804.12,85.0735,-1.37065,0,9.70941,0.780776,-0.438289,0.0914634,1.70732,-2.77439,-10.0758,-0.0526904,-0.0958008,-1.25,-18.2927,10.3659
6804.13,85.0575,-1.3327,0,9.71899,0.787961,-0.447869,-0.182927,1.7378,-2.34756,-10.0351,-0.0479004,-0.0886157,-1.21951,-18.9329,10.5793
6804.14,85.0487,-1.28897,0,9.73815,0.728086,-0.469424,0.0304878,1.52439,-2.5,-10.1046,-0.0359253,-0.0574805,-1.46341,-19.6951,10.3659
6804.15,85.0412,-1.21189,0,9.7621,0.716111,-0.507744,0.182927,1.61585,-2.56098,-10.1501,-0.0646655,0.0981958,-1.89024,-20.8841,10.0915
6804.16,85.0333,-1.14692,0,9.70941,0.692161,-0.474214,0.152439,0.731707,-2.83537,-10.1956,-0.0574805,0.0574805,-1.70732,-21.372,9.78659
6804.17,85.0219,-1.07149,0,9.67348,0.699346,-0.443079,0.152439,0.365854,-3.04878,-10.1621,-0.0646655,0.114961,-2.04268,-22.1646,9.81707
6804.18,84.9985,-0.969226,0,9.62558,0.749641,-0.443079,-0.0609756,-0.213415,-3.53659,-10.1094,-0.0790356,0.246687,-1.95122,-22.8354,9.90854
6804.19,84.9796,-0.879439,0,9.66869,0.646655,-0.502954,-0.731707,-0.213415,-4.39024,-10.1046,-0.0934058,0.208367,-2.34756,-23.5976,10.061
6804.2,84.9501,-0.812481,0,9.68785,0.680186,-0.57241,-0.853659,-0.457317,-5.09146,-10.1166,-0.0958008,0.122146,-1.95122,-24.1768,10.0915
6804.21,84.9226,-0.725306,0,9.77407,0.661025,-0.543669,-0.853659,-0.457317,-5.2439,-10.0806,-0.112566,0.222737,-1.43293,-24.878,10.1524
6804.22,84.8899,-0.628737,0,9.85072,0.725691,-0.56283,-0.823171,0.27439,-5.12195,-10.119,-0.0742456,0.280217,-1.03659,-25.6707,10.061
6804.23,84.8505,-0.497973,0,9.88185,0.787961,-0.579595,-1.12805,0.609756,-5.15244,-10.0926,-0.0598755,0.447869,-0.762195,-26.7683,9.84756
6804.24,84.8147,-0.3677,0,9.92496,0.754431,-0.622705,-0.792683,1.40244,-5.30488,-10.0758,0.00958008,0.467029,-0.914634,-27.8659,9.93902
6804.25,84.7814,-0.248381,0,9.84353,0.665815,-0.55804,-1.03659,1.76829,-6.09756,-10.0735,0.0407153,0.440684,-1.34146,-28.3841,9.39024
6804.26,84.7432,-0.0955797,0,9.8603,0.735271,-0.61073,-0.640244,1.64634,-5.85366,-10.0423,0.0934058,0.608335,-1.37195,-29.0244,9.32927
6804.27,84.7007,0.0439477,0,9.84593,0.747246,-0.699346,-0.152439,1.98171,-6.21951,-10.0639,0.0862207,0.5772,-1.40244,-29.3598,9.57317
6804.28,84.6572,0.166793,0,9.82916,0.761616,-0.708926,0.121951,2.43902,-6.21951,-10.0112,0.0670605,0.524509,-2.10366,-29.6951,9.66463
6804.29,84.6132,0.314879,0,9.80281,0.744851,-0.680186,-0.396341,2.53049,-6.52439,-9.98963,0.0191602,0.656235,-2.07317,-29.878,9.78659
6804.3,84.5739,0.484171,0,9.77407,0.684976,-0.749641,0,3.41463,-6.82927,-9.99921,0.0167651,0.775986,-2.53049,-30.7927,10.061
6804.31,84.5245,0.657339,0,9.74533,0.775986,-0.65384,1.15854,3.41463,-6.82927,-10.0447,0.0383203,0.826282,-2.28659,-31.2195,10.6098
6804.32,84.4798,0.813676,0,9.82677,0.740061,-0.754431,1.03659,3.90244,-6.95122,-10.0375,0.0814307,0.780776,-2.5,-31.7988,10.6707
6804.33,84.4355,0.964432,0,9.85311,0.732876,-0.711321,1.79878,4.05488,-7.10366,-10.0088,0.122146,0.780776,-2.43902,-32.3476,10.9756
6804.34,84.3861,1.09632,0,9.86988,0.838257,-0.651445,2.56098,4.02439,-6.4939,-9.97047,0.105381,0.720901,-2.19512,-32.1951,10.9451
6804.35,84.3374,1.26387,0,9.86988,0.866997,-0.692161,2.89634,4.32927,-6.18902,-9.96089,0.0958008,0.900527,-2.65244,-32.6524,10.9146
6804.36,84.2865,1.47618,0,9.89862,0.907712,-0.646655,3.32317,3.93293,-6.06707,-10.0902,0.119751,1.14242,-2.71341,-33.4756,10.5183
6804.37,84.2358,1.69334,0,9.88425,0.936453,-0.689766,3.53659,4.17683,-5.79268,-10.2004,0.124541,1.21427,-3.47561,-34.6341,9.63415
6804.38,84.1879,1.89798,0,9.84114,0.924478,-0.62989,3.65854,4.11585,-5.70122,-10.1764,0.148491,1.19272,-3.81098,-35.5793,8.9939
6804.39,84.1463,2.09754,0,9.82916,0.826282,-0.60115,3.81098,4.66463,-6.31098,-10.083,0.0838257,1.19511,-3.68902,-35.9451,8.56707
6804.4,84.1095,2.31857,0,9.70222,0.807122,-0.60594,4.17683,4.81707,-6.0061,-9.98723,0.0431104,1.31487,-3.75,-36.1585,8.5061
6804.41,84.0652,2.55273,0,9.78366,0.869392,-0.62989,4.35976,5.18293,-6.18902,-9.8555,-0.0143701,1.3939,-3.93293,-36.6463,8.68902
6804.42,84.0196,2.76276,0,9.81,0.874182,-0.529299,4.26829,4.81707,-6.37195,-9.82916,-0.0287402,1.32445,-3.41463,-36.8293,9.08537
6804.43,83.9741,2.98671,0,9.89383,0.910107,-0.512534,4.54268,5.06098,-6.12805,-9.79563,-0.0335303,1.41785,-3.17073,-36.8293,9.29878
6804.44,83.9251,3.15788,0,9.89383,0.974773,-0.495769,4.39024,5.73171,-5.82317,-9.88425,-0.0814307,1.23583,-2.71341,-36.8293,9.08537
6804.45,83.8742,3.3372,0,9.76928,0.984353,-0.431104,4.29878,5.45732,-5.85366,-9.92736,-0.0407153,1.30768,-1.55488,-36.8293,8.59756
6804.46,83.8218,3.55994,0,10.0375,1.02267,-0.414338,3.07927,9.02439,-5.97561,-9.95131,0.0143701,1.53521,-0.884146,-38.75,8.38415
6804.47,83.7678,3.80908,0,9.5705,0.917292,-0.301772,3.23171,6.28049,-6.95122,-10.0279,0.0886157,1.70525,-0.548781,-40.5183,7.89634
6804.48,83.701,4.06828,0,9.68306,1.01788,-0.143701,2.2561,7.16463,-7.28659,-10.0088,0.232317,1.79147,-0.670732,-41.7378,7.19512
6804.49,83.6373,4.34657,0,9.53697,1.0083,-0.162861,1.92073,7.13415,-7.04268,-9.9537,0.241897,1.91362,-0.884146,-43.1098,7.31707
6804.5,83.5642,4.63122,0,9.7142,1.04662,-0.148491,1.58537,8.17073,-7.89634,-9.9082,0.232317,1.98308,-1.58537,-43.811,6.79878
6804.51,83.5052,4.89397,0,9.63037,0.962798,-0.100591,0.426829,7.16463,-7.5,-9.80042,0.268242,1.91362,-2.53049,-44.0244,6.98171
6804.52,83.4415,5.16965,0,9.68067,0.931663,-0.191602,1.28049,6.52439,-8.53659,-9.71899,0.220342,2.00224,-3.65854,-43.3841,7.10366
6804.53,83.3835,5.47795,0,9.95131,0.895737,-0.107776,0.426829,5.54878,-8.81098,-9.6184,0.160466,2.17468,-4.20732,-43.4146,7.80488
6804.54,83.3241,5.7906,0,10.1333,0.974773,-0.122146,-0.396341,7.9878,-8.35366,-9.58966,0.117356,2.24174,-5.27439,-43.5671,7.95732
6804.55,83.2702,6.10107,0,9.8579,0.878972,-0.122146,-0.823171,7.80488,-8.71951,-9.55134,0.138911,2.27766,-5.54878,-44.0549,8.87195
6804.56,83.202,6.41268,0,9.81719,0.929268,-0.0502954,-0.762195,5.67073,-9.66463,-9.56092,0.0718506,2.33993,-5.51829,-43.9939,9.57317
6804.57,83.1408,6.70139,0,9.74773,0.850232,-0.0143701,-1.64634,4.72561,-9.93902,-9.52739,0.102986,2.28485,-4.66463,-43.9634,9.72561
6804.58,83.0769,6.97044,0,8.85918,0.780776,0.165256,-3.41463,1.15854,-10.2439,-9.45075,0.110171,2.22976,-4.35976,-44.4817,10.1524
6804.59,82.9762,7.27771,0,8.95258,0.902922,0.0526904,-1.67683,-0.152439,-12.6524,-9.45314,0.0910107,2.44531,-3.29268,-45.7622,9.93902
6804.6,82.8471,7.59569,0,10.5836,1.25978,-0.00958008,-2.0122,8.62805,-13.6585,-9.50583,0.102986,2.56028,-2.89634,-47.1341,9.11585
6804.61,82.7134,7.93445,0,9.137,1.11847,-0.256267,-1.21951,1.21951,-13.9939,-9.50823,0.119751,2.71116,-3.01829,-47.5915,8.5061
6804.62,82.5955,8.28618,0,10.495,1.36037,0.0622705,-4.72561,7.43902,-11.8293,-9.50823,0.148491,2.83091,-3.10976,-47.7439,7.16463
6804.63,82.4453,8.65317,0,9.33579,1.25978,-0.244292,-1.4939,0.731707,-14.7561,-9.44596,0.126936,2.94587,-3.17073,-47.0122,6.43293
6804.64,82.3007,9.0181,0,9.80521,1.48012,0.0311353,-3.71951,-0.97561,-12.6524,-9.36932,0.0694556,2.9794,-3.47561,-46.128,5.94512
6804.65,82.1839,9.39488,0,9.49865,1.18553,-0.167651,-2.2561,-0.609756,-13.1098,-9.30226,0.0215552,3.0776,-3.62805,-45.6707,5.67073
6804.66,82.0868,9.79476,0,9.82916,1.2526,0,-5.21341,2.2561,-11.0366,-9.24238,0.00479004,3.23088,-3.47561,-45.4268,5.88415
6804.67,81.9716,10.204,0,9.52978,1.19751,-0.376018,-1.18902,1.7378,-13.2927,-9.12263,-0.0215552,3.30273,-4.17683,-45.9451,6.15854
6804.68,81.8485,10.5689,0,11.053,1.5855,-0.196392,-1.58537,9.42073,-12.2866,-9.04838,-0.0287402,3.14945,-4.02439,-46.0366,7.0122
6804.69,81.7116,10.9439,0,8.9933,1.35079,-0.296982,-0.701219,1.70732,-13.1707,-8.99569,-0.0526904,3.24046,-3.59756,-45.8841,7.37805
6804.7,81.6364,11.3482,0,10.4902,1.36277,-0.100591,-3.32317,8.56707,-9.48171,-8.96216,-0.0263452,3.42727,-3.14024,-45.8537,7.92683
6804.71,81.5033,11.7752,0,9.39327,1.37474,-0.246687,-1.46341,5.51829,-13.6585,-9.04359,0.0287402,3.63564,-2.95732,-46.311,8.14024
6804.72,81.4017,12.2248,0,10.3082,1.42743,-0.479004,-2.68293,3.87195,-11.6159,-9.07233,0.0718506,3.83203,-2.86585,-46.5854,7.89634
6804.73,81.2797,12.6335,0,9.60403,1.42025,-0.55325,-0.121951,3.01829,-12.8354,-9.10826,0.162861,3.73863,-2.37805,-46.128,7.59146
6804.74,81.1729,13.0205,0,10.1621,1.55437,-0.452659,-1.52439,6.89024,-10.9451,-9.02683,0.158071,3.68114,-2.0122,-44.9085,7.28659
6804.75,81.0912,13.4113,0,10.0447,1.42983,-0.411943,-1.18902,8.44512,-9.81707,-8.91666,0.114961,3.72426,-2.04268,-44.2988,6.34146
6804.76,80.9883,13.841,0,9.41722,1.44659,0.0119751,-2.95732,8.90244,-10.8537,-8.81607,0.0383203,3.93262,-2.34756,-44.5732,5.67073
6804.77,80.8652,14.2699,0,9.74294,1.51126,-0.474214,0.97561,6.06707,-12.9573,-8.78733,-0.0335303,3.99489,-1.85976,-45.5183,5
6804.78,80.7283,14.6906,0,10.0639,1.76752,-0.110171,0.182927,8.07927,-12.2866,-8.74422,-0.153281,4.01645,-1.46341,-45.3354,4.39024
6804.79,80.6946,15.1506,0,11.3189,1.71483,0.251477,-5.64024,19.6341,-4.78659,-8.7035,-0.126936,4.26074,-1.03659,-45,4.08537
6804.8,80.7773,15.6095,0,10.5764,1.3005,0.182021,-11.5854,22.1037,0.0914634,-8.58136,-0.0455054,4.28229,-0.609756,-44.0244,4.57317
6804.81,80.8384,16.0416,0,9.63277,1.08973,-0.433499,-9.87805,17.9573,-1.70732,-8.50471,0.00958008,4.20565,-0.213415,-42.2866,4.54268
6804.82,80.7804,16.4785,0,8.77775,1.3484,-0.445474,-4.35976,11.6768,-6.79878,-8.44005,0.0718506,4.2775,0.0609756,-39.6951,4.7561
6804.83,80.7163,16.9021,0,9.50823,1.42264,-0.318538,-1.34146,16.6159,-7.9878,-8.36101,0.138911,4.25834,-0.182927,-37.5915,4.7561
6804.84,80.5882,17.3391,0,9.64474,1.61185,-0.239502,3.44512,11.8902,-12.6524,-8.34664,0.119751,4.39247,-0.457317,-36.6159,5
6804.85,80.4389,17.7874,0,9.45793,1.75315,0.165256,3.59756,9.29878,-13.0183,-8.34425,0.0119751,4.52659,-1.0061,-36.6768,5.09146
6804.86,80.3311,18.235,0,9.82677,1.71244,0.234712,1.4939,6.92073,-10.3354,-8.32269,-0.0239502,4.59604,-1.43293,-36.4329,5.30488
6804.87,80.2833,18.6935,0,9.10347,1.42264,0.531694,-0.97561,4.48171,-6.4939,-8.23887,-0.0263452,4.68705,-1.15854,-36.0366,5.97561
6804.88,80.1839,19.1438,0,8.69392,1.70286,0.404758,0.0304878,4.02439,-7.34756,-8.11193,0.0694556,4.6631,-1.0061,-35,6.4939
6804.89,80.1448,19.594,0,9.62798,1.60466,0.426313,-0.579268,8.2622,-4.72561,-8.07122,0.0526904,4.72537,-0.853659,-33.1098,7.46951
6804.9,80.0363,20.0655,0,9.02204,1.64298,0.131726,3.20122,5.91463,-10.122,-7.9826,0.0742456,4.86189,-1.03659,-32.0732,7.56098
6804.91,79.9305,20.5508,0,9.26873,1.6358,0.450264,2.86585,4.2378,-10.7012,-7.96344,0.0646655,5.00799,-1.82927,-31.3415,7.46951
6804.92,79.8951,21.0166,0,10.2698,1.45138,0.617915,-0.945122,4.05488,-7.7439,-8.01374,0.0934058,5.03912,-3.17073,-30.5488,7.13415
6804.93,79.9101,21.4761,0,10.0327,1.31247,0.514929,-3.07927,8.20122,-4.02439,-8.0305,0.182021,5.11097,-3.56707,-29.3902,6.64634
6804.94,79.819,21.9211,0,9.0891,1.80584,-0.227527,-1.09756,3.2622,-6.95122,-8.12151,0.268242,5.18761,-4.08537,-29.1159,5.97561
6804.95,79.6682,22.3353,0,9.41961,2.0693,-0.249082,3.10976,4.87805,-10.8841,-8.1263,0.332908,5.12534,-4.48171,-28.4756,6.0061
6804.96,79.5508,22.7258,0,9.73336,2.019,0.263452,2.56098,3.17073,-9.14634,-8.09277,0.330513,5.06786,-4.32927,-28.3537,5.97561
6804.97,79.4312,23.0946,0,9.84832,1.9711,0.296982,2.86585,2.9878,-10.4268,-8.05685,0.241897,5.01517,-4.42073,-27.8049,5.36585
6804.98,79.5035,23.476,0,11.92,1.53281,0.237107,-2.56098,13.4756,-0.304878,-8.11912,0.122146,5.19001,-4.08537,-28.0793,5.4878
6804.99,79.5602,23.8725,0,12.4062,2.07648,0.0766406,-7.28659,31.2195,3.75,-8.15983,-0.0455054,5.36963,-3.81098,-28.628,5.2439
6805,79.5408,24.254,0,9.6639,1.83698,-0.852627,-5.33537,16.25,-0.762195,-8.14786,-0.112566,5.36484,-3.23171,-29.0549,4.84756
6805.01,79.3344,24.6027,0,9.3286,2.22497,-0.0359253,-0.97561,6.06707,0,-8.08319,-0.160466,5.23312,-2.43902,-28.4146,4.66463
6805.02,79.288,24.9529,0,9.65672,2.01182,0.0574805,1.92073,7.77439,-1.15854,-7.96344,-0.162861,5.23312,-1.43293,-27.3171,4.20732
6805.03,79.2471,25.3306,0,9.64474,1.90165,0.170046,4.2378,5.64024,-3.20122,-7.90356,-0.193997,5.40316,-1.28049,-26.9207,3.84146
6805.04,79.2374,25.6851,0,9.89622,1.74118,0.371228,4.29878,4.72561,-2.7439,-7.92991,-0.210762,5.37921,-0.701219,-26.5244,3.07927
6805.05,79.2082,26.0522,0,9.54655,1.66214,0.273032,4.63415,3.71951,-4.81707,-7.95625,-0.158071,5.53489,-0.731707,-26.128,2.9878
6805.06,79.1668,26.4198,0,9.50104,1.65735,0.318538,3.90244,3.65854,-6.06707,-7.96104,-0.141306,5.61632,-1.18902,-26.7988,3.17073
6805.07,79.1188,26.7943,0,9.51541,1.67412,0.239502,3.96341,4.2378,-6.64634,-7.96584,-0.0958008,5.73368,-1.4939,-26.7988,3.81098
6805.08,79.0916,27.1436,0,9.8076,1.70286,0.294587,5.03049,3.56707,-4.90854,-7.92991,-0.0359253,5.65225,-1.31098,-27.1646,4.05488
6805.09,79.0576,27.4923,0,9.78844,2.34233,1.22386,0.27439,11.5549,2.40854,-7.81974,0.0455054,5.64267,-1.43293,-27.1646,4.72561
6805.1,79.0346,27.822,0,9.75012,2.05972,0.387993,3.47561,4.39024,0.97561,-7.75028,0.00718506,5.56603,-1.12805,-26.9817,5.51829
6805.11,79.0956,28.1729,0,10.2938,1.68609,0.435894,3.01829,6.37195,0.396341,-7.6928,-0.0598755,5.70254,-1.12805,-27.1951,5.82317
6805.12,79.1501,28.5028,0,10.0974,1.60227,0.421523,1.85976,8.65854,-0.731707,-7.6952,-0.0886157,5.66662,-1.12805,-27.4695,6.06707
6805.13,79.1441,28.8481,0,9.38608,1.66454,0.526904,1.37195,7.83537,-2.56098,-7.67364,-0.136516,5.80074,-1.09756,-27.3171,6.0061
6805.14,79.0876,29.1864,0,9.0891,1.82979,0.172441,5.21341,3.07927,-4.66463,-7.63532,-0.119751,5.80792,-0.670732,-27.0732,5.91463
6805.15,79.0272,29.5016,0,9.75252,2.04295,0.423918,4.48171,5.33537,-4.2378,-7.56347,-0.134121,5.70254,-0.213415,-26.1585,5.82317
6805.16,78.9948,29.7989,0,9.79084,1.84656,0.330513,4.32927,6.31098,-3.93293,-7.49641,-0.170046,5.6259,0.579268,-24.7256,5.42683
6805.17,78.9604,30.1056,0,9.72857,1.82021,0.423918,4.02439,5.39634,-4.35976,-7.45809,-0.249082,5.70733,1.03659,-23.9329,5.15244
6805.18,78.9372,30.4415,0,9.6639,1.74597,0.507744,3.96341,4.7561,-4.05488,-7.42935,-0.330513,5.90372,1.4939,-23.6585,5.09146
6805.19,78.9578,30.7687,0,9.72857,1.52802,0.5772,4.02439,5.27439,-2.77439,-7.47965,-0.340093,5.96839,1.89024,-23.4451,5.39634
6805.2,78.9456,31.0637,0,9.32142,1.81063,0.766406,3.29268,3.81098,-1.43293,-7.46767,-0.268242,5.85582,2.65244,-23.0183,5.85366
6805.21,78.9644,31.3533,0,9.25675,1.76273,0.807122,1.85976,3.41463,-0.0914634,-7.41019,-0.155676,5.84624,3.20122,-21.4634,6.31098
6805.22,78.955,31.6645,0,9.29986,1.7292,0.63947,3.78049,0.914634,-2.28659,-7.39822,-0.146096,6.01389,2.68293,-21.25,6.70732
6805.23,78.8956,31.9501,0,9.15137,1.84417,0.419128,5.39634,-1.15854,-5.33537,-7.46528,-0.143701,5.99713,2.07317,-20.3659,6.4939
6805.24,78.8877,32.2642,0,10.21,1.9256,0.682581,2.22561,3.75,-1.82927,-7.4557,-0.0862207,6.20789,2.10366,-20.1524,6.52439
6805.25,78.8475,32.5962,0,8.81367,1.83698,0.783171,0.426829,1.92073,-1.95122,-7.42456,-0.0263452,6.35159,2.04268,-20.3049,6.82927
6805.26,78.7894,32.8773,0,9.2304,1.89686,0.356858,5.82317,-2.68293,-4.96951,-7.34792,0.0502954,6.07856,2.65244,-19.1768,7.16463
6805.27,78.7316,33.1719,0,9.49865,1.99266,0.55325,4.66463,0.396341,-4.57317,-7.2593,0.0550855,6.14083,2.2561,-17.7744,7.19512
6805.28,78.6912,33.4694,0,9.6663,1.90883,0.613125,3.5061,2.65244,-4.32927,-7.28804,-0.00239502,6.24621,2.10366,-17.5915,6.92073
6805.29,78.6536,33.7693,0,9.65432,1.86333,0.613125,3.29268,2.71341,-4.63415,-7.22338,0.0167651,6.27016,0.823171,-16.8293,6.34146
6805.3,78.6239,34.0492,0,9.59445,1.76034,0.502954,2.65244,0.823171,-5,-7.30241,-0.0143701,6.29411,-0.27439,-15.9451,6.15854
6805.31,78.6034,34.3091,0,9.68785,1.71962,0.385598,1.82927,2.34756,-4.81707,-7.43893,-0.0910107,6.36117,-1.52439,-15.6098,5.70122
6805.32,78.595,34.556,0,9.89862,1.73878,0.337698,0.853659,7.62195,-3.87195,-7.43414,-0.0694556,6.34201,-1.95122,-15.7927,5.67073
6805.33,78.7061,34.8275,0,11.3045,1.51126,0.756826,-4.57317,17.8354,3.5061,-7.4078,-0.0934058,6.51445,-1.92073,-16.9512,6.15854
6805.34,78.6723,35.0898,0,9.32621,1.83458,0.304167,0.426829,9.39024,-3.81098,-7.31439,-0.0622705,6.44021,-1.21951,-17.561,6.79878
6805.35,78.6244,35.3397,0,9.82437,1.99505,0.720901,1.92073,6.58537,-4.57317,-7.18027,-0.0287402,6.31088,-0.701219,-17.5305,7.65244
6805.36,78.589,35.6087,0,9.92257,1.93757,0.696951,1.85976,5.30488,-4.29878,-7.06291,-0.114961,6.37075,-0.182927,-16.8598,7.77439
6805.37,78.6026,35.8786,0,10.2195,1.66693,0.57241,1.52439,8.14024,-3.20122,-6.98867,-0.129331,6.36836,0.701219,-16.7988,7.89634
6805.38,78.5438,36.1252,0,9.70701,2.01661,0.524509,3.5061,5.7622,-5.30488,-6.97669,-0.177231,6.28693,1.18902,-16.4634,7.68293
6805.39,78.5043,36.4034,0,9.65432,1.92081,0.440684,3.47561,6.06707,-4.45122,-6.92161,-0.205972,6.47134,1.98171,-15.6707,7.77439
6805.4,78.4723,36.6688,0,9.68785,1.86812,0.464634,3.93293,4.45122,-4.48171,-6.91203,-0.191602,6.45218,2.16463,-15.3963,7.89634
6805.41,78.4466,36.9135,0,9.67109,1.86093,0.464634,3.53659,3.75,-3.96341,-6.85455,-0.167651,6.34201,2.28659,-14.2988,7.56098
6805.42,78.4247,37.1844,0,9.77407,1.9232,0.512534,2.68293,5,-3.17073,-6.84736,-0.110171,6.5408,2.13415,-13.4756,7.62195
6805.43,78.4118,37.4469,0,9.68306,1.89207,0.692161,2.10366,5.30488,-2.53049,-6.87371,-0.102986,6.57912,1.79878,-13.6585,7.86585
6805.44,78.4165,37.7039,0,9.59205,1.78908,0.713716,2.34756,5.45732,-2.13415,-6.8785,-0.0814307,6.61265,1.67683,-13.4146,8.04878
6805.45,78.4531,37.9554,0,9.29986,1.79147,1.31966,-0.182927,8.38415,1.7378,-6.84257,-0.0359253,6.60546,1.4939,-12.8659,8.62805
6805.46,78.475,38.1735,0,9.30705,1.75794,0.749641,0.0304878,5.60976,-1.09756,-6.80425,0.00958008,6.43542,1.52439,-12.2256,8.84146
6805.47,78.4845,38.3758,0,9.40764,1.61424,0.409548,4.20732,2.43902,-3.10976,-6.84976,0.0622705,6.43781,1.28049,-11.6159,9.17683
6805.48,78.4701,38.5867,0,9.5681,1.78908,0.716111,2.89634,4.87805,-3.47561,-6.88329,0.00958008,6.56475,1.09756,-11.5244,8.87195
6805.49,78.4349,38.7951,0,9.65911,1.93757,0.799937,2.53049,5.33537,-3.9939,-6.91921,-0.0455054,6.6342,0.853659,-10.7622,8.96341
6805.5,78.3877,39.0119,0,9.71659,2.04295,0.807122,1.09756,3.29268,-4.17683,-6.91442,-0.0287402,6.72761,1.12805,-10.9756,8.78049
6805.51,78.3436,39.2028,0,9.83395,2.07409,0.687371,0.518293,2.7439,-3.87195,-6.89526,-0.0191602,6.60786,1.58537,-10.3963,8.81098
6805.52,78.3141,39.3793,0,9.79084,2.00224,0.730481,1.18902,4.11585,-3.23171,-6.89047,-0.00239502,6.56475,2.19512,-9.48171,8.65854
6805.53,78.2907,39.5548,0,9.69504,1.99266,0.799937,0.792683,3.78049,-2.56098,-6.96951,-0.0335303,6.67492,2.10366,-9.42073,8.38415
6805.54,78.2806,39.7136,0,9.70462,1.90404,0.641865,1.0061,4.93902,-2.46951,-7.0198,-0.0958008,6.66534,1.98171,-9.72561,8.07927
6805.55,78.2987,39.8536,0,9.82437,1.9232,0.711321,-0.0914634,6.43293,-0.609756,-7.07489,-0.0910107,6.64378,2.10366,-9.78659,8.01829
6805.56,78.3204,39.9992,0,9.3765,1.8777,0.61073,-1.43293,8.38415,-0.182927,-7.12279,-0.105381,6.75395,1.64634,-10.7927,7.9878
6805.57,78.3258,40.1164,0,9.49386,1.80105,0.385598,0.365854,5.73171,-1.98171,-7.15632,-0.0886157,6.65097,1.82927,-10.9756,7.86585
6805.58,78.3424,40.1936,0,9.51302,1.71483,0.64426,2.43902,4.02439,-2.10366,-7.2138,-0.0718506,6.49769,2.34756,-11.189,8.04878
6805.59,78.3429,40.2816,0,9.68785,1.81782,0.797541,2.31707,3.32317,-2.40854,-7.24733,-0.0407153,6.60786,2.80488,-11.6768,7.86585
6805.6,78.3401,40.3636,0,9.85311,1.88249,0.718506,0.792683,1.34146,-2.28659,-7.30241,-0.0838257,6.64139,2.83537,-13.2927,7.77439
6805.61,78.3588,40.4204,0,9.79803,1.76034,0.447869,1.15854,0.304878,-1.89024,-7.33594,-0.136516,6.54319,3.04878,-13.75,7.80488
6805.62,78.3477,40.4839,0,9.74294,1.80105,0.349673,2.9878,-0.914634,-3.62805,-7.31918,-0.146096,6.57912,3.81098,-14.4512,8.23171
6805.63,78.3394,40.5706,0,9.74773,1.72441,0.6251,3.59756,0.27439,-4.2378,-7.21859,-0.196392,6.6366,4.81707,-15.9756,8.5061
6805.64,78.3269,40.6379,0,9.69743,1.66454,0.699346,3.35366,-0.304878,-5.2439,-7.13716,-0.129331,6.46895,6.4939,-16.4024,8.71951
6805.65,78.2995,40.6952,0,9.68306,1.71004,0.799937,2.5,-1.25,-6.18902,-7.15392,-0.153281,6.4426,7.37805,-16.2805,8.62805
6805.66,78.2577,40.7758,0,10.0591,1.98787,0.62031,-1.95122,-1.58537,-5.33537,-7.21859,-0.0598755,6.64857,7.59146,-16.7988,8.01829
6805.67,78.2546,40.8241,0,9.86269,1.79626,0.0431104,-3.20122,1.18902,-3.38415,-7.32157,0.0646655,6.57193,7.86585,-17.2866,7.43902
6805.68,78.203,40.8748,0,9.33818,1.8753,0.0766406,-0.670732,0.487805,-6.06707,-7.43893,0.131726,6.70126,7.62195,-18.0488,6.37195
6805.69,78.1602,40.9089,0,9.76689,1.78908,1.06818,0.152439,-3.62805,-7.2561,-7.55389,0.122146,6.71563,7.5,-19.9085,5.85366
6805.7,78.1336,40.9381,0,9.90341,1.70525,0.843047,-0.518293,-7.07317,-6.95122,-7.54431,0.100591,6.6845,7.77439,-20.7927,5.7622
6805.71,78.116,41.0178,0,9.86269,1.65496,0.395178,0.0304878,-7.65244,-6.58537,-7.46767,0.174836,6.924,8.29268,-23.3537,6.28049
6805.72,78.0927,41.0791,0,9.96568,1.67172,0.766406,0.152439,-6.18902,-7.19512,-7.43654,0.251477,6.79946,7.95732,-25.5793,6.52439
6805.73,78.0261,41.141,0,10.107,1.94715,0.340093,-0.304878,-6.31098,-8.84146,-7.42217,0.270637,6.80425,7.77439,-26.4634,6.70732
6805.74,78.1291,41.1973,0,10.7944,1.46575,0.356858,-0.182927,-1.85976,-0.792683,-7.53713,0.148491,6.88808,8.04878,-28.0793,6.52439
6805.75,78.0345,41.251,0,9.49865,2.11959,0.799937,5.06098,0.121951,-8.20122,-7.57545,0.0718506,6.91921,8.14024,-29.5427,6.28049
6805.76,77.9454,41.3482,0,9.58487,2.019,0.730481,4.54268,-0.182927,-9.2378,-7.47246,0.0886157,7.10363,7.68293,-31.0366,6.09756
6805.77,77.8745,41.4736,0,9.78366,1.93039,0.881367,4.11585,-2.92683,-9.05488,-7.29283,0.234712,7.12997,7.40854,-32.7439,6.18902
6805.78,77.8184,41.6247,0,10.107,1.8777,0.795146,2.7439,-11.0671,-8.9939,-7.01022,0.385598,7.04136,6.21951,-32.7134,6.64634
6805.79,77.7868,41.8033,0,10.2052,1.67891,0.344883,0.579268,-15.8537,-9.02439,-6.93358,0.462239,7.17308,5.03049,-32.8354,6.43293
6805.8,77.9224,41.9541,0,9.36692,0.505349,0.399968,0.701219,-16.0061,-5.12195,-7.01741,0.373623,7.12758,5.06098,-33.3537,6.09756
6805.81,77.9016,42.0383,0,8.68195,1.16637,-0.217947,9.5122,-18.9634,-11.1585,-7.17069,0.122146,6.90245,6.46341,-34.6341,5.73171
6805.82,77.7773,42.0726,0,9.16095,1.85135,0.280217,12.3171,-14.878,-14.0549,-7.38385,-0.201182,6.82102,8.56707,-35.0915,4.93902
6805.83,77.6444,42.1687,0,10.0926,2.26569,-0.184417,13.0183,-13.75,-12.6829,-7.39343,-0.177231,7.21859,9.84756,-37.6829,5
6805.84,77.5148,42.3264,0,10.3824,2.35909,0.299377,14.5732,-11.3415,-12.3171,-7.25691,-0.0143701,7.5012,10.5183,-40.8841,5.97561
6805.85,77.4309,42.5403,0,9.89143,2.14354,0.857417,7.83537,-6.46341,-9.08537,-7.10363,0.285007,7.75507,10.7927,-43.9329,7.22561
6805.86,77.3051,42.7416,0,9.52739,1.93757,0.579595,13.9024,-4.60366,-15.0305,-6.89287,0.61073,7.49641,10.5488,-44.7866,7.86585
6805.87,77.1451,42.9658,0,10.1477,2.14833,1.31487,8.90244,-1.61585,-17.8354,-6.6366,0.811912,7.41977,9.29878,-43.2927,8.62805
6805.88,77.0612,43.2904,0,9.74294,1.53281,0.627495,9.26829,-0.97561,-16.5549,-6.3971,0.912502,7.8868,7.43902,-42.3171,9.14634
6805.89,76.9064,43.6271,0,9.57529,1.89925,1.30768,10.3354,-2.31707,-19.2988,-6.21029,0.728086,7.82932,5.79268,-43.1098,8.71951
6805.9,76.7617,43.9506,0,9.40524,1.74118,0.924478,8.41463,-7.28659,-20.0915,-6.04982,0.570015,7.63053,4.39024,-41.3415,7.68293
6805.91,76.6412,44.3184,0,9.6663,1.71244,1.1065,4.81707,-5.88415,-18.811,-5.93007,0.498164,7.88201,3.78049,-39.6646,6.15854
6805.92,76.5428,44.6996,0,9.79323,1.56155,1.21906,4.32927,-7.95732,-18.811,-5.88935,0.414338,8.0329,3.04878,-38.5976,4.66463
6805.93,76.3992,45.0599,0,8.76338,1.42504,0.886157,3.65854,-6.76829,-23.2622,-5.8678,0.332908,7.96344,3.44512,-37.1037,4.11585
6805.94,76.1582,45.4016,0,10.1597,2.35909,1.50886,0.426829,-3.62805,-25.6707,-5.92767,0.285007,8.01374,4.05488,-35.7317,3.78049
6805.95,75.9661,45.7371,0,10.3992,2.29682,1.18314,-10.7012,4.66463,-22.439,-5.94444,0.318538,8.09277,5.2439,-34.8171,4.08537
6805.96,75.7294,46.0705,0,9.76449,2.19384,0.263452,-4.42073,-3.62805,-26.9512,-5.92767,0.337698,8.15504,5.85366,-34.2988,5.12195
6805.97,75.4945,46.4329,0,10.1788,2.45969,0.328118,-7.53049,1.7378,-25.3659,-5.86061,0.457449,8.38496,6.67683,-34.8171,6.15854
6805.98,75.2383,46.7984,0,10.1285,2.67524,0.294587,-2.86585,-1.79878,-25.5488,-5.81511,0.579595,8.45681,6.79878,-35.5183,7.13415
6805.99,74.9916,47.1685,0,9.6663,2.49801,-0.335303,-3.65854,7.34756,-25.7317,-5.75284,0.687371,8.51908,6.34146,-35.4573,7.92683
6806,74.6577,47.5764,0,10.1142,3.07521,0.65384,-0.97561,7.28659,-30.1829,-5.68817,0.735271,8.85678,5.57927,-36.1585,8.81098
6806.01,74.3575,47.9669,0,9.63516,2.47885,-0.323328,3.17073,5.54878,-32.5,-5.63069,0.771196,8.75619,4.05488,-36.6159,9.35976
6806.02,74.0743,48.3717,0,10.0375,2.61057,0.550855,2.9878,4.02439,-31.0671,-5.44388,0.847837,8.71548,3.07927,-35.9451,9.57317
6806.03,73.7943,48.8018,0,9.82197,2.57465,0.165256,3.53659,2.43902,-31.0976,-5.36963,1.0107,8.95737,1.15854,-35.5183,9.81707
6806.04,73.52,49.2288,0,9.82916,2.58423,0.0359253,2.56098,1.40244,-31.0061,-5.32652,1.07776,9.01006,-0.701219,-35.3659,10.4268
6806.05,73.271,49.661,0,9.73575,2.39023,0.102986,3.65854,0.884146,-30.8841,-5.20438,0.936453,9.00288,-2.04268,-35.2134,10.3659
6806.06,73.0036,50.0566,0,9.57289,2.47406,0.440684,4.32927,0.823171,-31.8598,-5.16606,0.775986,8.76338,-2.04268,-34.1159,9.39024
6806.07,72.7031,50.436,0,9.42919,2.57225,0.447869,6.0061,0.853659,-34.2073,-5.08463,0.56762,8.62446,-1.85976,-32.1951,8.87195
6806.08,72.3527,50.8218,0,9.29268,2.76864,0.471819,6.85976,-1.25,-37.1951,-5.0487,0.380808,8.7514,-1.85976,-32.3171,8.68902
6806.09,71.9651,51.1964,0,9.26633,2.99617,0.66342,5.45732,0.701219,-38.9939,-4.99362,0.241897,8.69153,-1.18902,-32.5,9.45122
6806.1,71.5609,51.5546,0,9.50104,3.15664,0.376018,7.9878,0.121951,-40.5488,-4.94093,0.313748,8.58615,-1.18902,-32.378,10.8841
6806.11,71.1463,51.9298,0,9.84593,3.42248,0.62989,7.31707,1.58537,-40.8232,-4.86907,0.404758,8.73703,-1.46341,-32.1341,12.6524
6806.12,70.747,52.2836,0,10.1525,3.51828,0.320933,7.22561,2.0122,-40.2134,-4.84273,0.526904,8.63165,-1.40244,-32.3476,13.4756
6806.13,70.3459,52.6331,0,10.0447,3.61887,0.201182,5.36585,4.39024,-39.7866,-4.87626,0.483794,8.77775,-1.31098,-32.6524,14.2378
6806.14,69.9245,53.0005,0,9.74773,3.84161,0.198787,4.20732,8.07927,-39.2073,-4.84273,0.450264,9.01006,-1.37195,-33.8415,13.5671
6806.15,69.4998,53.3558,0,9.41482,3.74342,-0.0239502,5.82317,8.44512,-40.061,-4.8068,0.502954,8.96695,-1.82927,-33.9634,12.8049
6806.16,69.0288,53.7033,0,8.63644,3.79132,0.541274,7.53049,9.05488,-41.5244,-4.8092,0.519719,9.03162,-2.04268,-33.2622,12.4085
6806.17,68.5537,54.0707,0,8.33227,3.63324,0.680186,9.90854,3.81098,-43.2012,-4.62478,0.467029,9.00527,-3.04878,-33.2012,10.9451
6806.18,68.1056,54.4274,0,9.23759,3.8943,0.452659,11.0976,0.670732,-42.8354,-4.5697,0.455054,8.93582,-2.9878,-32.8963,9.42073
6806.19,67.6643,54.7885,0,9.26633,4.07393,0.651445,9.7561,-1.15854,-41.2805,-4.4715,0.443079,8.92384,-3.01829,-32.439,8.93293
6806.2,67.2263,55.1394,0,9.16334,4.09309,0.651445,7.13415,0.304878,-41.1585,-4.45234,0.395178,8.92624,-3.29268,-32.0427,8.38415
6806.21,66.8034,55.4804,0,9.13221,4.00687,0.426313,8.78049,-0.945122,-41.2805,-4.42839,0.464634,8.91905,-3.23171,-31.7073,8.78049
6806.22,66.3543,55.8206,0,8.95019,4.12422,0.699346,10.5488,-4.11585,-42.6829,-4.39965,0.445474,8.98611,-2.7439,-31.8293,9.05488
6806.23,65.9229,56.156,0,9.26873,4.44995,0.809517,3.81098,-6.15854,-39.939,-4.35415,0.469424,8.97893,-2.80488,-32.1646,8.93293
6806.24,65.4155,56.4955,0,8.92145,4.77806,0.974773,2.7439,0.304878,-43.4146,-4.3781,0.505349,9.20646,-3.35366,-32.9878,8.71951
6806.25,64.9384,56.8368,0,9.17772,4.72537,0.232317,1.09756,-0.335366,-43.2622,-4.33738,0.462239,9.27831,-4.29878,-33.9634,8.47561
6806.26,64.4601,57.1686,0,9.2807,4.99362,0.570015,2.56098,0.457317,-42.2256,-4.25595,0.368833,9.14658,-4.81707,-34.4512,8.38415
6806.27,64.0063,57.4871,0,9.13221,4.84991,0.275427,1.31098,0.670732,-41.3415,-4.21044,0.368833,9.04599,-4.54268,-34.2683,8.2622
6806.28,63.5487,57.8112,0,8.66758,4.63915,0.0526904,3.41463,4.35976,-42.2866,-4.1338,0.277822,9.07233,-3.93293,-33.872,7.95732
6806.29,63.0629,58.1526,0,8.33227,4.60802,0.500559,4.78659,1.95122,-44.4817,-4.00926,0.328118,9.11784,-4.42073,-34.2073,6.92073
6806.3,62.6029,58.503,0,9.00288,4.79722,0.66821,1.76829,-4.11585,-44.6646,-3.94939,0.404758,9.22801,-5.12195,-34.3293,6.34146
6806.31,62.2202,58.8734,0,8.9909,4.38289,0.898132,0.396341,-8.44512,-41.9207,-3.8464,0.433499,9.37171,-6.25,-34.6646,5.4878
6806.32,61.7489,59.2442,0,8.71787,4.88824,0.538879,3.01829,-9.66463,-45.0305,-3.76497,0.402363,9.35016,-6.18902,-34.5427,5.03049
6806.33,61.2771,59.5884,0,8.86397,5.05349,0.426313,2.9878,-10.4878,-45.2134,-3.76737,0.299377,9.21603,-5.4878,-34.3902,4.63415
6806.34,60.8303,59.9062,0,9.11305,5.06307,0.162861,5.06098,-7.89634,-44.9085,-3.77695,0.143701,9.09389,-4.60366,-33.9634,4.17683
6806.35,60.3482,60.2243,0,8.81846,5.34329,0.222737,4.81707,-6.4939,-45.0305,-3.70989,0.110171,9.07712,-3.81098,-33.8415,4.35976
6806.36,59.8529,60.5517,0,8.7538,5.42711,0.263452,1.64634,-2.9878,-46.1585,-3.64522,0.138911,9.17053,-4.5122,-34.1463,5.09146
6806.37,59.3744,60.8989,0,8.90229,5.34089,0.313748,-1.98171,0.365854,-47.1646,-3.58295,0.107776,9.40764,-4.90854,-34.6037,5.51829
6806.38,58.9522,61.2551,0,9.15376,4.99601,-0.0790356,-1.98171,4.26829,-47.1646,-3.53744,-0.0790356,9.5705,-5.27439,-36.128,6.12805
6806.39,58.4964,61.5988,0,8.71069,5.07026,0.292192,-3.93293,5.64024,-48.2317,-3.43206,-0.191602,9.30465,-4.11585,-36.4329,6.92073
6806.4,58.0454,61.9455,0,8.72985,5.12295,-0.0670605,-4.84756,6.61585,-48.2622,-3.28836,-0.189207,9.12263,-2.22561,-35.4573,7.89634
6806.41,57.6006,62.2932,0,8.84241,5.18761,-0.0694556,-4.05488,7.77439,-48.5671,-3.24046,-0.160466,9.17772,-0.0914634,-34.8171,8.65854
6806.42,57.0811,62.6237,0,8.40412,5.47741,0.143701,-0.396341,7.31707,-51.5854,-3.2237,-0.0838257,9.0891,0.792683,-33.9024,9.57317
6806.43,56.561,62.9402,0,8.62207,5.46783,0.220342,1.34146,11.5549,-54.1768,-3.21172,0.0383203,9.04599,1.21951,-32.8963,9.5122
6806.44,56.0102,63.2885,0,8.47597,5.66183,0.682581,1.40244,7.46951,-55.5793,-3.04167,0.186812,9.12981,0.792683,-32.8354,9.42073
6806.45,55.4895,63.6762,0,8.63644,5.52291,-0.308958,1.58537,4.29878,-55.9756,-2.91234,0.342488,9.47709,-1.55488,-32.8354,9.32927
6806.46,54.9586,64.0979,0,8.16702,5.41274,0.179626,4.69512,7.0122,-56.1585,-2.67763,0.476609,9.43877,-3.14024,-32.7439,9.5122
6806.47,54.3994,64.5329,0,7.95625,5.79834,0.392783,2.16463,5.33537,-54.939,-2.51238,0.538879,9.3286,-3.59756,-31.4939,10.061
6806.48,53.8618,64.9627,0,7.9826,5.73847,-0.213157,3.17073,5.12195,-54.6341,-2.45729,0.459844,9.32381,-2.83537,-30.6402,10.3963
6806.49,53.3083,65.3822,0,7.86524,6.03305,0.112566,2.31707,4.02439,-53.7195,-2.43573,0.359253,9.35734,-2.80488,-29.4512,10.7317
6806.5,52.7635,65.7727,0,7.6473,5.9133,0.203577,3.14024,1.34146,-53.5061,-2.46208,0.268242,9.25675,-2.65244,-28.1098,10.4878
6806.51,52.2367,66.1578,0,7.61377,5.9133,0.795146,2.95732,0.884146,-52.5305,-2.41178,0.198787,9.2352,-2.86585,-26.5549,10.5488
6806.52,51.7003,66.5373,0,7.70478,5.94683,0.316143,0.304878,-1.52439,-54.939,-2.35191,0.201182,9.17292,-3.04878,-24.7561,9.96951
6806.53,51.1685,66.9183,0,7.31199,5.69775,-0.136516,7.53049,2.28659,-55.0305,-2.213,0.196392,8.90708,-2.62195,-22.5305,9.66463
6806.54,50.6243,67.3161,0,7.65688,6.02108,-0.0574805,9.5122,2.10366,-56.8598,-2.09085,0.148491,8.95737,-2.77439,-20.6098,9.26829
6806.55,50.0882,67.7146,0,7.72873,6.19352,0.481399,8.62805,0.823171,-56.0671,-2.01661,0.0550855,8.93821,-2.68293,-18.9939,9.17683
6806.56,49.5298,68.1083,0,7.38385,6.35878,0.730481,3.87195,-0.213415,-55.3049,-1.98787,-0.0670605,9.01964,-2.83537,-17.3171,8.41463
6806.57,49.0307,68.5122,0,7.47486,6.13365,0.328118,3.96341,-2.7439,-53.1707,-1.89207,-0.0622705,9.07952,-1.7378,-15.9756,8.62805
6806.58,48.5599,68.9286,0,7.47965,6.27495,0.179626,5.30488,-8.14024,-50.0305,-1.76992,-0.0550855,9.06994,-1.09756,-13.7195,8.9939
6806.59,48.043,69.3231,0,6.92879,6.43542,0.579595,6.46341,-7.62195,-49.7866,-1.76513,0.0215552,8.9454,-0.0914634,-10.8537,9.11585
6806.6,47.4916,69.6941,0,6.80904,6.57193,0.811912,3.04878,-3.47561,-52.1341,-1.78668,0.146096,8.88792,0.640244,-7.53049,9.2378
6806.61,46.9537,70.0692,0,6.7348,6.46416,0.783171,1.0061,-4.11585,-52.1951,-1.77231,0.354463,8.99809,0.914634,-4.78659,9.60366
6806.62,46.4677,70.4969,0,7.04375,6.4929,0.802332,0.487805,-1.85976,-50.3659,-1.80105,0.488584,9.22083,-0.121951,-2.62195,9.69512
6806.63,45.9628,71.0483,0,6.85694,6.78749,0.876577,-1.40244,-0.243902,-49.1159,-1.83458,0.6251,9.2807,-2.62195,-1.40244,9.69512
6806.64,45.5017,72.2137,0,7.10123,6.55277,0.651445,-1.79878,3.81098,-49.7866,-1.78189,0.64905,9.11065,-4.5122,0.152439,9.66463
6806.65,45.0782,72.583,0,7.21859,6.59109,0.332908,-2.37805,5.57927,-47.5,-1.66214,0.62031,8.93582,-5.57927,2.62195,9.66463
6806.66,44.6832,72.894,0,7.29762,6.4426,0.237107,0.121951,-1.85976,-47.4085,-1.52563,0.524509,8.88792,-6.09756,5.09146,9.7561
6806.67,44.2898,73.2056,0,7.43893,6.70366,0.263452,-2.04268,-7.68293,-46.8598,-1.46815,0.340093,9.03641,-5.70122,7.07317,10.061
6806.68,43.8908,73.4912,0,6.89766,6.24621,0.0479004,3.81098,-4.54268,-47.9573,-1.49449,0.126936,8.8951,-5.39634,9.66463,10.2744
6806.69,43.5003,73.753,0,6.6821,6.67252,1.15919,-4.87805,-10.3354,-42.1951,-1.54718,-0.0239502,8.92384,-4.39024,12.439,10.3049
6806.7,43.0073,73.977,0,6.0594,6.87131,0.380808,-3.29268,-10.2439,-46.0366,-1.64777,-0.141306,8.88073,-3.53659,15.6402,9.93902
6806.71,42.5064,74.1587,0,6.09293,6.90724,0.440684,-0.27439,-13.2012,-47.8659,-1.76992,-0.124541,8.82325,-3.35366,18.7195,9.7561
6806.72,42.0096,74.3012,0,6.33722,7.24733,1.02028,-2.28659,-12.9878,-47.9573,-1.91362,-0.0479004,8.8975,-2.89634,21.25,9.81707
6806.73,41.5345,74.407,0,6.42584,7.29762,0.821492,-2.95732,-16.128,-47.1646,-2.01421,0.112566,8.78493,-2.43902,22.9878,9.7561
6806.74,41.1331,74.4743,0,6.74198,7.14195,0.399968,-4.72561,-16.8902,-44.6646,-2.15073,0.105381,8.77535,-2.10366,24.4512,9.48171
6806.75,40.7313,74.5248,0,7.05333,7.63053,0.263452,-2.19512,-11.0061,-44.2988,-2.23934,0.107776,8.89989,-2.62195,25.8841,9.29878
6806.76,40.3516,74.5487,0,6.99585,7.53234,0.289797,-5.70122,-4.35976,-43.1402,-2.2585,0.105381,8.58854,-2.13415,27.8963,8.87195
6806.77,40.0284,74.5906,0,7.19224,7.19224,0.342488,-7.2561,-1.12805,-42.4695,-2.19863,0.0646655,8.66039,-1.25,30.2439,8.65854
6806.78,39.7238,74.6413,0,7.02938,7.04854,0.184417,-5.70122,1.0061,-41.0671,-2.19863,-0.00718506,8.83762,-0.579268,31.8598,8.96341
6806.79,39.3881,74.6776,0,6.67731,7.19703,0.232317,-5.45732,7.46951,-40.6402,-2.25132,0.0191602,8.8472,-0.640244,33.2317,8.9939
6806.8,39.0287,74.6892,0,6.22466,7.00783,0.0311353,-3.78049,5.4878,-41.2195,-2.31119,0.0622705,8.71308,-0.396341,35.2744,8.78049
6806.81,38.6127,74.6902,0,6.01389,7.12997,0.275427,-5.94512,3.38415,-44.7256,-2.38065,0.167651,8.82086,-0.0609756,36.6463,9.5122
6806.82,38.1885,74.6638,0,6.03066,7.24733,-0.0263452,-5.60976,0.396341,-45.6402,-2.44531,0.261057,8.65081,0.243902,38.872,9.57317
6806.83,37.8331,74.6257,0,6.32525,6.93119,-0.0143701,-3.44512,-3.65854,-44.8171,-2.53393,0.313748,8.78014,-0.0304878,40.6402,9.93902
6806.84,37.4129,74.5489,0,6.06419,7.94188,-0.131726,3.9939,-7.5,-41.9207,-2.70158,0.380808,8.77775,-0.518293,41.5854,9.72561
6806.85,37.0142,74.4269,0,6.25579,8.0808,0.787961,-1.89024,-7.0122,-41.372,-2.77343,0.330513,8.37778,0.0609756,43.5976,9.60366
6806.86,36.6558,74.3019,0,6.21508,7.65209,0.253872,-3.47561,-5.21341,-40.7927,-2.88121,0.261057,8.6077,0.27439,45.061,9.42073
6806.87,36.3201,74.1511,0,6.2031,7.49641,0.0550855,-0.487805,-3.04878,-40.2744,-2.99138,0.249082,8.55262,-0.335366,46.2195,9.05488
6806.88,35.9877,73.9643,0,6.11448,7.42696,0.0790356,-1.15854,1.79878,-40.3354,-3.04886,0.162861,8.22929,-0.640244,47.7134,8.9939
6806.89,35.6197,73.7882,0,5.95641,7.55629,0.105381,-0.945122,5.73171,-42.1646,-3.13029,0.184417,8.48795,-1.76829,48.3537,8.65854
6806.9,35.2425,73.604,0,5.94444,7.71436,0.0335303,0.0304878,7.28659,-42.561,-3.22609,0.215552,8.57177,-1.98171,47.9878,8.75
6806.91,34.8817,73.402,0,6.13843,7.82453,-0.0981958,-1.12805,7.59146,-42.6829,-3.30513,0.299377,8.49753,-1.89024,49.2683,9.17683
6806.92,34.5391,73.1802,0,6.20789,7.92991,-0.124541,0.335366,7.86585,-41.4329,-3.39374,0.411943,8.42089,-1.98171,50.3354,9.87805
6806.93,34.1898,72.9423,0,6.05221,8.05206,-0.0263452,1.06707,8.68902,-40.5183,-3.44164,0.488584,8.27958,-1.82927,51.8293,10.7012
6806.94,33.8375,72.6866,0,5.98994,8.34185,0.0143701,-0.762195,11.4024,-38.9939,-3.52068,0.550855,8.19336,-1.61585,52.4695,11.128
6806.95,33.4954,72.4129,0,5.70733,8.14067,-0.464634,0.213415,14.6341,-37.3476,-3.66198,0.55804,8.23887,-2.0122,53.0488,11.4634
6806.96,33.1392,72.1279,0,5.22114,7.8868,-0.102986,3.29268,17.9268,-36.372,-3.77455,0.538879,8.27479,-2.19512,53.0183,11.5854
6806.97,32.7157,71.8414,0,4.80201,8.09277,0.378413,5.06098,15.9756,-38.2012,-3.88472,0.404758,8.38975,-3.23171,53.2317,10.8232
6806.98,32.2498,71.5462,0,4.58886,8.25084,0.706531,1.4939,11.372,-40.122,-3.96615,0.332908,8.37299,-3.93293,53.75,10.2439
6806.99,31.8176,71.2385,0,4.81638,8.12151,0.337698,2.22561,7.04268,-40.8841,-4.02124,0.265847,8.26282,-4.7561,54.9695,10.2134
6807,31.4249,70.924,0,5.0487,8.23887,0.524509,2.95732,3.62805,-39.4207,-4.03082,0.167651,8.11193,-5.79268,56.7073,9.96951
6807.01,31.09,70.5943,0,5.23072,8.18618,0.64905,2.5,0.579268,-36.5244,-4.10267,0.136516,8.01134,-5.60976,57.7744,9.7561
6807.02,30.7641,70.2259,0,5.27144,8.464,0.603545,2.80488,-1.58537,-34.939,-4.11704,0.114961,7.60898,-5.12195,59.0854,9.93902
6807.03,30.4456,69.8741,0,5.17803,8.42568,0.538879,-0.579268,-1.18902,-34.1463,-4.17691,0.155676,7.73831,-4.66463,60.3659,10.4573
6807.04,30.1349,69.5074,0,4.91698,8.05924,0.253872,0.701219,-1.40244,-33.628,-4.29667,0.198787,7.72394,-4.45122,60.4268,10.6098
6807.05,29.7947,69.1257,0,4.67029,8.26521,0.565225,2.22561,-1.67683,-33.3537,-4.41642,0.213157,7.70238,-5,60.8537,11.0976
6807.06,29.3995,68.7267,0,4.26313,8.464,0.816702,-0.0304878,-7.0122,-34.0854,-4.59844,0.220342,7.75986,-5.94512,60.8232,11.189
6807.07,29.0244,68.2986,0,4.33499,8.32748,0.675395,-2.19512,-11.9817,-34.3902,-4.75411,0.215552,7.67364,-6.40244,61.4024,10.8232
6807.08,28.6515,67.835,0,4.18889,8.26282,0.395178,-1.7378,-18.0183,-33.689,-4.82117,0.222737,7.39582,-6.37195,62.3476,10.8537
6807.09,28.3128,67.3801,0,4.46192,8.35862,0.486189,-0.579268,-19.9695,-33.4146,-4.86189,0.258662,7.38864,-6.4939,62.1037,10.8232
6807.1,27.994,66.9192,0,4.61041,8.47837,0.656235,-1.85976,-22.7744,-32.9878,-4.91219,0.220342,7.29523,-6.55488,61.6768,11.0976
6807.11,27.7145,66.4474,0,4.86668,8.48555,0.498164,-2.89634,-22.8659,-32.2866,-5.0032,0.122146,7.22817,-6.61585,61.0976,11.372
6807.12,27.4747,65.9816,0,5.15408,8.46879,0.237107,-4.69512,-20.4878,-31.8293,-5.10618,0.0742456,7.28804,-6.89024,60.8841,11.311
6807.13,27.243,65.5188,0,5.05828,8.4161,0.225132,-6.46341,-20.1829,-30.8537,-5.18522,0.0407153,7.29523,-7.40854,60.5793,11.311
6807.14,26.9967,65.0242,0,4.75651,8.30353,0.301772,-7.83537,-19.0244,-30.3659,-5.31455,0.00958008,7.13716,-7.62195,60.4268,10.9146
6807.15,26.7617,64.5223,0,4.69184,8.19815,0.0311353,-8.20122,-16.6159,-29.6646,-5.40077,0.0455054,7.07728,-7.5,61.0976,10.7622
6807.16,26.4946,64.0254,0,4.40444,8.1287,0.0670605,-6.15854,-15.2439,-30.7012,-5.44388,0.0814307,7.03657,-7.04268,60.3659,10.9756
6807.17,26.2128,63.4912,0,4.39007,8.06164,0.150886,-7.19512,-13.4146,-32.9878,-5.54447,0.0622705,6.80665,-6.18902,60.4268,11.1585
6807.18,25.9436,62.9682,0,4.8092,8.05445,0.0383203,-7.7439,-8.29268,-36.9207,-5.63788,0.00958008,6.85934,-5.18293,60.061,11.0061
6807.19,25.7086,62.4803,0,5.25946,8.1766,-0.0910107,-5.64024,-3.62805,-37.8659,-5.79355,-0.114961,7.13955,-5.36585,59.3293,11.25
6807.2,25.4864,61.9554,0,5.35526,8.66039,0.205972,-3.47561,-1.85976,-34.9695,-5.88456,-0.126936,6.89526,-5.33537,59.9695,10.5183
6807.21,25.2488,61.4401,0,5.1445,9.15856,0.0143701,-2.5,3.65854,-32.0732,-5.94683,-0.134121,6.90005,-5.4878,61.128,9.7561
6807.22,25.0051,60.9432,0,4.77567,9.32381,-0.0718506,-5.54878,6.89024,-28.689,-5.98276,-0.0215552,6.93119,-5.09146,61.8293,9.42073
6807.23,24.7638,60.4077,0,4.40444,9.05557,-0.0526904,-6.18902,8.93293,-26.5244,-6.05461,0.0383203,6.66055,-4.66463,62.4085,9.39024
6807.24,24.4881,59.8735,0,3.99729,8.84002,0.256267,-5.27439,8.53659,-27.2561,-6.19352,0.124541,6.69647,-4.02439,63.9329,9.72561
6807.25,24.2084,59.3609,0,3.90867,8.75619,0.100591,-3.59756,7.34756,-27.6524,-6.38273,0.179626,6.90245,-3.84146,63.0488,10.3354
6807.26,23.9172,58.7773,0,3.98531,8.76338,0.0359253,-3.10976,5.67073,-30.2134,-6.5408,0.213157,6.52643,-4.05488,63.4146,10.9756
6807.27,23.6473,58.1864,0,4.15296,8.80409,-0.00239502,-1.4939,3.68902,-30.2744,-6.71324,0.193997,6.52164,-4.14634,63.5976,11.372
6807.28,23.4124,57.6359,0,4.37331,8.8472,0.0862207,-0.548781,3.93293,-29.3902,-6.8282,0.182021,6.7324,-4.48171,62.561,11.0366
6807.29,23.1911,57.0653,0,4.40205,9.07233,0.143701,-0.0609756,3.32317,-27.622,-6.91682,0.191602,6.57193,-5.42683,62.1341,11.189
6807.3,22.9503,56.446,0,4.11225,9.30226,0.246687,-0.762195,2.43902,-25.9146,-6.87131,0.196392,6.13125,-5.4878,64.0244,10.8841
6807.31,22.6599,55.8755,0,3.54223,9.22322,0.0455054,-2.62195,3.62805,-25.6707,-6.86173,0.201182,6.25819,-5.12195,65.7927,10.8841
6807.32,22.3676,55.2843,0,3.36979,8.9909,-0.261057,-3.68902,3.93293,-25.5183,-6.95035,0.215552,6.10011,-5,66.311,10.7012
6807.33,22.0322,54.7079,0,3.23567,9.06515,0.241897,0.0914634,2.68293,-28.6585,-7.0222,0.193997,6.11688,-5.33537,66.6768,10.4573
6807.34,21.6839,54.1437,0,3.28118,8.86157,0.711321,1.0061,1.76829,-32.0427,-7.14195,0.172441,6.16239,-6.03659,66.4024,10.6098
6807.35,21.3304,53.5333,0,3.45601,8.86157,0.943638,0.548781,2.43902,-35.3049,-7.21859,0.179626,5.85822,-6.21951,66.5854,10.6402
6807.36,20.9945,52.9103,0,3.76497,9.12502,0.862207,-1.06707,4.78659,-36.4939,-7.26649,0.158071,5.70494,-6.21951,67.5305,10.4878
6807.37,20.7058,52.2868,0,4.0404,9.29986,0.704136,-6.06707,4.14634,-34.5427,-7.34073,0.129331,5.63309,-5.79268,68.1707,10.7622
6807.38,20.497,51.6672,0,4.3278,9.2328,0.256267,-7.16463,6.98171,-30.3049,-7.41498,0.0838257,5.58279,-5.60976,67.8659,11.0671
6807.39,20.2861,51.0299,0,4.14338,9.29507,0.498164,-5.2439,10.1829,-28.7195,-7.4078,0.0335303,5.36484,-5.15244,68.3841,10.8232
6807.4,20.0879,50.4083,0,4.00687,8.95498,0.287402,-6.40244,9.90854,-28.0183,-7.36469,0.0287402,5.2882,-4.78659,70.2134,11.311
6807.41,19.8215,49.75,0,3.52547,9.35734,0.201182,1.79878,7.40854,-28.3232,-7.42456,0.0215552,5.03433,-4.66463,72.0427,11.4939
6807.42,19.5228,49.0976,0,3.11592,9.25675,0.58199,1.40244,5.60976,-27.9878,-7.54431,-0.00239502,5.01996,-4.35976,73.1707,11.5549
6807.43,19.2039,48.4378,0,2.88121,9.17292,0.589175,-0.609756,5.88415,-28.2927,-7.77663,-0.00958008,5.01038,-4.42073,72.6219,10.9146
6807.44,18.8938,47.7269,0,3.01533,9.26633,0.656235,-4.2378,8.2622,-29.2378,-7.92512,-0.0455054,4.73256,-4.05488,72.1646,10.5793
6807.45,18.6085,47.0353,0,3.07281,8.87834,0.799937,-2.40854,1.67683,-29.5122,-8.03769,-0.0191602,4.75651,-2.80488,71.5854,10.1524
6807.46,18.3197,46.3891,0,3.13508,9.01964,0.790356,-2.31707,-3.65854,-30.6098,-8.08559,0.0167651,4.87147,-3.10976,71.0061,9.69512
6807.47,18.0337,45.7472,0,3.10634,9.16574,0.617915,-3.53659,-8.17073,-30,-8.12151,0.0526904,4.79004,-3.44512,71.2195,9.45122
6807.48,17.7733,45.0821,0,3.13748,9.14418,0.229922,-3.07927,-9.63415,-28.4146,-8.08798,0.100591,4.54096,-4.29878,72.8049,9.48171
6807.49,17.4651,44.38,0,2.7399,9.31423,0.66821,-5.51829,-8.68902,-28.628,-8.1263,0.0934058,4.27032,-3.62805,74.1768,9.29878
6807.5,17.2171,43.7209,0,2.95545,9.26873,0.136516,-2.9878,-3.5061,-25.7622,-8.19815,0.162861,4.3781,-3.35366,74.5427,9.69512
6807.51,16.9092,43.0547,0,2.57704,9.52978,0.61552,-0.792683,-4.93902,-27.1646,-8.34185,0.174836,4.29906,-2.83537,74.1768,9.57317
6807.52,16.5876,42.3799,0,2.47885,9.41243,0.60115,-3.10976,-6.89024,-28.4146,-8.48555,0.170046,4.20805,-2.46951,73.1707,10.2744
6807.53,16.2774,41.7411,0,2.73511,9.4723,0.498164,-0.884146,-7.56098,-30.6707,-8.63165,0.146096,4.32301,-3.38415,71.8293,10.4268
6807.54,15.9706,41.0591,0,2.80457,9.55852,0.541274,-2.0122,-8.01829,-31.4634,-8.73224,0.0862207,4.04758,-3.41463,70.4573,10.8537
6807.55,15.7071,40.3494,0,3.13987,9.53457,0.409548,-2.5,-5.73171,-31.4939,-8.69871,0.0287402,3.77934,-2.7439,70.1524,11.311
6807.56,15.5059,39.6717,0,3.32429,9.29507,0.102986,-1.52439,-1.70732,-28.628,-8.67476,0.0526904,3.78653,-2.0122,69.7866,11.4329
6807.57,15.3104,39.0378,0,3.26202,9.63037,0.0838257,-0.853659,2.56098,-26.4939,-8.63165,0.0502954,3.84401,-2.37805,68.9939,11.5244
6807.58,15.1302,38.3951,0,2.89318,9.17532,-0.0311353,2.13415,8.53659,-22.8659,-8.66758,0.134121,3.7051,-2.86585,68.1098,11.7378
6807.59,14.9532,37.8002,0,2.82133,9.20646,0.0981958,4.32927,11.372,-21.9512,-8.67237,0.129331,3.80808,-3.14024,67.5915,12.0122
6807.6,14.7482,37.1048,0,2.68961,9.6184,0.443079,1.7378,13.811,-22.2866,-8.71548,0.0862207,3.2716,-2.46951,67.7439,11.8902
6807.61,14.5432,36.4707,0,2.5004,9.25196,0.502954,4.7561,11.25,-21.6768,-8.78014,0.208367,3.44643,-2.2561,68.1098,11.6159
6807.62,14.2891,35.8606,0,2.1651,9.36932,0.764011,3.93293,10.9451,-22.8049,-8.88792,0.285007,3.48236,-2.71341,67.2561,11.8293
6807.63,14.0186,35.2465,0,2.12438,9.29028,0.63947,4.66463,11.25,-24.7256,-8.97653,0.311353,3.38895,-3.84146,66.5854,11.8598
6807.64,13.7529,34.6361,0,2.27287,9.45314,0.57241,2.7439,12.1646,-26.0976,-9.10826,0.285007,3.34345,-4.35976,65.7012,11.5549
6807.65,13.4732,34.0211,0,2.03337,9.14179,0.387993,7.46951,8.29268,-26.0671,-9.20885,0.217947,3.24765,-4.17683,64.7256,10.9756
6807.66,13.2396,33.3869,0,2.49322,9.89143,0.191602,7.65244,9.84756,-25.2134,-9.25915,0.215552,3.06562,-3.65854,63.3232,10.6098
6807.67,12.9871,32.7622,0,2.17707,9.74054,0.598755,0.914634,9.7561,-24.4512,-9.27112,0.289797,2.99856,-3.68902,62.7134,10.5793
6807.68,12.7602,32.1222,0,2.00703,9.5202,0.198787,3.23171,8.32317,-20.9451,-9.34297,0.301772,2.84049,-4.2378,62.5305,10.6707
6807.69,12.4908,31.4847,0,1.62622,9.15137,0.380808,7.13415,11.7378,-22.0122,-9.43398,0.313748,2.76385,-4.66463,61.8902,10.2744
6807.7,12.2584,30.8749,0,1.81782,9.36453,0.445474,10.6098,14.7866,-20.6402,-9.5705,0.301772,2.81415,-5.82317,60.4878,10
6807.71,11.9622,30.2703,0,1.3484,9.56331,0.953218,10.8232,8.65854,-21.5854,-9.61121,0.294587,2.73751,-6.31098,58.6585,10.0305
6807.72,11.6661,29.6491,0,1.43462,10.0735,0.993933,7.46951,7.0122,-22.3476,-9.58966,0.294587,2.54591,-6.40244,57.5915,9.48171
6807.73,11.3739,29.0412,0,1.48012,10.1405,0.843047,-0.0609756,4.17683,-22.9573,-9.55613,0.263452,2.48603,-6.58537,57.4085,9.32927
6807.74,11.1093,28.4091,0,1.65975,9.71659,0.536484,-1.64634,3.44512,-23.5671,-9.58008,0.210762,2.27527,-6.46341,56.9207,9.11585
6807.75,10.8691,27.7727,0,1.80584,9.21125,0.213157,2.62195,4.90854,-24.4817,-9.57529,0.158071,2.14354,-6.79878,56.4634,8.78049
6807.76,10.7007,27.1516,0,2.21779,9.57289,0.0934058,5.7622,11.4329,-21.6159,-9.616,0.107776,2.10762,-6.21951,55.3963,8.23171
6807.77,10.5106,26.5501,0,2.09564,9.69025,0.481399,6.31098,10.9756,-22.4695,-9.616,0.0981958,2.08367,-5.88415,53.5671,8.47561
6807.78,10.2637,25.9657,0,1.6358,9.29268,0.66821,1.7378,10.1829,-24.1159,-9.64714,0.102986,2.05972,-5.30488,52.378,8.53659
6807.79,10.085,25.3871,0,1.95434,9.50104,0.0886157,4.87805,11.6463,-21.0061,-9.59445,0.158071,1.9711,-4.90854,51.3415,9.42073
6807.8,9.91739,24.7869,0,1.90883,9.5705,0.325723,10.4878,14.8171,-19.5427,-9.63037,0.234712,1.78189,-4.2378,50.8537,9.84756
6807.81,9.71734,24.1621,0,1.66214,9.54415,0.979563,7.2561,16.128,-20.3354,-9.66151,0.282612,1.57592,-3.62805,51.4634,10.7927
6807.82,9.54997,23.5898,0,1.81303,10.0687,0.754431,2.13415,13.5976,-18.0793,-9.72378,0.253872,1.70765,-3.35366,50.7317,11.372
6807.83,9.36909,23.0546,0,1.4897,9.88185,0.541274,3.56707,9.11585,-16.4634,-9.80281,0.182021,1.78429,-3.53659,48.7195,11.2805
6807.84,9.16707,22.5078,0,1.32205,9.78605,0.462239,3.44512,4.96951,-17.1951,-9.77407,0.117356,1.6334,-3.44512,48.9634,10.3354
6807.85,8.93366,21.9536,0,1.26697,9.63516,0.641865,1.12805,3.78049,-20.3963,-9.88904,0.102986,1.52084,-3.53659,46.5244,10.061
6807.86,8.742,21.3809,0,1.45857,9.39806,-0.0718506,5.12195,7.16463,-19.3293,-9.84114,0.107776,1.33403,-3.14024,45.7622,9.17683
6807.87,8.60878,20.803,0,1.79147,9.84593,0.299377,7.86585,9.48171,-16.7988,-9.8124,0.102986,1.20709,-3.07927,45.6402,8.78049
6807.88,8.45193,20.2349,0,1.43222,9.26394,0.462239,4.29878,9.2378,-16.372,-9.8579,0.0407153,1.1544,-2.5,44.9085,8.38415
6807.89,8.33293,19.699,0,1.79387,9.74054,0.277822,3.5061,12.6829,-16.189,-9.76928,0.105381,1.18553,-1.95122,44.0854,8.23171
6807.9,8.23584,19.152,0,1.72441,9.72857,-0.0311353,4.72561,10.3963,-13.4146,-9.79563,0.153281,1.04662,-0.701219,42.8354,8.81098
6807.91,8.11368,18.6212,0,1.50647,9.54415,-0.0502954,5.60976,8.35366,-13.9634,-9.82677,0.182021,1.02507,0.609756,41.6463,9.7561
6807.92,7.98146,18.1155,0,1.48731,9.34058,0.160466,5.70122,9.02439,-15.3963,-9.87467,0.256267,1.04662,1.12805,40.5488,10.061
6807.93,7.82453,17.6255,0,1.32445,9.65193,0.483794,4.90854,7.53049,-15.6707,-10.0854,0.162861,1.04902,1.55488,39.7561,9.69512
6807.94,7.73871,17.1296,0,1.3963,9.80521,0.273032,9.87805,8.96341,-9.32927,-10.0974,0.184417,0.936453,1.03659,39.4207,8.65854
6807.95,7.61696,16.6321,0,1.20709,9.81,0.608335,7.77439,10.3659,-10.9451,-10.1597,0.138911,0.845442,1.21951,38.4451,7.40854
6807.96,7.46863,16.1703,0,1.08494,9.9058,0.64905,4.14634,11.5854,-12.3476,-10.198,0.191602,0.919688,1.52439,36.7073,6.34146
6807.97,7.28225,15.7053,0,0.871787,9.44117,0.694556,-0.396341,13.9634,-14.5427,-10.1237,0.186812,0.814307,1.52439,34.7561,6.0061
6807.98,7.24409,15.2159,0,1.82261,9.93694,-0.306563,2.95732,15,-10.2439,-10.0567,0.170046,0.617915,1.70732,34.0244,6.03659
6807.99,7.15801,14.7467,0,1.21427,9.71659,0.296982,3.90244,11.6768,-8.53659,-10.0519,0.170046,0.62031,2.34756,33.3841,6.61585
6808,7.06156,14.2884,0,0.972378,9.6663,0.304167,2.37805,8.17073,-6.95122,-10.0256,0.222737,0.584385,2.31707,32.622,7.34756
6808.01,6.94274,13.8305,0,0.749641,9.61361,0.205972,3.93293,6.52439,-6.79878,-9.98484,0.268242,0.502954,2.46951,32.0122,7.92683
6808.02,6.80765,13.3728,0,0.670605,9.81,0.493374,3.20122,3.59756,-7.59146,-10.0663,0.304167,0.426313,2.71341,31.128,8.23171
6808.03,6.67993,12.932,0,0.728086,9.83635,0.402363,2.19512,-0.121951,-7.77439,-10.0974,0.337698,0.421523,3.01829,29.878,8.53659
6808.04,6.56554,12.5231,0,0.850232,9.99921,0.273032,3.07927,-0.0609756,-7.95732,-10.1285,0.421523,0.486189,2.95732,28.4756,8.23171
6808.05,6.44993,12.1255,0,0.914897,10.2459,0.524509,1.92073,-0.426829,-8.81098,-10.1621,0.383203,0.464634,3.23171,27.378,8.10976
6808.06,6.35262,11.7293,0,1.09452,10.198,0.371228,-0.27439,0.792683,-9.26829,-10.2411,0.296982,0.402363,2.65244,26.25,7.2561
6808.07,6.24409,11.3203,0,1.0562,9.98963,0.292192,0.365854,4.87805,-10.4268,-10.3273,0.114961,0.275427,2.56098,25.4268,6.43293
6808.08,6.14176,10.9008,0,1.08015,9.8603,0.186812,1.40244,6.79878,-10.4573,-10.3585,0.0239502,0.153281,3.07927,24.5427,5.18293
6808.09,6.02821,10.4836,0,0.986748,9.84593,0.167651,1.52439,8.53659,-10.7317,-10.2411,0.138911,0.0862207,3.93293,23.7195,5.33537
6808.1,5.86905,10.0774,0,0.704136,9.56571,0.58678,-3.93293,9.14634,-12.5305,-10.0902,0.294587,0.0598755,3.75,23.2317,6.61585
6808.11,5.76149,9.69265,0,0.946033,9.72617,-0.0431104,-2.83537,3.10976,-10.3354,-10.0303,0.344883,0.0838257,3.5061,23.5366,7.89634
6808.12,5.64864,9.34315,0,0.828677,9.84832,0.177231,1.31098,2.34756,-9.57317,-10.0782,0.325723,0.172441,2.43902,22.8659,8.62805
6808.13,5.5301,8.96016,0,0.740061,9.92736,0.481399,-0.518293,1.34146,-9.26829,-10.0567,0.364043,-0.0383203,1.76829,22.2561,8.75
6808.14,5.40858,8.59528,0,0.701741,10.0088,0.273032,-0.701219,0.0304878,-9.29878,-10.0184,0.498164,-0.0263452,1.37195,20.8537,9.05488
6808.15,5.30064,8.28089,0,0.831072,10.0711,0.316143,-1.09756,-0.304878,-9.60366,-10.0447,0.56283,0.131726,1.34146,19.2378,9.05488
6808.16,5.22718,7.97769,0,1.11129,10.1573,0.261057,-2.59146,0.823171,-9.42073,-10.0303,0.529299,0.124541,1.06707,17.5915,8.78049
6808.17,5.17129,7.67717,0,1.19511,9.89862,-0.0574805,-2.28659,2.71341,-9.08537,-9.97047,0.435894,0.0814307,0.853659,15.9756,8.23171
6808.18,5.12582,7.39582,0,1.43941,9.47949,-0.100591,-1.98171,8.01829,-11.7073,-9.98723,0.282612,0.112566,0.548781,14.8171,7.34756
6808.19,5.14187,7.10354,0,1.80824,9.8579,-0.404758,-0.365854,11.372,-9.11585,-9.95849,0.198787,0.0143701,0.762195,13.689,6.70732
6808.2,5.12466,6.77046,0,1.36516,9.64235,-0.00718506,2.68293,12.7439,-7.71341,-9.96807,0.182021,-0.215552,0.853659,13.9024,6.25
6808.21,5.02953,6.46151,0,0.764011,8.97653,0.258662,0.701219,10.6707,-9.17683,-9.98244,0.215552,-0.167651,0.762195,13.9634,6.58537
6808.22,4.97807,6.15681,0,1.02028,9.6663,0.0790356,0.97561,10.5793,-7.28659,-10.0064,0.361648,-0.203577,-0.304878,13.628,7.7439
6808.23,4.89924,5.83525,0,0.696951,9.75252,0.426313,-0.731707,5.57927,-6.21951,-9.97765,0.397573,-0.330513,-1.55488,13.3537,8.62805
6808.24,4.77485,5.50397,0,0.452659,9.19209,0.237107,-7.68293,1.64634,-8.44512,-10.0232,0.387993,-0.431104,-2.56098,13.6585,8.96341
6808.25,4.77149,5.17756,0,1.21188,10.1573,-0.256267,4.84756,2.77439,-4.54268,-10.0471,0.361648,-0.469424,-2.89634,12.8354,8.90244
6808.26,4.71168,4.87316,0,0.756826,10.3297,0.797541,0.487805,-0.945122,-4.90854,-10.0208,0.328118,-0.428708,-2.80488,12.0427,9.35976
6808.27,4.67956,4.59519,0,0.955613,10.1429,0.340093,-2.19512,-1.67683,-4.66463,-9.94891,0.344883,-0.364043,-2.92683,10.1524,9.69512
6808.28,4.65868,4.32151,0,1.06818,9.89622,0.100591,-0.426829,-0.792683,-5.18293,-9.85311,0.337698,-0.390388,-2.16463,9.20732,9.96951
6808.29,4.66576,4.07991,0,1.2502,9.94891,0.0838257,0.518293,0.884146,-4.48171,-9.80042,0.237107,-0.296982,-1.89024,8.14024,9.81707
6808.3,4.69784,3.82993,0,1.3939,9.96089,0.107776,0.0304878,2.34756,-3.71951,-9.84114,0.0814307,-0.376018,-1.06707,7.19512,9.66463
6808.31,4.76348,3.56217,0,1.52802,9.81479,0.0694556,0.304878,5.94512,-2.7439,-9.90341,0.00718506,-0.498164,-0.518293,6.37195,8.59756
6808.32,4.86784,3.27489,0,1.39869,9.58726,0.150886,2.40854,9.26829,-1.25,-9.84832,0.0742456,-0.627495,0,7.07317,8.17073
6808.33,4.99149,2.98713,0,1.26218,9.62079,0.167651,1.06707,9.42073,-0.426829,-9.82197,0.160466,-0.677791,0.487805,8.14024,8.01829
6808.34,5.07201,2.69881,0,1.06339,9.59205,0.0862207,1.06707,9.26829,0.182927,-9.80281,0.316143,-0.728086,0.335366,8.90244,8.32317
6808.35,5.0758,2.40705,0,0.843047,9.74533,0.138911,1.25,7.28659,0.884146,-9.84114,0.399968,-0.795146,0.579268,9.81707,8.81098
6808.36,5.03877,2.1324,0,0.651445,9.89383,0.268242,1.34146,6.34146,0.884146,-9.91059,0.380808,-0.775986,0.335366,10.3354,9.48171
6808.37,4.94241,1.86205,0,0.519719,10.0639,0.452659,0.396341,2.71341,0.121951,-9.97047,0.313748,-0.809517,0.0304878,10.6402,8.96341
6808.38,4.85479,1.60236,0,0.486189,10.0112,0.426313,-0.426829,-1.09756,-0.579268,-9.99681,0.261057,-0.811912,0.27439,10.5488,8.62805
6808.39,4.7912,1.34444,0,0.531694,9.99681,0.237107,-0.487805,-1.89024,-1.92073,-9.94652,0.282612,-0.845442,0.731707,10.5183,7.83537
6808.4,4.74859,1.10431,0,0.704136,9.88904,0.148491,0.121951,-1.76829,-2.71341,-9.88185,0.277822,-0.807122,1.76829,10.061,7.37805
6808.41,4.73666,0.878056,0,0.996328,9.84593,0.0215552,0.884146,0.27439,-3.44512,-9.85072,0.299377,-0.785566,1.82927,9.90854,7.13415
6808.42,4.7433,0.645183,0,1.1065,9.79563,0.150886,1.0061,0.243902,-3.10976,-9.83156,0.292192,-0.852627,2.71341,9.05488,7.37805
6808.43,4.77032,0.415423,0,1.33403,9.67109,0.0215552,0.579268,0.97561,-3.87195,-9.91059,0.237107,-0.886157,2.95732,9.39024,7.19512
6808.44,4.81446,0.179962,0,1.39151,9.51781,0.126936,2.07317,1.43293,-3.35366,-10.0543,0.155676,-0.965193,3.35366,9.35976,6.98171
6808.45,4.751,-0.0907214,0,1.01788,9.17292,0.66821,-7.68293,3.17073,-9.57317,-10.1094,0.165256,-1.17116,3.9939,9.39024,6.7378
6808.46,4.87289,-0.358855,0,1.63101,9.93933,-0.58678,1.82927,4.5122,-1.18902,-10.1645,0.234712,-1.21427,4.78659,9.87805,6.64634
6808.47,4.8946,-0.626633,0,0.878972,9.84593,0.479004,2.83537,2.37805,1.58537,-10.2004,0.292192,-1.26457,5.12195,10.8537,6.37195
6808.48,4.89118,-0.871039,0,0.764011,9.8124,0.455054,-1.52439,-0.853659,1.12805,-10.2291,0.328118,-1.20948,4.69512,11.128,6.58537
6808.49,4.86813,-1.09553,0,0.740061,9.8579,0.241897,-0.731707,-2.80488,0.396341,-10.1549,0.368833,-1.1544,4.2378,11.0061,6.06707
6808.5,4.83443,-1.29054,0,0.720901,9.96328,0.162861,-0.27439,-4.5122,-0.609756,-10.0615,0.352068,-1.05141,4.5122,10.9146,5.82317
6808.51,4.81356,-1.4813,0,0.787961,10.0136,0.210762,-0.609756,-4.39024,-1.09756,-9.93454,0.450264,-1.05381,4.02439,10.6098,5.54878
6808.52,4.80968,-1.6594,0,0.950823,9.87946,0.196392,-0.0914634,-2.83537,-2.10366,-9.84832,0.462239,-1.02267,3.87195,10.122,6.0061
6808.53,4.81749,-1.81781,0,1.08494,9.89383,0.143701,0.335366,-1.03659,-2.56098,-9.77407,0.469424,-0.960403,3.71951,9.5122,5.7622
6808.54,4.84028,-1.96367,0,1.22386,9.82677,-0.0143701,0.304878,1.06707,-2.83537,-9.78126,0.428708,-0.934058,3.29268,9.2378,6.28049
6808.55,4.87464,-2.0981,0,1.29331,9.60163,0.0143701,1.21951,3.78049,-2.95732,-9.81,0.390388,-0.912502,3.32317,8.68902,6.06707
6808.56,4.93761,-2.2678,0,1.38672,9.62079,0.0143701,2.62195,5.97561,-2.13415,-9.91538,0.373623,-1.10171,3.2622,8.44512,5.88415
6808.57,5.01813,-2.44467,0,1.24062,9.64714,0.246687,2.34756,7.2561,-0.914634,-9.96328,0.392783,-1.16877,3.32317,8.47561,6.09756
6808.58,5.09126,-2.62448,0,1.13284,9.63995,0.222737,2.37805,7.22561,-0.518293,-9.97526,0.399968,-1.21427,3.71951,8.87195,5.88415
6808.59,5.12925,-2.79467,0,1.02267,9.75731,0.222737,1.61585,5.42683,-0.396341,-10.0279,0.380808,-1.20948,3.81098,8.93293,5.73171
6808.6,5.13136,-2.95657,0,0.917292,9.77168,0.191602,1.12805,4.7561,-0.731707,-10.0064,0.450264,-1.1999,3.68902,8.96341,5.12195
6808.61,5.11082,-3.11046,0,0.850232,9.84353,0.237107,0.670732,3.20122,-1.55488,-9.96568,0.495769,-1.18793,3.62805,8.93293,5.4878
6808.62,5.08828,-3.23837,0,0.833467,9.85311,0.280217,1.58537,1.79878,-1.52439,-9.92017,0.462239,-1.09452,3.68902,8.75,5.12195
6808.63,5.08597,-3.36589,0,0.938848,9.88185,0.296982,1.06707,2.28659,-1.28049,-9.9058,0.419128,-1.11368,3.2622,8.71951,5.03049
6808.64,5.08898,-3.47401,0,0.979563,9.83395,0.208367,0.396341,2.04268,-1.46341,-9.89383,0.356858,-1.04902,2.95732,8.71951,4.81707
6808.65,5.10697,-3.58944,0,1.07057,9.74294,0.0981958,1.09756,2.07317,-1.58537,-9.88425,0.359253,-1.09931,2.43902,8.32317,4.63415
6808.66,5.1304,-3.70683,0,1.13045,9.82677,0.107776,1.82927,3.47561,-1.64634,-9.83874,0.392783,-1.12326,2.83537,7.83537,4.7561
6808.67,5.19954,-3.83687,0,1.26218,9.78605,0.0167651,1.92073,5.15244,-0.914634,-9.84353,0.428708,-1.1999,2.65244,7.62195,5.60976
6808.68,5.2623,-3.97023,0,1.19032,9.62319,0.153281,2.68293,6.31098,-0.884146,-9.9082,0.455054,-1.24541,2.34756,7.59146,6.70732
6808.69,5.32611,-4.09062,0,1.06339,9.67348,0.246687,1.95122,7.07317,0,-9.98963,0.443079,-1.22146,2.10366,7.34756,7.16463
6808.7,5.33442,-4.2171,0,0.917292,9.64714,0.215552,1.64634,6.58537,0.27439,-10.0591,0.402363,-1.27894,1.37195,6.82927,7.13415
6808.71,5.30531,-4.33224,0,0.811912,9.52739,0.340093,2.56098,4.81707,-0.365854,-10.0567,0.316143,-1.2502,0.640244,6.52439,6.92073
6808.72,5.29416,-4.43276,0,0.912502,9.9082,0.172441,2.37805,6.03659,-1.0061,-10.0351,0.342488,-1.2023,0.670732,6.06707,6.52439
6808.73,5.26642,-4.54062,0,0.828677,10.1501,0.344883,1.46341,4.26829,-0.609756,-9.99921,0.411943,-1.24781,0.518293,5.54878,6.15854
6808.74,5.22088,-4.6504,0,0.732876,10.0232,0.265847,0.884146,2.9878,-0.670732,-9.92017,0.474214,-1.26457,-0.0304878,5.30488,6.18902
6808.75,5.18489,-4.75952,0,0.766406,9.92017,0.189207,0.579268,3.56707,-1.06707,-9.86748,0.529299,-1.27415,-0.152439,5.36585,6.55488
6808.76,5.15491,-4.86277,0,0.792751,9.91059,0.299377,0.304878,4.05488,-1.09756,-9.90101,0.498164,-1.27176,-0.548781,5.30488,7.07317
6808.77,5.1249,-4.95773,0,0.787961,9.84593,0.189207,-0.304878,3.53659,-1.28049,-9.93933,0.426313,-1.25739,-0.548781,4.96951,7.19512
6808.78,5.11075,-5.04602,0,0.864602,9.76449,0.141306,0.701219,3.20122,-1.25,-10.0136,0.349673,-1.2526,-0.701219,4.54268,7.2561
6808.79,5.09237,-5.14087,0,0.847837,9.82677,0.282612,0.945122,2.80488,-1.34146,-9.98484,0.313748,-1.28613,-0.97561,3.75,7.0122
6808.8,5.07529,-5.24089,0,0.850232,9.8579,0.253872,0.335366,2.16463,-1.25,-9.9537,0.296982,-1.31247,-0.792683,3.29268,7.13415
6808.81,5.0602,-5.33904,0,0.866997,9.84114,0.287402,-0.640244,0.396341,-1.43293,-9.95131,0.359253,-1.31247,-0.27439,2.92683,6.79878
6808.82,5.07117,-5.45156,0,0.972378,9.71899,0.143701,-0.426829,-0.487805,-1.12805,-9.9082,0.464634,-1.38193,-0.487805,2.92683,7.34756
6808.83,5.08838,-5.54688,0,0.981958,9.74533,0.229922,-0.365854,-0.365854,-0.853659,-9.92017,0.464634,-1.30768,-0.27439,2.28659,7.53049
6808.84,5.14157,-5.64855,0,1.06339,9.79323,0.138911,-1.06707,-0.884146,-0.243902,-9.89622,0.356858,-1.31247,-0.335366,1.79878,7.2561
6808.85,5.19796,-5.75382,0,1.06818,9.88425,0.258662,-0.213415,-0.609756,0,-9.96807,0.337698,-1.37953,-0.731707,2.10366,6.64634
6808.86,5.21446,-5.85383,0,0.958008,9.93933,0.256267,-0.853659,-0.335366,0.213415,-9.97526,0.316143,-1.35319,-0.792683,1.70732,6.31098
6808.87,5.22336,-5.95643,0,0.955613,9.82677,0.186812,-0.884146,0.121951,-0.548781,-9.89383,0.383203,-1.40348,-0.762195,2.31707,5.91463
6808.88,5.23013,-6.06328,0,0.965193,9.78605,0.141306,-0.0304878,1.25,-0.853659,-9.92017,0.397573,-1.4418,0.121951,2.28659,6.43293
6808.89,5.23537,-6.17119,0,0.967588,9.81479,0.249082,-0.487805,1.21951,-0.914634,-9.94891,0.447869,-1.46575,0.182927,2.19512,6.52439
6808.9,5.2389,-6.27935,0,0.946033,9.75491,0.208367,-0.335366,1.25,-0.823171,-9.9537,0.426313,-1.47533,-0.152439,2.0122,6.89024
6808.91,5.22781,-6.37299,0,0.888552,9.82677,0.308958,-0.27439,0.609756,-0.884146,-10.0184,0.385598,-1.4442,-0.518293,1.85976,7.13415
6808.92,5.21711,-6.45924,0,0.893342,9.85072,0.215552,-1.09756,-0.731707,-0.945122,-10.016,0.356858,-1.41785,-0.884146,1.61585,7.0122
6808.93,5.21844,-6.54296,0,1.00591,9.8555,0.153281,-0.792683,-0.548781,-1.58537,-10.004,0.344883,-1.41785,-1.25,1.55488,6.4939
6808.94,5.23021,-6.65107,0,1.06578,9.79084,0.0526904,-0.853659,-0.335366,-1.61585,-9.92736,0.347278,-1.41546,-1.06707,0.762195,5.88415
6808.95,5.2426,-6.77622,0,1.06099,9.72378,0.0646655,-0.335366,2.07317,-1.61585,-9.84114,0.366438,-1.44659,-0.792683,0.701219,5.64024
6808.96,5.24828,-6.89047,0,1.03704,9.72138,0.179626,-0.365854,2.77439,-1.76829,-9.83874,0.421523,-1.42264,-0.213415,0.548781,5.36585
6808.97,5.26143,-7.00526,0,1.0562,9.68785,0.0958008,-0.487805,2.53049,-1.55488,-9.82916,0.390388,-1.41067,0.365854,0.304878,5.39634
6808.98,5.28695,-7.10987,0,1.09692,9.7142,0.0910107,-0.0914634,2.28659,-1.25,-9.80281,0.409548,-1.42504,-0.121951,0.487805,5.4878
6808.99,5.32332,-7.18986,0,1.16158,9.71899,0.0790356,-0.396341,2.19512,-1.25,-9.86509,0.361648,-1.41306,-0.182927,0.579268,5.57927
6809,5.37593,-7.23423,0,1.23583,9.76449,0.193997,0.243902,3.32317,-1.06707,-9.88664,0.359253,-1.32445,-0.731707,0.0609756,5.60976
6809.01,5.4622,-7.31988,0,1.36037,9.78126,0.143701,-0.27439,3.9939,-0.792683,-9.88425,0.287402,-1.41306,-0.609756,-0.152439,5.54878
6809.02,5.5936,-7.40122,0,1.35798,9.7142,0.0910107,-0.426829,4.81707,-0.182927,-9.91778,0.275427,-1.4418,-0.182927,-0.304878,5.7622
6809.03,5.67665,-7.48863,0,1.20709,9.67588,0.158071,0.426829,6.85976,0.243902,-9.88664,0.308958,-1.45857,-0.27439,-0.27439,5.73171
6809.04,5.70257,-7.61346,0,1.03465,9.77168,0.337698,-0.426829,5.97561,1.61585,-9.88185,0.273032,-1.52802,-0.335366,-0.121951,6.15854
6809.05,5.71087,-7.67193,0,0.938848,9.79803,0.225132,-0.335366,3.84146,1.52439,-9.88904,0.263452,-1.43222,0.0609756,0.182927,6.40244
6809.06,5.71075,-7.79614,0,0.902922,9.81,0.220342,-0.304878,2.2561,1.37195,-9.86988,0.244292,-1.54,0.27439,0,6.18902
6809.07,5.70355,-7.9058,0,0.893342,9.82437,0.102986,0.457317,1.67683,1.03659,-9.92257,0.316143,-1.57353,0.792683,0.182927,6.31098
6809.08,5.69124,-8.02774,0,0.914897,9.89862,0.160466,0.365854,2.65244,0.518293,-9.94891,0.344883,-1.62622,0.853659,0.182927,6.4939
6809.09,5.66351,-8.12762,0,0.893342,9.86988,0.253872,-0.0609756,2.19512,-0.182927,-9.98723,0.332908,-1.62382,1.34146,0.27439,6.37195
6809.1,5.63849,-8.20575,0,0.900527,9.8555,0.304167,-0.121951,1.85976,0,-10.0495,0.323328,-1.60706,1.25,0.243902,6.64634
6809.11,5.62453,-8.2592,0,0.929268,9.81719,0.330513,-0.670732,0.823171,-0.304878,-10.1166,0.318538,-1.57353,1.0061,0.121951,6.09756
6809.12,5.62792,-8.2722,0,1.01309,9.7597,0.155676,-0.365854,0.762195,-0.823171,-10.1261,0.294587,-1.49928,0.701219,-0.213415,6.28049
6809.13,5.6255,-8.29819,0,0.991538,9.81479,0.344883,0.0609756,1.09756,-0.792683,-10.1118,0.323328,-1.54479,0,-0.762195,5.73171
6809.14,5.61923,-8.33864,0,0.972378,9.8076,0.191602,-0.914634,-0.0609756,-0.792683,-10.0615,0.352068,-1.59269,0.365854,-1.03659,5.91463
6809.15,5.61855,-8.37476,0,0.989143,9.78366,0.253872,-0.365854,0.304878,-0.701219,-9.98963,0.364043,-1.59029,0.640244,-1.55488,6.58537
6809.16,5.61319,-8.39122,0,0.955613,9.74054,0.287402,-1.21951,-0.823171,-0.487805,-9.94652,0.335303,-1.52802,0.731707,-2.07317,6.61585
6809.17,5.62297,-8.39753,0,0.979563,9.69743,0.110171,-1.25,-1.15854,0.0304878,-9.9058,0.330513,-1.48731,0.670732,-2.2561,6.98171
6809.18,5.62112,-8.3815,0,0.955613,9.71899,0.205972,-1.12805,-1.95122,-0.152439,-9.86988,0.237107,-1.39869,0.97561,-2.22561,6.61585
6809.19,5.61782,-8.37481,0,0.958008,9.74773,0.158071,-1.34146,-2.62195,-0.304878,-9.81719,0.296982,-1.42264,0.823171,-2.56098,6.37195
6809.2,5.62353,-8.35317,0,0.993933,9.73815,0.210762,-0.853659,-2.7439,-0.426829,-9.86748,0.287402,-1.36995,1.15854,-2.56098,6.21951
6809.21,5.65986,-8.31801,0,1.09931,9.81719,0.237107,-1.31098,-1.70732,-0.213415,-9.89143,0.349673,-1.31247,1.31098,-2.83537,5.82317
6809.22,5.70965,-8.29525,0,1.14003,9.87227,0.282612,-1.61585,-2.19512,-0.0304878,-9.86748,0.380808,-1.35558,1.76829,-2.56098,5.91463
6809.23,5.75905,-8.27988,0,1.15919,9.85072,0.177231,-1.58537,-2.34756,-0.152439,-9.87946,0.364043,-1.38193,1.4939,-2.59146,6.03659
6809.24,5.81743,-8.26982,0,1.17595,9.82916,0.198787,-1.12805,-1.79878,0.0609756,-9.88664,0.349673,-1.40109,1.55488,-2.62195,5.85366
6809.25,5.87141,-8.2667,0,1.16158,9.7621,0.246687,-1.40244,-1.92073,0.121951,-9.83874,0.387993,-1.42025,1.67683,-2.31707,5.79268
6809.26,5.91959,-8.2638,0,1.14721,9.72857,0.232317,-0.304878,-1.79878,0.152439,-9.81958,0.337698,-1.41785,1.67683,-2.22561,6.0061
6809.27,5.94449,-8.26587,0,1.08494,9.72617,0.294587,-0.518293,-1.15854,0.396341,-9.7621,0.335303,-1.42743,1.7378,-2.28659,6.34146
6809.28,5.94859,-8.27835,0,1.01549,9.77407,0.263452,-1.06707,-1.15854,0.487805,-9.73096,0.335303,-1.46096,1.67683,-2.22561,6.12805
6809.29,5.95945,-8.27626,0,1.04423,9.76928,0.208367,-1.09756,-1.76829,0.396341,-9.75012,0.318538,-1.41306,1.55488,-1.95122,6.52439
6809.3,5.97622,-8.26828,0,1.07536,9.81719,0.222737,-1.55488,-1.7378,0.304878,-9.73815,0.325723,-1.39151,1.70732,-1.79878,6.43293
6809.31,5.98687,-8.27322,0,1.08494,9.75491,0.174836,-1.31098,-2.59146,-0.548781,-9.8124,0.316143,-1.4442,1.52439,-1.76829,6.46341
6809.32,6.00725,-8.28832,0,1.15679,9.71659,0.232317,-0.335366,-2.37805,-0.914634,-9.83395,0.337698,-1.47294,1.55488,-1.06707,6.58537
6809.33,6.03836,-8.29171,0,1.20709,9.73336,0.225132,-0.548781,-1.85976,-0.853659,-9.89383,0.328118,-1.45138,1.58537,-0.945122,6.25
6809.34,6.07399,-8.31978,0,1.24062,9.78366,0.146096,-1.09756,-0.579268,-0.823171,-9.92257,0.330513,-1.51365,1.43293,-0.579268,6.31098
6809.35,6.10479,-8.34785,0,1.23344,9.69504,0.205972,-1.09756,-0.121951,-1.03659,-9.93933,0.323328,-1.52563,1.28049,-0.701219,6.52439
6809.36,6.14663,-8.36124,0,1.28134,9.64235,0.170046,-1.03659,0.213415,-1.03659,-9.98244,0.344883,-1.49689,1.31098,-0.487805,5.88415
6809.37,6.18126,-8.35197,0,1.25978,9.70941,0.196392,-0.853659,1.18902,-0.97561,-9.94652,0.366438,-1.4418,1.46341,-0.396341,5.91463
6809.38,6.20552,-8.35815,0,1.24541,9.7118,0.160466,-0.945122,1.52439,-1.21951,-9.93933,0.407153,-1.47294,1.21951,-0.365854,5.97561
6809.39,6.23103,-8.3506,0,1.23344,9.76928,0.148491,-0.548781,1.4939,-0.945122,-9.91059,0.416733,-1.43941,0.762195,-0.487805,5.97561
6809.4,6.24063,-8.34795,0,1.15919,9.75491,0.148491,-0.548781,2.04268,-0.97561,-9.88185,0.366438,-1.4442,0.731707,-0.914634,5.91463
6809.41,6.24428,-8.37312,0,1.16158,9.75491,0.210762,-0.640244,1.0061,-1.34146,-9.86269,0.320933,-1.51365,0.457317,-0.853659,5.57927
6809.42,6.25451,-8.38421,0,1.2023,9.7142,0.167651,-0.823171,0.457317,-1.43293,-9.83395,0.222737,-1.47773,0.0304878,-0.945122,5.70122
6809.43,6.2649,-8.38731,0,1.21906,9.72138,0.136516,-0.152439,1.25,-1.55488,-9.82677,0.239502,-1.45617,0.487805,-0.670732,5.67073
6809.44,6.27042,-8.40173,0,1.17356,9.77168,0.227527,-0.121951,1.52439,-1.28049,-9.81,0.249082,-1.48012,0.426829,-0.640244,5.79268
6809.45,6.26841,-8.39624,0,1.16877,9.89383,0.160466,-0.792683,2.04268,-1.52439,-9.8076,0.261057,-1.43701,0.243902,-0.548781,6.28049
6809.46,6.25407,-8.3845,0,1.09931,9.85311,0.196392,-0.914634,2.43902,-1.7378,-9.83395,0.237107,-1.42264,-0.152439,-0.823171,6.25
6809.47,6.23601,-8.37521,0,1.12087,9.79323,0.186812,-0.792683,2.16463,-2.5,-9.88425,0.251477,-1.42983,0.182927,-1.25,6.28049
6809.48,6.21461,-8.39357,0,1.12326,9.80521,0.189207,-1.09756,2.19512,-2.86585,-9.90341,0.208367,-1.51126,0.152439,-1.03659,6.43293
6809.49,6.20232,-8.4195,0,1.20948,9.7597,0.277822,-1.06707,1.55488,-3.14024,-9.89622,0.227527,-1.52802,-0.304878,-0.792683,6.52439
6809.5,6.20795,-8.45533,0,1.28613,9.72857,0.186812,-1.31098,2.16463,-2.56098,-9.9058,0.265847,-1.56634,0.0914634,-0.945122,6.40244
6809.51,6.22904,-8.49417,0,1.35798,9.68546,0.208367,-1.09756,2.0122,-2.2561,-9.84593,0.299377,-1.56395,0.0609756,-0.823171,6.85976
6809.52,6.27151,-8.49638,0,1.38193,9.72378,0.273032,-0.945122,1.7378,-1.37195,-9.82197,0.263452,-1.47294,0.0304878,-0.762195,7.10366
6809.53,6.29071,-8.50317,0,1.28613,9.8124,0.308958,-1.85976,1.52439,-1.4939,-9.81479,0.165256,-1.48491,0.182927,-0.945122,7.37805
6809.54,6.33604,-8.51953,0,1.28613,9.75491,0.234712,-1.06707,1.82927,-0.579268,-9.81,0.131726,-1.50886,0.670732,-0.853659,7.71341
6809.55,6.37097,-8.53884,0,1.23583,9.74054,0.280217,-1.15854,1.61585,-0.487805,-9.83395,0.102986,-1.52802,0.518293,-1.06707,7.95732
6809.56,6.3898,-8.54337,0,1.18553,9.76449,0.239502,-1.25,1.61585,-0.518293,-9.89622,0.122146,-1.49928,0.914634,-0.97561,7.43902
6809.57,6.40712,-8.55894,0,1.17356,9.77168,0.177231,-1.06707,1.4939,-0.396341,-9.92017,0.158071,-1.53281,1.03659,-0.853659,7.07317
6809.58,6.3943,-8.56398,0,1.08734,9.83874,0.229922,-1.03659,1.15854,-0.97561,-9.96807,0.222737,-1.51365,1.31098,-0.670732,7.04268
6809.59,6.3778,-8.56678,0,1.09452,9.87706,0.215552,-1.21951,0.518293,-1.4939,-10.0016,0.311353,-1.51365,1.03659,-0.579268,7.07317
6809.6,6.34666,-8.56145,0,1.02267,9.89383,0.229922,-1.03659,0.731707,-1.98171,-9.99442,0.361648,-1.4921,0.701219,-0.731707,7.68293
6809.61,6.31306,-8.55894,0,1.01549,9.87946,0.198787,-1.52439,0.731707,-2.28659,-10.004,0.335303,-1.49928,0.213415,-1.18902,7.95732
6809.62,6.28355,-8.56982,0,1.07776,9.7621,0.270637,-1.61585,0.884146,-2.9878,-9.98244,0.261057,-1.5376,0.182927,-1.21951,8.04878
6809.63,6.26406,-8.57302,0,1.13045,9.79803,0.177231,-1.7378,1.25,-2.68293,-10.0351,0.232317,-1.52563,0.182927,-1.79878,8.29268
6809.64,6.252,-8.57004,0,1.17116,9.74054,0.150886,-1.70732,1.09756,-2.62195,-9.99202,0.143701,-1.49689,-0.0609756,-2.0122,8.47561
6809.65,6.24303,-8.56357,0,1.19032,9.76449,0.275427,-1.52439,0.823171,-2.56098,-9.92736,0.225132,-1.47294,0.152439,-2.34756,8.75
6809.66,6.22801,-8.55884,0,1.14721,9.77647,0.237107,-2.65244,-0.182927,-2.59146,-9.9058,0.189207,-1.47533,0.243902,-2.40854,9.08537
6809.67,6.21634,-8.54467,0,1.152,9.7597,0.191602,-1.98171,-0.426829,-2.40854,-9.92736,0.234712,-1.43941,0.457317,-2.65244,9.29878
6809.68,6.1978,-8.52102,0,1.11129,9.79803,0.270637,-2.7439,-1.06707,-2.5,-9.93694,0.215552,-1.39869,0.213415,-2.83537,9.29878
6809.69,6.17608,-8.497,0,1.06818,9.77647,0.229922,-2.83537,-1.18902,-2.31707,-9.95849,0.179626,-1.3939,0.0914634,-3.14024,9.29878
6809.7,6.14372,-8.4806,0,1.01309,9.77407,0.234712,-2.59146,-0.640244,-2.71341,-9.94891,0.205972,-1.42025,-0.121951,-3.14024,8.59756
6809.71,6.10837,-8.45867,0,0.991538,9.75731,0.227527,-2.53049,-0.792683,-2.83537,-9.89622,0.225132,-1.38672,-0.27439,-3.23171,8.59756
6809.72,6.06985,-8.45238,0,1.02507,9.78605,0.330513,-2.59146,-1.03659,-3.65854,-9.86988,0.265847,-1.4442,0,-3.59756,8.44512
6809.73,6.03245,-8.45199,0,1.07776,9.81,0.203577,-2.86585,-1.21951,-4.2378,-9.83874,0.299377,-1.46336,0.365854,-3.38415,8.41463
6809.74,5.99171,-8.45439,0,1.08255,9.77407,0.167651,-2.43902,-0.853659,-4.7561,-9.87227,0.265847,-1.48012,0.243902,-3.47561,8.71951
6809.75,5.96723,-8.44434,0,1.19511,9.77168,0.150886,-2.7439,0.243902,-4.54268,-9.88664,0.256267,-1.42983,0.0914634,-3.65854,8.75
6809.76,5.93601,-8.4368,0,1.14961,9.77407,0.265847,-2.71341,1.15854,-4.72561,-9.94173,0.225132,-1.44659,0.304878,-3.9939,8.87195
6809.77,5.90599,-8.43049,0,1.12805,9.77168,0.244292,-3.17073,0.670732,-4.42073,-9.96328,0.225132,-1.45378,0.27439,-3.90244,8.75
6809.78,5.87457,-8.4365,0,1.11608,9.72617,0.225132,-2.92683,0.365854,-4.54268,-9.98005,0.215552,-1.50886,0.121951,-3.93293,8.62805
6809.79,5.84111,-8.44726,0,1.12087,9.78366,0.256267,-3.96341,-0.335366,-4.78659,-9.94891,0.222737,-1.52563,-0.243902,-3.81098,8.96341
6809.8,5.80754,-8.44084,0,1.11368,9.80281,0.205972,-3.87195,0.0914634,-4.7561,-9.9537,0.225132,-1.45378,-0.457317,-3.65854,8.90244
6809.81,5.77142,-8.45564,0,1.14242,9.77168,0.198787,-3.68902,-0.0609756,-5.45732,-9.88904,0.280217,-1.53521,-0.640244,-4.05488,9.05488
6809.82,5.73304,-8.46643,0,1.14961,9.78605,0.229922,-3.71951,0.670732,-5.82317,-9.87946,0.294587,-1.51844,-0.97561,-3.84146,9.08537
6809.83,5.69309,-8.4682,0,1.13524,9.79084,0.244292,-4.02439,0.396341,-5.88415,-9.86988,0.292192,-1.48012,-1.18902,-3.84146,9.08537
6809.84,5.66332,-8.46026,0,1.22864,9.70462,0.217947,-3.59756,0.365854,-6.15854,-9.87467,0.294587,-1.43941,-1.46341,-3.90244,9.08537
6809.85,5.6373,-8.45185,0,1.26218,9.69504,0.227527,-3.44512,1.34146,-6.25,-9.86509,0.270637,-1.43462,-1.18902,-3.96341,8.90244
6809.86,5.6262,-8.4441,0,1.36277,9.68067,0.210762,-4.02439,2.07317,-6.0061,-9.8555,0.244292,-1.43462,-1.37195,-3.84146,8.65854
6809.87,5.62577,-8.43779,0,1.41785,9.59205,0.246687,-3.14024,3.23171,-5.7622,-9.8555,0.205972,-1.43941,-1.34146,-4.14634,8.17073
6809.88,5.62811,-8.42306,0,1.45378,9.67348,0.263452,-3.68902,4.35976,-5.7622,-9.86509,0.184417,-1.40348,-1.0061,-3.96341,7.56098
6809.89,5.63396,-8.43139,0,1.43222,9.64953,0.184417,-3.75,3.87195,-5.21341,-9.79563,0.184417,-1.4897,-1.21951,-4.05488,7.22561
6809.9,5.6452,-8.42594,0,1.46815,9.64953,0.172441,-3.65854,3.56707,-5.09146,-9.82916,0.246687,-1.43701,-0.945122,-3.93293,7.2561
6809.91,5.67034,-8.41808,0,1.57113,9.7118,0.160466,-3.56707,3.75,-4.78659,-9.79084,0.328118,-1.42025,-1.12805,-4.02439,7.2561
6809.92,5.70886,-8.41014,0,1.64538,9.66151,0.244292,-3.44512,4.57317,-4.42073,-9.80281,0.308958,-1.42025,-1.43293,-4.02439,7.37805
6809.93,5.75967,-8.37425,0,1.70286,9.63516,0.273032,-3.2622,5,-3.96341,-9.85072,0.275427,-1.30529,-1.92073,-4.17683,7.5
6809.94,5.83005,-8.36185,0,1.80345,9.59924,0.263452,-3.71951,6.03659,-3.44512,-9.84114,0.232317,-1.39869,-2.37805,-4.66463,7.2561
6809.95,5.93512,-8.32832,0,1.94715,9.52978,0.263452,-3.96341,6.43293,-2.68293,-9.92257,0.203577,-1.31487,-2.9878,-5.15244,7.19512
6809.96,6.15654,-8.30395,0,2.26329,9.49386,0.136516,-5.06098,6.85976,-1.31098,-9.96807,0.167651,-1.35558,-3.10976,-5.64024,6.55488
6809.97,6.6622,-8.28586,0,2.64889,9.38129,0.0263452,-6.67683,6.21951,0.27439,-9.98723,0.198787,-1.38193,-2.56098,-5.85366,6.64634
6809.98,6.96953,-8.26457,0,3.20693,9.08431,-0.134121,-7.80488,5.54878,3.62805,-10.0088,0.215552,-1.36756,-1.61585,-6.18902,6.7378
6809.99,7.37496,-8.21268,0,3.7051,8.67716,-0.0670605,-7.7439,4.48171,8.38415,-10.0758,0.134121,-1.23583,-0.27439,-7.53049,6.46341
6810,7.89455,-8.16899,0,4.17452,8.3682,0.431104,-7.9878,4.05488,13.9634,-10.004,0.0335303,-1.25499,1.61585,-8.17073,5.82317
6810.01,8.55461,-8.15408,0,4.64873,8.05445,0.411943,-3.93293,6.40244,22.2561,-9.84832,-0.0335303,-1.35558,3.68902,-9.05488,4.93902
6810.02,9.28266,-8.10763,0,4.68945,8.42807,1.02507,-3.04878,7.43902,32.378,-9.7142,0.0263452,-1.19751,6.76829,-9.35976,4.5122
6810.03,10.0592,-8.05463,0,4.6152,8.71308,1.36037,-5.91463,5.97561,41.2195,-9.57529,0.100591,-1.14482,9.2378,-9.78659,4.11585
6810.04,10.8581,-8.00488,0,4.43318,9.02443,1.16877,-8.23171,6.18902,48.6585,-9.41003,0.184417,-1.13045,11.5549,-10.4573,3.71951
6810.05,11.6537,-7.94633,0,4.13141,9.33579,0.811912,-8.53659,8.14024,54.6341,-9.32621,0.368833,-1.07536,13.3232,-10.3049,2.46951
6810.06,12.3866,-7.86676,0,3.52547,9.93454,0.764011,-8.32317,11.6463,58.689,-9.40285,0.541274,-0.986748,14.1159,-10.8537,1.64634
6810.07,13.0748,-7.78839,0,3.13029,10.4878,0.593965,-9.72561,15.5488,61.5854,-9.50104,0.713716,-0.989143,14.2988,-11.2805,1.46341
6810.08,13.7428,-7.71197,0,3.00335,10.8015,0.196392,-12.2866,17.5305,63.1402,-9.63277,0.857417,-0.998723,14.2683,-12.2256,1.21951
6810.09,14.314,-7.67401,0,2.213,11.1153,0.0502954,-10.7622,18.9939,63.3537,-9.65672,0.979563,-1.1544,13.0183,-12.8659,1.15854
6810.1,14.8231,-7.64088,0,1.90165,11.5679,0.210762,-7.89634,17.2561,62.1037,-9.79323,1.05381,-1.18553,12.3171,-13.1402,1.76829
6810.11,15.2767,-7.62186,0,1.60945,11.6494,0.529299,-6.82927,11.311,60.4878,-10.1621,1.01309,-1.28852,11.189,-13.3232,2.59146
6810.12,15.7051,-7.6223,0,1.55676,11.3811,0.5772,-5.2439,3.44512,58.9939,-10.5788,0.883762,-1.42983,10.6098,-13.0183,3.01829
6810.13,16.1401,-7.65725,0,1.7292,11.2039,0.419128,-5.18293,2.04268,58.5366,-10.78,0.737666,-1.62382,10.7622,-12.4085,4.2378
6810.14,16.6228,-7.727,0,2.22497,10.7488,-0.00239502,-3.44512,6.76829,58.3232,-10.8327,0.57241,-1.80824,10.8537,-11.7073,5.2439
6810.15,17.145,-7.80027,0,2.62255,10.3177,0.124541,0.640244,10.8841,58.1098,-10.7273,0.450264,-1.82021,11.4939,-10.7012,5.54878
6810.16,17.6644,-7.8821,0,2.76625,10.1669,0.507744,3.38415,11.5244,56.9207,-10.562,0.385598,-1.84656,11.7683,-10.1524,6.31098
6810.17,18.1646,-7.95596,0,2.7423,10.1549,1.0107,4.63415,10.061,56.25,-10.4567,0.330513,-1.80584,12.561,-10.3049,6.40244
6810.18,18.6197,-8.01294,0,2.5004,10.313,1.1999,4.11585,6.92073,55.7012,-10.4327,0.344883,-1.73639,13.6585,-11.0366,6.67683
6810.19,19.0694,-8.03694,0,2.57704,10.392,1.2023,3.17073,5.39634,55.4573,-10.4327,0.409548,-1.59269,14.2073,-12.3476,7.16463
6810.2,19.4997,-8.03983,0,2.58902,10.3177,1.20948,2.77439,6.03659,54.0854,-10.4016,0.428708,-1.49449,14.4817,-13.4146,7.92683
6810.21,19.9438,-8.03216,0,2.95306,10.2028,1.23344,2.16463,6.28049,52.1646,-10.2651,0.479004,-1.42743,14.4817,-14.2378,8.5061
6810.22,20.3894,-8.01288,0,3.19975,10.1118,1.17116,1.34146,6.43293,50.3354,-10.1381,0.546064,-1.35558,14.7866,-14.2378,9.11585
6810.23,20.8319,-7.95481,0,3.43446,10.1812,1.16637,1.15854,9.11585,48.7195,-10.0926,0.62989,-1.17116,13.872,-14.6646,10.061
6810.24,21.2765,-7.8676,0,3.59971,10.0974,1.17835,0.335366,12.5915,47.8354,-10.0447,0.696951,-1.02507,13.4146,-15.0305,10.4268
6810.25,21.7428,-7.80317,0,3.76258,9.79803,1.2023,1.21951,16.7683,48.1402,-10.0639,0.809517,-1.11368,11.9207,-15,11.372
6810.26,22.2139,-7.73257,0,3.86556,9.70941,1.42743,0.365854,20.5488,48.1402,-9.91299,0.898132,-1.0586,10.6402,-15.1829,12.1037
6810.27,22.6945,-7.6634,0,3.90388,9.46512,1.66933,-1.28049,22.2866,48.628,-9.85311,0.931663,-1.04662,8.90244,-15.6707,12.6829
6810.28,23.2092,-7.5819,0,4.06674,9.16334,1.75076,-1.34146,24.0244,50,-9.81479,0.986748,-0.977168,7.83537,-16.2195,12.7439
6810.29,23.7124,-7.51295,0,3.80569,8.99809,1.86812,-1.25,22.2256,51.9207,-9.76689,1.03225,-1.01309,6.43293,-16.4329,12.6829
6810.3,24.2132,-7.44699,0,3.69312,8.78972,1.87291,-3.78049,21.7073,52.9878,-9.68067,1.07536,-1.00591,4.90854,-17.1341,12.2561
6810.31,24.6971,-7.39196,0,3.5566,8.66758,1.64777,-6.67683,20.5183,53.2622,-9.65672,1.09931,-1.03944,4.20732,-17.439,12.2866
6810.32,25.1743,-7.35287,0,3.53984,8.58375,1.4442,-11.0061,18.5061,53.3537,-9.57768,1.08734,-1.08973,3.44512,-17.439,11.8598
6810.33,25.6396,-7.30688,0,3.56858,8.38257,1.39151,-10.2134,17.1341,51.7988,-9.57768,1.0107,-1.05381,2.77439,-17.622,11.5549
6810.34,26.073,-7.27635,0,3.61169,8.40891,1.41785,-10.122,12.0122,49.1159,-9.55134,0.888552,-1.10889,2.16463,-17.4695,11.311
6810.35,26.5028,-7.23937,0,3.84161,8.51908,1.39869,-11.311,5.70122,47.5305,-9.5681,0.802332,-1.07776,1.25,-17.0122,10.6098
6810.36,26.9359,-7.20888,0,3.93502,8.24605,1.18074,-9.48171,-0.304878,46.2195,-9.59445,0.713716,-1.10171,0.0609756,-16.372,9.78659
6810.37,27.3752,-7.18617,0,4.1362,8.10235,0.811912,-6.31098,-5.64024,44.6037,-9.54655,0.718506,-1.12326,-0.243902,-15.2134,9.45122
6810.38,27.7818,-7.17307,0,4.02363,8.10475,0.855022,-4.69512,-11.2195,43.4756,-9.54176,0.783171,-1.15919,-1.09756,-14.3902,8.90244
6810.39,28.183,-7.17525,0,4.06195,7.92033,1.11368,-3.14024,-15.5488,42.2256,-9.50344,0.816702,-1.21667,-1.67683,-13.6585,8.65854
6810.4,28.5832,-7.1809,0,4.31343,8.11912,0.943638,-4.17683,-16.4024,41.25,-9.5202,0.869392,-1.23344,-2.59146,-12.9573,8.78049
6810.41,28.9622,-7.18816,0,4.26792,8.01853,0.907712,-5.67073,-12.8963,39.8171,-9.61361,0.833467,-1.2526,-3.35366,-11.9817,8.41463
6810.42,29.321,-7.21082,0,4.31822,7.9347,1.13284,-4.63415,-10.4878,37.439,-9.68067,0.828677,-1.32924,-4.35976,-11.7073,7.86585
6810.43,29.7046,-7.22725,0,4.6631,7.72154,1.13045,-2.9878,-11.0366,35.4573,-9.76689,0.831072,-1.31726,-5.12195,-11.1585,7.62195
6810.44,30.1027,-7.25397,0,4.86907,7.43893,0.886157,-1.89024,-13.7805,33.4756,-9.71659,0.809517,-1.35798,-5.82317,-10.9451,7.22561
6810.45,30.5023,-7.26797,0,5.04631,7.23296,0.742456,0.0304878,-16.5244,30.9756,-9.6663,0.890947,-1.3005,-6.98171,-11.0976,6.98171
6810.46,30.8969,-7.27828,0,5.26665,7.22577,0.61552,1.79878,-19.7256,28.872,-9.67588,0.967588,-1.28852,-7.5,-11.5244,6.92073
6810.47,31.2917,-7.26549,0,5.50136,7.24254,0.735271,3.71951,-17.5915,27.378,-9.67588,0.946033,-1.19032,-8.23171,-11.7073,6.40244
6810.48,31.6679,-7.24757,0,5.67141,7.48204,0.677791,0.792683,-11.7378,26.4024,-9.71659,0.871787,-1.17116,-9.02439,-12.1037,5.82317
6810.49,32.0257,-7.23639,0,5.6259,7.46288,-0.0191602,-0.853659,-4.08537,25.6098,-9.71899,0.850232,-1.19751,-9.96951,-11.9207,5.15244
6810.5,32.3622,-7.24765,0,5.46543,7.27128,-0.222737,3.17073,6.34146,24.3293,-9.65193,0.785566,-1.28373,-10.8537,-11.1585,4.17683
6810.51,32.6422,-7.27905,0,5.14211,7.32157,0.179626,6.09756,11.8902,23.0183,-9.62079,0.778381,-1.36756,-11.0366,-10.061,3.23171
6810.52,32.8867,-7.34021,0,4.97925,7.21619,0.414338,7.71341,12.5,20.9451,-9.50344,0.716111,-1.48252,-11.6768,-8.81098,2.7439
6810.53,33.0965,-7.40481,0,4.77088,6.94556,0.598755,10.061,12.1951,18.1402,-9.44117,0.680186,-1.49689,-11.8598,-7.89634,2.07317
6810.54,33.2427,-7.45853,0,4.45474,6.76354,0.780776,12.2256,10.6402,14.3598,-9.46033,0.706531,-1.46336,-12.1646,-7.0122,1.95122
6810.55,33.3304,-7.50052,0,4.39965,6.77551,0.943638,12.1341,10.0915,9.45122,-9.47949,0.689766,-1.42504,-12.378,-6.7378,1.7378
6810.56,33.354,-7.54629,0,4.35894,6.80904,0.917292,11.9207,8.32317,4.11585,-9.51781,0.732876,-1.45378,-13.1098,-6.4939,1.82927
6810.57,33.3521,-7.58628,0,4.54335,6.88329,0.783171,12.7744,5.36585,-0.945122,-9.61361,0.730481,-1.45138,-13.5061,-6.4939,2.31707
6810.58,33.3201,-7.63294,0,4.73735,7.0701,0.905317,14.0854,2.19512,-4.32927,-9.6184,0.768801,-1.48731,-14.1159,-6.18902,2.46951
6810.59,33.2767,-7.67503,0,4.94811,7.28804,1.05381,14.3293,-0.914634,-6.18902,-9.63516,0.799937,-1.47773,-15.0305,-5.91463,3.07927
6810.6,33.2215,-7.73596,0,5.09421,7.33355,1.03704,13.2012,-2.80488,-8.71951,-9.65911,0.780776,-1.56874,-15.5488,-5.30488,3.20122
6810.61,33.1626,-7.77475,0,5.25707,7.31199,0.847837,11.5549,-1.79878,-11.0976,-9.70462,0.814307,-1.4897,-16.311,-4.93902,2.68293
6810.62,33.087,-7.80881,0,5.30257,7.23775,0.826282,11.128,1.55488,-13.9634,-9.83874,0.859812,-1.49689,-17.0427,-5.06098,2.56098
6810.63,33.0093,-7.82982,0,5.49417,7.18985,0.905317,11.311,4.81707,-16.7073,-10.0184,0.850232,-1.47294,-17.6524,-5.51829,2.16463
6810.64,32.9299,-7.85253,0,5.72889,7.19464,0.965193,11.9512,7.07317,-19.3598,-10.0495,0.862207,-1.4897,-18.3537,-6.12805,2.19512
6810.65,32.8463,-7.90603,0,5.8678,7.20422,1.08973,11.9207,7.71341,-21.25,-10.0447,0.859812,-1.63101,-19.2378,-5.45732,2.2561
6810.66,32.7462,-7.99054,0,5.98515,7.31678,0.979563,12.0122,7.68293,-23.3537,-10.0591,0.852627,-1.78189,-19.878,-4.93902,2.53049
6810.67,32.6295,-8.08737,0,6.05461,7.46528,0.912502,13.2622,8.68902,-24.7561,-10.1046,0.835862,-1.85135,-19.878,-3.68902,2.46951
6810.68,32.4826,-8.19538,0,5.98036,7.57066,0.943638,14.0854,9.11585,-26.5854,-10.2291,0.692161,-1.93039,-20.2744,-2.95732,2.80488
6810.69,32.3082,-8.3192,0,5.86301,7.49162,0.881367,16.5549,9.84756,-29.1463,-10.392,0.60115,-2.0214,-19.9085,-2.04268,2.56098
6810.7,32.0889,-8.48705,0,5.73847,7.47725,0.926873,19.5427,10.6707,-32.9878,-10.3153,0.60115,-2.10283,-20.0305,-1.06707,2.62195
6810.71,31.8198,-8.7453,0,5.7241,7.58503,1.19511,21.0976,7.7439,-37.561,-10.2195,0.696951,-2.21539,-19.6341,0.304878,2.89634
6810.72,31.4797,-8.91733,0,5.65225,7.94428,1.30529,19.3293,2.0122,-42.0732,-10.1573,0.804727,-2.17468,-19.6037,1.28049,3.93293
6810.73,31.0469,-9.06284,0,5.45346,8.40412,0.787961,13.3537,-0.609756,-47.2256,-10.2555,0.835862,-2.19623,-18.75,1.82927,5.36585
6810.74,30.4626,-9.21483,0,4.70621,8.89989,0.203577,12.9878,-1.25,-53.1402,-10.5165,0.622705,-2.35191,-17.5305,2.22561,6.76829
6810.75,29.7066,-9.34587,0,4.01166,10.0854,0.792751,12.1341,-0.121951,-59.2378,-10.8399,0.294587,-2.38304,-14.7561,2.7439,7.86585
6810.76,28.8222,-9.41786,0,3.46799,11.0482,1.50407,7.59146,-3.35366,-65.1829,-11.168,0.00958008,-2.18426,-11.5549,2.10366,8.62805
6810.77,27.915,-9.42588,0,3.67635,11.4051,1.81303,1.64634,-17.6829,-70.2134,-11.4674,-0.292192,-1.93997,-7.16463,1.98171,9.20732
6810.78,27.1504,-9.3812,0,4.94332,10.9333,1.48252,-1.03659,-42.0732,-70.7012,-11.8673,-0.716111,-1.73639,-2.40854,1.89024,9.11585
6810.79,26.5565,-9.29775,0,7.0222,11.4721,1.69807,-1.21951,-62.4695,-69.4207,-12.3559,-1.2023,-1.57832,4.08537,2.68293,7.9878
6810.8,26.0824,-9.18307,0,9.53936,13.1079,2.4046,1.03659,-64.5427,-67.7439,-12.9403,-1.73639,-1.44899,12.7439,3.65854,6.67683
6810.81,25.737,-9.07547,0,11.8913,15.2754,2.56746,-0.0914634,-55.0305,-59.3598,-13.1271,-1.8753,-1.48252,21.4024,4.81707,6.43293
6810.82,25.6868,-8.99701,0,13.2492,15.6059,1.59029,-8.93293,-50.9146,-34.9085,-13.0074,-2.39502,-1.60945,29.6646,8.20122,6.92073
6810.83,25.8683,-8.82899,0,9.55852,12.9211,0.421523,-14.8171,-43.3537,-3.53659,-12.3104,-1.93278,-1.0107,35.2439,12.1951,8.81098
6810.84,25.9387,-8.5528,0,3.6524,9.43638,0.0886157,-17.1037,-19.3902,16.7988,-11.2518,-0.991538,-0.349673,36.4024,15.061,10.5183
6810.85,25.3664,-8.10186,0,-1.41785,7.10842,-0.114961,-16.4024,4.11585,17.561,-10.4088,0.0718506,0.529299,34.5732,15.4573,11.372
6810.86,25.367,-7.46368,0,-4.60802,5.82229,0.0526904,-7.10366,9.42073,0.0609756,-10.2627,1.11608,1.45617,29.5732,12.561,10.9756
6810.87,23.6201,-6.76769,0,-6.60786,6.11448,1.09452,4.2378,-14.1159,-30.122,-10.2651,2.07888,1.83938,22.9268,9.69512,10.5183
6810.88,21.6982,-6.02996,0,-6.44021,7.5515,1.64538,-2.7439,-53.2622,-65.3354,-10.2195,3.02491,2.15312,14.7866,8.01829,9.39024
6810.89,19.808,-5.2437,0,-4.26074,8.23647,-0.102986,-18.4756,-79.8781,-92.7744,-9.97286,3.62366,2.4525,5.57927,5.85366,9.14634
6810.9,18.1866,-4.37037,0,-1.36516,8.71548,-2.11959,-17.1951,-88.1402,-106.86,-9.51062,3.73863,2.66326,-3.38415,2.80488,9.29878
6810.91,16.9746,-2.94296,0,1.59987,9.59205,-2.85007,-4.54268,-78.4146,-105.884,-9.07952,3.17819,2.55549,-10.4878,-0.762195,9.11585
6810.92,16.1016,-2.17772,0,3.96855,11.0578,-2.12678,12.5305,-59.7561,-94.7256,-8.75859,2.24174,2.42615,-13.9024,-4.17683,7.65244
6810.93,15.5217,-1.49232,0,5.59716,12.0014,-0.186812,15.1524,-39.5122,-77.3476,-8.68195,1.19272,2.33754,-14.7256,-8.14024,5.51829
6810.94,15.1395,-0.902111,0,5.48938,11.2422,1.11608,6.37195,-20.6707,-60.4268,-8.69392,0.352068,2.06451,-13.4146,-10.3963,4.17683
6810.95,14.8456,-0.401075,0,4.48108,10.0711,1.14482,-1.46341,-3.5061,-48.0488,-8.80649,-0.407153,1.82261,-11.189,-11.4634,3.56707
6810.96,14.5102,-0.00612161,0,3.06562,9.26873,0.708926,-3.68902,4.2378,-41.2805,-8.85678,-1.1065,1.48491,-7.2561,-10.9451,4.48171
6810.97,14.0609,0.272726,0,1.84656,9.0891,0.617915,-2.65244,2.83537,-39.6646,-9.00767,-1.64298,1.1041,-3.20122,-8.84146,5.21341
6810.98,13.5379,0.468861,0,1.29092,9.38129,0.486189,-5.45732,-0.914634,-40.6707,-9.09628,-1.88249,0.823887,1.67683,-6.89024,6.12805
6810.99,12.9242,0.608844,0,0.570015,9.16574,0.126936,-5.64024,-6.70732,-42.2561,-9.0867,-1.80584,0.61073,5.94512,-4.42073,7.89634
6811,12.2211,0.749695,0,0.00239502,9.21603,-0.119751,-4.69512,-11.4329,-45.3963,-9.06754,-1.49928,0.543669,9.81707,-2.65244,9.45122
6811.01,11.483,1.01742,0,-0.165256,9.27591,-0.443079,-4.78659,-22.5,-48.2927,-9.13939,-1.01309,0.680186,12.7744,-1.34146,10.1829
6811.02,10.7042,1.34313,0,-0.299377,9.57289,-0.440684,-1.92073,-27.7744,-52.378,-9.4723,-0.64905,0.63468,14.7256,-0.304878,9.96951
6811.03,9.94635,1.44382,0,-0.112566,9.82677,-0.241897,-0.823171,-34.1768,-54.1463,-9.92736,-0.387993,0.455054,17.2561,0.548781,7.95732
6811.04,9.26105,1.48129,0,0.617915,9.8555,-0.373623,-1.61585,-38.4451,-56.9512,-10.4111,-0.148491,0.395178,18.1098,1.25,4.81707
6811.05,8.60701,1.48649,0,0.941243,10.4998,0.0502954,-0.945122,-42.3476,-58.2927,-10.7656,0.0526904,0.304167,18.2927,2.59146,1.58537
6811.06,7.94444,1.49424,0,0.807122,10.3824,0.167651,-4.57317,-44.5427,-59.1159,-10.756,0.411943,0.318538,17.439,3.62805,-1.18902
6811.07,7.3231,1.50301,0,0.919688,9.95849,-0.308958,-4.48171,-47.622,-57.9573,-10.4638,0.764011,0.316143,15.5793,3.90244,-2.34756
6811.08,6.72015,1.50368,0,0.977168,10.1764,-0.318538,-0.579268,-46.6768,-57.7744,-10.0687,0.934058,0.270637,13.1098,4.08537,-1.70732
6811.09,6.13177,1.48989,0,1.03704,9.96807,-0.256267,1.21951,-47.6829,-58.4451,-9.76689,0.905317,0.203577,10.7927,3.38415,-0.213415
6811.1,5.52292,1.49278,0,0.895737,9.99921,-0.213157,2.77439,-49.7561,-60.061,-9.55852,0.787961,0.261057,8.75,2.59146,1.58537
6811.11,4.90571,1.47387,0,0.823887,9.88425,-0.167651,1.25,-48.3232,-61.4329,-9.46512,0.548459,0.189207,6.85976,2.10366,3.04878
6811.12,4.3221,1.42821,0,1.14482,9.77647,-0.447869,0.0609756,-43.7805,-63.1707,-9.44356,0.316143,0.117356,5.54878,1.7378,4.14634
6811.13,3.77675,1.31422,0,1.47533,9.69743,-0.61073,0.487805,-37.1951,-64.4817,-9.4268,0.00479004,-0.0646655,5.21341,1.61585,4.63415
6811.14,3.30138,1.16338,0,1.96631,9.82197,-0.603545,1.52439,-27.5305,-63.9024,-9.3286,-0.222737,-0.165256,5.33537,1.61585,3.84146
6811.15,2.88245,1.00745,0,2.16749,9.84832,-0.570015,-0.640244,-16.311,-61.3415,-9.2328,-0.471819,-0.232317,6.09756,1.92073,3.59756
6811.16,2.49859,0.804425,0,2.1627,9.7142,-0.701741,-3.38415,-5.18293,-58.9024,-9.16334,-0.641865,-0.440684,7.2561,2.31707,2.86585
6811.17,2.16922,0.606326,0,2.26808,9.39087,-0.977168,-3.2622,5.79268,-56.2195,-8.98132,-0.732876,-0.538879,8.68902,3.20122,1.92073
6811.18,1.82334,0.402609,0,1.84417,9.07952,-1.10171,0.609756,15.3354,-54.2988,-8.87834,-0.761616,-0.627495,10.6402,3.84146,1.67683
6811.19,1.4152,0.221071,0,1.21906,9.00527,-0.728086,5.97561,23.7805,-53.6585,-8.76817,-0.706531,-0.574805,12.1037,3.9939,2.31707
6811.2,0.968959,0.0268709,0,0.866997,9.25675,-0.263452,7.5,26.5244,-53.5671,-8.69153,-0.656235,-0.58678,13.2927,3.38415,3.20122
6811.21,0.50232,-0.167108,0,0.696951,9.49386,-0.0670605,6.37195,26.7378,-54.2073,-8.60291,-0.529299,-0.617915,14.2988,3.56707,4.87805
6811.22,-0.0144527,-0.36912,0,0.234712,9.0891,-0.273032,3.38415,25.7622,-54.7256,-8.58854,-0.438289,-0.684976,14.9085,3.71951,6.52439
6811.23,-0.514522,-0.532231,0,0.395178,9.62798,-0.459844,7.83537,19.8171,-55.8537,-8.57896,-0.311353,-0.59157,14.6951,3.81098,7.9878
6811.24,-1.03898,-0.726763,0,0.244292,9.63516,-0.320933,8.5061,12.1037,-57.5305,-8.50232,-0.244292,-0.63947,13.628,3.17073,9.78659
6811.25,-1.58552,-0.927962,0,0.112566,9.54655,-0.244292,9.54268,5.30488,-59.2683,-8.44963,-0.102986,-0.749641,13.0488,3.81098,10.7927
6811.26,-2.15449,-1.18319,0,0.304167,9.43877,-0.328118,7.43902,5.03049,-65.061,-8.46639,0.112566,-0.991538,12.5305,4.11585,11.9512
6811.27,-2.61826,-1.44114,0,1.13284,9.70701,-0.467029,5.18293,5.15244,-65.3049,-8.55022,0.268242,-1.11608,12.2561,5.15244,13.4451
6811.28,-3.20229,-1.68301,0,0.399968,8.80888,-0.265847,0.243902,-1.31098,-70.2439,-8.66758,0.419128,-1.12566,11.5244,5.64024,14.6646
6811.29,-3.67377,-1.91203,0,1.28613,8.86397,-0.716111,0.884146,0.853659,-71.4939,-8.73224,0.507744,-1.11847,10.4878,5.36585,16.1585
6811.3,-4.1065,-2.13107,0,1.54718,9.21843,-0.205972,-0.97561,-2.71341,-71.0976,-8.73224,0.495769,-1.10889,9.29878,5.06098,17.2866
6811.31,-4.4698,-2.37312,0,1.72681,8.69153,-0.61073,3.41463,2.62195,-68.3841,-8.74661,0.455054,-1.21906,8.10976,4.66463,17.378
6811.32,-4.7749,-2.60477,0,1.99745,9.02204,-0.361648,2.7439,7.92683,-65.7317,-8.86876,0.265847,-1.23583,7.56098,4.57317,17.8354
6811.33,-5.03004,-2.81722,0,2.04535,9.32142,-0.665815,2.68293,13.3841,-61.0366,-9.18011,0.0574805,-1.23823,7.7439,4.17683,17.1951
6811.34,-5.27543,-3.01609,0,1.90404,9.71899,-0.910107,5.15244,15.0305,-57.9268,-9.45554,-0.110171,-1.26697,7.46951,4.20732,16.5549
