time,angle1,angle2,intgangle,accX1,accY1,accZ1,gyroX1,gyroY1,gyroZ1,accX2,accY2,accZ2,gyroX2,gyroY2,gyroZ2
6551.68,93.5917,-1.20895,0,9.82437,-0.754431,0.64426,-0.0304878,0.426829,-2.34756,-9.89143,-0.651445,-0.162861,-0.335366,-0.213415,6.46341
6551.69,93.5866,-1.22242,0,9.79803,-0.744851,0.641865,0.0304878,-0.0609756,-2.34756,-9.87706,-0.651445,-0.232317,0,0.213415,6.43293
6551.7,93.573,-1.21895,0,9.83395,-0.720901,0.730481,0.0609756,-0.152439,-2.77439,-9.87706,-0.62989,-0.203577,-0.213415,0.396341,6.21951
6551.71,93.5672,-1.22466,0,9.79803,-0.730481,0.752036,-0.0304878,-0.0304878,-2.28659,-9.9058,-0.63468,-0.222737,0.121951,0.548781,5.91463
6551.72,93.5553,-1.21819,0,9.83635,-0.704136,0.720901,-0.243902,0.152439,-2.46951,-9.89622,-0.61073,-0.196392,-0.152439,0.640244,6.28049
6551.73,93.5457,-1.17795,0,9.79084,-0.694556,0.701741,0,0.365854,-2.22561,-9.91538,-0.632285,-0.131726,-0.0304878,0.335366,6.09756
6551.74,93.5396,-1.16755,0,9.81479,-0.711321,0.677791,-0.27439,0.518293,-2.13415,-9.9561,-0.64905,-0.182021,-0.182927,0.457317,6.25
6551.75,93.5411,-1.14771,0,9.83395,-0.740061,0.754431,0.121951,0.304878,-1.85976,-9.99202,-0.637075,-0.165256,-0.0609756,0.213415,6.28049
6551.76,93.5368,-1.11914,0,9.80521,-0.711321,0.682581,0.0914634,-0.213415,-2.0122,-9.95849,-0.66342,-0.148491,-0.426829,-0.121951,5.91463
6551.77,93.534,-1.12834,0,9.80281,-0.699346,0.661025,-0.0914634,-0.0609756,-1.76829,-9.9537,-0.65863,-0.210762,-0.0914634,0.121951,6.31098
6551.78,93.5267,-1.15076,0,9.81719,-0.704136,0.684976,0,-0.0914634,-2.16463,-9.92257,-0.661025,-0.234712,-0.182927,-0.121951,6.09756
6551.79,93.5236,-1.15733,0,9.81479,-0.701741,0.732876,0.0914634,-0.121951,-1.82927,-9.91778,-0.66342,-0.210762,0,-0.121951,6.15854
6551.8,93.5227,-1.14518,0,9.81958,-0.713716,0.711321,0,0.213415,-1.79878,-9.9082,-0.706531,-0.174836,0.0304878,-0.487805,6.12805
6551.81,93.5228,-1.13983,0,9.84832,-0.706531,0.670605,0.0609756,0.213415,-1.61585,-9.89622,-0.735271,-0.186812,0.213415,-0.518293,6.15854
6551.82,93.5225,-1.15247,0,9.82437,-0.706531,0.696951,-0.0304878,-0.152439,-1.67683,-9.91059,-0.696951,-0.227527,0.0304878,-0.701219,6.12805
6551.83,93.5238,-1.13306,0,9.85311,-0.725691,0.752036,0.0609756,0.121951,-1.7378,-9.90101,-0.699346,-0.165256,0,-0.152439,6.31098
6551.84,93.5299,-1.17304,0,9.77647,-0.716111,0.677791,-0.121951,0.213415,-1.40244,-9.91778,-0.684976,-0.263452,0.243902,-0.0609756,6.31098
6551.85,93.5393,-1.19551,0,9.77647,-0.761616,0.754431,0.152439,0.27439,-1.64634,-9.89143,-0.637075,-0.239502,0.121951,0.0609756,6.37195
6551.86,93.5479,-1.19099,0,9.80281,-0.764011,0.680186,-0.243902,0.518293,-1.67683,-9.87706,-0.673001,-0.198787,0.335366,-0.0609756,6.06707
6551.87,93.5585,-1.23069,0,9.76928,-0.790356,0.704136,-0.27439,0.396341,-1.82927,-9.88425,-0.637075,-0.270637,0.365854,-0.0609756,6.18902
6551.88,93.565,-1.23364,0,9.76449,-0.778381,0.718506,-0.182927,0.426829,-1.95122,-9.89862,-0.65863,-0.217947,0.243902,-0.152439,6.43293
6551.89,93.5681,-1.25595,0,9.77407,-0.778381,0.725691,0.243902,-0.152439,-2.16463,-9.89622,-0.646655,-0.251477,0.243902,-0.121951,6.37195
6551.9,93.5714,-1.27769,0,9.78126,-0.768801,0.675395,-0.152439,-0.335366,-2.04268,-9.91299,-0.6251,-0.256267,0.0304878,0.182927,6.34146
6551.91,93.572,-1.3058,0,9.78366,-0.742456,0.740061,-0.152439,-0.335366,-1.95122,-9.94412,-0.622705,-0.270637,0.121951,0.0914634,6.28049
6551.92,93.5682,-1.30793,0,9.79803,-0.747246,0.706531,0,-0.335366,-2.31707,-9.9082,-0.675395,-0.229922,0.152439,-0.213415,6.40244
6551.93,93.5652,-1.32073,0,9.78844,-0.735271,0.725691,0.0609756,-0.27439,-2.13415,-9.9058,-0.64426,-0.246687,0.243902,0,6.34146
6551.94,93.5567,-1.36263,0,9.82437,-0.704136,0.728086,-0.0914634,-0.27439,-2.19512,-9.93454,-0.673001,-0.301772,0.243902,-0.0914634,6.46341
6551.95,93.5526,-1.37322,0,9.83156,-0.737666,0.692161,-0.0914634,-0.335366,-2.22561,-9.90101,-0.682581,-0.253872,0.0914634,-0.121951,6.43293
6551.96,93.5482,-1.36216,0,9.83156,-0.723296,0.723296,-0.304878,-0.213415,-2.10366,-9.91299,-0.670605,-0.215552,-0.121951,-0.396341,6.28049
6551.97,93.5401,-1.35136,0,9.79803,-0.720901,0.682581,-0.27439,-0.182927,-2.40854,-9.91299,-0.677791,-0.217947,0.304878,0.0304878,6.70732
6551.98,93.533,-1.35264,0,9.79803,-0.704136,0.66342,-0.457317,-0.213415,-2.16463,-9.94173,-0.711321,-0.237107,0.457317,-0.213415,6.52439
6551.99,93.5312,-1.33506,0,9.77647,-0.728086,0.744851,-0.182927,-0.487805,-2.04268,-9.96807,-0.720901,-0.198787,0.27439,-0.396341,6.4939
6552,93.5307,-1.32032,0,9.80281,-0.735271,0.677791,-0.121951,-0.518293,-2.0122,-9.95131,-0.704136,-0.201182,0.304878,-0.426829,6.55488
6552.01,93.5201,-1.29075,0,9.81719,-0.673001,0.742456,-0.335366,-0.884146,-2.07317,-9.93933,-0.692161,-0.158071,0.152439,-0.731707,6.40244
6552.02,93.5162,-1.27496,0,9.84353,-0.687371,0.64905,-0.365854,-0.670732,-1.70732,-9.95849,-0.711321,-0.186812,0.579268,-0.701219,6.37195
6552.03,93.513,-1.24835,0,9.82916,-0.706531,0.651445,-0.304878,-0.518293,-1.89024,-9.93215,-0.689766,-0.153281,0.579268,-0.884146,6.61585
6552.04,93.5187,-1.24992,0,9.83635,-0.744851,0.701741,-0.396341,-0.182927,-1.67683,-9.97286,-0.689766,-0.222737,0.335366,-1.09756,6.64634
6552.05,93.5175,-1.23296,0,9.8603,-0.708926,0.65384,-0.457317,-0.0914634,-1.7378,-9.93454,-0.677791,-0.174836,0.762195,-0.823171,6.46341
6552.06,93.52,-1.247,0,9.83635,-0.713716,0.656235,-0.487805,0,-1.55488,-9.92257,-0.684976,-0.256267,0.853659,-1.28049,6.89024
6552.07,93.5208,-1.23435,0,9.82197,-0.716111,0.706531,-0.182927,0.121951,-1.70732,-9.92736,-0.708926,-0.179626,0.792683,-1.28049,6.89024
6552.08,93.5225,-1.23238,0,9.82677,-0.711321,0.66342,-0.365854,-0.213415,-1.58537,-9.9082,-0.730481,-0.208367,0.853659,-1.76829,6.85976
6552.09,93.5258,-1.23118,0,9.8124,-0.708926,0.706531,-0.121951,-0.335366,-1.46341,-9.91538,-0.742456,-0.210762,1.28049,-1.64634,6.76829
6552.1,93.529,-1.25115,0,9.81479,-0.689766,0.735271,-0.0609756,-0.335366,-1.25,-9.89862,-0.807122,-0.277822,1.43293,-1.55488,6.64634
6552.11,93.5266,-1.28864,0,9.82677,-0.656235,0.723296,-0.457317,-0.609756,-1.18902,-9.92496,-0.847837,-0.332908,1.95122,-1.37195,7.13415
6552.12,93.5277,-1.32102,0,9.84114,-0.65384,0.780776,-0.487805,-0.762195,-0.884146,-10.0016,-0.857417,-0.332908,2.71341,-1.52439,6.85976
6552.13,93.542,-1.34254,0,9.84832,-0.696951,0.735271,-0.457317,-0.457317,-0.640244,-10.1166,-0.814307,-0.311353,3.53659,-1.70732,7.04268
6552.14,93.5526,-1.33919,0,9.8555,-0.704136,0.687371,-0.548781,-0.27439,-0.884146,-10.1956,-0.740061,-0.227527,4.14634,-2.59146,6.28049
6552.15,93.5722,-1.3284,0,9.84353,-0.749641,0.718506,-0.853659,-0.365854,-0.884146,-10.1549,-0.622705,-0.193997,4.17683,-3.56707,5.7622
6552.16,93.5871,-1.33994,0,9.80521,-0.749641,0.754431,-1.18902,-0.152439,-1.12805,-10.1501,-0.483794,-0.289797,4.2378,-4.26829,4.90854
6552.17,93.6185,-1.34329,0,9.73096,-0.823887,0.752036,-1.15854,-0.213415,-1.09756,-10.0687,-0.402363,-0.253872,3.59756,-4.35976,3.81098
6552.18,93.6513,-1.33596,0,9.78366,-0.845442,0.716111,-1.03659,-0.182927,-1.09756,-9.96807,-0.373623,-0.205972,2.80488,-3.87195,3.62805
6552.19,93.6809,-1.33651,0,9.70941,-0.910107,0.718506,-1.06707,-0.0609756,-1.7378,-9.93454,-0.344883,-0.237107,1.4939,-3.65854,3.10976
6552.2,93.7083,-1.3226,0,9.69983,-0.895737,0.680186,-1.06707,-0.243902,-1.70732,-9.9537,-0.414338,-0.177231,0.579268,-3.47561,3.2622
6552.21,93.7394,-1.3009,0,9.67827,-0.950823,0.744851,-0.701219,-0.762195,-1.92073,-9.9561,-0.399968,-0.141306,-0.731707,-3.81098,3.29268
6552.22,93.7639,-1.28324,0,9.67588,-0.931663,0.665815,-0.27439,-1.03659,-2.07317,-9.9058,-0.433499,-0.153281,-1.92073,-4.35976,3.78049
6552.23,93.7796,-1.25462,0,9.68306,-0.924478,0.66342,0,-1.34146,-2.46951,-9.9082,-0.455054,-0.102986,-2.34756,-4.66463,4.2378
6552.24,93.7817,-1.24018,0,9.72138,-0.893342,0.646655,0.182927,-1.61585,-3.07927,-9.84832,-0.483794,-0.158071,-3.29268,-5.27439,4.69512
6552.25,93.7826,-1.22034,0,9.75731,-0.890947,0.622705,0.243902,-1.34146,-3.10976,-9.79563,-0.536484,-0.131726,-3.75,-5.15244,5.39634
6552.26,93.7754,-1.20191,0,9.81479,-0.864602,0.61552,0.97561,-1.25,-3.44512,-9.77886,-0.613125,-0.134121,-3.78049,-5.09146,6.21951
6552.27,93.7646,-1.18366,0,9.83395,-0.855022,0.608335,0.97561,-1.28049,-3.65854,-9.77407,-0.65384,-0.131726,-3.9939,-4.87805,6.92073
6552.28,93.7456,-1.14965,0,9.87467,-0.802332,0.59157,1.21951,-0.640244,-3.81098,-9.81719,-0.735271,-0.0622705,-3.62805,-4.63415,6.82927
6552.29,93.7194,-1.11463,0,9.82916,-0.759221,0.59636,1.34146,-0.365854,-4.08537,-9.8579,-0.752036,-0.0526904,-3.56707,-4.42073,6.7378
6552.3,93.6917,-1.07982,0,9.84832,-0.761616,0.603545,1.58537,-0.0304878,-4.29878,-9.84593,-0.807122,-0.0479004,-3.32317,-4.26829,6.43293
6552.31,93.6606,-1.03445,0,9.8579,-0.718506,0.550855,1.98171,0.121951,-4.17683,-9.88185,-0.814307,0,-3.2622,-3.71951,6.55488
6552.32,93.6296,-0.981697,0,9.85311,-0.716111,0.598755,1.55488,0.304878,-4.20732,-9.9058,-0.814307,0.0407153,-2.77439,-3.96341,6.40244
6552.33,93.6002,-0.936949,0,9.88425,-0.677791,0.58199,1.7378,0.304878,-3.62805,-9.9082,-0.862207,0.0167651,-2.53049,-4.11585,6.15854
6552.34,93.5643,-0.886462,0,9.8579,-0.63468,0.613125,1.55488,0.121951,-3.84146,-9.94412,-0.840652,0.0479004,-2.0122,-3.87195,6.64634
6552.35,93.527,-0.841345,0,9.85311,-0.60594,0.60594,1.7378,0.304878,-3.71951,-9.9058,-0.831072,0.0335303,-2.0122,-3.87195,6.76829
6552.36,93.4912,-0.807304,0,9.86988,-0.59157,0.651445,1.52439,0.731707,-3.44512,-9.90101,-0.787961,-0.00479004,-1.67683,-4.02439,6.92073
6552.37,93.4549,-0.764367,0,9.92257,-0.57241,0.646655,1.0061,0.945122,-3.29268,-9.91299,-0.814307,0.0407153,-1.61585,-4.57317,6.95122
6552.38,93.4251,-0.719294,0,9.9058,-0.57241,0.711321,1.09756,1.12805,-2.71341,-9.94891,-0.780776,0.0574805,-1.67683,-4.5122,7.07317
6552.39,93.4013,-0.679496,0,9.89383,-0.603545,0.670605,1.03659,1.28049,-2.59146,-9.95131,-0.761616,0.0431104,-1.89024,-4.78659,6.92073
6552.4,93.3795,-0.643497,0,9.84593,-0.59157,0.728086,0.823171,1.21951,-2.31707,-9.91299,-0.783171,0.0335303,-1.43293,-4.90854,7.5
6552.41,93.3631,-0.620043,0,9.81479,-0.60594,0.775986,0.731707,1.03659,-2.07317,-9.92496,-0.828677,-0.0143701,-1.15854,-4.87805,7.43902
6552.42,93.3581,-0.592002,0,9.7597,-0.680186,0.744851,0.335366,0.701219,-2.10366,-9.88664,-0.840652,0.00958008,-0.914634,-5.21341,7.56098
6552.43,93.3503,-0.556842,0,9.8076,-0.656235,0.744851,0.518293,0.213415,-2.0122,-9.92975,-0.840652,0.0455054,-0.457317,-5.51829,7.34756
6552.44,93.3448,-0.527487,0,9.79803,-0.670605,0.768801,0.304878,0.27439,-2.0122,-9.93215,-0.831072,0.0263452,-0.243902,-5.27439,7.40854
6552.45,93.3367,-0.494266,0,9.83874,-0.64426,0.723296,0.304878,0.182927,-1.89024,-9.88185,-0.802332,0.0479004,-0.243902,-5.27439,7.40854
6552.46,93.3303,-0.462951,0,9.83874,-0.627495,0.723296,0.0914634,-0.121951,-1.55488,-9.89383,-0.761616,0.0455054,0.0914634,-5.39634,7.77439
6552.47,93.3344,-0.430644,0,9.8579,-0.684976,0.740061,0.152439,-0.365854,-1.46341,-9.88185,-0.773591,0.0550855,0.0914634,-5.27439,7.89634
6552.48,93.3388,-0.409597,0,9.83635,-0.682581,0.708926,0.243902,-0.121951,-1.43293,-9.84593,-0.735271,0.0119751,0.335366,-5.42683,7.9878
6552.49,93.3466,-0.394968,0,9.78844,-0.675395,0.706531,0.304878,-0.304878,-1.18902,-9.8555,-0.711321,-0.0119751,0.365854,-5.18293,8.04878
6552.5,93.3481,-0.353183,0,9.77168,-0.66342,0.735271,-0.0304878,-0.152439,-1.46341,-9.87227,-0.706531,0.107776,0.213415,-5.60976,8.2622
6552.51,93.3586,-0.329666,0,9.77647,-0.711321,0.680186,-0.213415,-0.0304878,-1.40244,-9.85311,-0.711321,0.0359253,0.121951,-5.64024,8.53659
6552.52,93.3682,-0.300424,0,9.7621,-0.718506,0.720901,-0.152439,0.121951,-1.52439,-9.85311,-0.713716,0.0646655,0.548781,-5.54878,8.68902
6552.53,93.3768,-0.277346,0,9.78844,-0.723296,0.708926,-0.396341,-0.0609756,-1.58537,-9.85311,-0.754431,0.0431104,0.365854,-5.60976,8.75
6552.54,93.3871,-0.240879,0,9.81479,-0.752036,0.706531,-0.365854,-0.0609756,-1.70732,-9.90101,-0.752036,0.105381,0.518293,-5.51829,8.78049
6552.55,93.3852,-0.197336,0,9.87467,-0.675395,0.713716,-0.243902,0.213415,-1.64634,-9.98484,-0.780776,0.143701,0.701219,-6.09756,8.65854
6552.56,93.3877,-0.148485,0,9.8555,-0.704136,0.687371,0.0304878,-0.152439,-1.67683,-10.004,-0.720901,0.174836,0.579268,-6.46341,8.71951
6552.57,93.3906,-0.114653,0,9.83156,-0.716111,0.670605,-0.0609756,-0.365854,-1.79878,-10.0088,-0.704136,0.117356,0.853659,-6.46341,8.93293
6552.58,93.3859,-0.0820461,0,9.81719,-0.66821,0.740061,0.396341,-0.121951,-1.82927,-9.98963,-0.680186,0.117356,0.914634,-6.95122,8.93293
6552.59,93.3783,-0.0386695,0,9.83395,-0.677791,0.66342,-0.0609756,0.121951,-2.16463,-9.98005,-0.63947,0.170046,1.03659,-7.2561,9.26829
6552.6,93.3752,0.0133673,0,9.84353,-0.66342,0.684976,0.0304878,0.304878,-1.64634,-9.99442,-0.62031,0.215552,0.823171,-7.89634,9.32927
6552.61,93.3692,0.0869594,0,9.84353,-0.646655,0.66821,-0.121951,0.27439,-1.67683,-10.0447,-0.65384,0.320933,1.09756,-8.29268,9.11585
6552.62,93.3675,0.154329,0,9.8555,-0.661025,0.696951,0.27439,0.27439,-1.52439,-10.0687,-0.65384,0.306563,1.52439,-8.87195,8.84146
6552.63,93.3768,0.212213,0,9.86988,-0.694556,0.670605,0.365854,0.670732,-1.15854,-10.0567,-0.63947,0.275427,0.853659,-9.5122,8.9939
6552.64,93.3849,0.253855,0,9.87706,-0.689766,0.682581,0.365854,0.487805,-1.15854,-10.0471,-0.61552,0.213157,0.853659,-9.7561,8.78049
6552.65,93.3967,0.300018,0,9.83395,-0.704136,0.680186,0.335366,0.396341,-1.12805,-10.0351,-0.5772,0.239502,0.914634,-10.5793,8.62805
6552.66,93.4178,0.359417,0,9.76689,-0.783171,0.711321,0.0304878,0.579268,-1.43293,-9.98723,-0.60115,0.304167,0.853659,-11.2195,9.17683
6552.67,93.4372,0.407796,0,9.73815,-0.787961,0.694556,0.609756,0.27439,-1.55488,-9.99202,-0.560435,0.265847,0.304878,-11.5244,9.11585
6552.68,93.4502,0.462005,0,9.73815,-0.783171,0.66821,0.457317,0.487805,-1.82927,-9.98484,-0.570015,0.299377,0.396341,-11.9817,8.84146
6552.69,93.4643,0.510282,0,9.76449,-0.792751,0.646655,0.335366,0.335366,-1.79878,-10.004,-0.538879,0.282612,0.0914634,-12.7134,9.05488
6552.7,93.4735,0.572871,0,9.78366,-0.768801,0.692161,0.335366,0.27439,-1.82927,-9.95131,-0.548459,0.352068,0.0304878,-13.0488,9.29878
6552.71,93.4825,0.616026,0,9.78126,-0.768801,0.699346,0.518293,-0.182927,-1.82927,-9.97047,-0.534089,0.277822,-0.304878,-13.4451,9.35976
6552.72,93.49,0.655025,0,9.8076,-0.811912,0.661025,0.518293,-0.0914634,-2.28659,-9.93215,-0.579595,0.265847,0.0304878,-13.6585,8.96341
6552.73,93.5018,0.705492,0,9.77647,-0.823887,0.744851,0.670732,-0.27439,-2.13415,-9.94891,-0.589175,0.323328,-0.121951,-13.75,8.78049
6552.74,93.502,0.760651,0,9.73336,-0.778381,0.716111,0.396341,-0.0914634,-2.53049,-9.94891,-0.55325,0.352068,-0.121951,-14.4817,8.9939
6552.75,93.5023,0.798338,0,9.7597,-0.811912,0.708926,0.457317,0,-2.83537,-9.95131,-0.574805,0.285007,0.152439,-14.5122,8.9939
6552.76,93.499,0.862681,0,9.79323,-0.799937,0.694556,0.670732,0.0304878,-2.95732,-9.97526,-0.5772,0.409548,0.152439,-14.5732,8.75
6552.77,93.493,0.925257,0,9.77886,-0.787961,0.63947,0.853659,-0.243902,-3.07927,-9.96089,-0.55325,0.411943,-0.152439,-15.0915,8.90244
6552.78,93.484,1.01228,0,9.81,-0.771196,0.656235,1.03659,-0.243902,-3.14024,-9.98963,-0.529299,0.531694,-0.0914634,-15.3963,8.90244
6552.79,93.4716,1.08188,0,9.82916,-0.766406,0.675395,0.731707,0.182927,-3.38415,-10.0423,-0.536484,0.471819,-0.304878,-16.128,8.84146
6552.8,93.457,1.17755,0,9.81958,-0.761616,0.65863,0.97561,0.182927,-3.56707,-10.1118,-0.514929,0.603545,-0.884146,-16.5549,8.62805
6552.81,93.4447,1.27467,0,9.8579,-0.754431,0.65384,1.31098,0,-3.2622,-10.0926,-0.512534,0.6251,-0.97561,-17.378,8.47561
6552.82,93.4243,1.33846,0,9.87467,-0.732876,0.641865,1.03659,0.365854,-3.78049,-10.1094,-0.426313,0.493374,-2.07317,-18.5061,9.08537
6552.83,93.4071,1.39464,0,9.81719,-0.766406,0.6251,1.09756,0.609756,-3.96341,-10.0208,-0.584385,0.467029,-0.792683,-17.8963,9.14634
6552.84,93.3891,1.48756,0,9.78366,-0.730481,0.608335,1.28049,0.823171,-3.68902,-10.1046,-0.5772,0.64426,-0.701219,-18.7805,9.05488
6552.85,93.364,1.58171,0,9.78126,-0.716111,0.589175,1.28049,0.853659,-4.2378,-10.0375,-0.646655,0.661025,-0.518293,-19.6341,9.02439
6552.86,93.333,1.65761,0,9.81958,-0.696951,0.603545,1.52439,0.609756,-4.60366,-10.1237,-0.673001,0.60115,-0.457317,-20.2439,8.81098
6552.87,93.3014,1.74389,0,9.82437,-0.675395,0.656235,1.03659,0.548781,-4.48171,-10.1405,-0.701741,0.661025,-0.0914634,-21.5549,8.35366
6552.88,93.2706,1.84399,0,9.88185,-0.632285,0.646655,1.12805,0.640244,-3.90244,-10.1429,-0.66342,0.737666,0.0914634,-22.6829,8.14024
6552.89,93.2418,1.93866,0,9.8579,-0.61552,0.680186,1.43293,0.823171,-3.59756,-10.0782,-0.64905,0.725691,0.579268,-23.4451,7.7439
6552.9,93.2136,2.04065,0,9.84353,-0.613125,0.651445,1.31098,0.914634,-3.56707,-10.0327,-0.608335,0.771196,0.426829,-23.9329,7.7439
6552.91,93.1886,2.17225,0,9.81,-0.59636,0.740061,1.46341,1.06707,-3.14024,-9.94412,-0.58199,0.912502,0.609756,-24.4512,7.43902
6552.92,93.1691,2.29177,0,9.81958,-0.61552,0.771196,1.18902,0.914634,-2.89634,-9.88664,-0.541274,0.876577,0.304878,-25,7.2561
6552.93,93.1597,2.40434,0,9.77168,-0.687371,0.737666,1.12805,0.97561,-2.89634,-9.88664,-0.517324,0.866997,0.731707,-24.8171,6.92073
6552.94,93.157,2.52223,0,9.70222,-0.744851,0.744851,0.701219,0.762195,-3.04878,-9.88664,-0.512534,0.910107,0.731707,-24.6037,6.98171
6552.95,93.162,2.67262,0,9.71659,-0.831072,0.778381,0.548781,1.31098,-3.29268,-9.88425,-0.517324,1.07297,0.762195,-25.1524,6.64634
6552.96,93.1613,2.80884,0,9.76689,-0.862207,0.737666,0.152439,1.55488,-4.05488,-9.91299,-0.498164,1.03944,0.457317,-25.5793,6.31098
6552.97,93.1539,2.95126,0,9.83395,-0.878972,0.687371,0.182927,1.43293,-4.78659,-9.97286,-0.490979,1.09692,0.548781,-25.9756,5.82317
6552.98,93.1376,3.10558,0,9.8579,-0.840652,0.737666,0.152439,1.67683,-5.21341,-9.92496,-0.457449,1.16877,0.487805,-26.6463,5.79268
6552.99,93.1104,3.26386,0,9.78844,-0.773591,0.737666,0.304878,2.10366,-5.60976,-9.8603,-0.419128,1.20469,0.121951,-27.6524,5.94512
6553,93.0726,3.44663,0,9.80521,-0.696951,0.766406,0.0304878,1.67683,-5.82317,-9.85311,-0.383203,1.33882,0.0914634,-28.5976,6.58537
6553.01,93.032,3.62365,0,9.76449,-0.682581,0.708926,0.548781,1.67683,-6.03659,-9.8603,-0.414338,1.346,-0.243902,-28.9939,6.7378
6553.02,92.9913,3.80591,0,9.72857,-0.661025,0.742456,0.304878,1.64634,-5.91463,-9.86988,-0.419128,1.40109,-0.243902,-29.6341,6.85976
6553.03,92.9526,3.98727,0,9.69743,-0.64426,0.723296,0.426829,1.52439,-5.60976,-9.89383,-0.399968,1.43222,-0.27439,-30.0915,6.95122
6553.04,92.9277,4.16447,0,9.68546,-0.677791,0.828677,0.27439,2.2561,-4.72561,-9.91778,-0.428708,1.44899,-0.0304878,-30.3049,7.0122
6553.05,92.8773,4.35406,0,9.67348,-0.56283,0.723296,-0.0304878,1.0061,-5.97561,-9.93454,-0.495769,1.5376,-0.396341,-31.128,6.7378
6553.06,92.8237,4.54875,0,9.74054,-0.574805,0.747246,0.487805,-0.0609756,-6.4939,-9.91538,-0.488584,1.59029,-0.487805,-32.0427,6.43293
6553.07,92.7828,4.76794,0,9.82197,-0.680186,0.723296,0.792683,-0.396341,-6.4939,-9.92736,-0.500559,1.73639,-1.0061,-32.8354,6.28049
6553.08,92.7342,4.97984,0,9.75012,-0.665815,0.704136,0.823171,-0.579268,-7.2561,-9.88185,-0.459844,1.73399,-0.914634,-33.628,6.18902
6553.09,92.6857,5.17323,0,9.8076,-0.687371,0.708926,0.426829,0.0914634,-7.56098,-9.82677,-0.440684,1.67891,-1.03659,-33.9329,5.88415
6553.1,92.6455,5.3703,0,9.85072,-0.752036,0.752036,0.487805,-0.0914634,-7.53049,-9.74533,-0.490979,1.71483,-1.09756,-34.3598,5.51829
6553.11,92.6416,5.64278,0,10.119,-0.866997,0.754431,0.213415,1.03659,-5.03049,-9.80521,-0.320933,2.09804,-2.2561,-35.0305,5.12195
6553.12,92.5823,5.86879,0,9.80042,-0.522114,0.711321,0.518293,1.85976,-6.89024,-9.77168,-0.476609,1.93039,-2.19512,-35.4268,5.06098
6553.13,92.5169,6.08716,0,9.81479,-0.522114,0.706531,0.487805,1.82927,-7.62195,-9.82677,-0.524509,1.94715,-2.31707,-35.4268,4.63415
6553.14,92.4744,6.32287,0,9.74533,-0.684976,0.742456,0.823171,1.70732,-7.40854,-9.77168,-0.517324,2.05253,-2.86585,-35.7622,4.72561
6553.15,92.4296,6.56579,0,9.63995,-0.699346,0.785566,0.945122,0.914634,-7.9878,-9.69504,-0.502954,2.11001,-2.80488,-36.1585,5.06098
6553.16,92.4283,6.80335,0,9.90341,-0.823887,0.814307,-0.0914634,3.14024,-4.93902,-9.67588,-0.471819,2.12438,-3.01829,-36.7073,5.03049
6553.17,92.3845,7.06136,0,9.77168,-0.673001,0.61552,0.640244,2.71341,-7.56098,-9.5681,-0.467029,2.23216,-3.38415,-37.7744,5.67073
6553.18,92.3049,7.34388,0,10.1142,-0.483794,0.704136,1.12805,4.17683,-8.84146,-9.50583,-0.500559,2.37107,-3.62805,-38.3841,6.37195
6553.19,92.2271,7.62559,0,9.7142,-0.570015,0.59636,2.5,2.46951,-10.0915,-9.50344,-0.5772,2.41657,-3.65854,-38.5671,6.55488
6553.2,92.141,7.91169,0,9.87467,-0.517324,0.61073,2.7439,2.46951,-10.3659,-9.46751,-0.637075,2.47645,-3.81098,-38.689,6.76829
6553.21,92.0544,8.19422,0,9.92736,-0.488584,0.708926,2.04268,2.07317,-10.2134,-9.40764,-0.687371,2.49561,-3.53659,-38.2927,6.64634
6553.22,92.0643,8.47745,0,10.3465,-0.898132,0.720901,1.37195,4.90854,-4.96951,-9.29986,-0.718506,2.51956,-3.20122,-37.8963,6.85976
6553.23,92.0077,8.75901,0,9.74294,-0.459844,0.728086,1.25,3.75,-7.07317,-9.23999,-0.752036,2.54591,-2.80488,-36.9512,6.67683
6553.24,91.9033,9.04353,0,9.82916,-0.332908,0.696951,1.98171,2.89634,-10.5183,-9.18729,-0.819097,2.59381,-2.83537,-35.9756,6.37195
6553.25,91.8164,9.33326,0,9.96089,-0.409548,0.701741,3.32317,3.29268,-9.78659,-9.17532,-0.850232,2.66326,-2.43902,-35.122,6.09756
6553.26,91.7143,9.62123,0,9.92017,-0.299377,0.792751,3.04878,2.56098,-10.2439,-9.2328,-0.857417,2.72314,-1.85976,-34.8476,6.28049
6553.27,91.653,9.915,0,9.97286,-0.457449,0.704136,2.59146,4.11585,-8.10976,-9.26633,-0.871787,2.80936,-0.945122,-35,5.91463
6553.28,91.622,10.236,0,9.77407,-0.404758,1.02986,-0.0304878,5.09146,-4.66463,-9.33818,-0.802332,3.00575,-0.640244,-35.9756,5.70122
6553.29,91.5026,10.5643,0,9.07473,-0.208367,0.919688,2.37805,2.71341,-11.5549,-9.32381,-0.725691,3.09197,-0.121951,-36.372,6.12805
6553.3,91.4022,10.8793,0,9.55134,-0.390388,0.859812,3.10976,3.01829,-11.9512,-9.27831,-0.699346,3.07521,-0.27439,-36.6463,6.18902
6553.31,91.2877,11.1868,0,9.72138,-0.361648,0.728086,3.56707,5.06098,-13.1707,-9.23759,-0.65384,3.08479,-0.701219,-36.2195,6.09756
6553.32,91.1855,11.4934,0,9.9058,-0.364043,0.728086,2.68293,5.03049,-12.1037,-9.21125,-0.62031,3.1279,-0.518293,-35.122,6.34146
6553.33,91.1417,11.8054,0,10.0806,-0.438289,0.855022,1.67683,7.0122,-7.13415,-9.17292,-0.59157,3.19496,-0.914634,-34.0854,5.73171
6553.34,91.0367,12.1393,0,9.68306,-0.0934058,0.785566,0.609756,6.70732,-9.5122,-9.13939,-0.593965,3.33866,-1.55488,-34.0854,5.42683
6553.35,90.9799,12.4664,0,10.3106,-0.385598,0.622705,2.80488,9.32927,-8.04878,-9.11065,-0.603545,3.35782,-1.55488,-33.7195,5.2439
6553.36,90.8756,12.7936,0,10.0902,-0.0934058,0.831072,3.38415,8.35366,-9.72561,-9.07712,-0.58678,3.40572,-1.70732,-33.2317,4.84756
6553.37,90.766,13.118,0,9.88904,-0.112566,0.941243,4.48171,5.82317,-10.7317,-9.04359,-0.622705,3.43925,-1.46341,-33.0793,5.27439
6553.38,90.6826,13.4465,0,9.91538,-0.249082,0.931663,4.63415,4.66463,-9.87805,-9.0412,-0.6251,3.51589,-1.09756,-32.8659,5.30488
6553.39,90.5847,13.766,0,9.68546,-0.0910107,0.905317,5.09146,5.18293,-9.69512,-9.03641,-0.637075,3.53265,-0.945122,-32.9878,5.73171
6553.4,90.5385,14.0863,0,10.1046,-0.229922,0.799937,3.78049,10.3659,-6.18902,-9.05078,-0.682581,3.59971,-0.640244,-33.2622,5.7622
6553.41,90.4682,14.4175,0,9.45314,0.0239502,1.2023,1.40244,9.78659,-5.7622,-8.96456,-0.670605,3.67396,-0.518293,-33.5061,5.64024
6553.42,90.4055,14.7525,0,9.3286,-0.105381,1.09213,3.5061,5.70122,-6.76829,-8.91666,-0.732876,3.73144,-0.762195,-33.75,5.54878
6553.43,90.3273,15.0861,0,9.61361,-0.0359253,1.0586,4.02439,7.43902,-7.59146,-8.89271,-0.771196,3.77695,-0.731707,-33.2622,5.79268
6553.44,90.2453,15.42,0,9.77647,-0.0167651,0.955613,5.73171,6.79878,-7.89634,-8.8951,-0.725691,3.84161,-0.579268,-32.561,5.54878
6553.45,90.1463,15.7215,0,9.73575,0.0838257,1.1041,5.91463,3.93293,-8.59756,-8.91187,-0.692161,3.76018,-0.152439,-31.6159,5.73171
6553.46,90.0457,16.0227,0,9.99202,0.0598755,1.16398,6.34146,3.65854,-9.26829,-8.90229,-0.584385,3.81048,0.365854,-31.4939,6.58537
6553.47,89.9512,16.3695,0,9.94412,0.0598755,1.18314,5.67073,4.08537,-8.84146,-8.91666,-0.622705,4.0859,0.335366,-32.2866,7.04268
6553.48,89.8859,16.7339,0,9.8555,-0.0670605,1.12566,6.03659,4.17683,-7.56098,-8.92624,-0.574805,4.23918,0.304878,-33.9329,7.22561
6553.49,89.8929,17.0602,0,10.174,-0.285007,1.27176,4.45122,7.22561,-3.01829,-8.85678,-0.500559,4.09309,0.335366,-34.5427,7.68293
6553.5,89.8567,17.3806,0,9.52499,0.0455054,1.43941,2.59146,4.26829,-3.32317,-8.69153,-0.498164,4.04998,0.640244,-33.6585,7.83537
6553.51,89.8411,17.7089,0,9.70462,-0.198787,1.20948,3.2622,5,-4.35976,-8.50711,-0.57241,4.05956,0.182927,-32.7439,7.22561
6553.52,89.7572,18.0428,0,9.69264,0.0766406,1.2023,3.84146,4.57317,-7.95732,-8.52627,-0.689766,4.15536,-0.0914634,-31.9817,6.92073
6553.53,89.6884,18.3547,0,9.80042,-0.0215552,1.20469,4.45122,5.09146,-7.77439,-8.60052,-0.790356,4.15057,-0.121951,-31.4329,6.46341
6553.54,89.6351,18.6618,0,9.80042,-0.0550855,1.18074,3.44512,5.27439,-6.7378,-8.61489,-0.814307,4.19368,-0.121951,-31.128,6.12805
6553.55,89.5603,18.9839,0,9.80281,0.0910107,1.23823,3.10976,4.2378,-7.28659,-8.53106,-0.823887,4.2799,-0.0304878,-30.9756,6.31098
6553.56,89.5164,19.3029,0,9.8124,-0.0646655,1.22146,3.29268,5.39634,-6.15854,-8.50711,-0.764011,4.31343,0.182927,-30.8232,6.55488
6553.57,89.5238,19.6266,0,9.93454,-0.131726,1.35558,-0.548781,8.29268,-2.22561,-8.44005,-0.684976,4.36133,0.243902,-30.3354,6.89024
6553.58,89.5494,19.9825,0,9.59924,-0.265847,1.28613,-1.4939,6.46341,-2.43902,-8.42089,-0.613125,4.56491,0.762195,-30.7317,7.16463
6553.59,89.4563,20.3213,0,9.46512,0.177231,1.08973,1.12805,2.59146,-8.23171,-8.39933,-0.61552,4.53856,0.823171,-30.7317,7.59146
6553.6,89.4088,20.6435,0,9.68785,-0.239502,1.28852,2.10366,0.701219,-8.84146,-8.42089,-0.608335,4.53617,1.09756,-29.9085,7.62195
6553.61,89.3694,20.9722,0,10.5093,-0.203577,1.21667,2.10366,2.9878,-7.5,-8.37299,-0.59157,4.60323,1.25,-28.8415,7.22561
6553.62,89.2606,21.2689,0,9.85072,0.349673,1.32445,2.0122,-0.609756,-8.23171,-8.37059,-0.627495,4.51222,1.85976,-27.9573,7.04268
6553.63,89.1589,21.5788,0,9.93933,0.347278,1.28373,1.34146,1.09756,-7.80488,-8.30593,-0.675395,4.59604,2.22561,-27.561,6.79878
6553.64,89.1112,21.8908,0,10.0902,0.107776,1.28134,1.06707,4.35976,-5.33537,-8.38257,-0.795146,4.70861,2.19512,-27.2256,6.34146
6553.65,89.0407,22.1907,0,9.65672,0.282612,1.30529,-1.31098,2.80488,-5.57927,-8.34664,-0.838257,4.68945,2.89634,-27.1341,5.94512
6553.66,89.0245,22.5044,0,9.55134,0.0550855,1.26218,-3.35366,5.03049,-3.07927,-8.3658,-0.845442,4.82596,3.01829,-26.7988,5.64024
6553.67,89.0065,22.8176,0,9.43877,-0.0407153,1.28134,-1.92073,1.85976,-4.42073,-8.35143,-0.766406,4.87626,3.81098,-26.9512,5.79268
6553.68,88.9851,23.1284,0,9.59205,-0.119751,1.21667,-0.152439,-0.396341,-5.70122,-8.33946,-0.682581,4.91937,3.90244,-26.3415,5.64024
6553.69,88.9165,23.4814,0,9.87706,0.232317,1.21906,0.762195,0.396341,-6.31098,-8.2724,-0.555645,5.15169,3.87195,-26.5854,5.51829
6553.7,88.8469,23.8046,0,10.0351,0.299377,1.33882,-0.396341,0.487805,-5.82317,-8.26282,-0.538879,5.06547,3.78049,-26.4939,6.09756
6553.71,88.7994,24.0935,0,10.0615,0.153281,1.28373,-1.4939,0.152439,-5.42683,-8.20294,-0.546064,4.92416,3.84146,-25.3354,5.97561
6553.72,88.7739,24.3935,0,9.90341,-0.0455054,1.28613,-1.55488,0,-5.60976,-8.14546,-0.574805,5.0008,3.81098,-24.7256,5.94512
6553.73,88.7382,24.7158,0,9.7597,0.0119751,1.20948,-1.40244,1.12805,-6.0061,-8.09996,-0.696951,5.14211,3.90244,-24.6951,5.88415
6553.74,88.7052,25.0329,0,9.70701,-0.0550855,1.152,-1.09756,1.76829,-6.61585,-8.11193,-0.735271,5.18761,3.9939,-25.3049,5.79268
6553.75,88.6945,25.3323,0,9.79803,-0.172441,1.1999,-2.53049,2.22561,-5.82317,-8.11193,-0.708926,5.16127,3.65854,-25.3354,5.91463
6553.76,88.6538,25.6208,0,9.54176,0.0167651,1.1999,-1.64634,1.34146,-6.61585,-8.06164,-0.593965,5.13492,3.81098,-24.8476,5.94512
6553.77,88.6156,25.9227,0,9.40764,0.249082,1.77231,-3.81098,-0.731707,-3.53659,-8.00895,-0.56283,5.22593,4.11585,-24.2378,6.4939
6553.78,88.6054,26.2251,0,9.62558,-0.0167651,1.20469,-2.71341,0.640244,-4.17683,-8.04008,-0.529299,5.30976,3.75,-23.75,6.43293
6553.79,88.5527,26.5216,0,9.76928,0.210762,1.1041,-0.579268,1.89024,-5.70122,-8.02571,-0.534089,5.33131,3.41463,-23.5366,6.25
6553.8,88.5132,26.8512,0,9.94412,0.0814307,1.18793,-0.304878,2.31707,-6.03659,-7.96104,-0.447869,5.51813,3.17073,-23.7805,5.79268
6553.81,88.4816,27.1541,0,9.92736,-0.0167651,1.17595,-1.52439,1.79878,-6.46341,-8.00895,-0.421523,5.4798,2.95732,-24.4817,5.51829
6553.82,88.4357,27.4364,0,9.72857,0.0287402,1.1544,-1.70732,1.15854,-7.43902,-8.00416,-0.364043,5.4319,2.83537,-24.1768,5.4878
6553.83,88.395,27.7216,0,9.70701,-0.00239502,1.14721,-1.09756,1.85976,-7.37805,-7.89398,-0.380808,5.42951,2.07317,-23.75,5.2439
6553.84,88.351,28.0228,0,9.71899,0.129331,1.13284,-2.04268,1.95122,-6.21951,-7.82932,-0.440684,5.52531,1.21951,-23.5061,4.87805
6553.85,88.3951,28.3399,0,10.1429,-0.0670605,1.07057,-4.02439,6.37195,-1.25,-7.68083,-0.524509,5.56363,0.640244,-23.0793,4.5122
6553.86,88.3532,28.6587,0,9.8603,0.356858,1.12566,-2.13415,4.32927,-3.2622,-7.5994,-0.598755,5.578,0.457317,-22.3476,4.5122
6553.87,88.3082,28.9568,0,9.92017,0.258662,1.22146,-0.579268,2.22561,-4.90854,-7.61856,-0.66342,5.55166,0.487805,-21.0976,4.20732
6553.88,88.2686,29.2196,0,9.89622,0.225132,1.36756,-0.487805,1.92073,-4.84756,-7.69999,-0.665815,5.49178,0.97561,-19.7561,4.02439
6553.89,88.2493,29.4699,0,9.98963,0.114961,1.36756,-0.640244,2.0122,-4.20732,-7.77184,-0.548459,5.5325,1.0061,-18.8415,4.29878
6553.9,88.2135,29.7148,0,9.6639,0.246687,1.19032,-0.670732,2.46951,-4.26829,-7.82932,-0.510139,5.59716,0.914634,-18.9939,4.11585
6553.91,88.1931,29.9443,0,9.84832,0.174836,1.19511,-0.335366,2.65244,-3.71951,-7.97302,-0.493374,5.66901,1.37195,-19.3293,4.20732
6553.92,88.1937,30.1857,0,10.0136,0.0886157,1.21188,0.579268,3.35366,-2.83537,-7.99218,-0.56762,5.79355,1.46341,-20.6098,4.7561
6553.93,88.1703,30.4564,0,10.0567,0.258662,1.22386,0.701219,3.14024,-3.10976,-7.89398,-0.488584,5.93007,1.92073,-21.7988,4.96951
6553.94,88.1565,30.723,0,9.99202,0.193997,1.29092,1.31098,3.38415,-2.9878,-7.80297,-0.548459,5.89654,2.34756,-22.378,5.57927
6553.95,88.2306,30.9846,0,10.1501,0.0311353,1.11368,-2.62195,11.128,0.121951,-7.65209,-0.555645,5.81271,2.31707,-21.5854,5.79268
6553.96,88.2212,31.2645,0,9.77886,0.186812,0.744851,0.0914634,7.37805,-2.56098,-7.47725,-0.555645,5.83187,1.92073,-20.4573,5.82317
6553.97,88.2057,31.5542,0,9.82916,0.0766406,1.03225,1.64634,5.18293,-4.35976,-7.42696,-0.59157,5.90372,1.55488,-19.939,5.97561
6553.98,88.1942,31.8193,0,9.64714,0.00958008,1.20469,2.5,3.20122,-4.78659,-7.43893,-0.58678,5.84385,1.43293,-19.3293,5.82317
6553.99,88.1579,32.0832,0,9.67588,0.220342,1.22146,2.59146,2.40854,-4.7561,-7.51557,-0.584385,5.95402,1.06707,-19.5122,5.70122
6554,88.1688,32.3542,0,9.80521,-0.0694556,1.1065,1.95122,3.17073,-3.68902,-7.50839,-0.550855,6.04263,1.25,-20.3049,5.97561
6554.01,88.2613,32.6281,0,10.562,-0.265847,1.21667,0.853659,9.35976,1.76829,-7.41019,-0.488584,6.03784,0.853659,-19.5732,6.09756
6554.02,88.2488,32.8988,0,9.7142,0.150886,1.05141,1.03659,5.91463,-3.17073,-7.41977,-0.584385,6.08814,1.0061,-19.2378,6.28049
6554.03,88.2379,33.1712,0,9.78366,-0.0119751,1.24302,3.07927,3.53659,-4.87805,-7.31439,-0.593965,6.06898,1.18902,-19.2073,6.06707
6554.04,88.2187,33.4651,0,9.9561,0.0479004,1.26218,3.41463,4.78659,-5.03049,-7.17069,-0.56762,6.12406,0.853659,-18.628,6.15854
6554.05,88.1621,33.7482,0,9.7597,0.299377,1.28613,3.81098,3.59756,-5.82317,-7.11081,-0.59157,6.07856,0.609756,-17.9573,5.94512
6554.06,88.1414,34.002,0,9.91778,0.268242,1.18074,-0.304878,8.56707,-2.77439,-7.12279,-0.701741,5.99234,0.853659,-16.9207,6.37195
6554.07,88.1131,34.2764,0,9.91059,0.251477,1.00351,2.65244,5.18293,-3.75,-7.13716,-0.735271,6.17197,1.55488,-16.372,6.31098
6554.08,88.0639,34.5443,0,9.96568,0.378413,1.14482,3.04878,7.28659,-4.42073,-7.24014,-0.740061,6.28453,2.0122,-16.4329,6.28049
6554.09,88.0107,34.7823,0,9.80521,0.349673,1.32445,3.29268,4.96951,-5.21341,-7.27128,-0.735271,6.2055,2.31707,-15.7317,6.31098
6554.1,87.9696,35.0172,0,9.84114,0.246687,1.37235,2.86585,3.90244,-5.33537,-7.23296,-0.747246,6.20789,2.7439,-14.8171,6.06707
6554.11,87.9521,35.2459,0,9.68306,0.0335303,1.32924,4.20732,1.98171,-5.54878,-7.19703,-0.684976,6.19592,2.59146,-13.811,5.79268
6554.12,87.9255,35.4768,0,9.86988,0.143701,1.27894,4.63415,2.43902,-5.21341,-7.13476,-0.665815,6.2055,2.53049,-12.439,5.64024
6554.13,87.9508,35.7068,0,9.58726,0.208367,1.92081,1.25,1.79878,-0.762195,-7.16829,-0.63947,6.28214,2.40854,-11.0061,5.33537
6554.14,87.9135,35.92,0,9.74054,0.318538,1.26218,3.01829,-0.0609756,-4.17683,-7.24972,-0.627495,6.31088,2.16463,-9.84756,5.39634
6554.15,87.9044,36.1246,0,10.2243,0.172441,1.18074,2.86585,3.5061,-3.32317,-7.31199,-0.608335,6.36596,1.92073,-8.75,5.09146
6554.16,87.8671,36.3244,0,10.1237,0.395178,1.38193,1.43293,5.97561,-3.5061,-7.38385,-0.59157,6.44739,1.79878,-7.95732,5.54878
6554.17,87.8306,36.5097,0,9.86748,0.376018,1.65256,0.731707,4.72561,-3.62805,-7.37187,-0.531694,6.39949,1.40244,-8.29268,5.82317
6554.18,87.8617,36.6957,0,10.0782,0.0191602,1.57832,-0.97561,6.92073,-1.89024,-7.29523,-0.570015,6.37794,1.31098,-8.20122,6.0061
6554.19,87.8291,36.8816,0,9.68306,0.265847,1.3963,0.365854,3.20122,-4.5122,-7.1635,-0.548459,6.30369,1.31098,-8.41463,6.21951
6554.2,87.7952,37.0867,0,9.64235,0.273032,1.48491,0.701219,3.84146,-4.60366,-7.05573,-0.56762,6.35638,1.21951,-8.10976,5.79268
6554.21,87.7696,37.2758,0,9.66869,0.210762,1.49928,0.701219,4.11585,-4.60366,-7.02459,-0.550855,6.28453,1.46341,-8.10976,5.60976
6554.22,87.7316,37.4654,0,9.61121,0.311353,1.56395,0.518293,3.56707,-4.66463,-6.9719,-0.536484,6.28214,1.70732,-7.68293,5.21341
6554.23,87.7025,37.6666,0,9.60403,0.256267,1.59748,0.579268,3.07927,-4.5122,-6.924,-0.555645,6.34441,1.7378,-7.46951,4.96951
6554.24,87.6739,37.879,0,9.61361,0.263452,1.59029,0.914634,2.68293,-4.45122,-6.90484,-0.55804,6.43542,1.67683,-7.22561,4.84756
6554.25,87.6468,38.0824,0,9.63037,0.270637,1.64298,0.243902,1.25,-4.26829,-6.88089,-0.543669,6.40907,1.92073,-7.04268,4.81707
6554.26,87.6493,38.2868,0,9.64953,0.201182,1.77471,-2.37805,1.61585,-2.5,-6.84736,-0.517324,6.42823,1.70732,-6.55488,5.21341
6554.27,87.64,38.4838,0,9.58966,0.186812,1.55676,-1.76829,2.92683,-3.62805,-6.88089,-0.471819,6.45937,1.09756,-5.82317,5.57927
6554.28,87.6226,38.661,0,9.80042,0.234712,1.50886,-0.914634,1.7378,-3.87195,-6.90724,-0.455054,6.40428,0.823171,-4.84756,6.40244
6554.29,87.5988,38.8104,0,9.81719,0.311353,1.51605,-0.670732,1.21951,-3.62805,-7.01741,-0.464634,6.3971,0.518293,-5.21341,6.21951
6554.3,87.5702,38.962,0,9.72617,0.361648,1.49928,-0.304878,0.243902,-3.5061,-7.03178,-0.462239,6.45458,0.762195,-5,6.31098
6554.31,87.5443,39.095,0,9.69983,0.356858,1.41785,0,0.335366,-3.35366,-7.08686,-0.490979,6.43781,0.853659,-5.30488,6.34146
6554.32,87.5111,39.2203,0,9.64235,0.399968,1.44899,0.152439,1.09756,-3.56707,-7.22098,-0.519719,6.54559,0.609756,-5,6.03659
6554.33,87.4878,39.3253,0,9.71899,0.318538,1.45138,0.426829,1.06707,-3.68902,-7.33115,-0.459844,6.55756,0.97561,-4.96951,5.60976
6554.34,87.4598,39.429,0,9.8603,0.383203,1.45378,0.853659,0.182927,-3.47561,-7.3599,-0.395178,6.60307,1.09756,-5.36585,5.39634
6554.35,87.4254,39.5404,0,9.92496,0.440684,1.43701,1.15854,0.243902,-3.5061,-7.31199,-0.423918,6.62941,1.06707,-5.94512,5.27439
6554.36,87.3903,39.6527,0,9.97765,0.507744,1.50886,1.43293,0.335366,-2.83537,-7.27607,-0.426313,6.62941,0.27439,-6.34146,5.54878
6554.37,87.3574,39.7699,0,9.9561,0.459844,1.37235,2.10366,1.85976,-3.29268,-7.18266,-0.481399,6.59828,-0.213415,-6.92073,5.27439
6554.38,87.3226,39.8854,0,9.83874,0.457449,1.47773,2.22561,1.61585,-3.5061,-7.12518,-0.502954,6.56235,-0.701219,-7.19512,5.57927
6554.39,87.2986,39.9966,0,9.76689,0.376018,1.41785,2.43902,2.68293,-3.47561,-7.1156,-0.512534,6.55517,-0.884146,-7.43902,5.57927
6554.4,87.2881,40.0962,0,9.75252,0.268242,1.46575,2.80488,3.29268,-3.5061,-7.13716,-0.526904,6.53361,-0.97561,-7.37805,5.51829
6554.41,87.3194,40.186,0,9.86988,0.0383203,1.43462,3.20122,2.37805,-2.56098,-7.16111,-0.55325,6.52164,-0.97561,-7.46951,5.21341
6554.42,87.3048,40.2978,0,10.004,0.352068,1.41785,4.78659,1.95122,-2.95732,-7.10123,-0.481399,6.61504,-1.03659,-7.40854,5.57927
6554.43,87.2839,40.3946,0,9.94173,0.395178,1.47773,4.17683,1.21951,-3.04878,-7.10602,-0.536484,6.55756,-0.884146,-7.22561,5.18293
6554.44,87.2676,40.4959,0,9.8579,0.378413,1.4418,3.47561,1.95122,-2.83537,-7.01501,-0.603545,6.52164,-1.06707,-7.28659,5.45732
6554.45,87.2568,40.5964,0,9.72138,0.294587,1.44659,3.84146,2.9878,-3.29268,-6.96951,-0.65863,6.49769,-0.884146,-7.10366,5.4878
6554.46,87.2447,40.6946,0,9.69504,0.296982,1.50647,3.62805,3.78049,-3.38415,-6.924,-0.732876,6.46416,-0.518293,-6.4939,5.36585
6554.47,87.2266,40.7966,0,9.69743,0.313748,1.50886,3.23171,3.10976,-3.78049,-6.89766,-0.737666,6.48332,-0.213415,-6.28049,5.09146
6554.48,87.203,40.8911,0,9.74773,0.318538,1.35558,2.83537,2.59146,-4.29878,-6.98867,-0.718506,6.54798,-0.243902,-5.73171,5.2439
6554.49,87.177,40.9723,0,9.78605,0.325723,1.51126,2.37805,2.07317,-4.5122,-7.0701,-0.716111,6.56954,0.0914634,-5.54878,5.15244
6554.5,87.1754,41.0673,0,9.89862,0.275427,1.64538,1.12805,2.68293,-2.89634,-7.06291,-0.64905,6.66055,0.27439,-5.42683,4.81707
6554.51,87.1557,41.1563,0,9.40524,0.359253,1.83458,0.670732,0.914634,-3.41463,-7.07249,-0.677791,6.65815,0.518293,-5.67073,5.18293
6554.52,87.1326,41.2507,0,9.61361,0.301772,1.74597,2.43902,-1.52439,-4.54268,-6.95753,-0.62989,6.60067,0.762195,-5.73171,5
6554.53,87.1134,41.3487,0,9.81,0.246687,1.65017,1.37195,-0.335366,-4.90854,-6.87371,-0.603545,6.56235,1.06707,-5.57927,5.30488
6554.54,87.0714,41.4619,0,9.79084,0.411943,1.55437,1.34146,1.4939,-5.27439,-6.7827,-0.550855,6.58151,0.823171,-5.18293,5.33537
6554.55,87.0318,41.5597,0,9.77886,0.390388,1.69328,1.06707,1.89024,-5.36585,-6.82102,-0.490979,6.55277,0.518293,-4.7561,5.88415
6554.56,86.9985,41.6543,0,9.68546,0.378413,1.55916,1.46341,2.5,-4.90854,-6.87131,-0.56762,6.60307,0.548781,-4.48171,5.79268
6554.57,86.9594,41.7422,0,9.63277,0.435894,1.54239,2.31707,3.47561,-4.84756,-6.89287,-0.59157,6.60786,0.0609756,-4.5122,5.70122
6554.58,86.9322,41.8193,0,9.63037,0.409548,1.63101,2.62195,2.56098,-4.05488,-6.91682,-0.61073,6.59109,0.121951,-4.60366,5.64024
6554.59,86.8954,41.8816,0,9.59924,0.531694,1.71723,1.58537,1.67683,-3.53659,-6.95993,-0.598755,6.56714,0.365854,-4.69512,5.60976
6554.6,86.8702,41.9439,0,9.64953,0.440684,1.65975,1.76829,0.884146,-3.62805,-6.99585,-0.5772,6.61504,0.27439,-4.66463,5.7622
6554.61,86.9127,42.0163,0,10.0663,0.275427,1.70765,0.518293,6.67683,-0.792683,-6.9743,-0.560435,6.66773,0.304878,-4.7561,5.67073
6554.62,86.8555,42.0688,0,9.49146,0.713716,1.62382,1.15854,0.487805,-3.10976,-6.98148,-0.524509,6.57912,0.487805,-5.42683,5.67073
6554.63,86.8371,42.1041,0,9.69504,0.471819,1.62143,1.40244,1.03659,-2.71341,-6.98627,-0.517324,6.49769,0.426829,-5.33537,5.15244
6554.64,86.8137,42.1543,0,9.74773,0.546064,1.67412,1.67683,3.35366,-2.28659,-7.03178,-0.510139,6.6342,0.518293,-6.18902,4.96951
6554.65,86.789,42.2014,0,9.75252,0.579595,1.67651,1.43293,3.01829,-1.98171,-7.17787,-0.61552,6.76593,0.243902,-6.79878,4.93902
6554.66,86.7838,42.2298,0,9.75012,0.486189,1.65017,0.884146,1.64634,-1.55488,-7.24014,-0.65384,6.72282,0.426829,-8.10976,4.29878
6554.67,86.7932,42.2377,0,9.78844,0.447869,1.61903,1.46341,1.70732,-1.03659,-7.27607,-0.63947,6.63899,0.670732,-10.122,4.11585
6554.68,86.8036,42.2443,0,9.89622,0.483794,1.60706,1.95122,2.43902,-0.548781,-7.24733,-0.608335,6.60546,0.762195,-11.5549,3.84146
6554.69,86.8142,42.2512,0,9.96568,0.529299,1.64059,2.07317,2.28659,0.487805,-7.27128,-0.617915,6.62941,0.579268,-12.6829,3.81098
6554.7,86.8299,42.2709,0,9.97286,0.531694,1.75794,2.31707,2.46951,1.21951,-7.22098,-0.58199,6.65815,0.518293,-14.2988,3.56707
6554.71,86.8612,42.2798,0,9.84353,0.435894,1.61185,2.59146,3.53659,1.34146,-7.21619,-0.682581,6.59349,0.914634,-15.8841,3.68902
6554.72,86.9101,42.272,0,9.65672,0.335303,1.6334,3.23171,4.48171,1.12805,-7.25212,-0.718506,6.52882,1.25,-17.5,3.84146
6554.73,86.9609,42.2447,0,9.69743,0.332908,1.55676,3.78049,5.64024,0.731707,-7.31199,-0.761616,6.46655,1.7378,-18.8415,3.78049
6554.74,87.0136,42.212,0,9.73575,0.304167,1.57353,3.44512,5.39634,0.914634,-7.36708,-0.761616,6.47613,2.16463,-20.6402,3.81098
6554.75,87.0754,42.1861,0,9.81958,0.282612,1.59269,3.59756,5.06098,0.396341,-7.41498,-0.63947,6.54798,2.56098,-22.439,3.90244
6554.76,87.159,42.1944,0,9.79563,0.232317,1.67891,3.71951,4.45122,0.0609756,-7.4557,-0.584385,6.77791,2.7439,-24.4512,3.87195
6554.77,87.2165,42.2326,0,9.6639,0.232317,1.7316,4.17683,3.56707,-0.548781,-7.38624,-0.459844,6.89526,3.04878,-26.128,4.02439
6554.78,87.278,42.2497,0,9.47949,0.0838257,1.59987,4.63415,3.10976,-1.34146,-7.27846,-0.399968,6.67731,3.04878,-26.25,3.81098
6554.79,87.3302,42.2455,0,9.46033,-0.0119751,1.65975,5.15244,3.90244,-2.10366,-7.23056,-0.421523,6.51445,3.2622,-25.5183,3.68902
6554.8,87.4103,42.2129,0,9.39087,-0.0646655,1.89446,4.32927,3.90244,-1.52439,-7.41977,-0.64905,6.51685,3.01829,-25.8841,2.89634
6554.81,87.4282,42.2051,0,9.28789,-0.0335303,1.64538,3.87195,1.79878,-4.14634,-7.41977,-0.771196,6.65336,2.56098,-27.1646,1.89024
6554.82,87.4367,42.2167,0,9.40764,-0.0862207,1.61664,3.56707,1.52439,-5.51829,-7.46288,-0.706531,6.80425,1.61585,-28.6585,1.31098
6554.83,87.4493,42.2169,0,9.52739,-0.215552,1.59748,2.04268,1.55488,-6.61585,-7.44133,-0.62031,6.71803,1.61585,-29.3598,1.55488
6554.84,87.4325,42.2449,0,9.616,-0.208367,1.50168,1.70732,1.34146,-9.45122,-7.3575,-0.512534,6.80904,1.79878,-28.3841,1.82927
6554.85,87.3915,42.2993,0,9.87467,-0.143701,1.54479,-0.335366,-0.762195,-11.128,-7.4078,-0.512534,7.02459,1.95122,-28.3841,1.61585
6554.86,87.4016,42.3881,0,10.3537,-0.337698,1.60466,-7.34756,-1.67683,-8.10976,-7.47725,-0.574805,7.32157,1.58537,-29.1768,1.4939
6554.87,87.3594,42.5312,0,10.1094,-0.263452,1.04423,-6.31098,-7.10366,-12.6524,-7.49402,-0.584385,7.71915,1.06707,-30.9146,1.03659
6554.88,87.2637,42.6499,0,10.1477,-0.258662,1.46336,-1.37195,-13.3537,-18.1402,-7.51797,-0.555645,7.61616,1.43293,-31.6159,0.518293
6554.89,87.124,42.7635,0,10.1429,-0.0646655,1.93997,-0.518293,-15.122,-20.5793,-7.4557,-0.57241,7.5515,2.0122,-31.128,0.823171
6554.9,86.9881,42.9019,0,10.4135,-0.110171,1.57353,-2.56098,-15.6402,-20.9756,-7.30481,-0.58678,7.59221,2.83537,-30.8232,1.12805
6554.91,86.8531,43.0685,0,10.7153,0.0239502,2.06211,-2.80488,-17.1646,-19.6646,-7.22577,-0.63468,7.73591,3.17073,-31.4024,1.89024
6554.92,86.722,43.2887,0,9.75252,-0.00958008,1.78668,-1.03659,-17.439,-19.9085,-7.15632,-0.713716,8.0784,2.95732,-33.4146,2.46951
6554.93,86.545,43.5165,0,9.87467,0.174836,1.36277,1.28049,-11.1585,-22.6829,-7.08686,-0.826282,8.11433,2.80488,-35.6098,3.32317
6554.94,86.333,43.7392,0,9.38369,0.361648,1.53521,2.89634,-11.6768,-24.1768,-6.924,-0.886157,7.95386,3.32317,-36.2805,3.9939
6554.95,86.092,43.9959,0,9.8124,0.330513,1.31487,6.43293,-18.3841,-28.1402,-6.66055,-0.780776,7.94907,4.29878,-36.5244,4.87805
6554.96,85.8,44.2602,0,9.94652,0.764011,1.41785,6.79878,-18.4451,-28.811,-6.44979,-0.687371,7.82213,5.03049,-35.8537,5.82317
6554.97,85.5288,44.549,0,10.3513,0.756826,1.19272,7.28659,-15.061,-27.7134,-6.26058,-0.61073,7.8365,5.06098,-35.2744,6.43293
6554.98,85.227,44.8554,0,10.277,1.1065,1.76273,8.90244,-12.5915,-27.378,-6.15281,-0.55325,7.90596,5.06098,-36.372,7.28659
6554.99,84.9431,45.1613,0,10.174,1.03465,1.83219,8.29268,-10.061,-26.8598,-6.11448,-0.488584,7.93949,4.45122,-36.6159,7.16463
6555,84.6536,45.4857,0,9.92257,1.00591,1.56874,9.57317,-10.061,-28.0488,-6.04982,-0.481399,8.0784,4.17683,-36.8293,6.92073
6555.01,84.3644,45.795,0,9.59205,0.914897,1.69328,9.87805,-8.41463,-29.2988,-5.99952,-0.440684,7.99458,3.38415,-36.7988,7.0122
6555.02,84.1001,46.1006,0,10.0112,0.716111,1.63101,8.68902,-8.47561,-30.122,-5.91809,-0.486189,7.94907,2.80488,-36.3415,6.67683
6555.03,83.8069,46.4179,0,9.9058,0.912502,1.96392,9.93902,-10.7012,-31.2195,-5.81032,-0.584385,7.97781,2.53049,-36.0976,6.46341
6555.04,83.5148,46.7435,0,9.89622,0.900527,1.94715,9.84756,-9.93902,-31.8293,-5.67141,-0.675395,7.93949,2.07317,-36.372,6.61585
6555.05,83.2301,47.0992,0,9.93215,0.895737,1.8274,9.20732,-8.17073,-31.7683,-5.47022,-0.61552,7.97302,2.0122,-36.1585,7.37805
6555.06,82.9218,47.453,0,9.80521,1.16637,1.95913,9.78659,-7.43902,-31.4329,-5.36484,-0.59157,7.91075,1.92073,-35.8232,8.17073
6555.07,82.5915,47.7975,0,9.49625,1.37953,1.79866,7.86585,-3.14024,-31.2805,-5.26665,-0.555645,7.80297,2.34756,-34.6646,8.96341
6555.08,82.2636,48.134,0,9.80042,1.4418,1.71004,6.37195,-1.43293,-31.4939,-5.24749,-0.498164,7.81734,2.62195,-33.3537,9.26829
6555.09,81.9481,48.4783,0,9.89622,1.35798,1.61424,6.18902,-1.79878,-32.0427,-5.25228,-0.440684,7.98499,2.2561,-33.5061,9.26829
6555.1,81.6128,48.8099,0,9.79323,1.56634,1.83219,3.87195,0.182927,-32.1037,-5.24509,-0.450264,7.98021,1.98171,-33.5976,8.84146
6555.11,81.3018,49.176,0,10.0806,1.41067,1.10889,4.60366,0.945122,-32.5915,-5.14929,-0.313748,8.20534,1.4939,-33.689,8.07927
6555.12,80.9734,49.5523,0,9.71899,1.57832,1.50168,5.15244,1.55488,-32.439,-5.08463,-0.378413,8.30114,1.52439,-33.3537,7.62195
6555.13,80.6407,49.9208,0,9.64953,1.76752,1.58311,5.45732,1.92073,-31.189,-4.92895,-0.361648,8.10714,0.884146,-31.9207,6.85976
6555.14,80.3214,50.2928,0,9.94891,1.95434,1.39151,5,-0.0609756,-28.9939,-4.81399,-0.270637,8.06403,0.365854,-30.2134,6.85976
6555.15,80.0178,50.6978,0,9.79563,1.98068,1.28613,4.39024,3.35366,-27.4085,-4.76848,-0.270637,8.38496,-0.609756,-29.5122,6.82927
6555.16,79.7873,51.0913,0,9.83156,1.60466,1.04902,5.67073,4.02439,-24.9695,-4.8068,-0.330513,8.49274,-2.19512,-29.4817,6.61585
6555.17,79.4894,51.4365,0,8.73703,1.83219,1.2023,3.90244,1.12805,-27.0732,-4.93614,-0.399968,8.43526,-2.77439,-28.75,6.25
6555.18,79.2215,51.7765,0,9.26633,1.69567,1.2526,4.05488,-2.10366,-27.622,-4.89063,-0.440684,8.43047,-3.65854,-28.4146,5.91463
6555.19,78.9253,52.0823,0,9.56571,1.95913,1.43701,3.84146,-5.4878,-28.5976,-4.96967,-0.522114,8.38975,-3.53659,-28.2012,5.45732
6555.2,78.624,52.3959,0,9.73575,2.02858,1.19032,2.80488,-5.79268,-29.3293,-4.96248,-0.646655,8.54543,-2.83537,-29.3293,5.21341
6555.21,78.2992,52.6815,0,9.93454,2.23216,1.25739,3.5061,-5.79268,-30.5183,-4.97206,-0.661025,8.42807,-2.10366,-29.9085,4.81707
6555.22,78.0279,52.9947,0,10.3153,2.08606,0.335303,3.56707,2.5,-28.2317,-4.84512,-0.704136,8.54303,-2.31707,-30.3963,4.90854
6555.23,77.6922,53.3422,0,10.107,2.4046,1.15919,5.06098,-0.121951,-31.372,-4.7613,-0.603545,8.81128,-2.86585,-31.311,5.15244
6555.24,77.3697,53.7079,0,10.0519,2.28485,1.39151,6.09756,-1.28049,-31.8902,-4.67508,-0.641865,8.94779,-3.65854,-32.622,6.06707
6555.25,77.0633,54.0529,0,10.198,2.25611,0.996328,6.52439,-0.97561,-31.5854,-4.63915,-0.720901,8.82086,-3.68902,-32.8659,6.58537
6555.26,76.7564,54.3915,0,10.1693,2.32796,1.08734,6.52439,0.304878,-31.4024,-4.55533,-0.840652,8.72985,-2.19512,-31.9817,6.79878
6555.27,76.4413,54.727,0,10.1309,2.43094,1.00112,8.9939,-2.59146,-31.6463,-4.55772,-0.922083,8.83283,-1.0061,-32.1037,7.04268
6555.28,76.064,55.0526,0,9.39566,2.81175,1.12326,10.2439,0.914634,-32.1646,-4.60083,-0.993933,8.94779,0.640244,-32.3171,6.95122
6555.29,75.6789,55.3721,0,9.34776,2.87402,0.847837,10.0305,-0.670732,-32.8659,-4.61041,-1.0083,9.03162,1.21951,-32.9878,6.64634
6555.3,75.2979,55.678,0,9.49865,2.81415,1.16637,10.3659,-1.64634,-34.4207,-4.70861,-0.900527,9.21364,1.12805,-33.75,6.43293
6555.31,74.905,55.9717,0,9.42201,2.86205,1.33403,9.96951,-2.34756,-35.6098,-4.74693,-0.828677,9.28549,0.640244,-34.6951,6.70732
6555.32,74.5306,56.2842,0,9.98723,2.67524,1.02986,9.54268,-1.55488,-38.4146,-4.67987,-0.775986,9.46272,-0.457317,-36.189,6.67683
6555.33,74.1654,56.5948,0,10.3992,2.74709,1.15679,7.7439,-1.25,-38.628,-4.56012,-0.804727,9.32621,-0.396341,-37.1646,6.46341
6555.34,73.7681,56.8949,0,10.2722,2.94827,1.17116,7.16463,-0.945122,-40.1829,-4.46911,-0.929268,9.15856,0.426829,-37.2866,6.95122
6555.35,73.3385,57.2231,0,9.97047,3.15424,1.12566,6.79878,0,-41.128,-4.36373,-0.998723,9.35495,1.37195,-38.1707,7.13415
6555.36,72.9106,57.5282,0,9.75491,3.13508,1.11608,7.13415,1.61585,-41.311,-4.36852,-0.919688,9.25436,2.71341,-39.6341,7.2561
6555.37,72.4533,57.8269,0,9.52739,3.32668,1.16877,6.34146,1.52439,-42.2561,-4.3278,-0.866997,9.22801,3.81098,-39.7561,7.5
6555.38,72.0081,58.1335,0,9.64953,3.29076,1.01788,7.13415,2.59146,-42.8049,-4.2775,-0.785566,9.331,3.53659,-40.1524,7.68293
6555.39,71.5147,58.453,0,9.27352,3.40811,1.11608,4.72561,5.51829,-45.8841,-4.20326,-0.802332,9.44117,2.7439,-40.5793,7.34756
6555.4,71.039,58.7831,0,9.77647,3.37458,0.895737,6.43293,-0.182927,-47.4085,-4.10027,-0.821492,9.46751,1.55488,-41.2195,7.16463
6555.41,70.548,59.11,0,9.77647,3.69073,1.11847,6.21951,0.0914634,-46.5854,-4.01405,-0.821492,9.38129,1.52439,-41.3415,6.64634
6555.42,70.0518,59.4379,0,9.85311,3.85359,1.07536,5.70122,0.548781,-46.7378,-3.90867,-0.826282,9.29268,1.52439,-40.9146,6.34146
6555.43,69.6126,59.7712,0,10.1118,3.55421,0.802332,6.64634,4.35976,-46.0061,-3.82006,-0.859812,9.29268,1.82927,-40.8537,6.40244
6555.44,69.1755,60.1135,0,9.78844,3.42727,0.673001,8.84146,0.243902,-46.8293,-3.72905,-0.864602,9.3286,2.10366,-41.1585,6.55488
6555.45,68.6929,60.4663,0,9.33579,3.68833,0.936453,11.7988,0.457317,-47.7439,-3.57816,-0.878972,9.2328,2.31707,-41.311,6.61585
6555.46,68.2169,60.8337,0,9.27831,3.59971,1.21906,12.9573,-2.0122,-48.7805,-3.43206,-0.792751,9.19927,2.40854,-41.5549,7.28659
6555.47,67.7115,61.1944,0,9.05796,3.83682,1.19511,11.7988,-2.95732,-49.1768,-3.3674,-0.742456,9.12263,2.13415,-40.8841,7.10366
6555.48,67.2148,61.57,0,9.19209,3.91586,1.2526,8.62805,1.7378,-49.0854,-3.27399,-0.713716,9.2328,1.4939,-40.9146,7.10366
6555.49,66.7106,61.9465,0,9.35495,4.08111,0.946033,7.37805,5.15244,-49.8476,-3.23567,-0.680186,9.331,0.640244,-41.2805,6.92073
6555.5,66.2044,62.3246,0,9.09868,3.92544,0.998723,5.36585,7.0122,-51.5549,-3.14466,-0.66342,9.2831,-0.579268,-41.7378,6.52439
6555.51,65.7017,62.695,0,9.0412,3.87035,1.03944,7.10366,7.22561,-52.561,-3.04407,-0.661025,9.08431,-0.579268,-41.4024,6.15854
6555.52,65.2529,63.0728,0,9.30465,3.6524,0.843047,7.83537,6.43293,-51.6463,-2.90755,-0.711321,8.96695,-0.0914634,-40.1829,5.85366
6555.53,64.7443,63.4647,0,8.62446,3.73863,1.0107,11.189,4.69512,-54.5732,-2.73032,-0.732876,8.80888,0.762195,-38.628,6.12805
6555.54,64.2463,63.9023,0,9.12981,3.97334,1.09931,11.4634,-1.0061,-54.3598,-2.51238,-0.706531,8.95498,1.34146,-37.622,5.91463
6555.55,63.7594,64.3727,0,9.02204,4.21284,1.06099,8.9939,5.33537,-51.1585,-2.33514,-0.661025,9.09389,0.823171,-36.9512,6.25
6555.56,63.2851,64.8455,0,8.74422,4.12662,0.941243,8.84146,4.96951,-50.3963,-2.2609,-0.687371,9.16095,0.213415,-35.5183,5.97561
6555.57,62.808,65.3119,0,8.96216,4.24876,0.969983,6.18902,6.31098,-51.4329,-2.2106,-0.732876,9.17532,0.213415,-34.1159,5.82317
6555.58,62.3443,65.7553,0,8.73464,4.15296,0.890947,6.64634,7.40854,-50.9146,-2.18905,-0.775986,9.01485,-0.0609756,-32.0732,5.60976
6555.59,61.9261,66.1692,0,8.86636,4.10267,0.996328,7.59146,6.76829,-48.4451,-2.20102,-0.771196,8.86636,0.548781,-29.8476,5.70122
6555.6,61.4849,66.564,0,8.44723,4.36373,1.11129,7.89634,4.96951,-46.5549,-2.20102,-0.65384,8.82804,0.701219,-28.0793,6.12805
6555.61,61.0344,66.9574,0,8.26282,4.34457,0.694556,10.0305,4.2378,-47.561,-2.17947,-0.584385,8.98372,-0.335366,-27.3171,6.25
6555.62,60.5424,67.3527,0,8.21971,4.50743,1.61424,9.48171,1.89024,-50.6707,-2.13875,-0.534089,9.12263,-1.25,-27.1951,6.67683
6555.63,60.0808,67.7529,0,8.57656,4.52659,1.43941,8.23171,1.79878,-50.4268,-2.0669,-0.505349,9.19209,-2.56098,-26.4939,6.58537
6555.64,59.6595,68.1799,0,8.66758,4.39007,1.08973,7.7439,3.01829,-49.2378,-1.87291,-0.61073,9.13221,-3.01829,-25.3354,6.67683
6555.65,59.2327,68.6216,0,8.3658,4.41163,1.09452,6.89024,5.79268,-48.7195,-1.73399,-0.740061,9.10347,-2.83537,-23.6585,6.37195
6555.66,58.8235,69.0753,0,8.4137,4.3781,0.905317,7.10366,6.12805,-48.4451,-1.57353,-0.833467,8.90229,-1.7378,-21.0976,6.21951
6555.67,58.5128,69.5108,0,8.81846,4.26792,0.692161,6.61585,7.71341,-42.622,-1.59508,-0.917292,9.02204,-0.457317,-20.0305,6.03659
6555.68,58.0589,69.9184,0,7.74549,5.15408,0.902922,9.29878,7.62195,-41.9207,-1.6334,-0.878972,8.99569,0.213415,-18.9939,5.85366
6555.69,57.4842,70.2835,0,7.52515,5.59716,1.05141,6.43293,7.59146,-49.0549,-1.70525,-0.790356,8.81607,1.4939,-17.378,5.85366
6555.7,56.9837,70.6327,0,8.05445,5.44388,0.60115,6.7378,5.57927,-47.9268,-1.71483,-0.737666,8.84481,2.0122,-14.7561,5.79268
6555.71,56.5161,70.9665,0,7.88919,5.27144,0.725691,10.1829,5.39634,-46.2195,-1.72441,-0.732876,8.86876,2.34756,-13.2927,5.45732
6555.72,56.0956,71.3101,0,8.0808,5.29539,0.783171,8.93293,5.97561,-43.4146,-1.6358,-0.694556,8.89989,2.59146,-11.3415,5.33537
6555.73,55.6753,71.6799,0,7.70957,5.25946,0.56762,13.5671,1.55488,-42.0732,-1.50168,-0.598755,9.06994,2.43902,-9.81707,5.30488
6555.74,55.1992,72.0327,0,7.59221,5.70973,1.22386,14.1768,-0.640244,-43.2317,-1.49689,-0.519719,8.98372,2.28659,-8.29268,5.06098
6555.75,54.7307,72.3734,0,7.77184,5.81511,1.33163,13.2622,1.09756,-43.7195,-1.4921,-0.493374,8.943,2.56098,-6.12805,5.18293
6555.76,54.3042,72.7378,0,7.77663,5.65464,1.14242,13.2622,-0.762195,-41.9817,-1.41067,-0.59157,9.08431,2.86585,-4.42073,5.4878
6555.77,53.9078,73.1456,0,7.84369,5.64746,1.32684,12.7744,2.0122,-40.3354,-1.346,-0.689766,9.01485,2.37805,-3.10976,5.57927
6555.78,53.5346,74.2098,0,7.76226,5.58758,1.34361,10.6402,0,-38.7805,-1.23823,-0.744851,8.85918,2.9878,-0.792683,6.09756
6555.79,53.1929,74.8278,0,7.61137,5.46304,1.58311,11.3415,-2.07317,-36.4939,-1.16158,-0.749641,8.86157,3.9939,1.64634,6.21951
6555.8,52.9901,75.1531,0,7.73591,5.35047,1.19032,13.9634,-6.0061,-25.061,-1.17116,-0.713716,9.00527,3.90244,4.17683,6.82927
6555.81,52.5295,75.4273,0,6.81383,6.55756,2.08606,7.77439,-4.2378,-32.9268,-1.24541,-0.632285,8.9454,3.93293,6.70732,7.10366
6555.82,52.1087,75.6453,0,7.19943,6.11928,1.65496,3.5061,-10.9756,-37.0427,-1.40348,-0.59157,8.83523,4.20732,9.11585,7.5
6555.83,51.7337,75.8234,0,7.51318,6.01868,1.55197,2.59146,-14.5122,-36.6159,-1.53281,-0.479004,8.87355,3.87195,11.2805,8.07927
6555.84,51.3917,75.9627,0,7.73591,6.12406,1.51365,1.21951,-18.872,-34.6951,-1.67172,-0.447869,8.93582,3.93293,12.439,7.9878
6555.85,51.0756,76.0938,0,7.57545,6.01629,1.25499,1.21951,-22.1951,-32.561,-1.6813,-0.431104,8.93103,3.47561,13.4146,7.86585
6555.86,50.7261,76.2251,0,7.20901,6.12885,1.11847,1.82927,-15.7317,-32.7134,-1.62143,-0.421523,8.73703,2.89634,15.7012,7.7439
6555.87,50.3827,76.3715,0,7.46288,5.98755,1.01309,2.10366,-8.53659,-36.128,-1.54958,-0.469424,8.7993,2.62195,18.3841,7.71341
6555.88,50.1063,76.5391,0,7.75507,5.8678,0.840652,4.7561,-6.09756,-33.3232,-1.44659,-0.390388,8.84002,1.46341,20.5183,7.40854
6555.89,49.8867,76.7115,0,8.06643,6.03784,0.823887,7.07317,-3.47561,-28.689,-1.43701,-0.402363,9.07233,0.640244,21.6768,7.46951
6555.9,49.6539,76.863,0,7.67125,6.16478,1.3939,5.70122,-5.09146,-26.4634,-1.51365,-0.419128,9.19209,0.579268,22.439,7.62195
6555.91,49.484,77.0094,0,8.01613,6.13125,1.37714,3.81098,-7.9878,-23.3232,-1.47054,-0.414338,8.95977,1.28049,24.1159,7.59146
6555.92,49.3762,77.1342,0,7.77902,5.88456,1.00351,3.04878,-10.2134,-17.9573,-1.4921,-0.347278,8.72266,3.01829,26.4939,8.68902
6555.93,49.2329,77.2249,0,7.37187,6.2989,0.857417,5.54878,-8.44512,-14.8476,-1.57353,-0.265847,8.55022,3.90244,30.2744,9.02439
6555.94,48.952,77.2624,0,6.71084,6.69647,1.25978,1.37195,-10.3963,-20.1524,-1.80105,-0.344883,8.72745,3.53659,33.5976,9.20732
6555.95,48.7151,77.2599,0,6.96711,6.35638,0.902922,0.853659,-13.4451,-21.4634,-2.00703,-0.481399,8.95737,2.71341,34.7256,8.29268
6555.96,48.48,77.2136,0,7.16829,6.44739,0.795146,2.53049,-15.2439,-22.5915,-2.21779,-0.603545,9.07473,2.22561,35.3963,7.62195
6555.97,48.2537,77.1526,0,7.24493,6.42584,0.833467,2.86585,-15.5488,-22.9878,-2.2609,-0.641865,8.96935,2.56098,36.4634,6.52439
6555.98,48.0767,77.0851,0,7.46288,6.16478,0.584385,2.19512,-15.6402,-22.5305,-2.27287,-0.6251,8.87594,2.77439,38.0183,5.94512
6555.99,47.9528,77.0234,0,7.73831,5.99473,0.512534,2.71341,-15.0915,-21.128,-2.20821,-0.560435,8.67476,3.84146,38.872,6.28049
6556,47.8291,76.9686,0,7.64011,6.28693,0.490979,3.17073,-15.7927,-17.9268,-2.213,-0.467029,8.77056,4.78659,39.7866,7.04268
6556.01,47.626,76.9023,0,7.28086,6.58391,0.651445,0.640244,-9.7561,-20.8232,-2.30161,-0.275427,8.8951,5,40.3049,8.07927
6556.02,47.4416,76.8135,0,7.28565,6.30369,0.59157,-0.304878,-7.0122,-21.8902,-2.39502,-0.203577,8.85439,4.7561,41.4634,8.9939
6556.03,47.2936,76.703,0,7.34792,6.07616,0.325723,3.17073,-8.9939,-21.1585,-2.5004,-0.193997,8.85918,4.14634,43.5671,9.05488
6556.04,47.231,76.5783,0,7.73112,5.88217,0.340093,3.75,-11.0061,-17.5,-2.62255,-0.270637,9.01246,3.32317,44.4207,9.20732
6556.05,47.0815,76.4159,0,7.29044,6.46416,0.464634,6.03659,-9.72561,-17.7134,-2.70637,-0.380808,8.68913,2.68293,45.1524,9.32927
6556.06,46.9009,76.2333,0,7.28804,6.57193,0.366438,5.79268,-8.41463,-20.2134,-2.81654,-0.59636,8.68674,1.43293,46.5549,9.45122
6556.07,46.7534,76.0446,0,7.56826,6.3947,0.368833,7.07317,-7.16463,-20.9756,-2.9339,-0.632285,8.87115,0.365854,46.7683,9.78659
6556.08,46.6158,75.8172,0,7.58024,6.41147,0.296982,8.01829,-7.68293,-20.2134,-3.10634,-0.55804,8.78972,0.27439,47.3476,10.2744
6556.09,46.4487,75.5588,0,7.54431,6.445,0.364043,7.68293,-6.58537,-22.9268,-3.19975,-0.378413,8.57417,1.34146,49.3293,10.8537
6556.1,46.3163,75.3025,0,7.73112,6.26298,0.141306,8.35366,-3.20122,-22.7744,-3.29315,-0.198787,8.73224,2.46951,50.3963,11.7073
6556.11,46.1811,75.0533,0,7.73352,6.46176,0.0335303,8.41463,-0.884146,-21.5549,-3.30992,0.0431104,8.74182,2.40854,51.0061,12.9573
6556.12,45.9949,74.7664,0,7.4054,6.71324,0.347278,6.4939,2.83537,-22.3171,-3.43446,0.105381,8.53106,1.95122,52.8963,13.5976
6556.13,45.7932,74.4784,0,7.12039,6.61744,0.622705,5.06098,1.92073,-22.8354,-3.53984,0.00958008,8.658,1.25,54.5122,13.9329
6556.14,45.6165,74.1698,0,7.21859,6.3947,0.617915,5.12195,-0.548781,-23.4756,-3.74821,-0.112566,8.81128,0.0304878,54.7561,14.3598
6556.15,45.4166,73.8351,0,7.07968,6.41626,0.62031,6.34146,-2.37805,-24.878,-3.88712,-0.229922,8.72745,-0.97561,55.3659,13.3841
6556.16,45.2056,73.4918,0,7.02699,6.4929,0.66821,7.7439,-2.22561,-25.3049,-4.02363,-0.292192,8.80409,-1.46341,55.2744,12.6829
6556.17,44.9694,73.1099,0,7.09405,6.74677,0.433499,8.56707,-2.0122,-26.6159,-4.14338,-0.347278,8.54303,-1.4939,56.1585,12.1341
6556.18,44.705,72.7469,0,6.97669,7.09405,0.529299,9.54268,-2.80488,-26.0671,-4.21284,-0.301772,8.72506,-1.79878,57.4085,12.1951
6556.19,44.3947,72.3487,0,6.85934,7.40301,0.64426,8.56707,-0.335366,-27.8049,-4.34217,-0.275427,8.51429,-1.76829,57.8963,12.2866
6556.2,44.0812,71.9262,0,6.80186,7.3096,0.768801,8.29268,0.365854,-29.0244,-4.38528,-0.244292,8.23887,-1.61585,59.939,12.8049
6556.21,43.7453,71.4972,0,6.83299,7.4078,0.910107,6.7378,-0.701219,-31.4329,-4.5218,-0.186812,8.29156,-1.52439,61.0061,13.75
6556.22,43.4307,71.0134,0,6.93837,7.24493,0.754431,6.55488,-2.56098,-32.1341,-4.6631,-0.241897,7.94428,-0.914634,61.9817,13.811
6556.23,43.1423,70.5357,0,7.12039,7.24493,0.792751,5.42683,-1.79878,-31.6159,-4.79004,-0.270637,8.05445,-0.579268,62.7744,13.5671
6556.24,42.8463,70.0723,0,7.01741,7.38145,1.0083,3.5061,-0.518293,-31.0366,-4.93853,-0.162861,8.26521,-0.701219,61.7683,13.4756
6556.25,42.5884,69.5506,0,6.91921,7.17069,0.802332,4.2378,-0.0609756,-28.628,-5.099,-0.215552,7.91314,-1.06707,62.0427,13.2317
6556.26,42.3382,69.0123,0,6.89287,7.19703,0.701741,3.90244,-0.182927,-27.9268,-5.18043,-0.282612,7.75986,-0.914634,63.5366,12.1646
6556.27,42.0771,68.5,0,6.89287,7.27367,0.593965,2.65244,-1.89024,-28.9329,-5.15887,-0.292192,7.76226,-1.09756,64.2683,11.6463
6556.28,41.822,67.9738,0,6.79467,7.14195,0.373623,3.20122,-1.67683,-29.0854,-5.10379,-0.325723,7.43654,-0.518293,65.6402,10.7622
6556.29,41.5706,67.4889,0,6.79946,7.10842,0.364043,3.17073,-0.27439,-29.5427,-5.01278,-0.282612,7.44851,-0.335366,66.7073,10.7927
6556.3,41.3119,67.0407,0,6.69887,7.15153,0.60594,1.67683,-1.25,-29.5732,-4.95051,-0.170046,7.47965,-0.365854,67.0122,11.311
6556.31,41.0663,66.5521,0,6.55277,7.05333,0.500559,1.4939,-2.68293,-28.2927,-4.97446,-0.177231,7.1156,-0.27439,68.6585,11.8902
6556.32,40.8027,66.064,0,6.36117,7.14195,0.433499,0.853659,-4.63415,-28.1707,-5.07026,-0.0934058,7.12758,-0.518293,70.2134,12.0122
6556.33,40.542,65.5682,0,6.26777,7.12279,0.378413,0.27439,-4.96951,-27.7134,-5.19001,-0.00239502,7.1156,-0.762195,70.7012,12.439
6556.34,40.2587,65.018,0,6.14323,7.17069,0.455054,0.27439,-6.06707,-28.9939,-5.41035,-0.0287402,6.93119,-1.03659,71.0061,12.8659
6556.35,39.9805,64.443,0,6.22466,7.17548,0.273032,0.213415,-7.28659,-29.7866,-5.62351,-0.0934058,6.90724,-1.12805,70.8841,12.9878
6556.36,39.7092,63.8547,0,6.35878,7.19703,0.0167651,0.182927,-6.34146,-30.7012,-5.8199,-0.143701,6.91921,-1.15854,69.7256,13.2317
6556.37,39.4579,63.214,0,6.58391,7.17787,0.0622705,-0.121951,-6.18902,-31.4024,-6.02587,-0.220342,6.69647,-0.823171,68.9634,13.5671
6556.38,39.2141,62.5541,0,6.53601,7.07489,0.0790356,-0.731707,-5.97561,-31.5549,-6.13604,-0.313748,6.55517,-0.27439,68.8415,13.689
6556.39,38.9739,61.9533,0,6.43781,6.78749,0.203577,-1.15854,-4.63415,-33.2317,-6.19831,-0.282612,6.81623,-0.243902,68.2317,13.5976
6556.4,38.6928,61.3655,0,6.13604,6.75156,0.256267,-0.97561,-3.10976,-35.3963,-6.18394,-0.253872,6.7348,-1.12805,67.0427,13.5671
6556.41,38.3818,60.7864,0,5.98515,6.95993,0.282612,-0.823171,-3.10976,-35.8232,-6.17197,-0.131726,6.6366,-1.89024,67.5305,13.2317
6556.42,38.0486,60.2161,0,5.88696,7.32636,0.299377,-0.0304878,-6.06707,-34.8171,-6.21747,-0.0646655,6.60307,-2.28659,68.2927,12.9573
6556.43,37.72,59.5951,0,5.92528,7.5012,0.294587,-0.0609756,-10.0305,-34.0549,-6.34201,0.0119751,6.31567,-1.67683,70.2134,12.5915
6556.44,37.4393,59.0112,0,6.23184,7.50599,0.332908,-0.670732,-9.78659,-32.6829,-6.48332,0.0431104,6.52882,-2.40854,70.7317,11.7683
6556.45,37.113,58.416,0,5.97318,7.95146,0.376018,-0.243902,-8.9939,-32.2256,-6.72042,0.0598755,6.56475,-2.56098,70.4268,11.3415
6556.46,36.7997,57.7704,0,6.22466,7.94188,0.289797,-1.4939,-7.22561,-33.9634,-6.86173,-0.00958008,6.27974,-2.83537,70.8232,10.8537
6556.47,36.4955,57.1117,0,6.22705,7.76944,0.129331,-0.0914634,-6.82927,-34.939,-6.97669,0.00958008,6.16957,-2.83537,70.9146,10.6707
6556.48,36.2066,56.4366,0,6.27256,7.68322,0.105381,2.19512,-5.64024,-35.061,-7.03417,0.00239502,5.98994,-2.9878,70.8841,10.7317
6556.49,35.9083,55.8022,0,6.21268,7.8389,0.179626,1.03659,-3.20122,-34.9085,-7.08686,-0.0646655,6.10969,-2.89634,70.5183,11.25
6556.5,35.6318,55.1707,0,6.17436,7.62574,0.0598755,0.579268,-2.13415,-34.5122,-7.09884,-0.0742456,5.99952,-3.29268,70.0915,11.9512
6556.51,35.3576,54.5592,0,6.09772,7.77663,-0.0574805,1.18902,-1.52439,-33.0183,-7.17308,-0.114961,6.03545,-4.32927,70.3354,12.439
6556.52,35.072,53.9237,0,5.89893,7.9826,0.234712,1.79878,-2.7439,-31.4024,-7.28565,-0.136516,5.87019,-4.81707,70.5183,12.622
6556.53,34.7864,53.2398,0,5.8175,8.09996,0.00479004,0.792683,-5.27439,-30.3963,-7.40301,-0.110171,5.5804,-4.48171,71.7073,12.1951
6556.54,34.4725,52.5616,0,5.45346,8.00416,-0.304167,1.61585,-7.37805,-30.9756,-7.58263,-0.0694556,5.60435,-4.2378,71.8598,11.4634
6556.55,34.1562,51.9066,0,5.29299,7.55868,-0.411943,5.70122,-6.67683,-33.3537,-7.66406,0,5.64506,-4.17683,71.0366,11.5854
6556.56,33.795,51.2557,0,5.21635,7.86285,-0.265847,6.79878,-3.53659,-35.6402,-7.73352,0.0766406,5.5804,-4.20732,69.3598,11.7378
6556.57,33.4167,50.5656,0,5.24749,8.13109,-0.0167651,3.47561,0.396341,-36.6463,-7.66885,0.0981958,5.20677,-4.26829,69.8476,12.2561
6556.58,33.075,49.933,0,5.49657,8.28677,-0.00718506,3.62805,2.16463,-35.1524,-7.58982,0.0910107,5.30257,-5.36585,70.5793,12.7439
6556.59,32.7742,49.2979,0,5.70254,8.38736,0.249082,4.72561,-0.823171,-33.0183,-7.53952,0.0287402,5.13253,-5.18293,70.9756,13.2317
6556.6,32.5142,48.6505,0,5.7217,8.20773,0.251477,5.2439,-1.12805,-30.8232,-7.61856,-0.0934058,5.00559,-4.78659,71.7378,12.8354
6556.61,32.2901,48.0259,0,5.75763,7.97542,0.373623,5,3.41463,-29.6341,-7.76226,-0.213157,5.08463,-5.09146,70.3963,12.2866
6556.62,32.0589,47.3769,0,5.50615,7.95146,0.285007,5.27439,4.63415,-28.5061,-7.81255,-0.246687,4.87865,-5.2439,70.1829,11.2805
6556.63,31.8351,46.7254,0,5.53968,8.17181,0.217947,4.57317,3.71951,-27.0732,-7.92512,-0.222737,4.81399,-5.21341,71.0671,10
6556.64,31.5386,46.1183,0,4.92177,8.37538,0.146096,1.85976,3.01829,-27.4085,-7.97302,-0.182021,4.93374,-6.06707,71.3415,9.42073
6556.65,31.2236,45.482,0,4.65831,8.34425,-0.213157,3.14024,0.792683,-27.3171,-8.08559,-0.155676,4.74453,-7.07317,71.6159,9.05488
6556.66,30.8556,44.7616,0,4.31582,8.33467,0.174836,6.82927,-3.75,-29.6951,-8.23887,-0.102986,4.31582,-7.22561,72.3476,9.05488
6556.67,30.4358,44.0459,0,4.06674,8.62686,0.55325,6.79878,-5.30488,-31.372,-8.39215,-0.124541,4.28469,-6.25,72.439,9.66463
6556.68,30.0478,43.3199,0,4.41402,8.50232,0.500559,2.9878,-4.69512,-33.4756,-8.46639,-0.143701,4.14099,-5.27439,70.8232,10.3963
6556.69,29.6973,42.6862,0,4.75651,8.37778,0.352068,2.80488,-5.88415,-34.8171,-8.54303,-0.165256,4.47629,-5.09146,67.9573,10.8537
6556.7,29.378,42.0259,0,5.15408,8.8472,0.146096,3.32317,-6.61585,-33.6585,-8.52627,-0.0742456,4.22242,-5.33537,67.2866,11.3415
6556.71,29.1154,41.3795,0,5.30736,8.65081,-0.220342,4.17683,-5.51829,-31.189,-8.44005,-0.186812,4.12422,-5.42683,68.7195,11.7988
6556.72,28.8789,40.7237,0,5.3385,8.72745,-0.560435,6.43293,-1.64634,-28.9024,-8.49274,-0.246687,3.9901,-5.45732,69.8781,11.4939
6556.73,28.6316,40.0033,0,5.06786,8.86157,-0.234712,6.79878,-0.670732,-27.0427,-8.56699,-0.397573,3.61648,-4.42073,71.5854,10.6098
6556.74,28.3727,39.2728,0,4.7589,8.72506,-0.00718506,6.76829,-0.365854,-26.372,-8.71548,-0.440684,3.50631,-2.46951,72.8659,9.87805
6556.75,28.0029,38.6281,0,3.89909,8.25563,0.531694,2.9878,-3.93293,-31.4329,-8.8975,-0.296982,3.84161,-2.10366,72.7134,8.47561
6556.76,27.6819,37.9457,0,4.24637,8.83044,0.124541,5.39634,-2.19512,-28.0183,-8.95019,-0.213157,3.57097,-2.9878,71.9817,8.07927
6556.77,27.3605,37.2748,0,4.13141,8.40412,0.280217,6.58537,-3.04878,-29.7256,-9.01485,-0.0311353,3.52547,-3.78049,71.7683,8.41463
6556.78,27.0356,36.6136,0,4.22481,8.56219,0.117356,5.33537,1.12805,-30.9146,-9.05557,0.0550855,3.4632,-4.05488,70.4878,8.38415
6556.79,26.7104,35.9656,0,4.1817,8.59093,-0.119751,5.79268,1.76829,-30.9756,-9.0388,0.0838257,3.39614,-4.42073,69.2683,8.75
6556.8,26.4094,35.3227,0,4.44995,8.7993,-0.00479004,5,-2.16463,-30.9451,-8.943,0.0526904,3.26681,-5.60976,68.2012,9.2378
6556.81,26.1087,34.6358,0,4.41163,8.58615,-0.0981958,3.41463,-4.32927,-32.2866,-8.99569,-0.00718506,2.97701,-5.18293,67.4695,9.20732
6556.82,25.8281,33.9736,0,4.905,9.11544,-0.505349,2.59146,-1.61585,-33.0793,-8.94061,-0.0479004,2.94827,-4.84756,67.8963,9.2378
6556.83,25.5902,33.3601,0,4.72537,8.68674,-0.261057,5.09146,-0.548781,-29.8171,-9.00527,-0.114961,3.06802,-5.64024,67.2561,8.87195
6556.84,25.3629,32.6745,0,4.49066,8.79691,-0.0670605,7.04268,0.0304878,-26.1585,-8.96935,-0.165256,2.63692,-5.85366,67.8354,8.9939
6556.85,25.1312,32.0628,0,4.27032,8.66518,-0.141306,6.58537,1.15854,-25.4268,-9.05796,-0.201182,2.86684,-5.82317,68.0183,9.32927
6556.86,24.8745,31.4569,0,4.08351,8.8975,-0.0263452,6.0061,1.76829,-25.2134,-9.14418,-0.148491,2.81175,-6.67683,66.3719,9.29878
6556.87,24.6325,30.7825,0,4.17452,8.82804,-0.136516,5.45732,-1.31098,-25.5793,-9.16574,-0.148491,2.41418,-6.03659,66.4939,9.54268
6556.88,24.3599,30.149,0,3.96615,8.44244,-0.193997,4.45122,-1.70732,-28.9024,-9.24957,-0.126936,2.49801,-6.0061,66.7073,10.0915
6556.89,24.0722,29.5035,0,4.45234,8.56459,-0.692161,0.27439,4.45122,-35.7012,-9.331,-0.158071,2.3567,-5.67073,65.7927,9.54268
6556.9,23.8527,28.8272,0,4.73974,8.54303,-0.761616,5.36585,11.0671,-32.5,-9.40045,-0.239502,2.12678,-4.7561,65.1524,9.29878
6556.91,23.6436,28.1976,0,4.60323,8.98372,-0.263452,7.16463,12.8049,-28.0183,-9.44117,-0.287402,2.22258,-4.29878,64.5427,9.17683
6556.92,23.4651,27.5991,0,4.62239,9.32381,-0.136516,9.42073,17.2561,-23.7805,-9.53218,-0.285007,2.27048,-4.29878,63.2927,8.38415
6556.93,23.2929,26.9194,0,4.27511,9.0891,-0.0838257,8.75,17.0122,-21.0976,-9.51062,-0.268242,1.80584,-4.17683,63.872,8.01829
6556.94,23.0966,26.2595,0,3.85119,8.76817,-0.220342,10.5488,14.9085,-20.8841,-9.56092,-0.220342,1.78429,-3.56707,63.9329,8.07927
6556.95,22.8508,25.6141,0,3.40093,8.61249,-0.0694556,11.5854,15.0305,-21.9207,-9.69025,-0.196392,1.75555,-2.83537,62.0427,7.77439
6556.96,22.4743,24.9438,0,2.84049,8.25324,0.0167651,7.28659,15.7012,-30.5488,-9.79803,-0.184417,1.54958,-2.68293,60.4878,7.71341
6556.97,22.1293,24.3095,0,3.21891,8.69392,-0.237107,5.06098,15.9451,-30.7927,-9.77168,-0.131726,1.5855,-3.17073,58.7195,7.46951
6556.98,21.8321,23.7482,0,3.80569,10.0806,-0.0814307,9.17683,15.3659,-27.378,-9.91059,-0.0766406,1.82261,-4.11585,57.1951,7.95732
6556.99,21.5536,23.1555,0,3.56618,9.22801,-0.177231,7.62195,18.3232,-26.9817,-9.92975,-0.0191602,1.58311,-4.93902,56.2195,8.56707
6557,21.2164,22.4953,0,3.14706,8.90229,-0.00479004,6.46341,19.7561,-30.1524,-10.016,-0.114961,1.18793,-4.45122,56.6768,9.11585
6557.01,20.9193,21.8472,0,3.34345,9.82677,0.373623,8.68902,19.1159,-25.3659,-10.1214,-0.246687,1.13524,-3.07927,54.6951,9.32927
6557.02,20.6963,21.2159,0,3.45841,9.72138,0.282612,7.77439,16.311,-20.0305,-10.1645,-0.320933,1.09692,-1.55488,51.4634,9.42073
6557.03,20.484,20.6118,0,3.30992,9.38129,0.222737,6.18902,14.7866,-19.0854,-10.1597,-0.376018,1.1041,0.335366,48.4756,9.48171
6557.04,20.2797,20.0511,0,3.26202,9.42919,0.119751,6.92073,13.4451,-17.9878,-10.107,-0.438289,1.18314,1.55488,45.5488,8.96341
6557.05,20.0725,19.4681,0,3.08479,9.50104,0.138911,5.42683,11.3415,-16.4634,-10.0279,-0.455054,0.974773,2.19512,44.7866,8.81098
6557.06,19.8349,18.8566,0,2.78062,9.21125,0.0886157,4.5122,8.14024,-17.561,-9.94891,-0.529299,0.740061,3.38415,46.0061,8.75
6557.07,19.591,18.2789,0,2.72553,9.6639,0.167651,3.20122,3.01829,-16.5549,-9.99202,-0.500559,0.785566,4.96951,46.311,8.17073
6557.08,19.3139,17.7321,0,2.43813,9.61121,0.0622705,0.701219,-1.46341,-17.3476,-10.0615,-0.383203,0.826282,5.70122,44.7866,8.07927
6557.09,18.8441,17.2149,0,1.85614,8.26042,-0.129331,-4.11585,-7.28659,-34.3598,-10.0423,-0.186812,0.857417,5.54878,42.4695,8.35366
6557.1,18.481,16.6993,0,2.60339,9.6663,-0.196392,-2.46951,-7.92683,-29.3598,-9.98963,0.00239502,0.768801,5.45732,41.372,9.35976
6557.11,18.1746,16.1621,0,2.76625,8.85199,-0.0814307,-2.7439,-9.14634,-28.9634,-9.90341,0.148491,0.5772,5.27439,40.7927,10.122
6557.12,18.0243,15.6143,0,3.87993,10.1884,-0.402363,0.396341,-5.82317,-20.7927,-9.99921,0.205972,0.440684,4.54268,39.3598,11.0976
6557.13,17.9254,15.0782,0,3.59971,9.55134,-0.126936,1.76829,-6.21951,-15.4573,-10.1214,0.150886,0.399968,4.39024,37.9268,11.1585
6557.14,17.846,14.5695,0,3.6548,9.31423,-0.196392,2.07317,-4.08537,-15.2439,-10.2172,0.122146,0.431104,4.02439,36.9512,10.4878
6557.15,17.7728,14.0906,0,3.67157,9.4244,-0.330513,2.34756,-3.44512,-14.4817,-10.2363,0.0838257,0.474214,4.2378,35.8537,9.66463
6557.16,17.7042,13.6234,0,3.58774,9.137,-0.534089,3.01829,-1.4939,-14.4817,-10.1764,0.0335303,0.438289,3.23171,35.1524,9.17683
6557.17,17.6309,13.1411,0,3.59013,9.12502,-0.373623,2.9878,1.09756,-15.1829,-10.1022,0.0263452,0.285007,2.68293,34.3293,8.9939
6557.18,17.5519,12.6287,0,3.53026,9.11065,-0.538879,2.56098,4.17683,-15.3049,-10.0351,0.0167651,0.0646655,2.07317,34.1463,9.08537
6557.19,17.4488,12.1409,0,3.25962,9.01246,-0.447869,3.35366,6.7378,-15.2744,-10.1381,0.0335303,0.0838257,1.52439,33.1402,8.9939
6557.2,17.2365,11.6711,0,2.53393,8.53106,-0.0718506,2.77439,8.56707,-19.8171,-10.0471,0.0934058,0.0766406,0.762195,31.9207,9.35976
6557.21,16.9635,11.2017,0,2.57704,8.00176,-0.215552,-2.22561,6.25,-29.1159,-9.9082,0.148491,-0.00479004,0.182927,31.4939,9.20732
6557.22,16.7617,10.7372,0,3.21891,9.8076,-0.114961,0.853659,7.13415,-23.0488,-9.87706,0.172441,-0.0646655,-0.914634,30.6098,9.5122
6557.23,16.6249,10.2608,0,3.51349,9.73815,-0.129331,3.68902,8.68902,-20.2439,-9.94891,0.184417,-0.198787,-0.823171,30.0915,9.7561
6557.24,16.5452,9.80691,0,3.93502,10.8614,-0.201182,5.7622,11.4024,-14.8476,-10.0088,0.155676,-0.184417,-0.914634,29.4817,9.08537
6557.25,16.4472,9.34833,0,3.19496,10.0591,0.0287402,3.35366,14.8171,-12.1951,-10.016,0.0718506,-0.285007,-1.12805,28.9939,8.68902
6557.26,16.325,8.89434,0,2.89558,9.51541,-0.229922,4.72561,16.5549,-13.4451,-10.0639,0.0814307,-0.347278,-1.4939,28.2317,8.62805
6557.27,16.18,8.4271,0,2.68482,9.27591,-0.287402,5.88415,14.939,-14.4207,-10.0136,0.0646655,-0.483794,-1.64634,27.9878,8.23171
6557.28,16.0062,8.00037,0,2.47885,9.21843,-0.215552,6.21951,14.6646,-15.4268,-9.91538,0.0862207,-0.383203,-2.07317,27.4085,8.35366
6557.29,15.8222,7.61623,0,2.40699,9.22801,-0.191602,5.42683,12.8049,-15.9451,-9.89862,0.186812,-0.270637,-3.32317,27.0732,8.65854
6557.3,15.6666,7.24529,0,2.66566,9.17532,-0.289797,5.06098,9.48171,-16.6463,-9.89862,0.229922,-0.280217,-4.14634,26.1585,9.26829
6557.31,15.559,6.8496,0,3.02491,9.01006,-0.366438,5.7622,8.75,-16.8902,-9.98005,0.201182,-0.457449,-5.30488,24.7256,9.72561
6557.32,15.4631,6.4505,0,3.19496,8.90947,-0.217947,5.2439,10.4268,-18.2927,-10.0854,0.172441,-0.548459,-5.67073,23.4451,9.87805
6557.33,15.1665,6.05935,0,2.07648,7.16111,0.0790356,-3.56707,12.1951,-31.7073,-10.0806,0.150886,-0.584385,-5.36585,22.0427,9.57317
6557.34,15.0394,5.66203,0,3.67396,9.92496,-0.476609,3.2622,20.7622,-23.4756,-9.98723,0.203577,-0.675395,-5.42683,21.25,9.39024
6557.35,14.9016,5.24644,0,3.11113,9.33579,-0.268242,2.86585,20.4878,-20.9756,-9.95849,0.160466,-0.823887,-5.18293,20.8841,9.39024
6557.36,14.7967,4.84301,0,3.1279,10.8734,-0.220342,6.25,19.8476,-13.0488,-10.016,0.117356,-0.847837,-4.78659,20.7622,8.78049
6557.37,14.6676,4.4373,0,2.42136,10.0303,0.158071,3.87195,13.6585,-10.6707,-10.0711,0.0215552,-0.934058,-4.69512,20.8841,8.17073
6557.38,14.5224,4.03275,0,2.19863,9.46033,-0.0335303,4.05488,11.0671,-11.5854,-10.0758,-0.0742456,-1.00112,-4.2378,21.0671,7.68293
6557.39,14.378,3.64297,0,2.18186,9.40045,-0.0622705,4.02439,8.32317,-11.7683,-10.016,-0.0646655,-1.00112,-3.81098,20.7012,7.53049
6557.4,14.2496,3.29721,0,2.27287,9.55134,-0.148491,2.77439,7.86585,-11.0671,-9.90341,0.0814307,-0.864602,-3.47561,19.9695,7.59146
6557.41,14.1529,2.97479,0,2.49322,9.55373,-0.282612,2.62195,8.75,-10.6402,-9.82677,0.143701,-0.816702,-3.62805,18.9634,8.2622
6557.42,14.0858,2.66594,0,2.68721,9.43877,-0.270637,3.68902,9.26829,-10.3963,-9.8579,0.100591,-0.816702,-3.56707,17.8354,8.59756
6557.43,14.0337,2.33196,0,2.76625,9.33818,-0.335303,4.5122,10,-10.2439,-9.98723,0.0263452,-0.993933,-3.47561,17.1037,7.86585
6557.44,13.9999,1.97683,0,2.86205,9.2807,-0.287402,3.93293,10.1524,-9.78659,-10.0926,0.0670605,-1.15919,-2.83537,16.9512,6.82927
6557.45,13.9696,1.61711,0,2.87642,9.38369,-0.261057,4.35976,10.5183,-9.29878,-10.0854,0.205972,-1.24302,-1.79878,16.3415,6.67683
6557.46,13.938,1.28125,0,2.80936,9.53457,-0.268242,3.87195,10.5793,-8.23171,-10.0256,0.347278,-1.19272,-1.18902,16.0976,6.52439
6557.47,13.8956,0.979634,0,2.66805,9.54655,-0.311353,3.44512,11.25,-7.7439,-10.0663,0.371228,-1.1041,-0.97561,15.3354,6.95122
6557.48,13.8422,0.704218,0,2.56986,9.46033,-0.208367,4.81707,11.5854,-8.10976,-9.98244,0.304167,-1.03225,-1.89024,14.4512,6.4939
6557.49,13.7255,0.44527,0,2.2106,8.99809,0.00239502,5.06098,9.11585,-11.8293,-9.86269,0.203577,-0.996328,-2.83537,13.4146,6.67683
6557.5,13.5748,0.196241,0,2.08846,8.92624,0.153281,2.43902,10.4573,-14.2378,-9.76689,0.208367,-0.989143,-3.71951,12.1951,6.55488
6557.51,13.2336,-0.0489778,0,1.3963,7.01262,-0.270637,-1.89024,10.2744,-30.0915,-9.68785,0.237107,-1.0083,-4.11585,10.9146,6.95122
6557.52,13.0372,-0.299855,0,2.2106,8.91426,0.0311353,1.15854,13.3841,-21.4634,-9.62558,0.258662,-1.06818,-4.54268,10.3963,7.37805
6557.53,12.9626,-0.548513,0,3.11113,10.7632,-0.440684,7.07317,16.4329,-13.9024,-9.64474,0.289797,-1.1041,-4.60366,9.60366,7.71341
6557.54,12.8896,-0.782322,0,2.61536,10.2052,-0.0311353,5.39634,18.9939,-10.3354,-9.76689,0.237107,-1.09692,-4.87805,8.62805,7.86585
6557.55,12.8569,-1.03185,0,2.57225,9.99442,-0.0359253,7.46951,18.1402,-6.4939,-9.97047,0.0622705,-1.23104,-5.03049,8.78049,7.0122
6557.56,12.833,-1.29219,0,2.43573,9.44596,-0.0886157,6.31098,16.4634,-5.73171,-10.1381,-0.0431104,-1.346,-4.84756,8.32317,5.36585
6557.57,12.8235,-1.55069,0,2.47645,9.39806,-0.292192,5.94512,17.8354,-4.96951,-10.1908,-0.0143701,-1.39151,-4.08537,8.75,4.02439
6557.58,12.8271,-1.81797,0,2.56028,9.36692,-0.435894,6.12805,19.9085,-4.7561,-10.2507,0.0359253,-1.48731,-3.62805,8.75,2.92683
6557.59,12.8219,-2.06591,0,2.46927,9.3286,-0.318538,6.28049,19.7561,-4.69512,-10.2651,0.102986,-1.44899,-3.20122,8.75,2.2561
6557.6,12.8077,-2.33057,0,2.39262,9.40764,-0.347278,7.31707,19.3902,-4.48171,-10.1669,0.198787,-1.55676,-2.7439,8.47561,2.31707
6557.61,12.7752,-2.56035,0,2.2609,9.72617,-0.237107,6.92073,17.7134,-3.90244,-10.0591,0.237107,-1.42983,-2.77439,8.35366,2.59146
6557.62,12.7266,-2.77369,0,2.15552,9.79323,-0.239502,6.21951,15.3049,-4.20732,-10.0208,0.263452,-1.39151,-3.04878,7.92683,3.07927
6557.63,12.6647,-2.96916,0,2.0669,9.83156,-0.261057,5.09146,14.4207,-4.54268,-9.99681,0.220342,-1.346,-3.44512,7.59146,3.71951
6557.64,12.5804,-3.1874,0,1.95673,9.77168,-0.249082,5.03049,13.4451,-5.85366,-9.96089,0.220342,-1.47773,-5.06098,7.53049,4.08537
6557.65,12.483,-3.40609,0,1.91362,9.80281,-0.213157,4.48171,11.0976,-6.79878,-9.91299,0.213157,-1.51126,-5.85366,7.5,4.7561
6557.66,12.3813,-3.60943,0,1.90883,9.74054,-0.155676,3.84146,9.60366,-7.53049,-9.93694,0.203577,-1.48491,-6.58537,7.80488,5.18293
6557.67,12.2839,-3.80575,0,1.9735,9.77886,-0.179626,4.08537,7.5,-7.95732,-10.0016,0.217947,-1.49928,-7.28659,7.80488,5.21341
6557.68,12.2022,-3.99263,0,2.11241,9.73096,-0.150886,2.34756,6.34146,-8.2622,-10.0687,0.170046,-1.50168,-7.68293,8.10976,5.4878
6557.69,12.1323,-4.17176,0,2.15791,9.61361,-0.287402,1.89024,6.09756,-8.04878,-10.0303,0.189207,-1.49449,-8.5061,7.9878,5.42683
6557.7,12.0859,-4.35294,0,2.32556,9.54415,-0.323328,1.55488,6.12805,-7.92683,-10.0567,0.122146,-1.54,-8.87195,7.53049,5.39634
6557.71,12.0536,-4.51516,0,2.40699,9.37411,-0.387993,2.0122,4.93902,-8.01829,-10.0447,0.0359253,-1.48491,-9.05488,6.67683,5.57927
6557.72,12.0282,-4.7012,0,2.42136,9.43398,-0.352068,2.77439,5.70122,-7.37805,-9.97526,-0.0646655,-1.60945,-8.62805,5.91463,4.96951
6557.73,12.0059,-4.89035,0,2.40699,9.54655,-0.419128,1.95122,6.79878,-6.61585,-9.91538,-0.0502954,-1.64298,-8.20122,5.12195,4.93902
6557.74,11.9903,-5.08294,0,2.4022,9.48188,-0.411943,2.37805,6.89024,-6.12805,-9.88185,0.00479004,-1.6837,-7.04268,4.84756,4.96951
6557.75,11.9815,-5.25102,0,2.42376,9.46751,-0.387993,2.89634,6.76829,-5.7622,-9.79563,-0.00239502,-1.59269,-6.37195,4.66463,5.7622
6557.76,11.9529,-5.40264,0,2.27527,9.26394,-0.306563,2.13415,7.22561,-6.64634,-9.85311,-0.0239502,-1.55916,-5.64024,4.57317,5.91463
6557.77,11.8277,-5.5281,0,2.12678,8.37059,-0.462239,-0.670732,8.68902,-17.4695,-9.84353,-0.0263452,-1.46096,-5,3.87195,6.03659
6557.78,11.7828,-5.65616,0,2.8381,9.61121,-0.787961,3.93293,12.0732,-14.0244,-9.8555,-0.0622705,-1.48252,-5.27439,3.29268,6.09756
6557.79,11.734,-5.79443,0,2.20342,9.35255,-0.0383203,-2.46951,7.07317,-7.9878,-9.77647,-0.0455054,-1.51126,-5.36585,2.80488,6.12805
6557.8,11.7647,-5.93184,0,2.73511,11.1895,-0.311353,4.29878,8.9939,-1.34146,-9.78366,0.0287402,-1.52323,-5.27439,2.62195,6.21951
6557.81,11.7441,-6.08944,0,2.0669,9.76689,-0.193997,1.09756,4.48171,-2.53049,-9.76689,0.0455054,-1.61185,-5.15244,2.46951,6.55488
6557.82,11.72,-6.25239,0,2.05253,9.63037,-0.258662,1.79878,3.53659,-3.10976,-9.83395,0.0479004,-1.66214,-4.69512,2.28659,6.64634
6557.83,11.7119,-6.425,0,2.15791,9.62319,-0.342488,0.884146,2.28659,-2.89634,-9.93454,-0.00479004,-1.63819,-4.26829,1.34146,6.76829
6557.84,11.7432,-6.63381,0,2.38065,9.44117,-0.387993,0.762195,1.7378,-2.59146,-10.004,0.0311353,-1.67172,-3.59756,0.670732,6.55488
6557.85,11.8143,-6.83111,0,2.47645,9.4747,-0.318538,1.40244,2.89634,-1.46341,-10.0303,-0.0502954,-1.66214,-2.95732,0.548781,6.64634
6557.86,11.9389,-7.04416,0,2.52914,9.42201,-0.261057,1.43293,2.59146,-0.701219,-9.94652,-0.0143701,-1.70525,-2.43902,0.548781,7.22561
6557.87,12.0677,-7.23235,0,2.42376,9.4268,-0.385598,2.43902,4.02439,0.335366,-10.0615,0.182021,-1.67412,-2.95732,0.304878,7.56098
6557.88,12.1008,-7.4199,0,2.17228,9.59924,-0.261057,2.5,5.30488,0.884146,-9.80042,-0.0550855,-1.79626,-2.0122,1.21951,7.89634
6557.89,12.0678,-7.56864,0,1.94476,9.69743,-0.129331,2.10366,4.63415,0.304878,-9.80521,0.0167651,-1.72681,-2.19512,1.31098,7.77439
6557.9,12.0216,-7.7332,0,1.90644,9.69504,-0.261057,1.55488,3.14024,-0.396341,-9.7621,0.0718506,-1.75794,-2.31707,1.12805,7.92683
6557.91,11.9745,-7.88231,0,1.87051,9.75491,-0.282612,1.70732,2.13415,-1.43293,-9.8076,0.0838257,-1.7292,-2.34756,0.945122,8.23171
6557.92,11.9275,-8.04942,0,1.8777,9.76449,-0.256267,0.853659,0.945122,-2.10366,-9.82677,0.172441,-1.76273,-2.59146,0.670732,8.35366
6557.93,11.87,-8.20777,0,1.85375,9.7621,-0.129331,-0.182927,-1.09756,-3.32317,-9.87227,0.134121,-1.76034,-2.5,0.518293,8.96341
6557.94,11.8308,-8.39476,0,1.96631,9.69504,-0.174836,-0.640244,-3.14024,-3.10976,-10.0567,-0.0359253,-1.86093,-2.83537,0.182927,9.17683
6557.95,11.8223,-8.58893,0,2.16749,9.57289,-0.273032,-0.335366,-2.92683,-2.95732,-10.1285,-0.131726,-1.90165,-2.31707,0,8.62805
6557.96,11.8428,-8.8112,0,2.34233,9.57768,-0.340093,-1.06707,-2.0122,-2.46951,-10.1094,-0.107776,-2.01661,-1.09756,0.0914634,8.2622
6557.97,11.8864,-8.99925,0,2.38544,9.49386,-0.395178,-1.31098,-0.304878,-1.76829,-10.0758,-0.0167651,-1.99266,0.121951,0.213415,8.47561
6557.98,11.9468,-9.16642,0,2.4549,9.45793,-0.390388,-0.365854,-0.396341,-1.58537,-9.99202,0.0335303,-1.90404,0.670732,0,8.38415
6557.99,12.0035,-9.25271,0,2.39502,9.52499,-0.376018,-0.213415,0.243902,-1.21951,-9.91059,0.0718506,-1.7771,0.792683,-0.243902,8.32317
6558,12.0366,-9.32784,0,2.30401,9.52739,-0.409548,0.0914634,0.640244,-1.43293,-9.82437,0.0598755,-1.76992,1.09756,-0.518293,8.44512
6558.01,12.0487,-9.37211,0,2.24413,9.58487,-0.273032,1.03659,1.25,-1.82927,-9.81719,0.122146,-1.71004,0.97561,-0.487805,8.23171
6558.02,12.0384,-9.43115,0,2.15312,9.65432,-0.287402,0.548781,0.701219,-2.31707,-9.8603,0.119751,-1.76752,0.884146,-0.579268,7.92683
6558.03,12.0301,-9.48211,0,2.1627,9.56092,-0.328118,-0.182927,-0.640244,-2.53049,-9.95131,0.107776,-1.78908,1.28049,-0.731707,7.71341
6558.04,12.0284,-9.52544,0,2.22497,9.50823,-0.340093,0.27439,-0.97561,-2.80488,-9.99442,0.110171,-1.79626,1.31098,-0.914634,7.53049
6558.05,12.031,-9.56587,0,2.213,9.59684,-0.352068,-0.304878,-0.579268,-2.13415,-9.98963,0.122146,-1.80345,0.823171,-1.12805,7.53049
6558.06,12.0278,-9.61467,0,2.16749,9.5705,-0.301772,-0.884146,-2.19512,-2.16463,-9.92736,0.105381,-1.79866,0.792683,-0.670732,7.62195
6558.07,12.0395,-9.66383,0,2.2609,9.54655,-0.344883,-0.884146,-2.71341,-2.10366,-9.87467,0.0814307,-1.78908,0.701219,-0.548781,7.5
6558.08,12.0482,-9.69188,0,2.26569,9.57289,-0.349673,-0.670732,-2.9878,-2.2561,-9.82677,0.112566,-1.73878,0.670732,-0.579268,7.2561
6558.09,12.064,-9.7168,0,2.29682,9.54415,-0.320933,-1.12805,-2.80488,-2.13415,-9.84114,0.114961,-1.74118,0.914634,-0.640244,7.19512
6558.1,12.0695,-9.76393,0,2.26808,9.55373,-0.359253,-1.15854,-2.9878,-2.5,-9.81,0.112566,-1.79387,0.914634,-0.670732,6.85976
6558.11,12.0938,-9.77941,0,2.35191,9.45793,-0.366438,-0.853659,-3.53659,-2.2561,-9.79084,0.105381,-1.72202,1.21951,-0.670732,7.04268
6558.12,12.1391,-9.7973,0,2.44052,9.41961,-0.354463,-0.579268,-3.04878,-1.92073,-9.79563,0.100591,-1.73639,1.82927,-0.914634,7.04268
6558.13,12.2082,-9.80803,0,2.46927,9.43398,-0.273032,-0.304878,-2.28659,-1.25,-9.81,0.129331,-1.72441,1.67683,-1.0061,6.98171
6558.14,12.2616,-9.79065,0,2.40939,9.51781,-0.421523,0.335366,-1.31098,-1.15854,-9.84832,0.153281,-1.65496,2.04268,-1.0061,7.07317
6558.15,12.2958,-9.76842,0,2.31598,9.55613,-0.383203,0.548781,-0.731707,-1.09756,-9.89143,0.129331,-1.63819,1.98171,-1.31098,7.37805
6558.16,12.3093,-9.72724,0,2.24413,9.57289,-0.359253,0.823171,-0.121951,-1.37195,-9.87706,0.165256,-1.57353,2.13415,-1.31098,6.95122
6558.17,12.2984,-9.69867,0,2.13636,9.64714,-0.340093,0.548781,0.487805,-1.61585,-9.9082,0.174836,-1.60945,1.40244,-1.31098,6.85976
6558.18,12.2778,-9.69294,0,2.07409,9.60163,-0.308958,0.396341,0.27439,-1.82927,-9.83395,0.191602,-1.66454,1.09756,-1.25,6.61585
6558.19,12.2635,-9.66359,0,2.14833,9.61121,-0.301772,-0.304878,-0.426829,-2.2561,-9.82437,0.201182,-1.59748,0.884146,-1.03659,6.67683
6558.2,12.2551,-9.65946,0,2.13157,9.61121,-0.155676,-0.548781,-1.58537,-1.55488,-9.77407,0.165256,-1.65496,0.731707,-0.762195,6.92073
6558.21,12.2647,-9.67375,0,2.22018,9.59684,-0.294587,-0.884146,-1.25,-1.37195,-9.78605,0.167651,-1.70286,0.914634,-0.853659,6.82927
6558.22,12.2726,-9.70498,0,2.18905,9.58008,-0.227527,-1.03659,-1.67683,-1.18902,-9.75491,0.114961,-1.7316,1.09756,-0.548781,6.58537
6558.23,12.2818,-9.72831,0,2.20342,9.63277,-0.198787,-1.03659,-1.89024,-1.09756,-9.82197,0.0502954,-1.72441,1.79878,-0.213415,6.92073
6558.24,12.2869,-9.76577,0,2.19384,9.60163,-0.347278,-1.21951,-1.64634,-1.31098,-9.77647,0.0694556,-1.75076,2.13415,-0.335366,6.89024
6558.25,12.2887,-9.77724,0,2.213,9.57289,-0.325723,-0.853659,-2.16463,-1.79878,-9.79803,0.134121,-1.70765,2.37805,-0.182927,7.10366
6558.26,12.2854,-9.81769,0,2.20581,9.55613,-0.263452,-0.548781,-2.10366,-2.13415,-9.81719,0.186812,-1.77471,2.40854,-0.335366,7.13415
6558.27,12.2861,-9.82363,0,2.22737,9.5681,-0.273032,-0.731707,-1.7378,-2.04268,-9.8555,0.158071,-1.71723,2.53049,-0.213415,7.2561
6558.28,12.3018,-9.84886,0,2.26569,9.5226,-0.196392,-0.609756,-2.04268,-1.58537,-9.92257,0.172441,-1.76992,3.10976,-0.213415,7.43902
6558.29,12.3167,-9.86758,0,2.27527,9.51302,-0.229922,-0.609756,-1.79878,-1.70732,-9.90341,0.225132,-1.75794,3.14024,-0.243902,7.37805
6558.3,12.3558,-9.89824,0,2.35191,9.51541,-0.208367,-1.0061,-1.95122,-1.18902,-9.92496,0.256267,-1.79387,3.10976,-0.335366,7.43902
6558.31,12.381,-9.92251,0,2.31119,9.54176,-0.275427,-0.548781,-1.55488,-1.34146,-9.92496,0.263452,-1.78189,3.10976,-0.213415,7.43902
6558.32,12.381,-9.90698,0,2.22737,9.56571,-0.301772,-0.335366,-1.0061,-1.92073,-9.94412,0.220342,-1.70525,2.83537,-0.365854,7.34756
6558.33,12.3739,-9.87944,0,2.20102,9.61361,-0.265847,-0.365854,-1.15854,-2.04268,-9.96807,0.229922,-1.6837,2.31707,-0.213415,6.98171
6558.34,12.3641,-9.8511,0,2.19144,9.616,-0.306563,-0.152439,-1.15854,-2.16463,-9.93694,0.184417,-1.66454,2.59146,-0.487805,6.92073
6558.35,12.3558,-9.81554,0,2.213,9.59924,-0.256267,-0.213415,-0.823171,-2.34756,-9.9537,0.213157,-1.63101,2.31707,-0.853659,6.82927
6558.36,12.3543,-9.76402,0,2.24892,9.60403,-0.215552,-0.365854,-1.58537,-2.19512,-9.92017,0.282612,-1.57592,1.98171,-0.884146,6.98171
6558.37,12.355,-9.74058,0,2.27766,9.6184,-0.253872,-0.121951,-1.34146,-2.28659,-9.88425,0.261057,-1.62861,1.58537,-1.31098,7.19512
6558.38,12.3513,-9.72586,0,2.22258,9.55373,-0.325723,-0.27439,-0.579268,-2.22561,-9.85311,0.261057,-1.64777,1.40244,-1.25,7.34756
6558.39,12.3373,-9.70855,0,2.17947,9.5681,-0.325723,0.182927,0.0304878,-2.56098,-9.8555,0.249082,-1.6358,1.12805,-1.37195,7.28659
6558.4,12.3208,-9.68339,0,2.18665,9.59445,-0.277822,-0.27439,-0.27439,-2.83537,-9.90101,0.220342,-1.60945,0.823171,-1.61585,7.5
6558.41,12.3091,-9.66151,0,2.22258,9.56092,-0.292192,-0.548781,-1.03659,-2.92683,-9.90101,0.229922,-1.61185,0.579268,-1.89024,7.5
6558.42,12.3103,-9.64332,0,2.28964,9.53936,-0.337698,-0.609756,-1.92073,-2.65244,-9.91059,0.213157,-1.62143,0.426829,-2.0122,7.37805
6558.43,12.3284,-9.62467,0,2.36149,9.56092,-0.261057,-0.518293,-1.61585,-2.10366,-9.92975,0.184417,-1.61903,0.365854,-2.04268,7.19512
6558.44,12.3483,-9.61524,0,2.33993,9.53697,-0.292192,-0.731707,-1.18902,-1.85976,-9.91778,0.191602,-1.64777,0.121951,-2.16463,7.07317
6558.45,12.3732,-9.60871,0,2.34233,9.48188,-0.256267,0.182927,-0.640244,-1.7378,-9.82916,0.203577,-1.64298,0.518293,-2.07317,6.82927
6558.46,12.3901,-9.60643,0,2.29443,9.47949,-0.270637,0.548781,-0.670732,-1.7378,-9.82677,0.229922,-1.65735,0.304878,-1.67683,7.2561
6558.47,12.4011,-9.59828,0,2.30161,9.54176,-0.373623,0.121951,0.365854,-1.95122,-9.81,0.227527,-1.6334,0.518293,-1.85976,6.76829
6558.48,12.4008,-9.5907,0,2.23695,9.56331,-0.337698,0.609756,0.853659,-2.0122,-9.79084,0.261057,-1.6334,0.152439,-1.40244,6.79878
6558.49,12.3791,-9.56798,0,2.17707,9.64474,-0.239502,0.27439,0.548781,-2.92683,-9.81719,0.253872,-1.5855,-0.121951,-1.58537,6.7378
6558.5,12.3659,-9.5454,0,2.20342,9.55852,-0.330513,0.121951,0.548781,-2.7439,-9.86269,0.241897,-1.5879,-0.457317,-1.61585,6.79878
6558.51,12.3613,-9.52142,0,2.29203,9.58008,-0.306563,-0.182927,0.335366,-2.92683,-9.92017,0.251477,-1.58311,-0.640244,-1.85976,6.76829
6558.52,12.3643,-9.52553,0,2.32077,9.5202,-0.323328,0.0914634,-0.0304878,-2.77439,-9.94652,0.205972,-1.68609,-0.701219,-2.19512,6.76829
6558.53,12.3813,-9.52476,0,2.38065,9.49386,-0.330513,0.213415,-0.365854,-2.40854,-9.98244,0.189207,-1.67412,-0.731707,-2.40854,6.61585
6558.54,12.4054,-9.53412,0,2.37107,9.50344,-0.277822,0.152439,0.457317,-1.89024,-9.98484,0.184417,-1.71483,-0.762195,-2.37805,6.64634
6558.55,12.4353,-9.53025,0,2.38783,9.52739,-0.352068,-0.121951,0.243902,-1.64634,-9.94652,0.172441,-1.65735,-0.579268,-2.40854,6.4939
6558.56,12.4636,-9.52347,0,2.37107,9.54415,-0.364043,0.518293,0.731707,-1.52439,-9.91299,0.189207,-1.64059,-0.609756,-2.07317,6.25
6558.57,12.4673,-9.51768,0,2.2609,9.56331,-0.383203,0.213415,0.731707,-1.85976,-9.8555,0.210762,-1.6334,-0.823171,-2.22561,6.28049
6558.58,12.4554,-9.5047,0,2.19863,9.59924,-0.368833,0.762195,0.914634,-2.28659,-9.85311,0.203577,-1.60706,-1.15854,-1.92073,6.28049
6558.59,12.4339,-9.49497,0,2.14833,9.64474,-0.313748,0.457317,1.12805,-2.43902,-9.80521,0.191602,-1.61185,-0.945122,-1.4939,6.58537
6558.6,12.4077,-9.48656,0,2.1627,9.58487,-0.261057,0.365854,0.792683,-3.29268,-9.83635,0.244292,-1.61903,-1.52439,-1.52439,6.0061
6558.61,12.3893,-9.48375,0,2.22018,9.56571,-0.282612,0.701219,0.640244,-3.32317,-9.87946,0.227527,-1.64298,-1.67683,-1.46341,6.34146
6558.62,12.3746,-9.47529,0,2.28245,9.57529,-0.325723,-0.0304878,0.670732,-3.68902,-9.96568,0.196392,-1.64059,-2.16463,-1.03659,5.94512
6558.63,12.3784,-9.48137,0,2.36149,9.45314,-0.306563,0.27439,0.396341,-3.2622,-9.94891,0.196392,-1.67891,-2.68293,-0.97561,5.70122
6558.64,12.387,-9.4881,0,2.38544,9.49865,-0.325723,-0.0914634,0.884146,-2.9878,-9.88904,0.186812,-1.66933,-2.5,-0.731707,5.73171
6558.65,12.3971,-9.4651,0,2.37346,9.48188,-0.277822,0.0304878,0.579268,-2.80488,-9.88185,0.167651,-1.59269,-2.16463,-0.792683,5.60976
6558.66,12.4099,-9.44792,0,2.34472,9.4723,-0.347278,-0.304878,0.823171,-2.37805,-9.89143,0.165256,-1.59508,-2.65244,-1.40244,6.03659
6558.67,12.4279,-9.42172,0,2.31838,9.43638,-0.383203,-0.518293,1.15854,-1.92073,-9.83874,0.148491,-1.54958,-2.5,-1.70732,5.85366
6558.68,12.4601,-9.38222,0,2.34472,9.46751,-0.299377,-0.487805,0.884146,-1.37195,-9.8124,0.0910107,-1.49689,-2.40854,-1.70732,5.30488
6558.69,12.478,-9.34427,0,2.28245,9.52739,-0.399968,-0.792683,0.792683,-1.34146,-9.77168,0.112566,-1.4921,-2.7439,-1.64634,5.09146
6558.7,12.4916,-9.32725,0,2.2585,9.56571,-0.383203,-0.640244,0.304878,-1.21951,-9.70941,0.150886,-1.54958,-2.7439,-1.31098,5.09146
6558.71,12.498,-9.32281,0,2.29682,9.56092,-0.356858,0.121951,0.121951,-1.98171,-9.71899,0.138911,-1.5855,-2.77439,-1.03659,5.27439
6558.72,12.4972,-9.3182,0,2.28964,9.62079,-0.361648,0.365854,0.792683,-2.2561,-9.7142,0.122146,-1.5855,-2.56098,-0.548781,5.51829
6558.73,12.4882,-9.2927,0,2.21779,9.63037,-0.347278,0.304878,1.40244,-2.10366,-9.74294,0.0407153,-1.55676,-2.46951,-0.0914634,5.45732
6558.74,12.4625,-9.30784,0,2.15073,9.6184,-0.311353,0.27439,1.15854,-2.89634,-9.80521,0.0359253,-1.63101,-2.43902,0.121951,5.36585
6558.75,12.4376,-9.35044,0,2.15552,9.59445,-0.285007,0.304878,0.518293,-2.9878,-9.8579,0.0383203,-1.70525,-2.31707,0.365854,5.45732
6558.76,12.4148,-9.38338,0,2.19144,9.57529,-0.325723,0.365854,0.609756,-3.32317,-9.84593,0.0598755,-1.70286,-2.22561,0.731707,5.70122
6558.77,12.3929,-9.41883,0,2.23695,9.63037,-0.368833,0.182927,1.09756,-3.65854,-9.9058,0.0502954,-1.71962,-2.34756,0.518293,5.70122
6558.78,12.3659,-9.45345,0,2.19863,9.57289,-0.349673,-0.0304878,1.03659,-3.90244,-9.94412,0.0119751,-1.74357,-2.16463,0.823171,5.97561
6558.79,12.3439,-9.48004,0,2.22018,9.54415,-0.371228,0.27439,0.731707,-3.81098,-9.96328,0.0191602,-1.7316,-1.89024,0.823171,5.79268
6558.8,12.3291,-9.50188,0,2.26329,9.50583,-0.330513,0.121951,0.609756,-3.75,-9.98005,0.0167651,-1.7292,-1.70732,0.945122,5.4878
6558.81,12.3287,-9.52419,0,2.33754,9.50104,-0.349673,-0.0609756,0.609756,-3.32317,-9.94891,0.0574805,-1.72202,-1.34146,0.670732,5.39634
6558.82,12.3455,-9.52816,0,2.43334,9.51541,-0.397573,-0.518293,1.0061,-2.86585,-9.93454,0.100591,-1.67651,-0.823171,0.731707,5.70122
6558.83,12.3543,-9.50175,0,2.36149,9.5705,-0.426313,-0.335366,2.77439,-2.62195,-9.87467,0.0790356,-1.60227,-0.487805,0.335366,5.82317
6558.84,12.3514,-9.48453,0,2.28964,9.59445,-0.428708,0.213415,2.9878,-2.7439,-9.87467,0.0766406,-1.61424,-1.0061,0.457317,5.64024
6558.85,12.3353,-9.47461,0,2.213,9.62319,-0.416733,0,3.20122,-2.9878,-9.86748,0.0790356,-1.62622,-1.0061,0.457317,5.57927
6558.86,12.3057,-9.45988,0,2.12438,9.59205,-0.376018,0.243902,3.20122,-3.35366,-9.87706,0.0790356,-1.61424,-1.06707,0.518293,5.60976
6558.87,12.2691,-9.44108,0,2.10283,9.59205,-0.308958,0.304878,1.92073,-3.87195,-9.91778,0.0958008,-1.60945,-1.28049,0.457317,5.39634
6558.88,12.2355,-9.40886,0,2.10522,9.63037,-0.361648,-0.152439,1.03659,-3.56707,-9.93454,0.0814307,-1.59029,-1.12805,-0.121951,5.45732
6558.89,12.2075,-9.39998,0,2.1148,9.61361,-0.239502,-0.426829,-0.304878,-3.23171,-9.9082,0.0670605,-1.62622,-1.31098,0,5.45732
6558.9,12.184,-9.38631,0,2.12678,9.63995,-0.225132,-0.853659,-0.640244,-2.92683,-9.89383,0.0191602,-1.60945,-1.40244,-0.335366,5.4878
6558.91,12.1653,-9.38235,0,2.17228,9.55373,-0.390388,-0.518293,-0.152439,-3.29268,-9.87467,0.0119751,-1.62382,-1.18902,-0.487805,5.15244
6558.92,12.1518,-9.40301,0,2.19384,9.5681,-0.359253,-1.18902,0.853659,-3.04878,-9.84832,0.0407153,-1.66933,-0.853659,-0.304878,5.54878
6558.93,12.1329,-9.43807,0,2.15073,9.55852,-0.330513,-0.945122,0.945122,-3.10976,-9.82197,0.0287402,-1.70525,-0.670732,-0.518293,5.33537
6558.94,12.1185,-9.44646,0,2.20342,9.58487,-0.289797,-1.40244,0.0609756,-3.2622,-9.84353,0.0431104,-1.65256,-0.304878,-0.213415,5.57927
6558.95,12.1111,-9.42693,0,2.25132,9.55373,-0.402363,-1.31098,0.213415,-3.2622,-9.83395,0.0574805,-1.59508,-0.304878,-0.426829,5.88415
6558.96,12.1176,-9.4167,0,2.31838,9.57289,-0.383203,-1.55488,0.152439,-2.77439,-9.85072,0.0670605,-1.61424,0.213415,-0.396341,5.88415
6558.97,12.1366,-9.41228,0,2.36388,9.5226,-0.256267,-1.37195,0.213415,-2.43902,-9.84593,0.0263452,-1.62382,0,-0.426829,5.91463
6558.98,12.1531,-9.40251,0,2.30161,9.47709,-0.301772,-0.762195,0.731707,-2.16463,-9.86509,0.0191602,-1.60945,0.0609756,-0.945122,5.91463
6558.99,12.1494,-9.40393,0,2.19863,9.55373,-0.270637,-0.457317,1.7378,-2.34756,-9.85311,0.0143701,-1.6358,0.640244,-0.731707,5.70122
6559,12.134,-9.41519,0,2.11241,9.5681,-0.304167,-0.579268,2.10366,-2.31707,-9.85072,0.0383203,-1.65735,1.0061,-0.518293,5.51829
6559.01,12.1018,-9.44761,0,2.05014,9.61361,-0.289797,-0.823171,2.0122,-3.07927,-9.85072,0.0574805,-1.70525,0.914634,-0.457317,5.4878
6559.02,12.0561,-9.46249,0,1.99984,9.65672,-0.220342,-0.518293,1.40244,-3.81098,-9.8579,0.107776,-1.67412,0.853659,-0.487805,5.73171
6559.03,12.0047,-9.4572,0,1.98068,9.70941,-0.277822,-1.21951,0.731707,-4.14634,-9.86988,0.146096,-1.6334,0.945122,-0.518293,5.64024
6559.04,11.9545,-9.46455,0,2.02379,9.63995,-0.244292,-1.21951,0,-4.81707,-9.89383,0.110171,-1.66693,0.548781,-0.670732,6.06707
6559.05,11.9259,-9.44473,0,2.17707,9.62319,-0.323328,-1.18902,-1.06707,-4.57317,-9.93454,0.107776,-1.60227,0.548781,-0.884146,6.09756
6559.06,11.9128,-9.42149,0,2.28006,9.5681,-0.313748,-0.914634,-0.762195,-4.42073,-9.94412,0.0550855,-1.58311,0.457317,-1.21951,6.34146
6559.07,11.9052,-9.40685,0,2.27766,9.54655,-0.323328,-0.853659,1.03659,-3.96341,-9.94652,-0.0143701,-1.60227,0.396341,-1.52439,6.40244
6559.08,11.8973,-9.40054,0,2.23934,9.57289,-0.373623,-1.03659,2.16463,-3.53659,-9.93215,-0.00958008,-1.62622,0.243902,-1.37195,6.89024
6559.09,11.8797,-9.39692,0,2.1627,9.51302,-0.308958,-1.25,1.61585,-3.75,-9.90101,-0.0407153,-1.62861,-0.0304878,-1.46341,6.85976
6559.1,11.8561,-9.42393,0,2.12917,9.58726,-0.287402,-1.25,1.43293,-3.78049,-9.90101,-0.0191602,-1.72441,0.731707,-1.28049,6.82927
6559.11,11.8243,-9.4315,0,2.09564,9.57529,-0.328118,-1.18902,1.61585,-4.26829,-9.87227,0.0239502,-1.66454,0.609756,-1.46341,6.70732
6559.12,11.7931,-9.43348,0,2.09325,9.65193,-0.340093,-1.43293,1.18902,-4.05488,-9.84114,0.0574805,-1.64298,0.914634,-1.70732,6.67683
6559.13,11.7682,-9.42519,0,2.13636,9.60403,-0.354463,-1.18902,0,-4.11585,-9.8603,0.0646655,-1.60945,1.06707,-2.07317,6.67683
6559.14,11.7441,-9.40979,0,2.1627,9.59205,-0.296982,-1.34146,-0.365854,-4.42073,-9.90341,0.0431104,-1.5855,1.0061,-2.43902,6.85976
6559.15,11.7248,-9.39212,0,2.1651,9.56092,-0.308958,-1.82927,-0.304878,-4.11585,-9.87946,0.0335303,-1.56874,0.97561,-2.65244,7.16463
6559.16,11.7232,-9.36987,0,2.25132,9.51062,-0.268242,-1.46341,-0.426829,-3.59756,-9.90101,-0.0335303,-1.54958,1.15854,-2.77439,7.28659
6559.17,11.7201,-9.36849,0,2.22976,9.59445,-0.227527,-2.13415,0.335366,-3.29268,-9.87467,-0.0790356,-1.62622,1.37195,-2.71341,7.10366
6559.18,11.7122,-9.37675,0,2.1627,9.55613,-0.258662,-2.53049,-0.304878,-3.10976,-9.86748,-0.0646655,-1.66214,1.40244,-2.37805,6.79878
6559.19,11.7114,-9.38419,0,2.2106,9.50104,-0.249082,-2.31707,-0.914634,-3.17073,-9.81719,-0.0670605,-1.65017,1.40244,-2.07317,6.82927
6559.2,11.6979,-9.38771,0,2.1627,9.56331,-0.277822,-2.56098,-0.823171,-3.59756,-9.79084,-0.0119751,-1.6334,1.28049,-2.31707,6.89024
6559.21,11.6901,-9.37996,0,2.20821,9.56571,-0.407153,-2.43902,-0.548781,-3.59756,-9.80281,0.0287402,-1.59269,1.46341,-2.53049,6.7378
6559.22,11.6819,-9.37165,0,2.20821,9.56092,-0.311353,-2.43902,-0.945122,-3.65854,-9.83635,0.0215552,-1.59508,1.31098,-2.34756,6.95122
6559.23,11.6741,-9.3576,0,2.20342,9.53457,-0.421523,-2.34756,-1.34146,-3.65854,-9.81719,0.00958008,-1.56634,0.853659,-2.77439,6.67683
6559.24,11.6682,-9.35232,0,2.21779,9.54655,-0.380808,-2.31707,-0.823171,-3.62805,-9.88185,0.0119751,-1.60945,0.701219,-2.71341,6.43293
6559.25,11.6616,-9.35717,0,2.22976,9.55373,-0.397573,-2.53049,-0.670732,-3.81098,-9.84593,0.0167651,-1.64298,0.426829,-2.56098,6.52439
6559.26,11.66,-9.37563,0,2.29922,9.48188,-0.316143,-2.31707,0.182927,-4.29878,-9.86269,0.0407153,-1.70046,0.0914634,-2.53049,6.4939
6559.27,11.6598,-9.39788,0,2.29443,9.51781,-0.313748,-2.53049,-0.27439,-4.02439,-9.85072,0.0431104,-1.71483,0.457317,-2.37805,6.43293
6559.28,11.6535,-9.41505,0,2.27048,9.51781,-0.407153,-2.62195,0.731707,-4.32927,-9.92496,-0.0191602,-1.71004,0.243902,-2.13415,6.46341
6559.29,11.6387,-9.45081,0,2.24892,9.50583,-0.390388,-2.37805,1.52439,-4.93902,-9.90101,-0.00479004,-1.78668,0.121951,-2.5,6.43293
6559.3,11.606,-9.47363,0,2.13875,9.52739,-0.313748,-2.13415,2.37805,-5.42683,-9.93454,0,-1.75076,0.365854,-2.83537,6.25
6559.31,11.5622,-9.47947,0,2.10762,9.61121,-0.354463,-2.56098,2.68293,-6.03659,-9.91538,-0.0215552,-1.6813,0.0609756,-2.89634,6.37195
6559.32,11.5081,-9.48833,0,2.04774,9.56331,-0.359253,-2.59146,2.77439,-6.58537,-9.90101,-0.0407153,-1.69328,-0.670732,-3.17073,6.28049
6559.33,11.4618,-9.51026,0,2.13396,9.58487,-0.277822,-2.77439,1.4939,-6.85976,-9.91778,-0.0838257,-1.75315,-0.731707,-3.17073,6.15854
6559.34,11.418,-9.52199,0,2.20102,9.63516,-0.328118,-2.95732,1.92073,-7.34756,-9.9082,-0.124541,-1.71244,-1.03659,-3.23171,6.43293
6559.35,11.3736,-9.53948,0,2.213,9.59205,-0.308958,-2.80488,2.80488,-7.7439,-9.88425,-0.143701,-1.73639,-1.03659,-3.62805,6.67683
6559.36,11.3292,-9.5635,0,2.20342,9.59445,-0.285007,-2.59146,3.65854,-7.71341,-9.88664,-0.158071,-1.76992,-0.609756,-4.02439,6.92073
6559.37,11.2758,-9.59122,0,2.15073,9.51781,-0.316143,-2.46951,4.05488,-8.32317,-9.88664,-0.170046,-1.79147,-0.0914634,-4.32927,7.40854
6559.38,11.2126,-9.61803,0,2.08846,9.52978,-0.340093,-2.53049,4.78659,-8.65854,-9.89383,-0.112566,-1.79387,0,-4.35976,7.46951
6559.39,11.1492,-9.62248,0,2.09325,9.51781,-0.318538,-2.62195,4.05488,-8.90244,-9.89622,-0.0862207,-1.70046,-0.182927,-4.39024,7.83537
6559.4,11.0884,-9.6269,0,2.12917,9.54415,-0.275427,-3.75,3.68902,-9.11585,-9.89143,-0.0574805,-1.70046,-0.518293,-4.5122,8.2622
6559.41,11.0248,-9.6203,0,2.08606,9.58008,-0.277822,-4.35976,3.10976,-8.93293,-9.93454,-0.0550855,-1.65975,-1.18902,-4.08537,8.65854
6559.42,10.9612,-9.61334,0,2.10283,9.64714,-0.215552,-4.90854,2.46951,-9.08537,-9.95131,-0.124541,-1.65975,-1.61585,-3.84146,8.96341
6559.43,10.9014,-9.59021,0,2.10043,9.69025,-0.268242,-5.64024,1.76829,-8.68902,-10.0303,-0.244292,-1.59987,-2.43902,-4.11585,8.75
6559.44,10.8354,-9.56845,0,2.05493,9.69983,-0.292192,-6.18902,1.28049,-8.90244,-9.98963,-0.301772,-1.59508,-2.5,-4.42073,8.53659
6559.45,10.7728,-9.55271,0,2.04056,9.72857,-0.198787,-6.98171,0.0609756,-8.44512,-9.99681,-0.344883,-1.61903,-2.5,-4.90854,9.11585
6559.46,10.7042,-9.54246,0,1.95194,9.57529,-0.361648,-7.2561,-3.96341,-8.53659,-9.93694,-0.323328,-1.63101,-2.34756,-5.03049,9.57317
6559.47,10.6628,-9.51013,0,2.19863,9.41243,-0.376018,-5.64024,-4.60366,-9.20732,-9.88664,-0.313748,-1.52323,-2.0122,-5.73171,10.061
6559.48,10.6188,-9.47601,0,2.10522,9.46512,-0.0383203,-7.5,-3.56707,-8.32317,-9.78605,-0.270637,-1.49449,-1.95122,-6.46341,10.5183
6559.49,10.641,-9.42601,0,2.44531,9.4268,-0.179626,-9.42073,-5.70122,-5.79268,-9.77647,-0.229922,-1.41785,-1.85976,-7.46951,11.0976
6559.5,10.6536,-9.34424,0,2.29443,9.41961,-0.59157,-7.40854,-10.2134,-5.03049,-9.78844,-0.184417,-1.27176,-2.56098,-8.23171,11.311
6559.51,10.645,-9.26002,0,2.26329,9.71899,-0.359253,-7.28659,-11.9817,-5.91463,-9.84832,-0.162861,-1.25499,-3.07927,-8.93293,11.4634
6559.52,10.7021,-9.14512,0,2.66566,9.48667,-0.244292,-10.2134,-14.0854,-4.66463,-9.93694,-0.198787,-1.11608,-3.9939,-10,11.4634
6559.53,10.909,-9.02581,0,3.07521,9.18729,-0.565225,-11.372,-17.8659,-1.64634,-10.0279,-0.261057,-1.08734,-4.14634,-11.3415,11.3415
6559.54,11.1794,-8.9084,0,3.55181,9.03401,-0.399968,-12.3476,-19.939,2.62195,-10.0735,-0.352068,-1.08015,-4.32927,-12.0122,10.5488
6559.55,11.5188,-8.80868,0,3.9901,9.04838,-0.342488,-15.0305,-20.7317,8.87195,-10.0998,-0.474214,-1.14242,-3.44512,-12.7744,9.87805
6559.56,11.9589,-8.6974,0,4.25355,8.91666,-0.196392,-17.6524,-21.7378,16.372,-10.1166,-0.534089,-1.07536,-1.76829,-13.9634,9.63415
6559.57,12.5095,-8.55913,0,4.58886,8.66279,-0.210762,-19.7256,-23.3841,23.628,-10.0782,-0.57241,-0.931663,-0.518293,-15.3049,9.42073
6559.58,13.1618,-8.42114,0,4.88584,8.48076,-0.162861,-21.2805,-25,30.9756,-10.0567,-0.613125,-0.907712,1.21951,-16.7988,9.14634
6559.59,13.8929,-8.27323,0,5.02954,8.42568,0.0383203,-22.9268,-27.5915,38.5366,-10.0088,-0.696951,-0.835862,3.29268,-17.7134,8.87195
6559.6,14.6999,-8.10511,0,5.1924,8.47597,0.268242,-25.5183,-28.5366,46.4329,-10.0687,-0.783171,-0.725691,4.87805,-19.1159,7.9878
6559.61,15.5767,-7.983,0,5.35047,8.6053,0.419128,-26.9817,-29.2378,54.4207,-10.1788,-0.855022,-0.912502,6.58537,-20.4573,6.06707
6559.62,16.5077,-7.87478,0,5.4822,8.87834,0.58678,-28.4756,-25.7317,62.1037,-10.2435,-0.787961,-0.960403,9.08537,-21.4329,4.02439
6559.63,17.4721,-7.79986,0,5.50854,9.31663,0.764011,-29.5427,-21.4329,69.6646,-10.2315,-0.6251,-1.09213,11.4329,-22.1951,2.46951
6559.64,18.4697,-7.75371,0,5.7241,10.0208,0.888552,-29.878,-17.5915,76.7683,-10.1405,-0.385598,-1.1999,14.6646,-22.9878,1.7378
6559.65,19.5101,-7.72148,0,5.98276,10.6986,0.823887,-30.6402,-15.9146,84.2378,-10.1453,-0.174836,-1.25499,18.3537,-22.622,1.37195
6559.66,20.6098,-7.66603,0,6.38512,10.9788,0.61073,-31.5549,-15.3354,90.4268,-10.2172,-0.0646655,-1.152,21.4329,-22.5915,2.13415
6559.67,21.7613,-7.59858,0,6.6366,10.9117,0.354463,-31.2805,-13.811,95.6707,-10.3082,-0.0311353,-1.09692,23.3537,-22.5,2.62195
6559.68,22.9574,-7.4958,0,6.80186,10.5644,0.0910107,-30.7012,-10.7622,99.5732,-10.2986,-0.0215552,-0.922083,23.9634,-22.8659,2.95732
6559.69,24.1774,-7.3923,0,6.88089,10.5046,-0.201182,-28.5061,-4.14634,103.537,-10.107,0.205972,-0.883762,23.5366,-23.2927,3.53659
6559.7,25.3824,-7.32224,0,6.4905,10.38,-0.371228,-22.8963,4.32927,106.951,-9.80042,0.522114,-0.984353,22.439,-22.6829,3.96341
6559.71,26.5673,-7.27454,0,6.15999,10.3441,-0.471819,-16.372,14.9085,109.909,-9.51302,0.838257,-1.03704,21.1585,-20.9756,4.81707
6559.72,27.6944,-7.2554,0,5.5301,10.1477,-0.560435,-10.4268,23.0793,110.884,-9.28549,1.17116,-1.12087,18.1707,-18.5366,5.21341
6559.73,28.7237,-7.28589,0,4.74214,9.96328,-0.584385,-4.54268,28.1707,109.604,-9.2352,1.43462,-1.31487,15.3963,-15.7012,5.45732
6559.74,29.5984,-7.34668,0,3.78892,10.0687,-0.390388,0.518293,28.9939,105.793,-9.331,1.59508,-1.45857,11.9512,-12.7744,5.88415
6559.75,30.3376,-7.41501,0,3.26681,10.0064,-0.251477,6.7378,29.2683,98.9329,-9.51302,1.65256,-1.52802,8.47561,-10.7317,5.91463
6559.76,30.9033,-7.46585,0,2.43813,9.98723,0.356858,9.96951,26.7988,91.6463,-9.79084,1.62622,-1.50647,5.39634,-9.78659,5.79268
6559.77,31.3258,-7.50716,0,1.85135,9.64235,0.692161,11.5244,22.9268,83.9939,-10.0615,1.47294,-1.51365,2.65244,-9.42073,6.0061
6559.78,31.6406,-7.54523,0,1.77231,10.5141,0.811912,12.7439,20.6098,76.5244,-10.2076,1.25739,-1.52802,0.121951,-9.14634,6.95122
6559.79,31.9167,-7.56707,0,2.07169,10.1764,0.677791,9.54268,20.6707,69.2683,-10.3249,1.04183,-1.47773,-1.89024,-9.72561,8.78049
6559.8,32.1961,-7.57446,0,2.65608,9.70701,0.993933,7.37805,20.7927,62.4085,-10.4327,0.785566,-1.42983,-2.43902,-10.1524,10.7012
6559.81,32.5062,-7.58848,0,3.1758,9.1346,1.6358,7.43902,16.1585,58.2317,-10.4543,0.555645,-1.46575,-2.62195,-10.6707,13.2012
6559.82,32.8887,-7.59831,0,3.93023,8.98132,1.85614,6.58537,15.1829,57.1341,-10.3992,0.368833,-1.4418,-2.13415,-11.4329,15
6559.83,33.3413,-7.59609,0,4.65113,8.8472,1.6358,3.07927,19.6037,56.7073,-10.2291,0.289797,-1.36516,-0.762195,-12.0122,16.0061
6559.84,33.8247,-7.57803,0,4.99362,8.54303,1.47533,1.85976,24.8476,55.5183,-10.0232,0.304167,-1.26697,-0.152439,-12.9573,15.9146
6559.85,34.2919,-7.54755,0,5.01278,8.25563,1.53042,2.83537,27.7439,52.8963,-9.77647,0.323328,-1.17835,1.43293,-13.0183,15.9451
6559.86,34.7175,-7.5129,0,4.82836,8.16702,1.61664,4.93902,31.5854,50.9756,-9.67348,0.361648,-1.14242,2.5,-12.7134,15.3049
6559.87,35.0668,-7.45942,0,4.44037,8.15025,1.55437,6.67683,36.25,48.1707,-9.6639,0.390388,-1.05381,4.11585,-12.2561,14.5122
6559.88,35.3381,-7.38057,0,4.0883,8.24605,1.62143,7.22561,40.4573,45.4268,-9.74773,0.488584,-0.943638,5.67073,-12.3476,13.9634
6559.89,35.5678,-7.289,0,3.98292,8.11912,1.81303,7.0122,44.2378,42.2256,-9.89862,0.56283,-0.888552,6.12805,-12.378,13.3537
6559.9,35.7758,-7.17633,0,3.93981,7.86045,2.02379,7.9878,44.4512,39.4817,-10.0591,0.670605,-0.792751,6.15854,-12.5915,12.2866
6559.91,35.9565,-7.06061,0,4.05716,7.99697,2.24653,7.56098,43.3841,36.5549,-10.1237,0.795146,-0.764011,5.39634,-12.439,11.7073
6559.92,36.1511,-6.96371,0,4.1817,7.68562,2.3088,7.46951,40.6707,34.9695,-10.0758,0.890947,-0.823887,4.57317,-12.3171,10.9451
6559.93,36.3811,-6.87654,0,4.43558,7.30481,2.07169,6.70732,36.7988,33.4451,-9.93215,0.960403,-0.838257,4.45122,-12.5,10.3049
6559.94,36.5119,-6.82164,0,4.02124,7.84369,2.09804,3.96341,25.9146,32.1951,-9.81,1.03465,-0.953218,3.62805,-12.0732,9.78659
6559.95,36.67,-6.77831,0,4.20565,7.5491,1.88249,-0.762195,15.7317,31.2195,-9.66869,1.02986,-0.979563,3.14024,-11.6159,10
6559.96,36.8168,-6.739,0,4.3302,7.51557,1.59748,-4.48171,5.60976,28.689,-9.64235,1.02507,-0.986748,2.46951,-11.5854,9.78659
6559.97,36.9815,-6.69541,0,4.54335,7.2593,1.37474,-7.7439,-3.20122,26.5549,-9.65432,0.984353,-0.962798,2.2561,-11.4939,9.72561
6559.98,37.1145,-6.65729,0,4.5673,7.0701,1.22146,-7.9878,-14.2073,21.9817,-9.63995,0.960403,-0.977168,1.25,-11.189,9.78659
6559.99,37.2524,-6.6233,0,4.6655,6.66294,1.03704,-5.67073,-22.6829,18.3841,-9.55852,0.917292,-0.979563,0.243902,-10.5488,9.81707
6560,37.3743,-6.5896,0,4.65831,6.44739,0.989143,-2.86585,-27.2866,15.3049,-9.58487,0.914897,-0.977168,-1.12805,-9.81707,9.39024
6560.01,37.4988,-6.58921,0,4.96727,6.3971,0.828677,-0.0914634,-29.6951,11.7683,-9.58726,0.979563,-1.11368,-2.62195,-9.32927,9.32927
6560.02,37.6465,-6.58365,0,5.34329,6.29411,0.905317,0.792683,-30.8232,9.29878,-9.65911,1.03704,-1.09931,-4.02439,-8.93293,9.20732
6560.03,37.8046,-6.55388,0,5.8678,6.35638,0.756826,0.121951,-32.1341,5.54878,-9.77168,1.09213,-1.00591,-5.39634,-9.17683,9.17683
6560.04,38.0131,-6.51383,0,6.44021,6.30369,0.627495,-1.18902,-32.0732,3.81098,-9.83635,1.13524,-0.962798,-6.89024,-9.66463,8.10976
6560.05,38.3204,-6.45811,0,7.28804,5.9636,0.359253,3.14024,-34.2988,3.87195,-9.84832,1.16398,-0.888552,-8.29268,-9.81707,6.95122
6560.06,38.6613,-6.40782,0,7.76465,5.88456,0.294587,9.81707,-34.7256,4.02439,-9.74773,1.09213,-0.893342,-9.08537,-9.69512,5.30488
6560.07,39.0542,-6.38465,0,8.09517,5.84385,0.479004,13.4756,-30.4268,8.41463,-9.62319,0.926873,-0.989143,-10.2439,-9.2378,3.90244
6560.08,39.3728,-6.36401,0,7.69041,6.30609,0.5772,14.3902,-23.9329,8.84146,-9.49386,0.780776,-0.981958,-11.372,-8.35366,2.37805
6560.09,39.688,-6.35639,0,7.5012,6.11209,0.878972,15.122,-15.2134,8.78049,-9.39806,0.764011,-1.02267,-11.9817,-7.80488,1.28049
6560.1,39.9386,-6.33434,0,7.41019,6.4905,1.24541,13.9024,-10.3354,6.98171,-9.41722,0.696951,-0.962798,-12.7439,-7.53049,1.09756
6560.11,40.1897,-6.33872,0,7.47007,6.25819,1.21906,13.0793,-5.7622,4.57317,-9.46272,0.708926,-1.07536,-13.7195,-7.77439,1.40244
6560.12,40.3924,-6.32575,0,7.66167,6.8785,1.17356,9.29878,-2.86585,1.95122,-9.55373,0.692161,-1.01309,-14.878,-8.41463,1.64634
6560.13,40.6642,-6.29845,0,8.1742,6.46176,1.15919,7.86585,0.426829,2.2561,-9.65193,0.708926,-0.960403,-15.4573,-9.29878,2.16463
6560.14,40.9517,-6.27059,0,8.5095,6.47374,0.886157,7.22561,5.85366,4.48171,-9.69743,0.6251,-0.958008,-16.4939,-9.48171,2.56098
6560.15,41.2794,-6.29097,0,8.42568,6.19352,0.893342,11.9207,13.2317,7.43902,-9.69983,0.548459,-1.16158,-16.5244,-8.84146,2.2561
6560.16,41.586,-6.32724,0,8.02811,6.27735,0.871787,16.7378,18.5366,9.45122,-9.6663,0.481399,-1.22864,-15.9451,-7.65244,1.34146
6560.17,41.824,-6.37806,0,7.30002,6.5863,1.07297,18.0793,22.1646,11.311,-9.8076,0.498164,-1.31487,-15.3659,-6.12805,0.762195
6560.18,41.9811,-6.43679,0,6.54798,6.69168,1.38193,17.0122,22.4085,10.8232,-9.9058,0.534089,-1.36756,-14.9085,-4.60366,-0.182927
6560.19,42.0733,-6.48388,0,5.91091,6.50248,1.54958,12.8659,19.3902,8.81098,-9.95131,0.59636,-1.32924,-15.2744,-3.87195,-1.85976
6560.2,42.0879,-6.53819,0,5.44627,6.35638,1.43462,8.07927,13.7195,4.72561,-9.83635,0.728086,-1.3484,-15.6707,-3.5061,-2.34756
6560.21,42.0033,-6.60378,0,5.41514,6.2055,1.29331,4.93902,6.18902,0.853659,-9.76928,0.924478,-1.36995,-16.0976,-2.43902,-2.0122
6560.22,41.9978,-6.68507,0,5.61393,6.12167,1.06578,7.71341,-1.15854,-2.43902,-9.71899,0.967588,-1.42504,-17.439,-2.28659,-1.52439
6560.23,41.9562,-6.77814,0,5.84624,6.47853,0.907712,9.32927,-8.01829,-4.39024,-9.83874,0.886157,-1.4897,-18.4451,-1.98171,-1.21951
6560.24,41.9189,-6.87826,0,5.98515,6.41386,0.912502,10.0305,-12.8354,-6.0061,-9.92736,0.747246,-1.56395,-18.9939,-2.19512,-1.61585
6560.25,41.8782,-7.02523,0,6.14562,6.3468,1.04183,8.56707,-15.8537,-8.56707,-9.95131,0.64426,-1.74597,-19.6951,-1.92073,-2.22561
6560.26,41.8151,-7.18253,0,6.35159,6.4929,0.895737,7.28659,-16.6768,-11.5244,-10.0136,0.617915,-1.82021,-19.2073,-1.82927,-2.80488
6560.27,41.7352,-7.33602,0,6.36357,6.40907,0.773591,10.0305,-13.2317,-14.2378,-10.0447,0.507744,-1.82979,-18.5976,-1.70732,-3.04878
6560.28,41.6264,-7.52068,0,6.37315,6.3947,0.922083,10.9451,-9.84756,-17.561,-10.0615,0.469424,-1.92799,-17.6524,-1.34146,-3.07927
6560.29,41.5034,-7.74518,0,6.40668,6.13365,1.00112,10.7012,-6.25,-21.9817,-10.0471,0.445474,-1.97589,-16.9207,-0.792683,-3.2622
6560.3,41.3679,-8.05227,0,6.55517,5.97557,1.0083,10.3354,-3.96341,-26.372,-10.0016,0.438289,-1.9711,-16.6768,-0.0304878,-2.71341
6560.31,41.227,-8.33386,0,6.81862,5.88217,0.847837,11.3415,-1.52439,-30.3963,-9.91538,0.526904,-2.04295,-15.4878,0.365854,-2.13415
6560.32,41.0799,-8.5581,0,6.95035,5.76002,0.749641,14.5122,1.34146,-33.628,-9.92496,0.56762,-2.019,-15.0305,0.579268,-1.25
6560.33,40.9229,-8.80346,0,7.02699,5.73128,0.809517,18.3537,4.42073,-35.8537,-9.86269,0.598755,-2.13157,-14.878,0.731707,-0.182927
6560.34,40.7475,-8.92782,0,7.35271,5.88935,0.823887,21.4024,6.43293,-39.0854,-9.87467,0.728086,-1.93278,-14.3902,1.37195,0.701219
6560.35,40.44,-8.95017,0,7.37187,7.0222,0.790356,22.378,9.17683,-42.8963,-10.1022,0.835862,-1.6358,-13.872,-0.121951,2.53049
6560.36,40.0075,-8.93135,0,6.924,7.60179,0.294587,20.4268,12.5,-47.9878,-10.5549,0.768801,-1.5855,-12.9878,-1.7378,3.65854
6560.37,39.4002,-8.91289,0,5.87498,8.28677,0.349673,23.1098,16.3415,-52.439,-11.0363,0.459844,-1.64777,-10.6402,-2.92683,5.09146
6560.38,38.7135,-8.93926,0,5.11337,8.80888,1.1544,21.4634,12.5305,-51.1585,-11.3237,-0.0526904,-1.91362,-6.7378,-3.78049,6.4939
6560.39,38.0024,-8.98384,0,5.51573,9.50104,2.10283,28.2927,0.579268,-55.061,-11.35,-0.445474,-2.01421,-2.34756,-3.10976,8.17073
6560.4,37.5069,-9.00875,0,7.59221,9.27591,2.43813,24.4817,-22.9878,-53.2012,-11.1704,-0.708926,-1.88488,1.34146,-1.7378,9.39024
6560.41,37.2259,-8.945,0,9.46033,9.08431,1.8274,17.8659,-54.6646,-46.3415,-11.0746,-0.799937,-1.48491,4.32927,-1.06707,10.6707
6560.42,37.0849,-8.79958,0,10.7393,9.35974,1.0083,18.5366,-74.5122,-38.2622,-11.2063,-0.905317,-1.11129,6.21951,-1.34146,11.4329
6560.43,36.9669,-8.64315,0,11.0506,10.3034,1.35558,18.3537,-69.6037,-32.2866,-11.4961,-1.17116,-1.02746,8.35366,-1.58537,11.0671
6560.44,36.7448,-8.51175,0,10.0519,11.4195,2.86205,14.5122,-55.122,-31.6159,-11.7715,-1.36037,-1.14721,11.6768,-1.15854,10.0915
6560.45,36.4389,-8.42635,0,8.97414,12.0398,3.3171,3.20122,-52.8659,-31.128,-12.0086,-1.43462,-1.3939,16.25,0.27439,9.87805
6560.46,36.118,-8.44566,0,8.02092,11.3404,2.28964,-12.1341,-56.5549,-30.3659,-11.7739,-1.28373,-1.84177,19.6951,4.45122,10.2744
6560.47,35.8773,-8.45049,0,6.99106,9.19927,0.953218,-17.439,-60.4573,-26.8293,-11.3213,-0.742456,-1.69567,21.5549,9.96951,10.9451
6560.48,35.6445,-8.36648,0,5.88935,7.92033,-0.105381,-18.689,-56.7378,-25.3049,-10.7488,-0.0143701,-1.17835,20.9756,14.6951,12.7744
6560.49,35.351,-8.1839,0,4.98404,7.23775,-0.670605,-14.3902,-45.3354,-27.7134,-10.7465,0.831072,-0.689766,17.9573,16.8598,13.7195
6560.5,34.8674,-7.88441,0,3.66677,6.85934,-0.670605,-7.71341,-34.939,-34.6037,-10.8925,2.09564,-0.102986,12.1037,16.0061,14.2378
6560.51,34.0516,-7.40563,0,1.97829,7.10602,-0.574805,-4.84756,-33.2927,-43.8415,-10.677,2.28006,0.797541,8.56707,13.3232,14.3902
6560.52,32.9681,-6.78889,0,0.809517,7.85087,-1.06818,-4.96951,-41.5549,-53.0793,-10.6363,2.84289,1.53521,1.85976,9.17683,14.4512
6560.53,31.7975,-6.11855,0,0.505349,8.10235,-2.0693,-2.2561,-56.5854,-59.4512,-10.4088,3.13987,1.85854,-4.26829,5.45732,14.4207
6560.54,30.6998,-5.33513,0,1.08255,8.06882,-3.3674,2.83537,-66.1281,-62.7134,-9.97526,3.0776,2.28724,-10.061,3.01829,14.7256
6560.55,29.829,-3.68336,0,2.67763,8.08559,-4.39247,11.2195,-63.2622,-63.5976,-9.46991,2.37586,2.31359,-14.7561,0.27439,14.4512
6560.56,29.1635,-2.72541,0,4.20805,8.50471,-4.1841,19.6951,-45.6707,-60.7622,-9.19448,1.75076,2.75427,-19.5122,-2.40854,12.8354
6560.57,28.671,-1.89206,0,5.06547,8.01374,-2.80457,24.8171,-24.939,-56.6463,-8.98851,0.747246,2.91234,-21.7378,-5.12195,9.5122
6560.58,28.1664,-1.1332,0,5.48459,10.3082,-0.912502,26.5549,-8.9939,-50.1524,-9.0891,-0.134121,2.81654,-22.6829,-8.29268,5.54878
6560.59,27.7276,-0.503129,0,5.36963,10.083,-0.311353,18.811,5.12195,-44.5122,-9.17532,-0.917292,2.41178,-20.9756,-9.63415,2.71341
6560.6,27.2537,-0.0312027,0,4.38049,9.67348,-0.112566,16.6463,14.0854,-41.4939,-9.40045,-1.32924,1.88967,-18.6585,-9.14634,0.640244
6560.61,26.6969,0.32597,0,3.27639,9.63037,0.153281,13.8415,18.1707,-39.5427,-9.34058,-1.73399,1.46815,-15.6402,-6.92073,0.365854
6560.62,25.9749,0.600501,0,1.72681,9.59924,0,12.9573,15.9451,-40,-9.33579,-1.67172,1.1041,-13.0488,-3.5061,1.31098
6560.63,25.1304,1.09699,0,0.744851,9.55613,-0.275427,13.0183,4.93902,-42.2561,-9.14179,-1.46815,0.864602,-9.90854,-0.701219,3.5061
6560.64,24.2188,1.33384,0,0.376018,9.60882,-0.58678,12.7744,-3.14024,-46.311,-9.03162,-1.07776,0.728086,-7.28659,1.70732,7.04268
6560.65,23.254,1.4573,0,0.100591,9.8124,-0.728086,13.3232,-13.5671,-50.2134,-9.09149,-0.747246,0.6251,-4.57317,2.92683,10.4268
6560.66,22.2955,1.55245,0,0.323328,9.97526,-0.684976,12.1341,-23.8415,-54.1463,-9.22322,-0.59636,0.59636,-1.79878,3.75,12.9268
6560.67,21.37,1.63199,0,0.716111,9.89622,-0.799937,9.17683,-30.9146,-57.378,-9.5681,-0.550855,0.58678,1.37195,4.17683,14.3293
6560.68,20.4746,1.65569,0,1.04662,9.93215,-0.871787,8.01829,-37.6524,-60.0305,-9.97286,-0.531694,0.390388,4.35976,4.48171,13.9634
6560.69,19.6339,1.61125,0,1.48731,10.083,-1.08494,5.45732,-43.8415,-61.128,-10.4255,-0.59636,0.102986,7.9878,5,11.6463
6560.7,18.8269,1.53584,0,1.65735,9.90101,-1.33882,4.93902,-47.5305,-61.6768,-10.5932,-0.546064,-0.0479004,11.4024,5.79268,8.78049
6560.71,18.0768,1.46385,0,2.08127,9.89622,-1.48252,5.06098,-50.4878,-62.3476,-10.5956,-0.407153,-0.0455054,13.9634,6.95122,5.18293
6560.72,17.3584,1.41488,0,2.20821,9.59684,-1.51126,6.37195,-50.5183,-62.8659,-10.3752,-0.285007,0.0479004,15.6707,7.34756,2.68293
6560.73,16.6459,1.41763,0,2.18905,9.34537,-1.64777,7.80488,-51.25,-64.1768,-10.1022,-0.141306,0.268242,16.7378,7.46951,0.701219
6560.74,15.9645,1.46716,0,2.39981,9.46512,-1.65735,6.64634,-51.6463,-64.6037,-9.80521,-0.160466,0.462239,16.7378,6.7378,0
6560.75,15.3206,1.5267,0,2.66326,9.36453,-1.76513,5.2439,-48.9024,-65.5183,-9.63995,-0.129331,0.502954,15.8841,5.67073,-0.396341
6560.76,14.7035,1.59526,0,2.79259,9.35016,-1.93997,4.42073,-45.3659,-65.6402,-9.49625,-0.129331,0.538879,15.0305,4.87805,-0.121951
6560.77,14.1181,1.6482,0,2.87402,9.06036,-1.81063,4.32927,-41.189,-65.6402,-9.42201,-0.0862207,0.469424,13.5366,3.59756,0.335366
6560.78,13.5548,1.69045,0,2.94587,9.20646,-1.83698,2.40854,-35.061,-64.8781,-9.36453,-0.100591,0.411943,11.8902,2.53049,0.518293
6560.79,13.0379,1.70512,0,3.09916,9.17772,-2.02619,2.10366,-27.622,-63.1707,-9.33818,-0.148491,0.311353,11.2805,1.43293,0.609756
6560.8,12.5516,1.63548,0,3.20454,9.17053,-2.03816,2.95732,-21.311,-62.3171,-9.25196,-0.229922,0.186812,10.7927,0.426829,1.15854
6560.81,12.0502,1.47859,0,2.86684,8.83044,-2.00224,3.78049,-15.5183,-62.2561,-9.22083,-0.356858,0.0287402,11.4024,-0.701219,0.762195
6560.82,11.4691,1.38254,0,2.46208,8.18378,-2.13157,1.67683,-8.35366,-68.8719,-9.14418,-0.502954,0.00479004,12.0732,-1.70732,0.487805
6560.83,10.9415,1.33298,0,2.64889,9.38608,-1.68849,4.48171,-7.7439,-62.5915,-9.14897,-0.61073,0.0479004,13.0488,-3.07927,-0.0609756
6560.84,10.4836,1.26476,0,2.72553,9.26154,-1.75076,4.81707,-7.9878,-57.8659,-9.10826,-0.713716,-0.0502954,13.9329,-4.20732,0.0304878
6560.85,10.0562,1.15677,0,2.62734,9.11544,-1.63101,4.45122,-8.38415,-55.0305,-9.01006,-0.766406,-0.220342,15.3659,-4.87805,0.0304878
6560.86,9.67704,1.03306,0,2.80217,9.2328,-1.60227,4.90854,-6.76829,-52.622,-8.94061,-0.783171,-0.299377,16.128,-5.21341,0.518293
6560.87,9.28995,0.87086,0,2.55788,8.62926,-1.40109,5.60976,-6.76829,-53.4451,-8.8472,-0.795146,-0.447869,17.7744,-4.63415,1.25
6560.88,8.88164,0.695365,0,2.80457,8.33227,-2.11959,2.40854,-3.20122,-60.6707,-8.71787,-0.809517,-0.459844,18.872,-3.65854,2.31707
6560.89,8.50355,0.414651,0,3.04886,9.75252,-1.47294,5.03049,-5.51829,-55.8841,-8.6101,-0.701741,-0.680186,19.9695,-2.83537,4.05488
6560.9,8.18049,-0.157286,0,3.13748,9.34776,-1.52323,4.26829,-8.01829,-53.4756,-8.55262,-0.579595,-0.804727,21.1585,-1.46341,5.91463
6560.91,7.88043,-0.961044,0,2.91474,9.51302,-1.60945,6.43293,-9.63415,-48.689,-8.5598,-0.409548,-0.881367,22.8963,-0.914634,8.62805
