time,angle1,angle2,intgangle,accX1,accY1,accZ1,gyroX1,gyroY1,gyroZ1,accX2,accY2,accZ2,gyroX2,gyroY2,gyroZ2
563.462,95.4741,7.71612,0,9.88904,-0.955613,1.22864,9.11585,-0.609756,-9.90854,-10.4471,-0.790356,2.73511,12.9573,-114.756,7.95732
563.468,95.3832,8.05948,0,10.0232,-1.07057,0.835862,10.2439,-0.426829,-10.5488,-10.5429,-0.831072,2.98419,13.5976,-117.683,8.62805
563.476,95.2866,8.45175,0,10.1333,-1.17595,0.490979,12.9573,-0.243902,-12.378,-10.6483,-0.878972,3.32908,13.9329,-122.043,9.11585
563.486,95.1689,8.91934,0,10.2674,-1.30768,0.689766,17.4085,-6.06707,-16.0366,-10.78,-0.941243,3.84401,14.2073,-128.11,9.63415
563.496,95.0114,9.38316,0,10.5141,-1.2981,1.06099,17.9878,-12.6524,-19.878,-10.7225,-1.01309,3.8967,15.5183,-133.354,10.5488
563.506,94.8153,9.88196,0,10.2866,-1.20709,1.59029,15.5183,-19.4512,-23.4451,-10.5596,-0.974773,4.11704,15.6707,-137.195,11.7988
563.516,94.6464,10.3286,0,10.4064,-1.56395,0.855022,14.2378,-18.2012,-24.8476,-10.2195,-0.974773,3.81527,16.7683,-139.116,14.2378
563.526,94.4651,10.784,0,10.2842,-1.65017,0.713716,16.372,-13.4146,-27.622,-9.8076,-1.15679,3.79371,19.2988,-137.835,16.5854
563.536,94.2783,11.2887,0,9.79803,-1.89446,1.36277,15.5793,-20.3963,-32.2866,-9.26873,-1.41306,3.90628,21.7378,-136.25,18.628
563.546,94.0708,11.9815,0,10.0399,-1.98068,0.910107,12.1646,-18.9329,-35.2134,-8.54782,-1.64059,4.5673,23.2927,-135.183,19.9695
563.556,93.8955,12.8078,0,10.2124,-2.61297,-0.131726,14.4512,-18.9634,-38.872,-7.83411,-1.75555,4.92895,25.0915,-135.274,20.7622
563.566,93.6204,13.8127,0,10.4878,-2.12917,-0.0455054,20.8537,-20.0915,-43.5366,-7.09165,-1.69088,5.44627,27.2561,-133.75,20.8841
563.576,93.2556,14.9973,0,11.1392,-1.89207,-0.184417,20.2744,-12.9878,-49.5122,-6.54319,-1.43941,6.11688,29.2073,-132.409,21.0976
563.586,92.8916,16.2837,0,11.35,-1.89207,0.0622705,20.6402,-8.84146,-49.8171,-6.15041,-1.28613,6.55996,31.372,-128.659,21.25
563.596,92.5013,17.6475,0,11.5967,-1.6358,0.404758,18.5366,-0.945122,-50.3049,-5.81511,-1.17116,6.95753,32.561,-123.598,20.4573
563.606,92.0383,19.0278,0,12.1595,-0.840652,0.462239,15.7317,13.7195,-50.2134,-5.68817,-1.08255,7.2593,33.4146,-118.049,19.4207
563.616,91.6761,20.4525,0,11.6087,-1.42743,0.584385,9.29878,22.1951,-47.1037,-5.73368,-0.840652,8.02092,31.6463,-113.628,18.1707
563.626,91.3751,21.8756,0,11.647,-2.01661,-0.229922,6.43293,32.8659,-47.3476,-5.6762,-0.531694,8.3682,27.9268,-109.268,17.4695
563.636,91.0842,23.2652,0,11.4434,-1.89207,-0.294587,9.45122,32.2561,-46.0366,-5.35766,-0.0263452,8.0808,25.8232,-103.14,17.5305
563.646,90.7991,24.6382,0,10.5716,-1.41785,0.395178,9.26829,35.8537,-42.4695,-5.18522,0.483794,8.1263,23.9329,-96.3415,19.0549
563.656,90.4841,26.043,0,9.72138,-0.898132,0.397573,11.7683,31.7988,-41.2805,-4.88824,0.780776,8.35622,23.0793,-88.8415,20.7927
563.666,90.0921,27.4366,0,9.69983,-0.170046,0.541274,13.3537,30.7622,-41.0671,-4.81878,0.819097,8.63405,21.8902,-81.25,21.7683
563.676,89.5817,28.7768,0,8.71069,0.354463,1.11129,10.1524,20.4878,-47.1341,-4.91458,0.637075,8.83523,19.3293,-73.9634,21.2195
563.686,89.0985,30.0496,0,8.9933,0.0407153,0.852627,11.9817,13.2012,-49.6341,-5.05828,0.455054,8.97174,17.2866,-67.2256,18.75
563.696,88.555,31.262,0,9.68546,0.450264,0.680186,9.60366,17.3476,-51.8598,-5.19001,0.397573,9.12263,14.878,-60.7927,16.311
563.706,88.0191,32.4216,0,9.78126,0.490979,1.07776,6.85976,13.75,-51.7683,-5.26665,0.541274,9.22322,12.3476,-55.1829,14.878
563.716,87.4801,33.5654,0,10.3441,0.617915,0.486189,6.85976,14.3598,-52.0732,-5.32652,0.627495,9.63037,9.63415,-50.5793,14.6341
563.726,86.9171,34.6569,0,10.4207,0.934058,0.847837,6.0061,11.7378,-52.1341,-5.28102,0.64905,9.48907,7.37805,-46.0061,14.4817
563.736,86.3688,35.7159,0,10.4878,0.936453,0.59636,2.46951,14.1768,-51.8293,-5.18522,0.603545,9.42919,5.51829,-41.4329,14.6341
563.746,85.8131,36.7651,0,9.9082,0.922083,0.912502,2.95732,11.4634,-53.2622,-5.06547,0.455054,9.53697,4.11585,-37.4085,14.4207
563.756,85.2565,37.7879,0,10.1884,1.0562,0.598755,2.43902,11.0366,-53.2622,-4.97446,0.359253,9.52499,2.80488,-34.1768,14.2683
563.766,84.6644,38.7861,0,10.0351,1.37235,0.718506,1.85976,10.3354,-54.2073,-4.86907,0.285007,9.49146,2.43902,-30.9451,13.8415
563.776,84.0568,39.7453,0,9.94412,1.47533,0.708926,0.518293,9.11585,-55.6707,-4.87865,0.277822,9.5202,2.04268,-28.5061,13.7195
563.786,83.4435,40.6553,0,10.016,1.51365,0.675395,2.10366,8.44512,-57.1646,-4.86907,0.239502,9.39327,0.97561,-25.3963,12.9268
563.796,82.7835,41.5059,0,9.99202,1.88967,0.823887,2.92683,7.5,-58.872,-4.92177,0.213157,9.26633,0.609756,-22.1951,12.561
563.806,82.1102,42.3368,0,9.99921,1.96631,1.1065,2.77439,6.03659,-60.7317,-4.90021,0.162861,9.36932,0.182927,-19.7866,11.8902
563.816,81.4208,43.1445,0,10.1429,2.16749,0.835862,2.34756,4.60366,-61.8293,-4.905,0.107776,9.47949,0.152439,-18.4146,11.5244
563.826,80.7266,43.9294,0,10.1525,2.25611,1.01788,3.59756,5.73171,-62.7744,-4.81638,0.126936,9.40524,0.182927,-16.7988,11.4939
563.836,79.9986,44.6936,0,9.66151,2.51717,1.36037,2.0122,5.57927,-63.4146,-4.69424,0.153281,9.27591,0.27439,-14.1159,11.4939
563.846,79.2799,45.4428,0,9.65911,2.42855,1.3484,0.914634,3.59756,-64.939,-4.62957,0.201182,9.30705,-0.640244,-12.0122,11.5244
563.856,78.5669,46.1757,0,9.59445,2.46687,1.22146,1.70732,2.95732,-65.2134,-4.57449,0.186812,9.33579,-0.762195,-10.9451,11.4939
563.866,77.8407,46.8799,0,9.56571,2.61297,1.35558,-0.0304878,3.10976,-66.25,-4.49785,0.129331,9.1849,-1.25,-9.5122,10.3963
563.876,77.1197,47.5737,0,9.7597,2.67524,1.30768,-1.7378,1.82927,-67.1037,-4.38049,0.170046,9.12263,-0.579268,-7.7439,9.81707
563.886,76.3846,48.2561,0,9.70941,2.87642,1.26218,-2.5,2.59146,-67.6219,-4.27511,0.143701,9.00288,-0.213415,-5.06098,9.05488
563.896,75.6218,48.9616,0,9.77407,3.13748,1.25978,-3.87195,3.35366,-69.2988,-4.26553,0.119751,9.11065,0.182927,-3.10976,8.44512
563.906,74.8593,49.7754,0,9.96807,3.23807,0.912502,-3.35366,2.89634,-70.4268,-4.25595,0.0838257,9.18729,0.548781,-1.67683,7.83537
563.916,74.0837,51.0795,0,9.82677,3.45362,1.31487,-1.61585,5.03049,-70.5183,-4.28709,-0.00239502,8.99569,0.884146,0.304878,7.13415
563.926,73.2809,51.6274,0,9.5681,3.69791,1.62861,-4.57317,3.81098,-71.2805,-4.30146,0.00718506,8.79691,1.15854,3.2622,6.61585
563.936,72.4691,52.1161,0,9.3789,3.79132,1.58311,-5.51829,3.78049,-72.0427,-4.30385,0.00958008,8.75619,1.31098,5.03049,6.15854
563.946,71.6482,52.5548,0,9.20646,3.90628,1.54718,-4.17683,3.04878,-72.6219,-4.37331,-0.0191602,8.64363,2.0122,5.97561,5.88415
563.956,70.8161,52.9539,0,9.15616,4.12183,1.58071,-5.12195,3.47561,-72.8963,-4.43079,0.0407153,8.56938,3.32317,7.65244,5.60976
563.966,70.0112,53.3361,0,9.2304,4.04519,1.62382,-6.79878,3.47561,-72.9878,-4.4715,0.0550855,8.64363,4.2378,8.75,5.36585
563.976,69.2025,53.6999,0,9.17772,4.25355,1.47533,-9.7561,2.2561,-72.561,-4.50743,0.0622705,8.68434,3.75,9.60366,4.96951
563.986,68.3871,54.0221,0,8.7514,4.18649,1.56874,-11.25,0.243902,-73.4756,-4.56491,0.110171,8.54543,4.02439,10.6707,4.72561
563.996,67.6103,54.3213,0,8.88313,4.08111,1.20709,-10.6707,2.83537,-73.0183,-4.54096,0.198787,8.41131,3.68902,12.1341,4.66463
564.006,66.8348,54.6145,0,8.7993,4.15296,1.2502,-9.57317,1.82927,-73.2622,-4.51222,0.270637,8.41131,3.35366,13.1098,4.20732
564.016,66.0717,54.8843,0,8.95258,4.24397,1.21906,-10.2744,4.81707,-73.3841,-4.46432,0.330513,8.2221,2.89634,14.3902,4.11585
564.026,65.3286,55.1179,0,8.84241,4.28229,1.33642,-12.5915,5.2439,-71.9207,-4.42839,0.371228,7.94428,2.31707,16.0976,3.84146
564.036,64.6036,55.3571,0,8.69392,4.33499,1.15919,-14.5122,6.31098,-70.2439,-4.33738,0.419128,7.90356,1.61585,17.2256,3.68902
564.046,63.8894,55.6056,0,8.4137,4.37091,1.11608,-14.1463,7.07317,-68.689,-4.3278,0.457449,8.04487,1.12805,17.8659,3.44512
564.056,63.1879,55.83,0,8.34425,4.40923,1.01549,-14.0854,3.96341,-68.0183,-4.27271,0.462239,7.82453,1.03659,18.2317,2.89634
564.066,62.4868,56.0361,0,8.14067,4.43318,0.984353,-13.5671,3.10976,-67.9573,-4.26313,0.443079,7.73352,0.731707,20.122,2.37805
564.076,61.8282,56.2434,0,8.29874,4.38049,0.859812,-11.6768,4.17683,-66.5549,-4.19128,0.399968,7.68083,0.823171,22.1341,1.70732
564.086,61.1682,56.4257,0,8.02811,4.50982,1.34121,-11.189,0.914634,-65,-4.16973,0.364043,7.51078,-0.152439,23.3232,0.762195
564.096,60.5328,56.5871,0,8.30832,4.75172,0.965193,-11.9817,4.54268,-62.9268,-4.14817,0.361648,7.36947,-0.0914634,24.8171,0.457317
564.106,59.9207,56.7299,0,8.01134,4.70621,1.29092,-11.7683,2.10366,-60.4878,-4.14099,0.328118,7.26649,-0.548781,26.0671,0.121951
564.116,59.3184,56.8516,0,7.95625,4.88105,1.45617,-12.2256,3.53659,-58.5061,-4.15296,0.371228,7.17548,-1.06707,27.7134,-0.304878
564.126,58.7156,56.9487,0,7.81016,5.03194,1.36037,-13.5671,1.85976,-57.1951,-4.21763,0.340093,7.14434,-0.853659,28.3841,-0.701219
564.136,58.1589,57.011,0,7.75028,4.89781,1.32205,-14.2988,2.95732,-54.7561,-4.26792,0.330513,7.01022,-0.97561,29.1768,-0.823171
564.146,57.6378,57.0483,0,7.75268,4.87386,1.07297,-14.1463,1.95122,-52.5305,-4.33978,0.249082,6.9719,-0.792683,29.4512,-0.945122
564.156,57.1507,57.0771,0,7.75986,4.81399,0.833467,-13.872,1.95122,-50.8232,-4.37091,0.217947,6.9743,-1.06707,29.9085,-1.15854
564.166,56.7001,57.0968,0,7.75986,4.79243,0.826282,-10.8232,2.16463,-48.3232,-4.41402,0.258662,6.98867,-1.18902,30.3049,-0.609756
564.176,56.2502,57.0754,0,7.5515,4.87865,1.15919,-9.7561,2.65244,-46.7988,-4.50264,0.251477,6.85694,-1.09756,30.5793,-0.823171
564.186,55.7973,57.0164,0,7.51797,5.08223,1.23823,-9.81707,2.83537,-45.5793,-4.63676,0.277822,6.80665,-0.548781,30.6098,-1.09756
564.196,55.3623,56.9668,0,7.4533,5.07984,1.22146,-11.0366,5,-44.2378,-4.67268,0.320933,6.90484,0.426829,30,-1.55488
564.206,54.9268,56.9104,0,7.28565,5.04631,1.19272,-9.87805,1.64634,-44.2988,-4.711,0.308958,6.90245,0.97561,29.1159,-2.16463
564.216,54.4856,56.8402,0,7.34792,5.27623,1.06818,-9.54268,0.457317,-43.7805,-4.70142,0.285007,6.78509,1.31098,29.3293,-2.40854
564.226,54.0736,56.7788,0,7.34073,5.21875,1.24062,-8.35366,0.182927,-42.2561,-4.71579,0.289797,6.84497,0.853659,29.1463,-2.16463
564.236,53.6621,56.714,0,7.31439,5.44148,1.55676,-8.44512,-2.65244,-40.5183,-4.77327,0.229922,6.88808,0.335366,27.9268,-2.2561
564.246,53.2899,56.639,0,7.47007,5.39598,1.38193,-9.14634,-0.762195,-38.9939,-4.78764,0.229922,6.82581,0.0609756,26.6463,-2.19512
564.256,52.9465,56.5513,0,7.46528,5.41993,1.35079,-6.37195,-2.62195,-36.5244,-4.79004,0.277822,6.72761,0.457317,25.5183,-2.16463
564.266,52.6113,56.4707,0,7.33594,5.54208,1.47773,-6.58537,-1.55488,-34.1768,-4.86428,0.332908,6.85455,0.487805,24.5732,-2.16463
564.276,52.2958,56.3966,0,7.29523,5.54447,1.59029,-5.7622,-4.60366,-32.5,-4.84752,0.340093,6.84976,0.640244,22.8963,-2.10366
564.286,51.9935,56.3249,0,7.2617,5.61632,1.69567,-5.60976,-4.2378,-30.8232,-4.90021,0.402363,6.91921,0.0914634,21.9817,-1.89024
564.296,51.6933,56.2412,0,7.21619,5.71691,1.74118,-7.68293,-3.35366,-29.8476,-4.97446,0.443079,6.9264,-0.335366,20.8537,-1.79878
564.306,51.4192,56.1674,0,7.27367,5.68578,1.57832,-7.46951,-5.42683,-28.5671,-5.01517,0.498164,7.02459,-1.34146,19.7561,-1.82927
564.316,51.1522,56.0753,0,7.36708,5.91091,1.76992,-7.34756,-2.53049,-26.9207,-5.11337,0.531694,7.0198,-2.13415,17.622,-2.31707
564.326,50.8904,55.9662,0,7.33594,6.08095,1.70765,-9.63415,-1.55488,-25.061,-5.1924,0.502954,6.99106,-2.9878,15.7927,-2.68293
564.336,50.6583,55.8676,0,7.22817,5.9133,1.34121,-7.62195,0.762195,-23.3232,-5.26186,0.507744,7.12279,-3.47561,13.9329,-2.92683
564.346,50.4143,55.7431,0,7.06052,5.98036,1.53521,-6.21951,-0.0609756,-23.0183,-5.34329,0.399968,7.03417,-3.07927,11.4939,-2.77439
564.356,50.1829,55.621,0,7.06052,5.99234,1.61664,-4.48171,1.09756,-22.1037,-5.37682,0.352068,7.06052,-2.2561,9.69512,-2.92683
564.366,49.9419,55.4938,0,6.94077,6.14083,1.66693,-4.35976,1.95122,-21.1585,-5.46543,0.299377,7.11081,-2.5,7.43902,-2.40854
564.376,49.7262,55.3264,0,7.12758,6.06898,1.65496,-2.40854,3.10976,-21.2805,-5.55405,0.229922,6.95993,-2.0122,5.15244,-1.52439
564.386,49.5033,55.1495,0,7.23056,6.28453,1.7795,-2.19512,2.04268,-21.2805,-5.61632,0.189207,7.118,-1.85976,2.86585,-0.823171
564.396,49.3014,54.6572,0,7.39582,6.3947,1.6813,-1.46341,4.08537,-19.878,-5.75284,0.160466,7.10363,-1.34146,0.640244,-0.487805
564.406,49.0905,54.3037,0,7.19703,6.47613,1.98547,-1.85976,2.71341,-18.9024,-5.83427,0.249082,7.1156,-1.7378,-1.06707,0.365854
564.416,48.8956,54.1647,0,7.18506,6.47374,1.94955,-2.43902,1.25,-17.622,-5.85103,0.246687,7.2593,-2.04268,-3.35366,1.03659
564.426,48.7135,54.0513,0,7.04854,6.40907,1.83698,-2.34756,0.731707,-16.189,-5.83906,0.289797,7.28565,-1.95122,-6.09756,1.37195
564.436,48.556,53.9458,0,7.10123,6.30848,1.74836,-1.7378,1.70732,-15.3963,-5.82229,0.325723,7.28086,-1.76829,-7.86585,2.0122
564.446,48.427,53.8521,0,7.23775,6.27016,1.65496,-1.12805,0.853659,-14.2683,-5.79355,0.292192,7.29283,-1.46341,-9.20732,2.59146
564.456,48.3204,53.7488,0,7.34313,6.2534,1.74118,-1.12805,1.98171,-13.2317,-5.77439,0.323328,7.18027,-1.52439,-9.90854,2.80488
564.466,48.2358,53.6625,0,7.44133,6.27256,1.84177,-2.5,6.46341,-11.7988,-5.78158,0.316143,7.27367,-1.09756,-10.4268,3.14024
564.476,48.16,53.5771,0,7.39822,6.23663,1.85854,-2.22561,4.78659,-11.0671,-5.8175,0.323328,7.30002,-1.09756,-11.4024,2.9878
564.486,48.0789,53.4951,0,7.27846,6.29651,1.38911,-0.548781,3.75,-10.2744,-5.77918,0.364043,7.25212,-1.18902,-11.9512,3.47561
564.496,47.9889,53.4271,0,7.2138,6.33962,1.76034,1.03659,3.07927,-10.4268,-5.78876,0.371228,7.33355,-1.43293,-12.561,3.59756
564.506,47.8897,53.372,0,7.14195,6.40668,1.84896,0.304878,1.31098,-10.3659,-5.81032,0.404758,7.42935,-1.21951,-12.9268,3.90244
564.516,47.798,53.308,0,7.05333,6.30848,1.99266,1.98171,1.03659,-9.96951,-5.78158,0.352068,7.31918,-1.15854,-12.439,4.32927
564.526,47.7057,53.2521,0,7.07728,6.37794,1.95194,0.97561,-0.579268,-9.78659,-5.79116,0.249082,7.36947,-0.97561,-11.8902,4.54268
564.536,47.6506,53.2173,0,7.37187,6.29411,1.79626,1.58537,0.396341,-9.29878,-5.77918,0.174836,7.48204,-0.762195,-11.2805,4.08537
564.546,47.6008,53.1826,0,7.5012,6.47613,1.99745,0.609756,-0.0304878,-8.23171,-5.75763,0.0934058,7.44612,-0.487805,-10.8537,4.20732
564.556,47.5716,53.1514,0,7.63772,6.46895,1.86572,-0.884146,0.853659,-7.34756,-5.77679,0.0455054,7.48683,-0.487805,-9.96951,3.96341
564.566,47.5462,53.1384,0,7.62335,6.45697,1.77471,-2.77439,3.62805,-7.0122,-5.79355,-0.0311353,7.62574,-0.731707,-9.57317,3.47561
564.576,47.5212,53.1459,0,7.4533,6.32046,1.67891,-4.26829,3.96341,-6.95122,-5.77918,-0.0239502,7.74789,-1.18902,-9.60366,3.59756
564.586,47.4916,53.1589,0,7.36947,6.24382,1.60227,-2.71341,2.13415,-7.53049,-5.75523,-0.0694556,7.75747,-1.21951,-9.39024,3.5061
564.596,47.4407,53.1577,0,7.27607,6.35638,1.76992,-3.17073,-0.0609756,-7.9878,-5.74805,-0.0550855,7.65209,-1.79878,-8.17073,3.56707
564.606,47.3801,53.1825,0,7.23775,6.41626,1.7292,-2.89634,0.213415,-8.23171,-5.75044,0.00718506,7.84129,-1.92073,-7.89634,3.90244
564.617,47.3135,53.1714,0,7.26888,6.51206,1.66214,-3.90244,-3.04878,-8.35366,-5.84624,0.0311353,7.71915,-1.55488,-8.32317,4.17683
564.626,47.2474,53.1457,0,7.31678,6.56475,1.55437,-2.5,-3.56707,-8.35366,-5.88217,0.0239502,7.66167,-1.37195,-7.7439,3.75
564.636,47.1691,53.1281,0,7.26409,6.74677,1.60466,-2.22561,-2.04268,-7.71341,-5.89893,0.0814307,7.73352,-1.12805,-7.2561,3.78049
564.646,47.0845,53.1022,0,7.2138,6.80425,1.62622,-0.762195,0.701219,-7.62195,-5.94923,0.0838257,7.73591,-0.731707,-7.34756,3.32317
564.656,46.9804,53.078,0,7.17308,6.96232,1.62622,-0.487805,2.5,-8.10976,-5.92528,0.0383203,7.70957,-0.121951,-7.31707,3.41463
564.666,46.8845,53.0631,0,7.26888,6.88329,1.65735,-0.121951,0.701219,-8.93293,-5.89654,-0.00958008,7.73112,0.182927,-7.34756,3.10976
564.676,46.7988,53.053,0,7.38145,6.92161,1.84656,0.579268,-0.0914634,-8.65854,-5.82469,-0.0934058,7.66646,1.18902,-7.0122,3.10976
564.686,46.7274,53.0462,0,7.41977,6.89526,1.80824,-1.58537,4.90854,-7.89634,-5.8199,-0.155676,7.68083,1.82927,-6.79878,2.95732
564.696,46.6695,53.0358,0,7.23775,6.67971,2.02858,-2.5,7.86585,-7.07317,-5.73368,-0.170046,7.53952,2.04268,-7.2561,3.07927
564.706,46.6008,53.0402,0,7.02459,6.60546,2.0669,-2.43902,5,-7.19512,-5.66183,-0.172441,7.54431,2.28659,-6.92073,3.32317
564.716,46.5323,53.0795,0,7.00783,6.48092,1.92799,-2.16463,0.396341,-8.29268,-5.578,-0.107776,7.67604,2.5,-7.34756,3.62805
564.726,46.4622,53.1291,0,7.09165,6.61983,1.90165,-1.79878,-2.2561,-8.04878,-5.54447,-0.0670605,7.71436,2.65244,-7.07317,3.71951
564.736,46.3947,53.1843,0,7.00783,6.53122,1.88249,-2.95732,-1.92073,-8.01829,-5.48699,-0.00239502,7.68801,3.01829,-6.79878,3.9939
564.746,46.3441,53.2384,0,7.18745,6.50487,1.82021,-3.17073,-3.75,-8.14024,-5.44388,0.00718506,7.63532,2.89634,-6.03659,4.02439
564.756,46.2957,53.2921,0,7.2593,6.52882,1.79147,-4.78659,-3.38415,-8.38415,-5.44388,0.00239502,7.6449,3.38415,-5.2439,4.08537
564.766,46.2708,53.3441,0,7.32397,6.42584,1.72202,-4.32927,-1.92073,-7.53049,-5.45346,0.0479004,7.66167,3.65854,-5.09146,4.08537
564.776,46.2496,53.3871,0,7.3096,6.43781,1.61424,-1.98171,-2.13415,-6.98171,-5.47501,0.0694556,7.64251,3.5061,-4.87805,4.26829
564.786,46.2244,53.4364,0,7.28804,6.57912,1.62382,-1.21951,-1.52439,-6.0061,-5.47022,0.0502954,7.69041,3.96341,-4.63415,4.14634
564.796,46.1893,53.4836,0,7.12279,6.59349,1.69567,-1.85976,0.27439,-5.60976,-5.48938,0.0359253,7.70238,3.5061,-3.56707,4.2378
564.806,46.1435,53.5369,0,7.06531,6.66773,1.69328,-2.19512,0.731707,-5.64024,-5.56363,-0.0119751,7.84129,3.35366,-2.80488,4.02439
564.816,46.0938,53.579,0,7.05094,6.68929,1.4442,-3.07927,2.68293,-5.82317,-5.60195,0.00239502,7.82213,3.07927,-2.34756,4.05488
564.826,46.0573,53.632,0,7.18027,6.59828,1.54718,-2.22561,0.365854,-6.43293,-5.61153,0.0167651,7.89398,2.89634,-1.98171,4.29878
564.836,46.0201,53.6821,0,7.3575,6.70366,1.81063,-1.25,-3.01829,-7.07317,-5.65225,0.0550855,7.96823,2.68293,-2.19512,4.08537
564.846,45.9856,53.7083,0,7.40061,6.76354,1.84177,-2.28659,-1.46341,-6.70732,-5.70973,0.0742456,7.90117,2.5,-1.64634,4.66463
564.856,45.941,53.7729,0,7.29523,6.7324,1.81063,-1.61585,-0.457317,-7.22561,-5.70254,0.155676,8.08319,2.0122,-1.31098,4.84756
564.866,45.8837,53.8012,0,7.20901,6.77072,1.64538,-0.914634,-0.609756,-7.59146,-5.79595,0.153281,8.05685,1.64634,-1.43293,4.84756
564.876,45.8164,53.8214,0,7.12758,6.80904,1.60945,-0.304878,-0.823171,-7.7439,-5.79595,0.210762,8.01853,1.15854,-1.34146,4.81707
564.886,45.7419,53.8483,0,7.12758,6.924,1.70046,-0.518293,0.0609756,-7.62195,-5.85103,0.287402,8.1263,1.03659,-1.0061,4.7561
564.896,45.6635,53.878,0,7.08207,6.93598,1.70286,-1.40244,1.03659,-7.71341,-5.82708,0.316143,8.1287,0.640244,-1.31098,4.72561
564.906,45.5931,53.8925,0,7.09644,6.85694,1.67891,-0.0304878,0.396341,-7.83537,-5.82469,0.311353,8.04966,0.0609756,-1.18902,4.93902
564.916,45.5028,53.9075,0,7.06531,6.96472,1.61664,0.0914634,-0.701219,-8.84146,-5.74565,0.256267,7.95146,-0.121951,-1.4939,4.69512
564.926,45.4362,53.9419,0,7.20422,6.89287,1.73399,1.67683,1.18902,-8.35366,-5.66901,0.217947,7.94428,-0.640244,-1.46341,5.12195
564.936,45.3726,53.9631,0,7.1635,6.88329,1.75555,1.64634,1.67683,-7.92683,-5.65704,0.165256,7.87961,-0.945122,-1.79878,5.2439
564.946,45.3081,54.0007,0,7.02459,6.79467,1.72202,2.89634,4.14634,-7.77439,-5.5804,0.114961,7.8844,-1.4939,-2.19512,5.57927
564.956,45.2749,54.0406,0,7.19464,6.61983,1.72681,3.81098,8.68902,-7.62195,-5.52531,0.131726,7.81495,-1.4939,-1.98171,5.51829
564.966,45.2236,54.1084,0,7.02699,6.71324,1.9232,1.37195,3.96341,-7.34756,-5.44867,0.160466,7.82213,-1.85976,-1.55488,5.7622
564.976,45.1917,54.1657,0,7.03657,6.5408,1.65735,1.58537,6.98171,-7.07317,-5.44388,0.167651,7.79339,-2.13415,-1.67683,5.82317
564.986,45.1582,54.2175,0,6.99825,6.5408,1.80345,2.62195,5.09146,-6.98171,-5.39119,0.203577,7.70238,-2.65244,-1.70732,6.09756
564.996,45.1324,54.2695,0,7.00304,6.52403,1.83458,2.86585,4.54268,-6.46341,-5.35287,0.232317,7.66885,-3.2622,-1.82927,6.28049
565.006,45.104,54.3616,0,7.00783,6.58391,1.89925,3.23171,5.03049,-6.28049,-5.27862,0.205972,7.5994,-3.44512,-0.853659,6.15854
565.016,45.0715,54.4401,0,6.94795,6.66534,1.95194,2.04268,4.39024,-5.54878,-5.27144,0.182021,7.60419,-4.05488,-1.06707,6.4939
565.026,45.0386,54.5276,0,6.90245,6.64857,1.66454,0.823171,3.14024,-5.42683,-5.23551,0.129331,7.55389,-4.11585,-0.792683,6.52439
565.036,45.037,54.5919,0,6.93837,6.445,1.59748,4.35976,0.213415,-4.5122,-5.25707,0.100591,7.50599,-3.68902,-0.396341,6.7378
565.046,45.0294,54.7261,0,6.88568,6.60067,1.81542,3.5061,1.34146,-3.35366,-5.21156,0.0742456,7.5491,-4.02439,-0.0914634,7.07317
565.056,45.0444,54.8359,0,6.79946,6.46895,1.91362,2.40854,2.28659,-2.16463,-5.22833,0.0742456,7.58503,-3.68902,0.152439,7.43902
565.066,45.0678,54.9178,0,6.71563,6.40668,1.9256,1.70732,1.03659,-1.67683,-5.20198,0.0766406,7.58024,-3.35366,0.609756,7.77439
565.076,45.1053,54.9632,0,6.95274,6.41147,1.59748,0.243902,-0.884146,-2.13415,-5.1948,0.0670605,7.56826,-3.32317,1.43293,8.01829
565.086,45.1679,55.005,0,7.03896,6.41626,1.44659,1.03659,-1.40244,-1.52439,-5.22114,0.0934058,7.6473,-3.44512,1.92073,7.80488
565.096,45.2326,55.0264,0,7.12758,6.50727,1.47773,2.46951,-1.92073,-1.28049,-5.2906,0.0694556,7.67364,-3.44512,2.22561,8.20122
565.106,45.2828,55.0474,0,6.96951,6.68929,1.36995,6.21951,0.335366,-0.182927,-5.41274,0.0479004,7.87722,-3.38415,2.86585,8.17073
565.116,45.2495,55.0474,0,6.87371,6.95753,1.64298,5.91463,1.61585,0.0609756,-5.53968,-0.0167651,7.92991,-4.08537,3.10976,7.92683
565.126,45.2056,55.0225,0,6.90005,7.06291,1.82261,4.48171,1.03659,-0.213415,-5.71691,0,8.00416,-4.11585,3.75,7.7439
565.136,45.1676,54.9787,0,6.96472,7.13476,1.79626,3.71951,-1.43293,-1.40244,-5.85103,0.0311353,8.04727,-4.42073,3.68902,7.53049
565.146,45.1359,54.9225,0,7.02699,7.12039,1.73399,4.14634,-2.56098,-1.89024,-5.9612,0.0383203,8.09517,-4.20732,3.65854,7.65244
565.156,45.1011,54.8623,0,7.09165,7.20661,2.00703,3.32317,-0.853659,-2.16463,-6.04742,0.0455054,8.18139,-4.54268,2.83537,7.71341
565.166,45.0672,54.8029,0,7.11321,7.25212,1.89207,0.945122,0.792683,-1.89024,-6.04982,0.0239502,8.18139,-4.96951,2.56098,7.92683
565.176,45.0268,54.7339,0,6.99825,7.15632,1.7292,1.34146,0.335366,-2.53049,-6.09053,0.0215552,8.13828,-5.21341,2.9878,7.89634
565.186,44.978,54.6932,0,7.02938,7.12758,1.57353,3.9939,-2.43902,-4.08537,-6.05221,0.0479004,8.26042,-5.09146,3.29268,7.7439
565.196,44.9139,54.659,0,7.10123,7.26888,1.71004,5.82317,-2.10366,-5.21341,-6.057,0.0694556,8.30353,-5.27439,3.04878,7.65244
565.206,44.8349,54.6156,0,7.03896,7.36229,1.5879,5.79268,-0.182927,-5.60976,-6.06419,0.0502954,8.23408,-5.45732,3.32317,7.59146
565.216,44.7439,54.5678,0,6.93598,7.33594,1.7316,5.82317,1.09756,-6.34146,-6.057,0.0311353,8.1742,-5.54878,3.87195,7.89634
565.226,44.6304,54.5168,0,6.84976,7.38385,1.70046,5.4878,1.61585,-7.71341,-6.02587,0.00479004,8.09038,-5.4878,4.57317,7.95732
565.236,44.5129,54.4755,0,6.88808,7.31439,1.75555,6.28049,1.0061,-9.2378,-6.02108,-0.0598755,8.14067,-5.4878,4.63415,7.9878
565.246,44.3982,54.4422,0,6.99585,7.3072,1.78429,6.98171,1.82927,-10.1524,-6.00671,-0.107776,8.16702,-5.42683,4.93902,7.9878
565.256,44.2329,54.4055,0,6.64857,7.49162,1.9711,4.35976,-3.20122,-11.128,-6.0091,-0.105381,8.13588,-5.27439,5.15244,8.04878
565.266,44.1616,54.3585,0,7.41019,7.11081,1.56395,7.5,4.78659,-11.25,-5.97797,-0.148491,8.00655,-5.30488,5.54878,7.7439
565.276,44.053,54.3266,0,7.01022,7.18266,2.23216,6.15854,0.731707,-11.372,-5.90612,-0.158071,8.00655,-5.57927,5.97561,7.43902
565.286,43.9603,54.2933,0,7.17308,7.17548,1.71004,3.96341,5.94512,-11.372,-5.86301,-0.160466,7.92991,-5.94512,7.07317,7.40854
565.296,43.8474,54.2635,0,6.84736,7.08926,1.78429,3.87195,3.96341,-11.6159,-5.85822,-0.126936,7.93949,-6.06707,7.65244,7.34756
565.306,43.7469,54.2495,0,6.94316,7.00304,1.66693,4.20732,6.70732,-12.1037,-5.81511,-0.105381,7.98979,-6.40244,8.2622,7.77439
565.316,43.6374,54.2161,0,6.86413,7.11321,1.80105,4.08537,5.15244,-11.6463,-5.80074,-0.114961,7.82453,-6.18902,8.81098,7.92683
565.326,43.5224,54.1798,0,6.77312,7.09165,1.76513,3.2622,5.97561,-11.8293,-5.81511,-0.148491,7.81495,-6.58537,9.54268,8.01829
565.336,43.4045,54.1377,0,6.74438,7.04854,1.74357,3.17073,5.64024,-12.4695,-5.78637,-0.141306,7.72633,-5.88415,10.3659,8.23171
565.346,43.2808,54.1039,0,6.71563,7.06052,1.63819,3.56707,1.76829,-12.9573,-5.78876,-0.150886,7.77663,-6.25,10.8841,8.20122
565.356,43.1664,54.0771,0,6.86173,7.08686,1.73639,4.69512,0.884146,-13.2927,-5.73607,-0.160466,7.74789,-6.12805,12.0122,8.32317
565.366,43.052,54.0491,0,6.84976,7.15871,1.80584,3.44512,0.518293,-12.8354,-5.73607,-0.182021,7.73352,-5.97561,12.7744,7.92683
565.376,42.9447,54.0254,0,6.84018,7.17069,1.66454,1.06707,0.0914634,-12.1646,-5.73847,-0.222737,7.75986,-6.37195,13.75,8.29268
565.386,42.8409,54.0111,0,6.73719,7.03896,1.53042,2.0122,0.97561,-12.2256,-5.70494,-0.232317,7.77663,-6.21951,14.2683,8.20122
565.396,42.7222,53.9789,0,6.71324,7.13955,1.55437,2.89634,2.13415,-12.9268,-5.74565,-0.249082,7.69999,-6.7378,14.6341,8.41463
565.406,42.6113,53.9239,0,6.69168,7.15153,1.83698,2.77439,1.4939,-12.0732,-5.78637,-0.246687,7.58742,-5.91463,16.0061,8.84146
565.416,42.4932,53.8696,0,6.69408,7.22098,1.68849,1.21951,1.82927,-12.5,-5.8175,-0.263452,7.61856,-6.09756,16.6463,8.9939
565.426,42.3868,53.8094,0,6.76593,7.19224,1.37714,1.18902,2.13415,-12.4085,-5.83906,-0.263452,7.59221,-5.45732,17.5305,8.84146
565.436,42.286,53.7407,0,6.75635,7.08926,1.02986,3.2622,0.914634,-12.8049,-5.87738,-0.270637,7.56826,-5.67073,18.872,9.26829
565.446,42.1737,53.6796,0,6.61265,7.22817,1.58311,5.94512,-0.945122,-11.7988,-5.90612,-0.253872,7.64011,-5.42683,19.5732,9.11585
565.456,42.0528,53.6138,0,6.64139,7.38385,1.81303,4.08537,2.5,-11.9207,-5.96599,-0.273032,7.66885,-5.7622,20.2134,9.66463
565.466,41.9445,53.5275,0,6.65097,7.23775,1.74836,2.65244,3.84146,-12.1341,-6.06419,-0.308958,7.63293,-5.42683,20.4573,9.35976
565.476,41.8217,53.4255,0,6.57433,7.22817,1.57113,1.15854,6.18902,-13.2317,-6.05221,-0.325723,7.48923,-5.21341,21.4024,9.42073
565.486,41.6902,53.3177,0,6.53361,7.18027,1.55676,1.85976,6.25,-14.3902,-6.06419,-0.299377,7.43893,-5.30488,22.1646,9.45122
565.496,41.5511,53.2344,0,6.54798,7.31199,1.60945,1.89024,6.31098,-14.5122,-6.1073,-0.282612,7.63053,-5.73171,22.5915,9.7561
565.506,41.3875,53.1272,0,6.41865,7.37906,1.65975,0.640244,6.61585,-15.6098,-6.14802,-0.227527,7.49641,-6.06707,23.3841,9.69512
565.516,41.2218,53.0212,0,6.43781,7.33834,1.48491,1.03659,5.82317,-16.6463,-6.15281,-0.179626,7.48204,-5.64024,24.1159,9.69512
565.526,41.0407,52.8971,0,6.36357,7.42696,1.48012,0.762195,5.70122,-17.1951,-6.21747,-0.146096,7.41259,-5.97561,24.6037,9.90854
565.536,40.8613,52.7682,0,6.45218,7.49162,1.5376,1.52439,5.60976,-17.6829,-6.29172,-0.134121,7.43654,-6.37195,25.3659,10.0305
565.546,40.6982,52.6321,0,6.56714,7.53473,1.52084,3.17073,5.27439,-17.0732,-6.2989,-0.148491,7.36469,-6.4939,26.189,10.1829
565.556,40.5173,52.4941,0,6.42344,7.65448,1.5855,3.35366,3.38415,-17.0427,-6.33483,-0.208367,7.3599,-6.21951,27.1341,9.5122
565.566,40.3422,52.3525,0,6.35399,7.58982,1.58071,3.75,5.91463,-16.6768,-6.32046,-0.268242,7.28565,-6.40244,27.7134,9.17683
565.576,40.1481,52.2112,0,6.19592,7.5491,1.73878,3.01829,4.69512,-17.8354,-6.34201,-0.301772,7.27607,-6.18902,28.2012,9.20732
565.586,39.972,52.0605,0,6.35159,7.52755,1.52323,3.32317,5.39634,-17.9878,-6.37554,-0.328118,7.21859,-6.25,29.2378,8.93293
565.596,39.7869,51.9076,0,6.24142,7.58024,1.64059,2.13415,4.35976,-17.8659,-6.43781,-0.368833,7.23775,-6.15854,29.939,8.90244
565.606,39.6101,51.7389,0,6.23903,7.52276,1.67172,2.13415,4.42073,-17.8049,-6.46416,-0.361648,7.12997,-6.58537,31.2195,8.59756
565.616,39.4316,51.5546,0,6.25579,7.56826,1.66933,1.40244,4.90854,-18.1402,-6.4929,-0.328118,7.0222,-6.76829,32.1646,8.53659
565.626,39.262,51.3649,0,6.26537,7.43414,1.36756,-0.335366,3.41463,-18.7195,-6.53601,-0.308958,6.99106,-6.40244,32.5915,8.47561
565.636,39.1052,51.1535,0,6.33004,7.3599,1.16398,3.17073,3.9939,-18.9329,-6.55038,-0.282612,6.8282,-6.09756,33.4146,8.2622
565.646,38.9246,50.9587,0,6.19113,7.5491,1.48491,4.78659,3.71951,-18.9329,-6.56475,-0.304167,6.89526,-6.34146,34.6037,8.62805
565.656,38.7577,50.7467,0,6.2534,7.71675,1.47294,6.21951,1.58537,-17.2256,-6.63181,-0.265847,6.81383,-6.64634,34.5427,8.35366
565.666,38.5409,50.5271,0,5.85822,8.2245,1.56634,6.0061,-5.57927,-15.3963,-6.6366,-0.280217,6.72521,-6.31098,35.9146,7.92683
565.676,38.4773,50.3139,0,6.69408,7.94667,1.51844,13.9329,-1.4939,-9.69512,-6.69647,-0.294587,6.77312,-6.46341,37.1341,8.04878
565.686,38.4898,50.0834,0,6.94077,8.0329,1.41306,15.1829,3.38415,-3.62805,-6.75156,-0.316143,6.67731,-6.43293,38.4451,7.80488
565.696,38.553,49.8554,0,6.69408,8.43047,1.59508,19.2988,-10.7012,6.52439,-6.78509,-0.337698,6.67252,-6.76829,39.3902,7.46951
565.706,38.6729,49.599,0,6.55996,8.02571,1.32924,24.4817,-11.5549,10.7927,-6.88089,-0.395178,6.54798,-6.40244,40.2744,7.53049
565.716,38.7415,49.3415,0,6.1073,7.15632,1.44659,20.7012,-1.67683,2.59146,-6.94316,-0.450264,6.54319,-6.52439,41.4329,7.0122
565.726,38.6731,49.0631,0,5.5301,7.0222,1.62143,13.1098,2.62195,-5.91463,-7.06531,-0.483794,6.47853,-6.43293,41.6159,6.7378
565.736,38.5869,48.7844,0,5.83427,6.84018,1.07776,9.69512,8.01829,-12.439,-7.1156,-0.479004,6.45937,-6.40244,42.1646,6.67683
565.746,38.4458,48.4875,0,5.83427,6.84018,0.948428,8.53659,5.64024,-18.2317,-7.1635,-0.488584,6.33722,-6.34146,42.6524,6.64634
565.756,38.2469,48.1931,0,5.82948,7.02699,0.924478,6.92073,10.6707,-22.8049,-7.22098,-0.443079,6.33722,-6.40244,43.5976,6.55488
565.766,38.0739,47.8799,0,6.45218,7.13716,0.5772,5.97561,14.6037,-25.5488,-7.31199,-0.414338,6.24621,-6.98171,44.8476,6.85976
565.776,37.815,47.5658,0,5.83187,7.28565,1.42983,5.12195,3.07927,-27.6524,-7.33834,-0.323328,6.19592,-7.68293,46.0976,6.58537
565.786,37.6162,47.2437,0,6.81383,7.58024,0.498164,3.44512,18.7805,-28.7195,-7.39103,-0.344883,6.12885,-8.81098,47.1951,6.40244
565.796,37.3606,46.9011,0,6.01629,7.52994,1.14482,6.21951,0.914634,-28.1402,-7.44133,-0.299377,5.98994,-9.39024,48.5061,6.06707
565.806,36.8979,46.5494,0,4.26553,8.85918,2.74469,0.823171,-4.2378,-23.4451,-7.48204,-0.306563,5.90133,-10.5488,49.5732,5.91463
565.817,36.3694,46.1788,0,4.23679,6.68689,2.15312,-20,10.8537,-44.6646,-7.56347,-0.368833,5.79116,-10.7927,50.3659,6.09756
565.826,36.0238,45.8019,0,5.03912,3.8967,1.00591,-24.0854,-0.914634,-67.7439,-7.59461,-0.347278,5.70494,-11.6768,50.7012,6.0061
565.836,35.8841,45.4005,0,10.4998,7.09644,-3.37698,-3.38415,73.4451,-54.9085,-7.62095,-0.411943,5.52052,-12.0732,51.3415,6.58537
565.846,35.392,44.9915,0,5.49178,8.83044,3.07281,10.4878,-28.628,-42.0427,-7.70717,-0.397573,5.46304,-12.1341,52.1037,6.43293
565.856,35.0619,44.5844,0,7.25451,9.94891,1.66693,-0.487805,17.7134,-35.122,-7.77184,-0.435894,5.43669,-12.1341,53.1402,6.58537
565.866,34.8008,44.1519,0,6.12885,8.50471,1.92081,2.07317,4.66463,-28.1098,-7.81016,-0.493374,5.25467,-12.2561,54.5122,6.70732
565.876,34.6277,43.7259,0,6.50727,8.59093,1.0083,4.42073,21.0061,-22.439,-7.87722,-0.522114,5.24749,-12.8963,55.6098,6.4939
565.886,34.4124,43.2933,0,5.69296,8.52387,1.38193,7.53049,8.87195,-20.1524,-7.92033,-0.589175,5.15887,-13.4146,56.0976,6.7378
565.896,34.181,42.8467,0,5.33371,8.25563,1.51605,8.47561,7.34756,-20.4573,-7.99937,-0.696951,5.05589,-13.3537,56.311,6.61585
565.906,33.9376,42.4275,0,5.3385,8.27479,1.39869,6.21951,8.20122,-22.0732,-8.0329,-0.804727,5.12534,-13.6585,56.0976,5.94512
565.916,33.655,41.956,0,4.91698,7.99937,1.56634,4.78659,5.94512,-24.0244,-8.14307,-0.886157,4.8547,-13.5061,57.1951,5.45732
565.926,33.3578,41.5044,0,5.0511,7.94428,1.16637,1.06707,8.35366,-27.8659,-8.1263,-0.878972,4.85231,-13.4146,58.3841,4.96951
565.936,33.0666,41.031,0,5.07744,7.64969,1.06099,3.56707,5.57927,-30.1524,-8.16941,-0.864602,4.68705,-12.9268,59.5732,4.5122
565.946,32.8013,40.542,0,5.4319,7.96584,1.00112,4.72561,7.56098,-29.5732,-8.16941,-0.792751,4.52419,-12.7744,59.5427,5
565.956,32.5099,40.0583,0,5.29299,8.32269,1.43222,6.31098,8.75,-29.0244,-8.19815,-0.761616,4.4739,-12.622,59.7866,5.36585
565.966,32.2194,39.5812,0,5.26186,8.49513,1.66933,6.06707,11.5244,-28.1402,-8.31551,-0.737666,4.47869,-11.7683,59.6646,5.97561
565.976,31.9525,39.0761,0,5.41753,8.52866,1.76513,4.05488,11.4024,-27.6524,-8.35862,-0.740061,4.28229,-11.2805,60.5183,6.58537
565.986,31.6976,38.5636,0,5.53968,8.66518,1.67891,3.5061,10.6707,-27.3171,-8.40891,-0.797541,4.1817,-10.9756,62.1341,6.92073
565.996,31.4742,38.0831,0,5.5301,8.73703,1.80105,3.62805,7.83537,-24.0854,-8.49513,-0.862207,4.2799,-11.6463,62.5915,6.92073
566.006,31.2495,37.5821,0,5.29539,8.7538,1.53521,1.98171,10.2439,-22.3171,-8.55501,-0.845442,4.12422,-11.4329,61.9817,6.67683
566.016,31.0083,37.0593,0,4.98883,8.34425,1.11129,1.95122,9.69512,-23.8415,-8.59812,-0.847837,3.95178,-10.7622,61.4634,6.98171
566.026,30.7145,36.5428,0,4.5697,8.34664,1.3484,4.57317,4.05488,-25.2744,-8.6101,-0.905317,3.89191,-9.93902,61.7378,7.34756
566.036,30.45,36.0498,0,4.90021,8.22929,1.08973,6.0061,8.68902,-27.1037,-8.64842,-0.926873,3.92304,-10.0305,62.1646,7.40854
566.046,30.2543,35.5015,0,5.5301,8.98372,0.960403,8.01829,13.2927,-22.3476,-8.68913,-0.926873,3.60211,-10.3049,63.3841,7.43902
566.056,30.0128,34.9991,0,3.87993,8.38017,2.09325,12.0122,-5.64024,-13.5976,-8.74661,-0.917292,3.73623,-10.9451,63.5671,7.22561
566.066,29.6575,34.4522,0,3.80329,7.48204,1.57353,5.27439,13.4146,-30,-8.81607,-0.888552,3.47278,-10.2134,63.0183,7.19512
566.076,29.3405,33.8765,0,4.91219,8.32988,1.07297,4.63415,20.2744,-34.1159,-8.81846,-0.833467,3.25004,-9.35976,64.0854,7.37805
566.086,28.9314,33.3584,0,3.92065,9.58247,1.85854,5.33537,8.65854,-27.2866,-8.8496,-0.773591,3.41769,-8.78049,65,7.62195
566.096,28.6893,32.7777,0,5.02475,8.91426,1.11129,8.87195,9.48171,-25.6707,-8.943,-0.785566,3.08239,-7.89634,65.3659,7.95732
566.106,28.4459,32.1661,0,4.71579,8.86636,1.40348,8.84146,8.04878,-23.4451,-9.00288,-0.754431,2.86684,-7.71341,66.7683,7.56098
566.116,28.116,31.5688,0,4.00926,9.34058,1.94715,7.0122,3.62805,-23.0183,-9.18011,-0.795146,2.87881,-7.0122,66.311,7.2561
566.126,27.9058,30.9586,0,4.86668,8.77296,1.30768,8.10976,10.7622,-23.2927,-9.27591,-0.850232,2.74469,-6.4939,65.3354,7.16463
566.136,27.4493,30.3606,0,2.71835,9.02683,2.86205,9.60366,-10.7927,-23.8415,-9.29507,-0.876577,2.69679,-6.21951,65.3049,6.43293
566.146,27.0744,29.7763,0,4.0404,8.3203,1.17595,2.10366,10.1524,-35.0915,-9.29028,-0.922083,2.65129,-5.39634,64.6646,5.54878
566.156,26.4056,29.1627,0,2.10043,8.94061,2.60578,4.32927,-9.11585,-39.9695,-9.1849,-0.946033,2.39262,-5.2439,64.7561,5.18293
566.166,26.1274,28.5705,0,5.06307,9.59445,1.78189,5.91463,-0.0304878,-31.2805,-9.19448,-0.962798,2.38304,-4.5122,65.3354,5.27439
566.176,25.751,27.9822,0,3.44164,8.99809,2.47166,-0.670732,-11.6159,-27.8049,-9.06754,-0.900527,2.26808,-4.57317,66.2805,5.51829
566.186,25.7156,27.4153,0,6.6342,8.60291,-0.886157,4.69512,34.878,-27.8659,-9.05317,-0.857417,2.25611,-4.42073,65.9146,6.34146
566.196,25.2027,26.8543,0,2.32317,8.14546,3.06802,8.35366,-23.9939,-32.3476,-9.12981,-0.843047,2.20342,-3.56707,64.8171,7.37805
566.206,25.0844,26.1811,0,5.85343,9.19448,0.680186,7.28659,24.5427,-26.9207,-9.15856,-0.804727,1.64538,-1.92073,66.4634,7.95732
566.216,24.7481,25.5822,0,3.32429,8.89031,2.13636,10.2744,-5.30488,-24.9695,-9.33579,-0.802332,1.88009,-0.518293,66.6159,8.29268
566.226,24.5714,25.0181,0,4.81159,9.06036,1.12805,9.54268,15.6402,-24.6037,-9.46751,-0.821492,1.95434,0.548781,65.9146,8.23171
566.236,24.226,24.4841,0,3.27878,8.82325,1.91362,5.36585,-0.579268,-26.7073,-9.56331,-0.814307,2.00703,1.0061,64.4512,7.62195
566.246,23.9044,23.8921,0,3.73144,9.06036,1.12805,3.41463,9.63415,-29.0549,-9.5681,-0.890947,1.66214,1.89024,64.6951,6.67683
566.256,23.4993,23.3386,0,3.11113,8.8951,1.66214,-0.0304878,5.09146,-31.8902,-9.616,-0.845442,1.73639,2.40854,64.939,5.82317
566.266,23.1966,22.8526,0,3.73384,9.05796,1.35319,3.07927,5.2439,-28.6585,-9.61121,-0.778381,1.93518,2.71341,64.0549,4.7561
566.276,22.9454,22.3107,0,3.87275,8.95019,1.42025,7.0122,3.17073,-26.0366,-9.55134,-0.670605,1.59508,2.07317,63.3232,4.60366
566.286,22.6779,21.765,0,3.54942,8.89989,1.75076,7.0122,-1.55488,-24.8476,-9.49865,-0.641865,1.47773,2.2561,63.1098,5.03049
566.296,22.4875,21.2651,0,4.02603,8.98372,1.31726,7.56098,5.88415,-22.4085,-9.58726,-0.627495,1.59508,2.43902,61.8902,4.87805
566.306,22.2923,20.7522,0,3.92065,9.12742,1.35558,7.83537,4.14634,-21.4634,-9.61361,-0.63947,1.45617,2.86585,60.4878,5.30488
566.316,22.0973,20.1874,0,3.73863,9.03641,1.62382,7.34756,2.19512,-20.2744,-9.63756,-0.675395,1.14721,4.26829,60.1829,5.51829
566.326,21.8857,19.6699,0,3.37219,8.85918,1.47773,6.0061,4.84756,-19.0244,-9.67827,-0.756826,1.25978,4.7561,60.1524,5.67073
566.336,21.4557,19.1415,0,1.81303,8.79212,1.84417,4.48171,-11.5854,-22.9878,-9.74054,-0.802332,1.13045,5.42683,59.2683,5.09146
566.346,21.3094,18.6466,0,4.09309,9.32381,1.45617,8.78049,5.30488,-19.5122,-9.75252,-0.831072,1.18553,6.52439,58.1402,4.69512
566.356,21.0751,18.1904,0,3.0776,9.10586,1.51126,7.95732,-1.40244,-18.5366,-9.83874,-0.821492,1.27894,6.46341,56.4939,4.39024
566.366,20.8622,17.7379,0,3.19256,9.21364,1.44659,6.46341,-0.823171,-17.7134,-9.77886,-0.732876,1.20709,6.43293,55.2744,3.56707
566.376,20.677,17.2622,0,3.43446,9.08191,0.969983,8.96341,5.67073,-18.5976,-9.75731,-0.673001,1.02507,7.07317,54.6341,3.62805
566.386,20.4692,16.7895,0,3.13508,9.08431,1.46815,13.5976,2.13415,-17.8659,-9.7597,-0.689766,0.955613,6.67683,53.9634,3.68902
566.396,20.292,16.3148,0,3.37698,9.41243,1.55437,11.4939,9.29878,-16.5854,-9.7597,-0.708926,0.864602,6.09756,52.5,3.68902
566.406,20.1153,15.8456,0,3.39614,9.32142,1.29092,10.1829,10.1524,-17.4695,-9.77647,-0.665815,0.807122,5.73171,51.189,3.93293
566.416,19.9621,15.3851,0,3.51828,9.15137,1.26457,13.0183,14.939,-17.5,-9.78605,-0.603545,0.764011,5.91463,50.0305,4.26829
566.426,19.6958,14.9272,0,2.67763,9.33818,1.58311,10.6098,6.18902,-19.0854,-9.91299,-0.56762,0.704136,6.31098,48.9634,4.63415
566.436,19.5095,14.4908,0,3.29794,9.71659,1.36756,11.372,10.2134,-17.0732,-9.98484,-0.603545,0.723296,6.31098,47.7134,5.06098
566.446,19.2655,14.0559,0,2.69679,9.76689,1.45378,10.2744,11.311,-16.5854,-10.0423,-0.613125,0.656235,6.25,46.372,5.36585
566.456,19.0045,13.6509,0,2.6944,9.7621,1.38672,8.41463,12.378,-18.811,-10.0423,-0.5772,0.711321,5.85366,44.9085,5.94512
566.466,18.7081,13.1967,0,2.39981,9.61361,1.79626,7.80488,4.08537,-20.061,-10.0088,-0.55325,0.419128,5.51829,43.75,6.4939
566.476,18.4416,12.7267,0,2.63692,9.4723,1.37474,6.34146,12.1341,-20.7622,-9.98005,-0.510139,0.268242,5.91463,42.8963,6.64634
566.486,18.1491,12.2828,0,2.40699,9.43877,1.57592,4.96951,6.15854,-21.4024,-9.96089,-0.486189,0.299377,6.4939,41.4329,7.2561
566.496,17.9011,11.854,0,2.82133,9.55852,1.46336,4.17683,8.20122,-21.8293,-9.95131,-0.467029,0.287402,6.4939,40.2439,7.65244
566.506,17.6524,11.4156,0,2.72314,9.57529,1.62861,1.34146,3.20122,-21.25,-9.9537,-0.519719,0.170046,6.61585,39.2988,7.5
566.516,17.4173,10.9685,0,2.69919,9.44117,1.40827,-1.40244,4.17683,-20.5183,-9.96328,-0.514929,0.0550855,6.21951,38.7195,6.82927
566.526,17.1974,10.5168,0,2.71116,9.39327,1.29571,-1.89024,2.07317,-19.7561,-9.93694,-0.550855,-0.0431104,5.91463,38.4146,6.52439
566.536,16.9781,10.0898,0,2.65129,9.54415,1.40109,-3.04878,-0.0914634,-18.9634,-9.98005,-0.524509,-0.0143701,5.60976,37.2561,6.06707
566.546,16.7767,9.65913,0,2.72074,9.29986,1.11847,-3.87195,2.86585,-19.1768,-10.0064,-0.560435,-0.105381,5,36.7378,5.91463
566.556,16.5551,9.20536,0,2.54591,9.49146,1.40827,-3.75,0.0609756,-19.0244,-9.98723,-0.61552,-0.282612,4.7561,36.128,5.60976
566.566,16.3857,8.74786,0,2.85965,9.43877,1.17595,-4.2378,1.31098,-17.8963,-10.0447,-0.627495,-0.380808,4.63415,35.6707,5.79268
566.576,16.2065,8.30682,0,2.65368,9.24478,1.1999,-4.5122,-0.823171,-17.5305,-10.0735,-0.66342,-0.390388,4.78659,34.3598,5.70122
566.586,16.0456,7.85794,0,2.68242,9.35974,1.19751,-3.71951,-1.40244,-15.9756,-10.0567,-0.694556,-0.502954,5.03049,33.4146,5.94512
566.596,15.8612,7.39898,0,2.39981,9.41003,1.33163,-4.81707,-6.52439,-15.2744,-10.0615,-0.704136,-0.627495,5.57927,32.9878,6.34146
566.606,15.7043,6.94753,0,2.54112,9.46751,1.23583,-4.32927,-4.78659,-14.2988,-10.095,-0.744851,-0.677791,6.37195,32.378,6.21951
566.616,15.5821,6.47711,0,2.63931,9.39566,1.24781,-3.78049,-5.03049,-12.439,-10.095,-0.771196,-0.843047,6.70732,31.9207,6.09756
566.626,15.4697,5.98681,0,2.56267,9.40045,1.42743,-4.5122,-6.98171,-10.7927,-10.0184,-0.752036,-1.0083,6.95122,31.7073,5.64024
566.636,15.3748,5.50551,0,2.60578,9.51781,1.29331,-5.97561,-8.71951,-9.35976,-10.0303,-0.723296,-1.0562,7.62195,31.5549,5.45732
566.646,15.2655,5.03001,0,2.43334,9.52499,1.35079,-5.94512,-12.6829,-9.02439,-10.0303,-0.730481,-1.11608,7.71341,30.8841,5.27439
566.656,15.1648,4.58094,0,2.47166,9.62558,1.35558,-6.95122,-13.5061,-8.5061,-9.96328,-0.692161,-1.07536,8.14024,30.2744,5.4878
566.666,15.0805,4.14427,0,2.5483,9.57289,1.37714,-8.07927,-14.9085,-8.07927,-10.0663,-0.66342,-1.11129,8.04878,29.5427,5.06098
566.676,15.016,3.71687,0,2.66326,9.48667,1.26936,-8.04878,-13.5366,-7.80488,-10.083,-0.637075,-1.14961,7.7439,29.1768,5.33537
566.686,14.9548,3.31715,0,2.63931,9.49146,1.40827,-7.80488,-13.7195,-7.31707,-10.0543,-0.627495,-1.09931,7.0122,27.7134,4.90854
566.696,14.9135,2.8987,0,2.72074,9.38129,1.27894,-8.04878,-11.7073,-6.70732,-9.9561,-0.59636,-1.24302,6.79878,26.8902,5.39634
566.706,14.8765,2.47476,0,2.72793,9.36453,1.29092,-8.01829,-10.6402,-6.4939,-9.91778,-0.548459,-1.33642,6.82927,26.7683,4.96951
566.716,14.8334,2.05811,0,2.63452,9.34058,1.346,-7.28659,-9.69512,-6.18902,-9.87227,-0.550855,-1.37235,6.46341,26.8293,5
566.726,14.776,1.65576,0,2.48603,9.43877,1.35319,-6.28049,-8.84146,-5.70122,-9.88664,-0.541274,-1.38432,5.85366,26.5854,4.72561
566.736,14.7121,1.28816,0,2.54351,9.5202,1.38911,-9.45122,-8.20122,-6.89024,-9.87706,-0.574805,-1.3005,5.7622,25.4878,4.42073
566.746,14.6883,0.925872,0,2.78062,9.19927,0.828677,-5.30488,-5.33537,-6.7378,-9.90341,-0.579595,-1.346,5.4878,24.3902,4.05488
566.756,14.6283,0.574278,0,2.50998,9.53457,1.50407,-5.54878,-8.23171,-6.25,-9.92017,-0.55804,-1.36516,5.21341,23.689,3.59756
566.766,14.5695,0.208081,0,2.49561,9.52739,1.51365,-6.82927,-7.31707,-6.09756,-9.95849,-0.603545,-1.49928,4.96951,22.5,3.2622
566.776,14.5288,-0.168831,0,2.60818,9.47949,1.4921,-6.95122,-5.67073,-5.82317,-9.95131,-0.622705,-1.61185,5,22.1037,2.92683
566.786,14.5111,-0.535429,0,2.68721,9.44117,1.42504,-6.92073,-4.72561,-4.63415,-9.98005,-0.63947,-1.63819,4.81707,21.128,2.46951
566.796,14.5044,-0.911098,0,2.71356,9.29986,1.34121,-5.18293,-3.62805,-4.35976,-10.0375,-0.61073,-1.75555,5.18293,20.4878,2.13415
566.806,14.5108,-1.28025,0,2.77104,9.29747,1.42743,-4.90854,-1.70732,-3.81098,-9.99442,-0.637075,-1.78668,5.21341,19.6951,2.10366
566.816,14.5228,-1.64928,0,2.76385,9.30226,1.32924,-3.65854,-0.426829,-3.2622,-10.0112,-0.555645,-1.85614,5.06098,19.2683,1.79878
566.826,14.5297,-2.03481,0,2.68721,9.33818,1.35798,-3.04878,0.670732,-2.80488,-10.0136,-0.550855,-1.99984,5.82317,18.3841,1.82927
566.836,14.5375,-2.37992,0,2.68003,9.46751,1.36516,-2.89634,-0.609756,-2.28659,-10.1214,-0.502954,-1.90644,6.98171,16.6463,1.67683
566.846,14.5299,-2.68396,0,2.59141,9.47949,1.40348,-3.41463,-1.79878,-2.53049,-10.0974,-0.476609,-1.7771,6.61585,15.3963,1.25
566.856,14.5275,-2.96183,0,2.63213,9.41243,1.54718,-3.38415,-0.518293,-2.7439,-10.0471,-0.414338,-1.70525,5.18293,13.75,1.12805
566.866,14.5443,-3.24352,0,2.76385,9.42201,1.59029,-3.10976,-0.762195,-2.53049,-10.0256,-0.419128,-1.76992,4.08537,12.8049,0.914634
566.876,14.5848,-3.52628,0,2.87881,9.39566,1.55916,-2.56098,1.58537,-2.07317,-9.90101,-0.402363,-1.80345,2.19512,12.2561,1.06707
566.886,14.6453,-3.81904,0,2.84049,9.28549,1.48252,-1.09756,3.75,-1.34146,-9.79803,-0.443079,-1.88009,1.15854,11.4939,1.52439
566.896,14.7158,-4.10896,0,2.84049,9.35974,1.66693,-0.304878,4.90854,-0.853659,-9.74533,-0.416733,-1.90883,-0.457317,11.6768,1.89024
566.906,14.8038,-4.39153,0,2.74709,9.35495,1.6334,0.457317,4.7561,-0.0914634,-9.74533,-0.450264,-1.92799,-1.25,10.8537,2.7439
566.916,14.8513,-4.67999,0,2.63931,9.37171,1.64059,0.121951,4.20732,0.27439,-9.73336,-0.517324,-2.00224,-1.67683,10.3963,3.53659
566.926,14.8735,-4.95197,0,2.56986,9.42201,1.5376,0.213415,5.42683,0.701219,-9.7597,-0.560435,-1.98547,-2.04268,9.78659,3.44512
566.936,14.8837,-5.21344,0,2.51238,9.41482,1.55916,0.0914634,3.41463,0.792683,-9.8124,-0.574805,-1.99745,-2.53049,9.69512,3.56707
566.946,14.8585,-5.47306,0,2.39262,9.46272,1.50168,0.579268,3.35366,0.487805,-9.81,-0.5772,-2.03577,-2.13415,9.02439,3.53659
566.956,14.8236,-5.72811,0,2.39262,9.49625,1.59269,0.243902,3.29268,0.152439,-9.84593,-0.5772,-2.0693,-2.37805,8.71951,3.41463
566.966,14.7949,-5.99119,0,2.40939,9.49386,1.66693,0.152439,2.43902,-0.609756,-9.79803,-0.536484,-2.14115,-2.71341,8.59756,3.01829
566.976,14.7724,-6.23502,0,2.44531,9.55373,1.64777,-0.243902,3.47561,-0.609756,-9.77168,-0.5772,-2.09564,-3.35366,8.53659,3.07927
566.986,14.7435,-6.49479,0,2.39502,9.46512,1.56395,0.487805,4.08537,-0.97561,-9.74773,-0.58678,-2.20581,-3.75,8.47561,2.7439
566.996,14.6973,-6.73645,0,2.3064,9.51541,1.70046,0.457317,3.5061,-1.06707,-9.75491,-0.66821,-2.17228,-3.56707,8.17073,2.95732
567.006,14.655,-6.97773,0,2.31119,9.46751,1.70046,-0.243902,2.31707,-1.06707,-9.74054,-0.725691,-2.2106,-3.56707,7.7439,2.83537
567.017,14.631,-7.20234,0,2.39502,9.45314,1.53042,-0.121951,2.19512,-0.853659,-9.77647,-0.740061,-2.18665,-3.62805,7.28659,2.9878
567.026,14.623,-7.39821,0,2.44771,9.4268,1.52084,0.0914634,2.04268,-0.487805,-9.79323,-0.752036,-2.10043,-3.84146,6.55488,3.20122
567.036,14.6193,-7.57673,0,2.47406,9.51062,1.54718,-0.0914634,1.79878,-0.182927,-9.84832,-0.780776,-2.0669,-3.81098,5.54878,2.92683
567.046,14.6126,-7.75794,0,2.4501,9.45554,1.51126,0.213415,1.52439,-0.213415,-9.92736,-0.742456,-2.11959,-3.41463,4.35976,3.10976
567.056,14.6287,-7.94798,0,2.52675,9.48667,1.51126,-0.0914634,1.37195,-0.0304878,-9.88664,-0.682581,-2.15312,-3.56707,3.23171,3.17073
567.066,14.63,-8.15138,0,2.49082,9.49146,1.46575,0.304878,0.884146,-0.243902,-9.8579,-0.6251,-2.17228,-3.53659,2.31707,3.32317
567.076,14.625,-8.39236,0,2.48843,9.55613,1.53042,0.457317,1.85976,-0.365854,-9.88185,-0.59636,-2.22018,-3.78049,1.40244,3.65854
567.086,14.6584,-8.65141,0,2.62015,9.4723,1.57113,-0.335366,2.34756,-0.365854,-9.86748,-0.632285,-2.28724,-4.05488,1.25,3.44512
567.096,14.6473,-8.90606,0,2.43334,9.41961,1.61664,0.762195,2.34756,-0.27439,-9.86988,-0.656235,-2.29203,-4.32927,1.12805,3.53659
567.106,14.6646,-9.2171,0,2.53393,9.48188,1.5855,0.579268,3.07927,0,-9.85072,-0.725691,-2.36388,-4.57317,0.670732,3.56707
567.116,14.6554,-9.59189,0,2.44292,9.45075,1.62622,0.609756,2.04268,0.0304878,-9.81958,-0.799937,-2.3543,-4.02439,-0.152439,3.5061
567.126,14.6633,-9.87536,0,2.52435,9.43638,1.61185,1.09756,3.29268,-0.548781,-9.81479,-0.759221,-2.34712,-3.68902,-0.518293,3.75
567.136,14.6811,-10.0485,0,2.54112,9.48907,1.65017,0.396341,2.86585,0.0914634,-9.78844,-0.802332,-2.26329,-4.02439,-1.34146,3.90244
567.146,14.7005,-10.1993,0,2.55309,9.41003,1.57353,0.426829,3.59756,-0.365854,-9.76449,-0.780776,-2.29922,-4.35976,-2.07317,3.9939
567.156,14.7327,-10.3341,0,2.63213,9.41961,1.55197,0.579268,4.42073,-0.548781,-9.82197,-0.802332,-2.31359,-4.05488,-2.5,4.14634
567.166,14.7587,-10.4562,0,2.60578,9.40524,1.53042,0.27439,4.81707,-0.548781,-9.74773,-0.766406,-2.28964,-3.68902,-3.04878,4.45122
567.176,14.7899,-10.5743,0,2.57944,9.34537,1.52323,1.15854,6.0061,-0.27439,-9.79084,-0.807122,-2.32556,-3.20122,-3.81098,4.7561
567.186,14.7733,-10.7085,0,2.4549,9.47709,1.60945,0.97561,7.43902,-0.640244,-9.70222,-0.819097,-2.39023,-2.77439,-3.59756,4.45122
567.196,14.729,-10.8536,0,2.31119,9.45314,1.67651,0.762195,5.73171,-1.06707,-9.616,-0.802332,-2.4046,-2.2561,-2.80488,4.66463
567.206,14.6763,-11.0164,0,2.2609,9.51062,1.60466,0.0914634,5.4878,-1.67683,-9.54415,-0.831072,-2.41897,-2.19512,-2.10366,5
567.216,14.6234,-11.1459,0,2.27048,9.57289,1.61664,-0.518293,4.26829,-2.13415,-9.56571,-0.859812,-2.31119,-2.34756,-1.89024,5.54878
567.226,14.5757,-11.2431,0,2.30401,9.61361,1.5855,-0.731707,2.46951,-2.04268,-9.60642,-0.866997,-2.23934,-2.34756,-1.98171,5.67073
567.236,14.5454,-11.3481,0,2.41897,9.60403,1.47773,-1.06707,2.62195,-2.0122,-9.6639,-0.941243,-2.31838,-2.62195,-2.19512,5.67073
567.246,14.5181,-11.443,0,2.4501,9.54655,1.46575,-1.12805,1.46341,-2.43902,-9.74773,-0.984353,-2.33993,-1.64634,-2.53049,5.73171
567.256,14.5153,-11.5419,0,2.58423,9.51781,1.58311,-1.76829,0.914634,-1.98171,-9.75491,-1.01788,-2.35909,-0.609756,-2.19512,5.67073
567.266,14.5215,-11.6239,0,2.60099,9.48907,1.39151,-2.0122,0.579268,-1.61585,-9.74054,-0.998723,-2.3064,0.518293,-2.19512,5.73171
567.276,14.5186,-11.7072,0,2.53393,9.39087,1.30289,-1.31098,-0.792683,-1.85976,-9.78605,-0.996328,-2.35191,0.609756,-2.5,5.45732
567.286,14.5194,-11.7688,0,2.53154,9.39566,1.36995,-1.21951,-0.335366,-1.55488,-9.72138,-0.931663,-2.26569,0.792683,-2.65244,5.39634
567.296,14.5136,-11.8424,0,2.52196,9.40524,1.49689,-1.82927,-1.18902,-1.89024,-9.66151,-0.958008,-2.3088,0.945122,-2.62195,5.03049
567.306,14.525,-11.908,0,2.66326,9.32621,1.61664,-2.89634,-1.28049,-2.31707,-9.64953,-0.979563,-2.29443,1.34146,-2.92683,5.12195
567.316,14.5499,-11.9749,0,2.80217,9.35016,1.40588,-2.34756,2.2561,-2.53049,-9.63516,-0.953218,-2.31359,1.0061,-3.20122,5.30488
567.326,14.5671,-12.027,0,2.77104,9.44596,1.46815,-2.7439,5.21341,-2.46951,-9.59684,-0.926873,-2.2585,1.06707,-3.53659,5.15244
567.336,14.5603,-12.0734,0,2.62015,9.42201,1.35558,-2.92683,7.5,-2.89634,-9.55613,-0.859812,-2.23455,0.365854,-3.62805,5.45732
567.346,14.5272,-12.122,0,2.46687,9.44835,1.32924,-3.14024,9.69512,-3.53659,-9.64235,-0.893342,-2.27048,-0.640244,-3.41463,5.88415
567.356,14.4683,-12.1607,0,2.3064,9.43398,1.41306,-3.29268,9.11585,-4.35976,-9.77886,-1.01788,-2.27048,-1.58537,-3.41463,4.93902
567.366,14.4221,-12.1726,0,2.37107,9.52739,1.27176,-4.45122,9.66463,-3.65854,-9.86988,-1.17595,-2.18426,-2.22561,-4.57317,3.56707
567.376,14.3591,-12.2168,0,2.22018,9.64474,1.27415,-4.35976,8.65854,-3.2622,-9.8555,-1.15679,-2.33275,-1.7378,-6.0061,2.56098
567.386,14.2839,-12.264,0,2.15552,9.65672,1.2502,-4.93902,5.36585,-3.93293,-9.74054,-1.08973,-2.32796,-0.640244,-7.04268,2.43902
567.396,14.2368,-12.3074,0,2.36149,9.616,1.20469,-5.60976,3.44512,-3.78049,-9.67348,-1.11129,-2.30401,-0.0914634,-7.53049,2.89634
567.406,14.2052,-12.3465,0,2.46687,9.55134,1.17835,-5.21341,2.28659,-3.75,-9.64474,-1.25499,-2.28485,1.0061,-7.31707,3.62805
567.416,14.1781,-12.3803,0,2.48603,9.53697,1.23104,-6.15854,1.55488,-3.62805,-9.63756,-1.36756,-2.26569,1.0061,-6.34146,3.78049
567.426,14.1613,-12.4268,0,2.5004,9.46033,1.2981,-6.52439,-0.701219,-3.10976,-9.5681,-1.41546,-2.31119,0.609756,-6.03659,3.96341
567.436,14.1557,-12.4559,0,2.5483,9.46033,1.28373,-8.17073,-2.0122,-2.68293,-9.63756,-1.35079,-2.2585,0.396341,-6.09756,4.11585
567.446,14.1827,-12.4452,0,2.7878,9.46991,1.152,-8.68902,-2.22561,-2.5,-9.74294,-1.35079,-2.11001,-0.518293,-6.43293,4.14634
567.456,14.2457,-12.428,0,2.97461,9.51302,1.11129,-8.68902,-2.89634,-1.79878,-9.78605,-1.38672,-2.08846,-1.52439,-7.5,3.56707
567.466,14.3182,-12.4334,0,3.04646,9.54655,1.07776,-7.43902,-1.12805,-1.67683,-9.68306,-1.36277,-2.1651,-1.92073,-8.04878,3.20122
567.476,14.3991,-12.4765,0,2.97701,9.43638,1.07776,-6.37195,1.0061,-1.31098,-9.55373,-1.2526,-2.30401,-1.82927,-7.43902,3.38415
567.486,14.4735,-12.5405,0,2.88839,9.36932,1.16877,-5.57927,2.07317,-1.18902,-9.3286,-1.23823,-2.34712,-2.31707,-6.79878,4.02439
567.496,14.5263,-12.6245,0,2.82133,9.3789,1.23104,-5.7622,2.2561,-1.40244,-9.25675,-1.24541,-2.42136,-3.04878,-5.18293,4.78659
567.506,14.5463,-12.7046,0,2.70637,9.43398,1.19751,-5.67073,2.83537,-1.85976,-9.2807,-1.28613,-2.41178,-3.87195,-3.78049,4.93902
567.516,14.5499,-12.7704,0,2.67763,9.56331,1.28134,-5.97561,3.38415,-2.2561,-9.36692,-1.37714,-2.38304,-4.5122,-3.38415,4.63415
567.526,14.5413,-12.8077,0,2.62255,9.64953,1.32205,-7.19512,2.40854,-2.40854,-9.50583,-1.46336,-2.31119,-5.45732,-3.2622,4.17683
567.536,14.5272,-12.8534,0,2.62734,9.67109,1.33163,-7.46951,2.77439,-2.89634,-9.56331,-1.50168,-2.36867,-5.7622,-3.29268,3.68902
567.546,14.5218,-12.8977,0,2.69919,9.61361,1.41067,-8.5061,2.31707,-3.07927,-9.51781,-1.45378,-2.3543,-5.7622,-2.9878,3.81098
567.556,14.5285,-12.9487,0,2.77822,9.49865,1.35319,-9.90854,1.21951,-3.20122,-9.53218,-1.43222,-2.38544,-6.06707,-2.59146,4.84756
567.566,14.5526,-13.0151,0,2.86684,9.47949,1.32205,-11.25,0.121951,-2.7439,-9.50104,-1.48731,-2.41178,-6.79878,-1.76829,5.88415
567.576,14.6051,-13.0788,0,2.95306,9.4268,1.18314,-13.1098,-0.27439,-1.92073,-9.51302,-1.52802,-2.39023,-6.52439,-1.28049,6.79878
567.586,14.6999,-13.1089,0,3.09676,9.39087,0.993933,-14.2378,-2.13415,-1.31098,-9.5681,-1.51605,-2.31598,-6.67683,-1.31098,6.85976
567.596,14.9354,-13.0964,0,3.27639,9.29507,0.948428,-14.7561,-4.17683,0.213415,-9.60403,-1.45138,-2.19144,-6.67683,-2.19512,6.89024
567.606,15.0924,-13.0819,0,3.4153,9.17053,0.979563,-14.6341,-6.40244,2.07317,-9.59684,-1.38911,-2.17947,-6.92073,-2.31707,7.07317
567.616,15.2631,-13.0835,0,3.51589,9.08431,1.08494,-14.4817,-8.62805,4.84756,-9.57289,-1.39869,-2.23216,-7.77439,-2.16463,7.22561
567.626,15.486,-13.0689,0,3.71947,9.06515,1.16398,-13.628,-9.26829,8.35366,-9.53218,-1.35558,-2.1627,-8.32317,-2.34756,7.71341
567.636,15.7764,-13.0432,0,3.9422,9.06275,1.37235,-13.9939,-12.5915,13.2622,-9.55134,-1.32684,-2.11959,-8.65854,-2.59146,7.46951
567.646,16.1422,-13.0252,0,4.12422,8.76098,1.2502,-14.1463,-14.1768,18.0793,-9.51062,-1.23344,-2.13396,-9.69512,-2.89634,7.80488
567.656,16.6025,-12.9904,0,4.41163,8.59333,1.36516,-13.1707,-16.5549,24.4512,-9.48907,-1.13524,-2.05732,-10.122,-3.17073,8.14024
567.666,17.1778,-12.9539,0,4.76369,8.28198,1.32924,-12.9878,-16.2805,31.5549,-9.46033,-1.12087,-2.04056,-10.7927,-2.9878,8.65854
567.676,17.8909,-12.9111,0,5.14211,7.73352,1.346,-11.1585,-13.2622,39.2073,-9.46512,-1.13763,-2.00703,-10.7927,-3.23171,9.48171
567.686,18.7529,-12.8628,0,5.60195,7.28325,1.55437,-8.96341,-8.38415,47.8049,-9.42919,-1.1065,-1.96631,-9.90854,-3.59756,10.2744
567.696,19.7504,-12.82,0,5.99234,6.95035,1.76273,-7.13415,-3.41463,56.8598,-9.37411,-1.12805,-1.96392,-7.95732,-4.45122,11.128
567.706,20.8705,-12.7435,0,6.28932,6.71084,1.94236,-7.71341,-3.10976,66.5549,-9.33818,-1.10889,-1.80345,-5.70122,-5.82317,11.8293
567.716,22.1145,-12.6732,0,6.59109,6.39949,1.78189,-7.5,-2.46951,75.9756,-9.30705,-1.02986,-1.81063,-3.84146,-7.68293,12.8049
567.726,23.4643,-12.6225,0,6.96711,6.44021,1.79387,-5.88415,-0.731707,86.4329,-9.19687,-0.934058,-1.86093,-2.86585,-9.2378,13.2927
567.736,24.8769,-12.6262,0,7.36229,6.94316,1.97829,-3.68902,2.56098,96.7683,-9.07952,-0.752036,-2.05732,-1.21951,-10.5488,14.1768
567.746,26.2825,-12.6796,0,7.33355,7.98739,2.29682,-1.67683,4.11585,107.348,-8.98851,-0.570015,-2.24653,1.28049,-11.6159,15.1524
567.756,27.6656,-12.7748,0,7.37427,9.24957,2.53393,-0.609756,7.71341,116.067,-9.09149,-0.359253,-2.45969,3.93293,-11.0061,15.7012
567.766,28.9429,-12.8753,0,6.80186,10.7536,3.20693,-4.11585,5.91463,120.854,-9.40524,-0.378413,-2.58423,6.21951,-10.2744,15.8232
567.776,30.1245,-12.9874,0,6.43781,11.738,3.33387,-9.63415,5.4878,120.976,-9.84114,-0.433499,-2.77343,8.32317,-7.34756,14.2683
567.786,31.2292,-13.1284,0,5.6283,11.8553,3.59253,-15.4573,0.853659,122.378,-10.2794,-0.450264,-3.05125,9.66463,-4.29878,11.9817
567.796,32.2505,-13.2239,0,4.98643,11.5775,3.2692,-18.811,-3.10976,120.396,-10.5692,-0.313748,-2.87642,9.29878,-1.40244,10.061
567.806,33.1391,-13.321,0,4.06914,10.8973,2.93629,-21.8902,-9.81707,114.695,-10.6578,-0.0910107,-2.88121,7.37805,0.701219,9.29878
567.816,33.9068,-13.4132,0,3.6548,11.0339,2.87163,-23.1707,-14.1463,108.567,-10.6866,0.189207,-2.96264,3.93293,2.13415,10.0305
567.826,34.5479,-13.5144,0,3.23328,10.689,2.86205,-19.6341,-28.5366,100.274,-10.6051,0.455054,-3.02491,0.182927,3.84146,11.6159
567.836,35.1512,-13.6298,0,3.68594,10.4135,2.692,-14.1768,-34.8476,92.2866,-10.6578,0.62031,-3.13508,-3.20122,4.81707,13.0183
567.846,35.7324,-13.7281,0,4.15296,10.198,2.88839,-11.8293,-45.9451,85.8232,-10.7033,0.61073,-3.08479,-6.85976,4.72561,13.9939
567.856,36.2921,-13.818,0,4.62957,9.68546,2.87642,-8.87195,-51.5549,77.8963,-10.8135,0.58678,-3.09197,-9.81707,3.87195,14.3902
567.866,36.8491,-13.8932,0,5.41993,9.33339,2.70158,-4.93902,-50.061,69.3902,-10.9069,0.438289,-3.04886,-11.311,2.16463,14.4512
567.876,37.393,-13.9405,0,5.6762,9.04838,2.74709,-1.31098,-45.061,65.1829,-10.7967,0.294587,-2.84528,-12.561,-0.304878,14.8171
567.886,37.9468,-13.9298,0,5.87738,8.58854,2.31119,1.43293,-32.4695,62.6524,-10.4782,0.191602,-2.55309,-13.5061,-3.84146,15.6098
567.896,38.5353,-13.9302,0,6.13365,7.86764,1.95913,8.44512,-20.6098,60.061,-10.0256,0.117356,-2.49561,-14.2988,-7.83537,17.5915
567.906,39.1324,-13.9328,0,6.21987,7.46528,2.0214,14.6646,-10.2134,58.3537,-9.68306,0.0670605,-2.42376,-14.7866,-11.3415,19.4207
567.916,39.7198,-13.9331,0,6.09532,7.09405,2.00463,18.628,-1.92073,56.7988,-9.36692,0.0718506,-2.33754,-14.7866,-14.5427,20.6098
567.926,40.3029,-13.9447,0,5.98276,6.73958,2.10762,20.5488,3.87195,55.6707,-9.13939,0.153281,-2.33035,-15.3659,-15.7012,22.1037
567.936,40.8655,-13.9725,0,5.80553,6.48332,1.97829,22.439,12.9878,54.2683,-8.96935,0.277822,-2.3567,-15.7012,-15.3659,22.4695
567.946,41.3773,-13.9918,0,5.4798,6.30369,1.88009,24.2988,21.2805,51.9512,-8.92384,0.395178,-2.31359,-16.3415,-14.9085,22.5915
567.956,41.8091,-13.994,0,5.18282,6.38991,1.80345,27.1037,30.1524,48.811,-8.95977,0.476609,-2.25371,-16.4634,-14.6646,22.1341
567.966,42.1813,-13.9762,0,5.06786,6.42823,1.96631,26.7683,34.5427,45.2439,-9.00527,0.507744,-2.18186,-17.2561,-15,21.0671
567.976,42.4832,-13.949,0,4.80201,6.40907,2.1172,25.5793,38.2012,41.7073,-9.09389,0.481399,-2.16031,-18.0793,-15.061,19.4512
567.986,42.7944,-13.9356,0,5.15169,6.35638,1.79147,27.4085,43.3841,38.811,-9.18729,0.433499,-2.23695,-19.1159,-14.9085,18.0793
567.996,43.0725,-13.9556,0,5.37921,6.60786,1.85375,27.4695,42.7439,35.8232,-9.2807,0.366438,-2.4022,-20.0915,-14.0854,16.0671
568.006,43.347,-14.014,0,5.78158,6.67731,1.83698,28.2012,44.1159,32.4695,-9.37411,0.296982,-2.5986,-19.9085,-12.8354,14.4207
568.016,43.6142,-14.0951,0,6.02108,6.52643,1.60945,29.6037,44.4207,28.5976,-9.45793,0.165256,-2.73272,-19.0244,-11.189,12.9878
568.026,43.7823,-14.1664,0,5.76242,7.07728,1.83698,29.1159,43.8415,26.25,-9.63995,0.0862207,-2.75427,-17.9878,-10.061,11.6768
568.036,43.8908,-14.2401,0,5.40556,6.96232,1.74357,29.2683,41.0671,23.2317,-9.72617,0.0526904,-2.80217,-17.6524,-8.75,10.4878
568.046,43.9356,-14.3072,0,5.02715,6.88089,1.50886,32.0732,40.4878,20.3659,-9.79803,0.0407153,-2.80457,-17.1951,-8.23171,9.05488
568.056,43.8699,-14.3622,0,4.4739,6.74198,1.50407,37.2256,38.2012,14.4512,-9.88425,0.112566,-2.78541,-17.1646,-8.35366,8.62805
568.066,43.6576,-14.4154,0,3.91346,7.16829,2.66087,33.9939,34.878,9.45122,-9.84114,0.203577,-2.77583,-17.2256,-9.54268,7.71341
568.076,43.3547,-14.4178,0,4.07153,7.12518,2.86684,26.9207,35.2134,3.38415,-9.88664,0.294587,-2.56267,-17.7439,-11.4024,7.22561
568.086,42.9696,-14.4302,0,3.66198,6.84497,3.02251,21.311,24.0549,-4.20732,-9.81,0.387993,-2.59141,-18.0793,-13.3232,6.43293
568.096,42.5953,-14.4606,0,3.93023,6.78509,2.58902,18.4756,18.9024,-11.8902,-9.73096,0.462239,-2.65608,-19.2683,-13.9329,5.91463
568.106,42.2061,-14.492,0,4.34696,6.73719,2.71595,17.8354,9.78659,-19.7866,-9.64235,0.55804,-2.64171,-19.4207,-13.75,5.03049
568.116,41.7848,-14.5368,0,4.73735,6.89766,2.74948,14.1463,2.71341,-27.2256,-9.4723,0.59636,-2.66087,-19.878,-13.3841,4.17683
568.126,41.4087,-14.5706,0,5.42232,6.67252,2.22737,15.7317,-6.12805,-32.8963,-9.41722,0.584385,-2.60339,-20.1524,-12.8354,3.07927
568.136,41.0755,-14.6213,0,5.9636,6.59109,2.49322,16.6463,-14.1768,-35.4878,-9.31663,0.565225,-2.65608,-20.1829,-12.2256,2.10366
568.146,40.7934,-14.6698,0,6.40907,6.39231,2.36628,11.3415,-19.9085,-36.9512,-9.27112,0.534089,-2.64171,-19.7866,-12.1037,1.03659
568.156,40.5709,-14.7122,0,6.74198,5.99473,1.96631,11.4939,-24.4512,-38.1402,-9.2328,0.493374,-2.61297,-19.9695,-12.1951,0.243902
568.166,40.3871,-14.7553,0,6.97909,5.74326,1.58311,14.9085,-24.5732,-39.1159,-9.17772,0.486189,-2.60818,-19.7561,-12.7134,-0.884146
568.176,40.223,-14.8025,0,7.13237,5.80553,1.50407,20.2744,-24.0244,-38.1098,-9.05557,0.452659,-2.5986,-19.6646,-13.2927,-1.18902
568.186,40.1109,-14.8259,0,7.53713,6.04024,1.74357,22.2561,-20.3354,-34.0244,-9.04838,0.467029,-2.5028,-18.7805,-13.689,-1.21951
568.196,40.037,-14.8374,0,7.59221,6.15281,1.59269,21.8293,-17.439,-29.7256,-9.10586,0.507744,-2.47166,-18.2927,-14.2073,-1.21951
568.206,40.0133,-14.8453,0,7.82453,6.02826,1.33403,23.1707,-15.6402,-27.622,-9.16574,0.555645,-2.47406,-17.622,-13.8415,-1.21951
568.216,40.0344,-14.8564,0,8.21013,6.17197,1.46336,20.5793,-12.0122,-24.4817,-9.20885,0.514929,-2.5004,-17.8049,-13.3232,-1.58537
568.226,40.0875,-14.8664,0,8.16462,6.21029,1.31008,17.8963,-5.70122,-20.5183,-9.25915,0.476609,-2.50998,-18.5366,-11.6768,-2.71341
568.236,40.1599,-14.8872,0,7.6952,6.01868,1.14721,19.1463,-0.884146,-16.8598,-9.24957,0.411943,-2.55549,-19.0549,-10.5183,-4.48171
568.246,40.2146,-14.916,0,7.38624,6.09293,1.53042,20.7012,7.46951,-15.4878,-9.20885,0.462239,-2.58183,-19.7256,-9.84756,-6.21951
568.256,40.2381,-14.9605,0,7.29283,6.22466,2.1651,17.6524,11.189,-16.5854,-9.22801,0.488584,-2.66087,-20.5183,-8.96341,-7.65244
568.266,40.2432,-14.9948,0,7.3575,6.12885,2.08127,13.75,11.5854,-19.8171,-9.25915,0.63468,-2.63213,-21.7378,-8.53659,-8.62805
568.276,40.1904,-15.0001,0,7.36469,6.36117,1.63819,13.2622,15.4878,-23.628,-9.38129,0.692161,-2.54351,-23.1098,-8.59756,-9.2378
568.286,39.9926,-14.9764,0,7.05094,7.27128,1.84417,13.5061,22.2256,-28.2012,-9.60882,0.613125,-2.47645,-24.4207,-10,-9.57317
568.296,39.6414,-14.873,0,6.32285,8.05445,2.15552,15,31.4024,-32.0427,-9.93694,0.495769,-2.18905,-25.1524,-11.9512,-9.66463
568.306,39.1283,-14.7276,0,5.48938,8.96456,2.85247,18.7805,33.872,-35.7012,-10.3153,0.244292,-2.05732,-25.2134,-15.3963,-9.78659
568.316,38.4735,-14.5585,0,5.13971,10.5309,3.8488,14.1159,29.5427,-40.061,-10.7249,-0.179626,-1.99745,-21.372,-18.689,-8.65854
568.326,37.8731,-14.263,0,6.12885,11.4721,4.93374,0.457317,14.2073,-40.122,-11.4769,-0.720901,-1.45138,-14.939,-22.6524,-6.76829
568.336,37.4603,-13.9039,0,8.21731,12.2266,5.29539,-13.689,-6.89024,-34.0244,-12.2841,-1.5376,-1.14721,-3.65854,-28.4756,-4.02439
568.346,37.4142,-13.5179,0,11.3141,11.4985,3.86077,-20.2134,-14.0244,-19.1463,-12.9403,-2.24174,-0.977168,8.84146,-32.7439,-1.25
568.356,37.772,-13.2049,0,13.1008,10.1573,1.37474,-6.92073,-16.9817,6.31098,-13.254,-2.83331,-1.346,20.4268,-37.1341,0.182927
568.366,38.4049,-12.9275,0,12.8469,9.77647,-0.208367,17.3476,-4.26829,34.0549,-12.8014,-3.12071,-1.43222,31.0671,-37.2256,3.47561
568.376,39.1159,-12.8048,0,10.2962,9.331,0.237107,35.9451,11.189,53.3537,-11.8865,-3.01054,-2.09325,42.4695,-31.9512,6.43293
568.386,39.6162,-12.7002,0,6.6366,9.41003,1.57113,41.4939,19.6037,59.0549,-10.8686,-2.06211,-1.97589,47.3171,-28.6585,11.5549
568.396,39.7419,-12.5491,0,3.26681,8.7993,2.65608,42.0427,16.128,52.1037,-10.016,-0.874182,-1.5879,47.0732,-24.8171,16.7073
568.406,39.3673,-12.3979,0,0.56283,8.67237,2.81654,28.0488,11.4634,35.3049,-9.26394,-0.0455054,-1.43941,44.1768,-20.5183,21.25
568.416,38.465,-12.1928,0,-1.31247,7.3072,2.33754,12.4085,-4.84756,9.20732,-9.51781,1.23583,-1.21906,37.7134,-16.2805,22.2256
568.426,37.2274,-11.9701,0,-1.65017,6.2534,1.6334,5.60976,-28.0793,-17.622,-9.60163,1.85614,-1.11608,28.6585,-12.2866,20.6707
568.436,35.8823,-11.7019,0,-1.05141,6.38512,1.39869,-0.213415,-50.7622,-42.1951,-10.1405,2.30161,-0.931663,17.7134,-10.2744,16.0671
568.446,34.7206,-11.4083,0,1.08255,7.30002,1.09692,-7.89634,-63.9634,-62.5305,-10.4638,2.47166,-0.792751,10.3963,-9.02439,10.5793
568.456,33.7562,-11.0467,0,3.79132,8.54543,0.63947,-10.7012,-65.2134,-76.3719,-10.8399,2.05253,-0.440684,6.0061,-10.061,5.45732
568.466,32.9488,-10.6408,0,6.31088,10.186,0.119751,-13.2012,-50.7622,-78.3537,-11.0889,1.17595,-0.165256,3.53659,-11.4939,1.0061
568.476,32.3951,-10.2368,0,8.24845,10.3082,-0.960403,-2.13415,-18.9634,-68.1707,-11.1991,-0.00958008,-0.0958008,3.65854,-10.7927,-2.31707
568.486,32.0397,-9.82348,0,8.59812,10.1261,-1.02986,13.5061,-2.07317,-52.4695,-10.9524,-1.11368,0.0287402,5.70122,-9.84756,-4.29878
568.496,31.8158,-9.48011,0,7.56108,9.47949,-0.519719,27.7134,12.1341,-36.189,-10.9404,-2.10043,-0.227527,9.5122,-7.07317,-4.2378
568.506,31.4912,-8.99841,0,5.40795,9.1825,0.689766,32.6524,10.3049,-30.4268,-10.4495,-1.76992,0.481399,8.07927,-9.14634,-2.40854
568.516,30.9911,-8.48368,0,3.77455,8.91426,1.20709,30.9451,5.64024,-33.5976,-9.78605,-1.56634,0.675395,10.0305,-7.28659,0.457317
568.526,30.3057,-7.88298,0,2.78301,8.85678,1.09931,27.9573,0.121951,-42.2866,-9.51541,-1.20709,1.1065,8.59756,-7.83537,4.26829
568.536,29.5375,-7.29639,0,2.71116,8.90468,0.730481,22.6829,-3.04878,-51.0976,-9.27112,-0.835862,1.11847,7.46951,-8.56707,7.19512
568.546,28.7489,-6.70998,0,2.88839,8.7059,0.56283,18.9024,-5.73171,-57.6524,-9.25436,-0.543669,1.21188,5.64024,-8.53659,8.01829
568.556,28.0097,-6.13966,0,3.39135,8.81607,0.517324,18.1707,1.18902,-59.6951,-9.33818,-0.392783,1.2526,4.11585,-8.17073,7.07317
568.566,27.3141,-5.62053,0,3.69791,9.08431,0.651445,15.7012,3.38415,-59.0244,-9.48428,-0.337698,1.14961,2.16463,-7.31707,4.72561
568.576,26.6817,-5.1811,0,3.90388,9.09628,0.414338,13.1707,5.97561,-56.189,-9.46991,-0.387993,0.893342,1.21951,-6.25,2.13415
568.586,26.0904,-4.79862,0,3.69791,8.8496,0.392783,11.9512,6.0061,-52.1646,-9.36932,-0.57241,0.680186,0.884146,-4.5122,-0.0914634
568.596,25.5174,-4.41951,0,3.53026,8.91187,0.356858,12.9268,2.95732,-49.3293,-9.2352,-0.783171,0.450264,1.89024,-2.56098,-1.09756
568.606,24.9823,-3.80374,0,3.54942,8.88073,0.373623,12.6829,0.304878,-46.9817,-9.18729,-1.07057,0.184417,4.11585,-0.640244,-1.7378
568.616,24.4896,-3.4611,0,3.62366,8.81846,0.347278,10.5488,-3.96341,-44.878,-9.24957,-1.30529,0.112566,7.53049,1.21951,-1.85976
568.626,24.0456,-3.3398,0,3.73144,8.7059,0.273032,10.3963,-7.56098,-42.6829,-9.4723,-1.47533,-0.114961,10.6707,3.07927,-2.28659
568.636,23.6351,-3.24537,0,3.88233,8.89271,0.174836,8.56707,-11.7988,-40.9451,-9.75252,-1.60466,-0.162861,13.4756,5.09146,-3.38415
568.646,23.2726,-3.15464,0,4.14817,8.84002,-0.229922,7.04268,-14.8476,-40.061,-9.87706,-1.55676,-0.160466,15.5488,6.21951,-4.32927
568.656,22.9112,-3.06281,0,3.8488,8.62686,-0.431104,8.14024,-14.4207,-38.4451,-9.91059,-1.3484,-0.138911,16.189,7.16463,-4.81707
568.666,22.5146,-3.00835,0,3.50391,8.90947,-0.0670605,10.1524,-19.8171,-37.5305,-9.83156,-1.2502,-0.282612,16.5244,8.41463,-5.03049
568.676,22.0831,-2.96959,0,3.28357,9.14658,-0.0742456,10.3659,-22.439,-38.3841,-9.74294,-1.2023,-0.337698,16.128,9.05488,-4.93902
568.686,21.6068,-2.94206,0,3.05125,9.41482,0.280217,8.93293,-29.3293,-40.1829,-9.61121,-1.17356,-0.373623,15.3354,9.7561,-4.93902
568.696,21.1374,-2.94028,0,3.17819,9.39087,0.225132,8.62805,-27.3171,-41.9512,-9.52739,-1.15679,-0.474214,14.6341,9.60366,-4.72561
568.706,20.6564,-2.92646,0,3.17819,9.47709,0.423918,6.89024,-32.1037,-43.7805,-9.48188,-1.07776,-0.421523,13.3232,9.29878,-3.87195
568.716,20.1993,-2.90294,0,3.47757,9.52499,0.304167,5.73171,-29.2683,-45.4268,-9.52499,-1.08973,-0.380808,12.0427,8.75,-3.41463
568.726,19.7624,-2.92589,0,3.559,9.35016,0.0862207,4.45122,-26.5549,-45.8841,-9.52739,-1.08015,-0.57241,11.0671,8.87195,-3.01829
568.736,19.3255,-2.96728,0,3.46559,9.19927,0.193997,5.15244,-25.122,-46.372,-9.52499,-0.977168,-0.65384,10.7927,8.87195,-2.07317
568.746,18.8375,-3.02853,0,3.03449,9.3286,0.213157,3.96341,-24.7866,-47.1341,-9.58487,-1.02028,-0.749641,11.0366,8.32317,-1.4939
568.756,18.3798,-3.12686,0,3.21891,9.41003,0.184417,2.77439,-26.9207,-46.7988,-9.55373,-1.06099,-0.914897,12.3476,7.92683,-0.945122
568.766,17.9446,-3.23423,0,3.26441,9.13221,-0.0167651,1.34146,-26.4024,-47.0427,-9.48428,-1.18553,-0.962798,13.9329,7.95732,-0.701219
568.776,17.4959,-3.31126,0,3.04167,9.10586,0.0862207,1.67683,-28.628,-46.8598,-9.37411,-1.27655,-0.843047,15.3963,7.7439,-0.27439
568.786,17.0791,-3.37545,0,3.1758,9.11305,-0.0335303,2.22561,-29.7256,-46.0366,-9.28789,-1.38432,-0.795146,17.2866,6.98171,-0.335366
568.796,16.6716,-3.44049,0,3.1255,9.03401,-0.143701,3.38415,-32.5915,-45.6707,-9.23759,-1.47054,-0.804727,19.2988,6.85976,-0.518293
568.806,16.3374,-3.54533,0,3.68114,9.19448,-0.184417,5.15244,-28.4146,-44.6037,-9.11305,-1.53042,-0.965193,21.0671,7.28659,-0.701219
568.816,16.0361,-3.65254,0,3.78413,9.24478,-0.102986,3.78049,-25.8841,-42.8354,-9.02443,-1.48252,-0.981958,23.3841,7.7439,-0.670732
568.826,15.7565,-3.76894,0,3.65719,9.07233,-0.0239502,3.07927,-28.5976,-40.6098,-9.01246,-1.50407,-1.03465,25.2134,7.89634,-0.243902
568.836,15.5189,-3.89291,0,3.79371,8.80409,-0.217947,3.5061,-24.0549,-39.6646,-9.02443,-1.48012,-1.08494,26.6768,8.35366,0.518293
568.846,15.3187,-4.02617,0,3.93741,8.91666,-0.184417,3.84146,-23.5366,-37.378,-8.9909,-1.48491,-1.13763,28.2622,9.17683,0.914634
568.856,15.1196,-4.15197,0,3.81527,8.83762,-0.191602,4.17683,-18.5671,-36.7073,-9.10107,-1.48012,-1.14242,29.9085,9.60366,0.945122
568.866,14.916,-4.29986,0,3.68594,8.98132,-0.0191602,5.09146,-17.439,-35.4573,-9.1346,-1.41306,-1.25739,31.6159,9.78659,1.40244
568.876,14.6851,-4.4443,0,3.30273,8.97414,-0.0359253,3.81098,-16.0671,-34.3598,-9.20406,-1.30289,-1.27655,32.9573,10.2134,1.64634
568.886,14.472,-4.60026,0,3.35782,9.08431,-0.304167,2.68293,-13.5061,-33.1707,-9.17772,-1.19511,-1.34361,34.0549,10.8232,1.89024
568.896,14.2275,-4.77213,0,3.02251,9.03401,-0.167651,2.19512,-15.7317,-33.1707,-9.13221,-1.152,-1.42743,34.6646,11.4329,2.37805
568.906,14.0207,-4.95797,0,3.27399,8.96935,-0.438289,3.44512,-11.4634,-32.9878,-9.05078,-1.08734,-1.49928,35.2744,11.9512,3.35366
568.916,13.8119,-5.17281,0,3.1758,9.03401,-0.320933,4.7561,-10.7012,-32.2256,-8.98132,-1.06099,-1.6358,35.7317,12.2561,4.42073
568.926,13.5547,-5.40266,0,2.79499,9.14418,-0.0981958,4.90854,-9.39024,-32.7439,-8.98132,-1.16877,-1.7316,36.6768,12.9878,5.15244
568.936,13.2728,-5.62856,0,2.67045,9.28549,-0.203577,4.42073,-10.061,-33.8415,-8.95019,-1.19751,-1.74597,37.6829,13.9329,5.60976
568.946,12.944,-5.87758,0,2.39502,9.42919,-0.0383203,4.45122,-12.4695,-35.5488,-8.91905,-1.26457,-1.87051,38.0183,14.6037,6.79878
568.956,12.4431,-6.13398,0,1.76513,9.22801,-0.392783,2.19512,-16.8293,-46.7988,-8.90468,-1.25739,-1.93757,38.4451,15.5183,7.59146
568.966,11.9945,-6.38965,0,2.4022,9.99681,0.210762,0.457317,-12.7134,-47.9573,-8.87355,-1.24302,-1.96871,38.4451,16.372,8.78049
568.976,11.5603,-6.65162,0,2.46448,9.53936,-0.502954,2.10366,-12.378,-49.3902,-8.84241,-1.16398,-2.02858,38.689,17.0122,10.4878
568.986,10.9958,-6.92514,0,1.49449,9.49625,0.301772,2.37805,-21.7683,-52.2561,-8.76817,-1.07057,-2.10043,38.3232,17.622,12.2561
568.996,10.501,-7.18772,0,2.33275,9.74773,-0.227527,0.609756,-9.96951,-55.5183,-8.72027,-0.931663,-2.08846,38.0793,17.7134,14.1463
569.006,9.89894,-7.38925,0,1.46336,9.70701,0.342488,-2.28659,-25.8537,-57.5,-8.78972,-0.845442,-1.89925,37.0122,16.9512,16.128
569.016,9.27152,-7.50395,0,1.65735,9.49625,-0.0694556,-8.56707,-19.2073,-64.0244,-8.97893,-0.866997,-1.61664,35.3963,15.9756,17.4085
569.026,8.69066,-7.57771,0,2.13396,9.45314,-0.347278,-12.0732,-25.2744,-66.311,-9.20885,-0.996328,-1.50647,33.5061,15.3659,17.6829
569.036,8.18772,-7.70607,0,2.53154,9.49386,-0.423918,-13.75,-28.3232,-64.0549,-9.42919,-1.2502,-1.78908,32.4085,15.2439,16.7378
569.046,7.78307,-7.84934,0,2.9339,9.14418,-0.859812,-14.7561,-23.7195,-60.8841,-9.56331,-1.38193,-1.90165,31.9512,15.6707,14.9085
569.056,7.40424,-8.01025,0,2.7423,9.11305,-0.510139,-15.3963,-30.0305,-56.9512,-9.5681,-1.46815,-2.00463,32.378,16.128,13.811
569.066,7.03764,-8.22759,0,2.53393,9.19209,-0.519719,-19.0549,-32.5,-53.75,-9.55852,-1.47294,-2.28006,33.628,16.5854,13.5366
569.076,6.71194,-8.46533,0,2.67524,9.35734,-0.646655,-22.3171,-36.9207,-51.4329,-9.62558,-1.54958,-2.42615,34.6341,17.0427,14.4512
569.086,6.4219,-8.72831,0,2.56986,9.44835,-0.479004,-25.2134,-42.622,-46.9512,-9.73096,-1.64298,-2.61057,36.0366,17.9268,15.1524
569.096,6.21352,-8.92922,0,3.01293,9.48667,-0.687371,-25.6098,-39.6646,-44.1159,-10.0016,-1.68849,-2.44052,37.0427,17.9573,15.6402
569.106,5.95612,-9.02015,0,2.61776,9.73575,-0.531694,-31.0671,-49.4207,-44.2988,-10.4423,-1.70286,-2.05732,36.7378,16.1585,15.7317
569.116,5.83888,-8.9582,0,3.71228,9.8579,-1.04183,-32.9268,-46.311,-41.9207,-11.0554,-1.35319,-1.43462,34.5732,12.5,16.0061
569.126,5.8182,-8.71214,0,4.33499,9.97286,-1.53521,-29.5427,-41.7988,-38.1402,-12.035,-0.845442,-0.570015,31.0061,6.92073,15.3963
569.136,5.88041,-8.37817,0,4.68466,10.0998,-1.59748,-24.2073,-38.7805,-32.561,-13.2373,-0.402363,-0.0958008,24.6646,1.31098,12.8659
569.146,6.01114,-8.0931,0,5.09421,10.1357,-1.62143,-20.3963,-26.8598,-29.1159,-14.0636,0.150886,-0.325723,17.5915,-0.304878,8.17073
569.156,6.17933,-7.83859,0,5.02715,10.495,-1.51605,-18.4756,-25.4268,-22.8049,-14.4156,0.708926,-0.438289,9.96951,0.457317,2.89634
569.166,6.5023,-7.56957,0,5.70015,10.598,-2.27287,-12.5305,-8.81098,-12.1341,-14.2695,0.926873,-0.289797,1.58537,0.213415,-1.40244
569.176,6.96313,-7.32636,0,5.49417,10.962,-1.56155,-5.85366,-6.46341,-0.0609756,-13.8648,0.701741,-0.356858,-4.96951,-1.67683,-5.39634
569.186,7.43788,-7.18073,0,5.47022,11.4985,-0.893342,-6.40244,-1.43293,10.7317,-13.1175,-0.0694556,-0.847837,-7.95732,-1.85976,-8.9939
569.196,7.9943,-7.04339,0,5.2403,11.7643,-0.174836,-7.34756,-2.89634,22.9573,-12.3296,-0.888552,-0.852627,-8.23171,-0.701219,-11.9817
569.206,8.57132,-6.97317,0,4.62718,12.1332,1.30289,-12.9878,-6.31098,32.5915,-11.7595,-1.69807,-1.10171,-5.91463,1.4939,-13.4756
569.216,9.2397,-6.91891,0,4.63197,12.0661,2.04535,-25.5793,-8.35366,42.8354,-11.2925,-2.39262,-1.10889,-0.97561,3.07927,-11.4024
569.226,10.012,-6.74218,0,4.20326,11.3141,2.76625,-32.8963,-12.2256,56.0671,-11.3668,-2.61297,-0.65384,2.46951,0.27439,-8.17073
569.236,10.8337,-6.64818,0,3.76737,11.1129,3.74821,-42.4695,-14.1463,66.0671,-10.8734,-3.01054,-0.833467,12.9268,3.47561,-3.81098
569.246,11.7606,-6.44645,0,3.90388,10.6674,3.69073,-51.25,-17.1646,75.6707,-10.5405,-2.48603,-0.335303,18.3537,2.5,0.945122
569.256,12.7397,-5.822,0,3.6524,10.2818,3.80808,-57.8963,-17.0732,83.9939,-9.97047,-1.83219,0.141306,21.3415,0.182927,6.31098
569.266,13.7799,-5.39157,0,3.32668,9.73096,3.34105,-66.0976,-17.9573,93.6281,-9.62319,-0.953218,0.414338,22.8354,-1.98171,10.3659
569.276,14.8801,-5.0382,0,2.94827,9.00527,2.17468,-68.2622,-14.7866,103.384,-8.91905,-0.325723,0.316143,23.3537,-3.17073,14.4817
569.286,15.9532,-4.62734,0,2.31359,8.88792,1.8274,-68.9634,-16.7988,110.091,-8.74901,0.63947,0.766406,22.1341,-5.18293,17.6524
569.296,17.0282,-4.15237,0,1.91362,8.83762,1.48012,-68.3537,-20.8537,117.317,-8.67955,1.12326,1.08734,19.2988,-5.7622,19.3902
569.306,18.1313,-3.66759,0,2.02858,9.05796,1.29092,-67.1951,-24.4817,121.555,-8.49513,1.40588,1.16637,13.811,-5.70122,19.6951
569.316,19.2303,-3.20388,0,2.24174,9.43159,1.22625,-63.811,-25.4878,121.86,-8.43047,1.54479,1.1041,7.65244,-4.84756,18.2012
569.326,20.3135,-2.72788,0,2.66326,9.75012,1.49449,-56.5549,-28.9024,118.598,-8.4616,1.56395,1.13045,0.884146,-4.02439,15.1829
569.336,21.3127,-2.26526,0,2.56267,10.0016,1.38432,-48.2317,-30.1524,114.085,-8.53824,1.55437,1.12087,-6.18902,-3.68902,11.7988
569.346,22.2751,-1.82132,0,2.89318,10.3058,1.03944,-37.0732,-29.4207,109.695,-8.63884,1.37235,0.835862,-13.5671,-2.53049,8.35366
569.356,23.2192,-1.16924,0,3.23807,10.7225,0.943638,-28.3841,-31.8902,107.5,-8.80888,1.24302,0.665815,-19.8476,-1.03659,5.54878
569.366,24.1592,-0.486073,0,3.42248,10.2459,0.598755,-20.9451,-33.689,105.61,-8.99569,1.08494,0.373623,-24.9695,0.0304878,3.75
569.376,25.1193,-0.370734,0,3.74821,9.70462,0.275427,-8.59756,-28.1707,104.177,-9.18011,0.953218,0.124541,-28.75,0.97561,4.14634
569.386,26.081,-0.42384,0,3.753,9.34058,0.519719,1.09756,-21.6159,104.726,-9.35974,0.661025,-0.220342,-31.128,2.13415,6.67683
569.396,27.0623,-0.543083,0,3.98531,9.25196,0.787961,9.54268,-13.4146,105.793,-9.55613,0.249082,-0.495769,-32.0732,2.65244,8.62805
569.406,28.0602,-0.727229,0,4.09548,9.40764,1.00351,15.0305,-5.91463,109.055,-9.7118,-0.141306,-0.787961,-32.1037,2.77439,10.5183
569.416,29.0629,-0.939429,0,3.98052,9.31902,1.41546,15.6402,-0.457317,112.378,-9.77886,-0.385598,-0.835862,-30.9451,1.92073,11.2195
569.426,30.0569,-1.22507,0,3.87035,9.28789,1.13524,19.3293,6.31098,114.573,-9.69025,-0.471819,-0.886157,-29.3598,1.12805,11.4939
569.436,31.0431,-1.73179,0,3.75779,9.17053,1.00591,23.811,10.2744,116.494,-9.57289,-0.467029,-0.998723,-27.7439,-0.304878,11.4329
569.446,31.9737,-2.00631,0,3.56858,9.41482,1.17356,28.0183,13.6585,115.945,-9.31184,-0.395178,-0.962798,-26.7683,-1.52439,11.25
569.456,32.8553,-2.23034,0,3.57097,9.73815,1.40588,28.4146,15.8841,114.116,-9.17532,-0.407153,-0.984353,-26.128,-2.22561,10.4268
569.466,33.7002,-2.47445,0,3.73863,9.56331,1.58311,26.311,15.9451,109.695,-9.07473,-0.332908,-1.09213,-26.0671,-2.43902,9.69512
569.476,34.5113,-2.72542,0,3.7506,9.27831,1.56874,26.0976,16.2805,106.616,-9.07952,-0.299377,-1.13045,-26.4634,-2.31707,9.48171
569.486,35.3035,-2.99265,0,3.85838,9.03641,1.37235,28.3232,14.8171,104.085,-9.24238,-0.177231,-1.19511,-27.1951,-1.95122,8.71951
569.496,35.9778,-3.21626,0,3.37219,8.9933,1.79147,31.0061,14.5732,98.9024,-9.47949,-0.0718506,-1.21667,-27.8354,-2.10366,7.62195
569.506,36.5815,-3.46918,0,3.29794,8.9933,1.93997,30.7622,15.9451,93.9329,-9.72617,0.0239502,-1.32205,-28.1707,-1.55488,6.95122
569.516,37.1054,-3.76949,0,3.13029,9.01246,2.17947,29.7256,13.6585,89.0244,-9.91778,0.0598755,-1.47054,-28.689,-1.09756,6.0061
569.526,37.5705,-4.06313,0,3.11113,8.77056,2.14354,28.3232,15.8537,83.3232,-10.0327,0.0670605,-1.54958,-28.872,-1.06707,5.12195
569.536,37.937,-4.3494,0,2.80696,8.72506,2.22497,27.0122,11.8902,77.6829,-10.0687,0.0287402,-1.62382,-28.4451,-1.15854,3.71951
569.546,38.2546,-4.67299,0,2.73272,8.56699,1.95673,23.689,9.7561,73.7195,-9.96568,-0.160466,-1.72202,-28.2927,-1.06707,2.46951
569.556,38.5028,-5.09407,0,2.67763,8.2221,1.87051,21.9512,3.75,66.5854,-9.79323,-0.316143,-1.7795,-28.2317,-0.640244,0.97561
569.566,38.6678,-5.6168,0,2.62255,8.14546,2.15312,23.75,6.34146,58.9939,-9.61121,-0.440684,-1.78668,-28.689,-0.335366,0.27439
569.576,38.7893,-6.19168,0,2.93869,8.19815,2.52435,18.2622,4.32927,51.0671,-9.41003,-0.443079,-1.82021,-29.2683,-0.335366,-0.609756
569.586,38.8597,-6.86396,0,3.1279,7.94667,2.6944,12.1341,0.853659,42.5,-9.2807,-0.447869,-1.91841,-30.1829,-0.243902,-0.579268
569.596,38.9323,-7.53871,0,3.60211,7.56108,2.33514,7.80488,1.46341,34.7256,-9.24957,-0.385598,-1.89925,-31.128,-0.0609756,-0.27439
569.606,38.9159,-8.00747,0,3.49433,7.37906,2.4549,7.34756,-5.03049,26.0671,-9.26873,-0.270637,-1.90644,-32.0122,0.365854,-0.243902
569.616,38.8827,-8.38127,0,4.038,7.18985,2.38783,6.03659,-5.64024,16.189,-9.31663,-0.146096,-2.00463,-33.1707,0.701219,-0.152439
569.626,38.8428,-8.65379,0,4.3278,6.59349,2.27048,6.67683,-7.31707,7.43902,-9.29507,-0.0742456,-2.1148,-33.7195,1.55488,0.213415
569.636,38.7381,-8.90013,0,4.87865,6.56954,2.68721,4.11585,0.304878,1.40244,-9.16574,0.0814307,-2.19144,-33.7195,2.28659,-0.182927
569.646,38.7231,-9.12612,0,5.12774,6.11209,1.825,3.90244,9.14634,-4.42073,-9.02443,0.220342,-2.26569,-34.1768,3.53659,-0.152439
569.656,38.6054,-9.35372,0,4.81159,6.03305,1.76034,6.61585,14.7561,-11.7073,-8.89031,0.328118,-2.31359,-33.811,4.32927,-0.0914634
569.666,38.447,-9.5704,0,5.28102,6.08574,1.13045,9.96951,30.1829,-20.9451,-8.7993,0.342488,-2.29682,-33.3232,4.81707,0.0914634
569.676,38.1695,-9.77912,0,4.64873,6.04982,1.4921,6.0061,24.1159,-26.4634,-8.74182,0.261057,-2.28964,-32.5305,5.06098,0.304878
569.686,37.9692,-9.95195,0,5.63069,5.74565,0.129331,13.6585,40.1524,-33.2012,-8.83283,0.217947,-2.18426,-32.1951,4.26829,0.152439
569.696,37.7985,-10.1248,0,6.2534,5.88935,1.36756,17.378,44.7256,-35.2744,-8.8496,0.165256,-2.17947,-32.4695,3.5061,-0.457317
569.706,37.6259,-10.3198,0,6.01389,5.83906,1.60706,2.56098,45.0915,-34.0244,-8.83762,0.174836,-2.11241,-33.3537,2.13415,-0.487805
569.716,37.4691,-10.5335,0,5.87259,5.08942,0.182021,13.5366,34.1159,-39.3902,-8.78493,0.253872,-1.96871,-34.1159,1.18902,-0.365854
569.726,37.2526,-10.7641,0,6.66055,5.4822,-0.182021,29.3598,31.311,-48.7805,-8.72985,0.277822,-2.08367,-35.7012,1.4939,-0.670732
569.736,37.0757,-10.9251,0,8.19336,6.04742,0.740061,27.9268,25.7927,-51.3415,-8.62926,0.304167,-2.12917,-37.1646,2.77439,-0.457317
569.746,37.0231,-11.0887,0,9.71899,6.26058,1.09213,22.8049,37.2561,-46.4634,-8.6556,0.323328,-2.31119,-38.9024,5.45732,-0.823171
569.756,37.1075,-11.2652,0,10.5668,6.50727,1.4418,17.6829,49.0549,-34.9695,-8.81128,0.387993,-2.44292,-40.5488,7.19512,-1.0061
569.766,37.3109,-11.4596,0,10.7848,6.74917,1.44659,14.9085,60.5793,-21.7988,-8.98611,0.450264,-2.5986,-41.6159,8.56707,-1.12805
569.776,37.5738,-11.6685,0,10.6028,7.08447,1.53281,11.9207,62.2256,-11.8293,-9.24238,0.450264,-2.77104,-41.8293,8.75,-1.06707
569.786,37.8673,-11.9167,0,10.1525,7.15632,1.00591,9.60366,58.5976,-5.27439,-9.3789,0.459844,-3.0273,-41.7683,9.2378,-1.09756
569.796,38.2505,-12.1772,0,9.0388,6.98627,0.296982,10.7622,54.6341,0.213415,-9.45554,0.395178,-3.15424,-41.6768,9.63415,-1.09756
569.806,38.3834,-12.4943,0,6.66534,7.17308,0.273032,16.189,52.4085,3.5061,-9.42201,0.258662,-3.45362,-41.189,10.6402,-0.762195
569.816,38.2453,-12.7368,0,4.23439,7.87003,0.756826,18.4146,51.5854,6.64634,-9.46991,0.155676,-3.18059,-39.5427,11.0366,0.640244
569.826,37.5914,-12.805,0,1.58071,9.1825,1.99266,43.7195,55.4878,-3.38415,-9.98484,-0.126936,-2.56746,-36.4939,7.34756,2.62195
569.836,36.7074,-12.7642,0,0.61073,11.5464,3.94939,67.8354,47.4695,-19.6646,-10.9333,-0.874182,-2.28485,-30.061,2.43902,4.78659
569.846,35.6684,-12.5499,0,1.19511,13.4265,7.6473,59.7561,15.7622,-41.4939,-12.6098,-2.18665,-1.6334,-18.0183,-5.03049,6.79878
569.856,34.6405,-12.2256,0,3.15424,14.521,9.5202,17.8049,-25.4268,-57.1037,-14.4515,-3.52068,-1.11608,-4.05488,-11.128,8.53659
569.866,33.9332,-11.9426,0,7.34073,14.794,7.95625,-28.0793,-67.9573,-55.3354,-16.1568,-4.74214,-1.45617,5.94512,-14.0549,7.95732
569.876,33.8365,-11.6713,0,13.2181,12.0733,0.893342,-39.6341,-56.0671,-37.7439,-15.2587,-5.59716,-1.37474,16.4634,-11.7988,10.7622
569.886,34.3591,-11.3268,0,16.2742,9.25196,-5.3385,-4.93902,-3.93293,-0.853659,-14.7318,-4.72058,-0.780776,24.6037,-12.5,17.5915
569.896,35.1995,-11.045,0,12.8972,8.61968,-5.06307,50.7622,48.628,41.0976,-11.8362,-2.97461,-0.881367,31.0671,-9.48171,28.4146
569.906,35.7086,-10.708,0,6.02587,10.4255,-1.13045,81.7073,58.0488,62.5,-10.2698,-1.02746,-0.462239,34.7256,-8.04878,39.5732
569.916,35.579,-10.3087,0,0.265847,11.3644,1.53042,75.4573,51.0671,56.9207,-10.5117,-0.0143701,-0.124541,34.2683,-10.5793,43.0183
569.926,34.7066,-9.95032,0,-4.29187,10.3153,3.42727,64.939,32.7439,29.6951,-10.3609,-0.0263452,-0.237107,33.0183,-10.7012,40.8841
569.936,33.3098,-9.4713,0,-5.95162,9.41961,4.05477,36.4024,10.9756,-5.70122,-12.0613,1.55197,0.438289,25.5793,-13.1402,33.2927
569.946,31.6471,-9.06107,0,-5.08463,8.37778,3.12311,-2.53049,-23.3537,-37.8963,-12.4804,2.52196,0.182021,19.0244,-10.6098,23.3537
569.956,29.9393,-8.62784,0,-3.18059,7.6928,0.514929,-15.7317,-54.2378,-63.8415,-12.4637,3.11353,0.397573,11.0366,-10.4878,14.7561
569.966,28.5511,-8.15049,0,-0.0742456,8.3658,-1.20948,-4.69512,-62.5305,-79.5122,-11.8051,3.01533,0.694556,2.89634,-11.9817,9.7561
569.976,27.4339,-7.59668,0,2.61776,9.75012,-1.45378,14.0549,-62.561,-86.4024,-11.0339,1.66933,1.11368,-5,-14.3902,5.7622
569.986,26.5891,-7.03467,0,5.15169,11.0434,-0.0526904,27.3171,-48.7195,-81.25,-10.3632,0.160466,1.18314,-10.061,-16.6159,1.61585
569.996,25.9554,-6.49247,0,6.49769,11.4218,0.730481,28.2012,-23.872,-70.8841,-9.58726,-1.09213,1.1041,-13.0183,-17.7744,-1.98171
570.006,25.4493,-6.03897,0,6.18873,10.4758,1.44899,19.7561,-5.85366,-61.0671,-9.01725,-2.12199,0.768801,-13.9939,-17.4085,-3.32317
570.016,24.986,-5.68004,0,5.29778,9.31663,0.902922,13.9634,5.30488,-55.7927,-8.53106,-2.45969,0.438289,-12.8354,-16.9512,-2.40854
570.026,24.5353,-5.34603,0,4.58886,8.63165,0.356858,15.9451,11.8293,-52.1341,-8.19576,-2.70398,0.383203,-8.9939,-15.6707,0.640244
570.036,24.062,-5.08402,0,4.0859,8.54782,0.0694556,18.0488,15.3659,-50.3659,-7.99697,-2.71116,0.167651,-4.48171,-14.0244,4.54268
570.046,23.4997,-4.89734,0,3.15185,8.84481,0.364043,18.2317,17.0122,-48.2927,-7.89877,-2.71835,-0.0598755,0.335366,-13.0183,8.38415
570.056,22.8807,-4.74447,0,2.58662,8.92384,0.320933,13.2317,18.689,-48.2012,-8.02092,-2.45729,-0.153281,5.64024,-11.5854,11.25
570.066,22.217,-4.60501,0,2.16749,8.90947,-0.0838257,8.90244,16.4634,-48.9329,-8.29395,-2.01661,-0.184417,11.4939,-10.1524,12.6524
570.076,21.491,-4.47492,0,1.70765,8.90947,-0.201182,8.59756,13.2927,-50.8841,-8.74182,-1.80105,-0.208367,15.7622,-7.65244,12.9878
570.086,20.7416,-4.34344,0,1.64298,9.16095,0.0455054,7.53049,4.63415,-53.3537,-9.5202,-1.49689,-0.201182,18.2317,-5.60976,10.7927
570.096,20.0525,-4.2594,0,2.09804,9.35734,0.165256,4.93902,-6.09756,-53.7805,-10.0471,-1.41546,-0.409548,20.0915,-3.38415,7.04268
570.106,19.385,-4.16783,0,2.10283,9.34297,0.131726,4.78659,-20.4878,-53.0793,-10.4207,-1.34121,-0.443079,21.128,-1.31098,2.68293
570.116,18.6858,-4.11368,0,1.81782,9.79803,0.768801,2.89634,-32.5305,-53.2317,-10.3585,-1.31726,-0.59157,22.0122,0.670732,-0.731707
570.126,18.0302,-4.06808,0,2.3064,10.4303,0.910107,-4.69512,-41.4024,-54.2073,-10.0663,-1.28852,-0.570015,23.5061,1.43293,-2.56098
570.136,17.4649,-4.04126,0,2.76864,9.67588,0.541274,-17.0122,-50.8841,-53.4756,-9.73815,-1.3484,-0.60115,23.9634,1.89024,-3.29268
570.146,16.9856,-4.00744,0,3.2213,9.12981,-0.155676,-20.0305,-52.8354,-52.9268,-9.45075,-1.35319,-0.56283,24.3293,1.92073,-2.13415
570.156,16.525,-3.92637,0,3.29076,8.83523,-0.838257,-19.6951,-52.7134,-54.0244,-9.36213,-1.4418,-0.481399,24.5122,1.06707,-0.579268
570.166,16.1105,-3.86409,0,3.57816,8.64123,-1.00112,-15.2134,-55.061,-54.4817,-9.41482,-1.38193,-0.522114,23.9634,0.853659,0.579268
570.176,15.7627,-3.86266,0,4.04998,8.58615,-1.36995,-8.10976,-51.0976,-54.1463,-9.44117,-1.3484,-0.63468,22.9573,0.609756,0.914634
570.186,15.4586,-3.90877,0,4.42839,8.8496,-1.43462,0.579268,-46.372,-53.1098,-9.51062,-1.23583,-0.749641,22.561,1.09756,0.518293
570.196,15.1746,-3.95045,0,4.55293,9.20885,-1.17116,7.68293,-42.1646,-51.128,-9.49625,-1.03704,-0.737666,21.9512,0.945122,-0.182927
570.206,14.8943,-4.02692,0,4.32062,9.26394,-0.708926,11.6159,-35.3963,-48.6585,-9.45554,-0.864602,-0.814307,20.8232,0.97561,-1.06707
570.216,14.5879,-4.15835,0,3.94939,9.14658,-0.450264,12.8354,-29.0549,-48.5366,-9.34297,-0.747246,-0.934058,19.7561,1.09756,-1.18902
570.226,14.308,-4.27298,0,4.17931,9.30705,-0.148491,11.2805,-21.7378,-48.1402,-9.26154,-0.65863,-1.00351,19.0244,2.0122,-1.34146
570.236,14.0509,-4.41885,0,4.21284,9.19687,0.0910107,7.56098,-15.5488,-47.2561,-9.16334,-0.720901,-1.12087,18.2317,2.2561,-0.731707
570.246,13.7648,-4.53478,0,3.82006,8.99809,0.0502954,5.21341,-10.4878,-47.4695,-9.1825,-0.859812,-1.11129,18.0793,2.95732,-0.670732
570.256,13.4811,-4.66443,0,3.74342,8.91426,-0.349673,5.82317,-4.29878,-47.3476,-9.1825,-0.977168,-1.17116,17.6829,2.83537,-0.27439
570.266,13.1386,-4.79977,0,3.16143,8.66279,-0.0335303,6.31098,-7.89634,-48.3537,-9.16574,-1.06818,-1.21188,18.4451,2.86585,0.304878
570.276,12.8227,-4.90813,0,3.3171,8.98611,-0.0670605,7.04268,-7.04268,-46.7683,-9.19448,-1.20709,-1.14961,19.2378,2.92683,1.31098
570.286,12.5088,-5.00544,0,3.2692,9.0412,-0.0910107,5.91463,-5.70122,-46.4329,-9.18011,-1.36037,-1.14003,20.0915,3.23171,2.13415
570.296,12.2093,-5.10742,0,3.2213,9.21364,0.0359253,3.90244,-7.71341,-44.3598,-9.14418,-1.43701,-1.18553,20.9146,3.78049,2.89634
570.306,11.9628,-5.2247,0,3.47996,9.33579,0.0383203,4.66463,-5.85366,-41.9512,-9.12742,-1.44659,-1.27655,22.6829,4.69512,3.14024
570.316,11.7549,-5.36529,0,3.40572,9.31902,-0.177231,8.07927,-3.59756,-37.7744,-9.03401,-1.41785,-1.38432,24.3598,5.88415,3.14024
570.326,11.4883,-5.53126,0,2.76864,9.25675,-0.0766406,8.93293,-6.95122,-37.1951,-9.02443,-1.3484,-1.51126,25.4878,6.79878,3.35366
570.336,11.195,-5.70946,0,2.60339,8.96935,-0.316143,7.56098,-2.62195,-39.5122,-9.04599,-1.26218,-1.59269,26.5244,7.43902,3.53659
570.346,10.8325,-5.91251,0,2.20102,8.8975,-0.184417,7.89634,-6.85976,-42.5,-9.02204,-1.17116,-1.71962,27.8049,8.56707,3.9939
570.356,10.4724,-6.12395,0,2.3543,9.24238,-0.232317,8.59756,-3.59756,-43.811,-8.94779,-1.11608,-1.77231,29.2683,9.39024,4.48171
570.366,10.0555,-6.35438,0,2.02858,9.29986,0.160466,6.85976,-8.56707,-46.2805,-8.88313,-1.08255,-1.87051,30.1524,10.3049,5.54878
570.376,9.62825,-6.60917,0,2.1172,9.34776,0.335303,3.29268,-5.94512,-49.1159,-8.76577,-1.08734,-1.98068,31.7683,11.25,6.43293
570.386,9.17638,-6.88416,0,2.1148,9.39566,0.285007,-0.823171,-6.95122,-52.3476,-8.68434,-1.11368,-2.08367,33.4146,12.3171,8.07927
570.396,8.67608,-7.16384,0,1.84417,9.53457,0.61073,-3.10976,-10.4268,-54.6646,-8.6053,-1.14242,-2.12678,35.3049,13.0488,9.90854
570.406,8.29744,-7.42387,0,2.57704,9.83874,0.179626,-2.22561,-4.69512,-50.8841,-8.57177,-1.15919,-2.08367,37.1341,13.5976,12.0427
570.416,7.83791,-7.66971,0,1.75076,9.63516,0.471819,-3.35366,-12.561,-50.9756,-8.49992,-1.23823,-2.05014,38.9939,14.4512,13.9939
570.426,7.44059,-7.89923,0,2.18186,9.64953,0.0335303,-3.44512,-10.0915,-50.5488,-8.44005,-1.24062,-2.00942,40.5488,14.9695,15.9756
570.436,7.04229,-8.13291,0,2.04056,9.50583,-0.138911,-3.35366,-12.6524,-50.1829,-8.33706,-1.23344,-2.03577,41.8902,15.7622,17.6524
570.446,6.58267,-8.33639,0,1.64777,9.20885,0.0335303,-5.21341,-19.7561,-53.2317,-8.27958,-1.09931,-1.93997,41.9817,17.0427,19.6646
570.456,6.22375,-8.5001,0,2.47645,9.26873,-0.325723,-5.88415,-15.3354,-53.7195,-8.32509,-0.977168,-1.8274,41.7378,18.2012,21.3415
570.466,5.87647,-8.63564,0,2.48603,9.18011,-0.385598,-6.31098,-20.0305,-53.6585,-8.54064,-0.874182,-1.78908,40.122,18.5366,22.0732
570.476,5.46648,-8.72545,0,2.19144,8.88792,-0.519719,-7.71341,-16.7073,-58.1098,-8.88073,-0.864602,-1.69567,37.7134,18.9329,21.7073
570.486,4.98902,-8.80922,0,1.91362,8.90468,-0.486189,-9.29878,-19.4512,-62.3171,-9.19687,-1.03225,-1.74597,35.8537,18.4756,20.1829
570.496,4.65031,-8.91495,0,2.93629,9.52978,-0.876577,-9.26829,-13.2622,-59.3293,-9.59445,-1.03704,-1.93278,34.1463,18.1098,18.3841
570.506,4.29173,-9.05976,0,2.29922,9.21125,-0.467029,-9.87805,-21.8902,-55.7012,-9.74773,-1.03465,-2.15791,33.872,18.0183,17.2866
570.516,3.9396,-9.26131,0,2.12678,9.46512,-0.514929,-13.3841,-22.6524,-53.0183,-9.83395,-0.998723,-2.46208,33.689,18.8415,16.9512
570.526,3.64223,-9.5485,0,2.13157,9.6184,-0.392783,-15.061,-29.8171,-47.8049,-9.91059,-1.08973,-2.91953,33.811,20.061,17.4695
570.536,3.31834,-9.85284,0,1.67891,9.6184,-0.320933,-19.4207,-37.9878,-45.8232,-9.93454,-1.27176,-3.06083,34.0549,22.2256,18.0793
570.546,2.97478,-10.165,0,1.56874,9.7597,-0.289797,-24.7866,-44.5122,-46.9207,-9.99202,-1.45857,-3.1734,34.1463,23.6585,18.3537
570.556,2.70733,-10.4239,0,2.26569,9.93454,-0.725691,-28.3232,-52.561,-47.439,-10.1333,-1.57113,-3.01772,34.2988,23.6585,18.4451
570.566,2.51833,-10.497,0,2.84049,10.3249,-1.0562,-28.5671,-53.0488,-45.1524,-10.5644,-1.41067,-2.27766,31.6159,21.189,18.4756
570.576,2.47763,-10.4392,0,4.06435,10.0998,-1.75555,-26.4024,-45.4878,-43.75,-11.3692,-1.04662,-1.79147,28.1098,16.7073,18.2012
570.586,2.42382,-10.2118,0,4.13141,10.3489,-1.37714,-24.1768,-43.2927,-44.8476,-12.787,-0.433499,-1.03944,22.1341,10.122,16.3415
570.596,2.47992,-9.95859,0,5.20677,10.4902,-2.20821,-19.3293,-21.2195,-43.2012,-14.1258,0.191602,-0.936453,14.2988,5.03049,12.378
570.606,2.52277,-9.7437,0,4.57928,10.3513,-1.66693,-11.6463,-17.2561,-39.2683,-14.9258,0.785566,-1.18074,6.34146,2.65244,6.31098
570.616,2.57692,-9.52236,0,4.35175,10.4447,-1.91362,-8.75,0.365854,-35.4878,-14.6934,1.33882,-1.07536,-1.61585,0.762195,1.15854
570.626,2.574,-9.29349,0,3.73863,11.0267,-1.38432,-8.65854,-0.0304878,-33.2622,-14.0899,1.38911,-0.931663,-9.26829,-1.46341,-3.87195
570.636,2.72055,-9.10052,0,4.25355,11.3356,-1.23104,-8.14024,7.10366,-21.7683,-13.4648,0.677791,-1.04662,-14.1159,-3.87195,-10.0305
570.646,2.98639,-8.992,0,4.39965,11.9032,-0.555645,-8.53659,4.26829,-8.71951,-12.5403,-0.186812,-1.40348,-16.2805,-4.42073,-16.8598
570.656,3.3971,-8.8822,0,4.10746,11.8721,0.287402,-11.128,-6.79878,9.05488,-11.5536,-0.986748,-1.27415,-15.5488,-2.62195,-21.6463
570.666,3.94065,-8.78367,0,3.93502,11.6566,0.981958,-16.0976,-8.84146,24.3293,-11.144,-1.87291,-1.34121,-12.7134,-0.579268,-23.3841
570.676,4.61153,-8.75376,0,3.92544,11.4554,2.04295,-24.878,-14.5122,37.8963,-10.8782,-2.64889,-1.55676,-6.79878,0.853659,-21.4939
570.686,5.4098,-8.71933,0,4.07153,11.235,2.66087,-29.4512,-14.0854,50.2134,-11.1297,-2.61776,-1.56155,-0.548781,0.914634,-18.9939
570.696,6.33045,-8.62887,0,4.09309,11.0506,3.2237,-32.7439,-12.9573,63.5061,-10.3585,-3.2237,-1.21906,7.43902,1.52439,-12.8049
570.706,7.33782,-8.37614,0,3.79371,10.6507,3.85359,-39.3293,-16.0976,75.7012,-10.1214,-2.81894,-0.821492,13.4146,0.457317,-5.30488
570.716,8.43789,-7.69323,0,3.70749,10.1429,3.71228,-49.0244,-14.4512,86.25,-9.5681,-2.51477,-0.282612,17.8963,-0.121951,0.884146
570.726,9.58117,-7.25446,0,3.21891,9.70462,3.40811,-57.378,-15.6098,96.4329,-9.25196,-1.56634,0.0526904,20.3659,-2.07317,6.03659
570.736,10.7962,-6.8399,0,2.98659,9.15856,2.33275,-66.7683,-10.4268,106.677,-9.01246,-0.651445,0.376018,21.5549,-3.93293,9.93902
570.746,12.0341,-6.3615,0,2.37107,9.06754,1.50886,-71.5854,-11.0976,118.445,-8.22929,-0.457449,0.696951,22.622,-5.67073,13.75
570.756,13.2593,-5.90372,0,1.69088,8.52148,0.871787,-71.9207,-22.1646,126.677,-8.37059,1.00351,0.740061,16.4329,-6.64634,16.0976
570.766,14.4898,-5.36051,0,1.54479,9.00288,0.886157,-67.9573,-23.4146,132.744,-8.943,1.54958,1.21906,13.3841,-8.81098,15.7317
570.776,15.7235,-4.90894,0,1.76034,9.72138,0.943638,-59.6951,-28.9024,134.512,-9.0388,1.70046,0.946033,8.96341,-7.10366,13.4756
570.786,17.0027,-4.47571,0,2.37346,10.174,1.72202,-52.7134,-34.1463,135.823,-9.25436,1.83219,0.967588,2.07317,-6.98171,10.5488
570.796,18.2356,-4.07495,0,2.60099,10.8111,1.54479,-42.0122,-28.2927,132.896,-9.29268,1.90165,0.907712,-5.7622,-6.70732,7.13415
570.806,19.3968,-3.7507,0,2.82133,11.6925,1.43462,-28.5061,-27.7134,128.018,-9.3765,1.74597,0.661025,-12.8354,-6.0061,4.5122
570.816,20.5411,-3.53778,0,3.31471,11.9775,1.24062,-19.7561,-28.8415,124.787,-9.55613,1.44899,0.251477,-18.628,-4.84756,2.83537
570.826,21.7017,-3.40861,0,3.6524,11.5224,0.807122,-9.7561,-29.6646,124.451,-9.62319,1.17835,-0.105381,-23.9024,-2.95732,2.34756
570.836,22.8255,-3.37781,0,3.59492,10.859,0.718506,0,-18.5671,121.585,-9.67827,0.876577,-0.488584,-28.1402,-1.4939,4.29878
570.846,23.9203,-3.46903,0,3.39853,10.2124,0.955613,7.53049,-13.9024,120.732,-9.76449,0.490979,-0.761616,-30.8537,-0.548781,6.7378
570.856,24.9627,-3.73145,0,3.09916,9.84353,1.31726,9.5122,-7.0122,119.512,-9.7597,0.100591,-1.05141,-32.0427,0.27439,9.05488
570.866,26.0087,-3.92993,0,3.365,9.77168,1.18553,11.5244,0.304878,118.902,-9.70462,-0.220342,-1.13524,-31.9207,1.06707,10.9146
570.876,27.0856,-4.15599,0,3.63324,9.40045,0.871787,20.3963,5.70122,119.848,-9.62798,-0.452659,-1.11129,-31.6768,0.640244,10.9756
570.886,28.1045,-4.41028,0,3.25483,9.62079,1.27176,24.6646,12.7744,121.098,-9.47949,-0.390388,-1.00591,-31.25,0.0609756,11.311
570.896,29.1,-4.59678,0,3.24525,9.57768,1.00351,25.3659,18.6585,120.732,-9.30226,-0.263452,-1.02507,-31.1585,-0.701219,10.6098
570.906,30.0401,-4.7391,0,2.92671,9.50583,0.972378,29.3293,16.6159,120.396,-9.14179,-0.0981958,-0.993933,-31.4024,-1.06707,10.1829
570.916,30.9585,-4.83194,0,3.02012,9.38848,0.737666,35.1829,18.2012,118.628,-9.13221,0.0383203,-0.981958,-32.439,-1.67683,9.72561
570.926,31.7983,-4.91307,0,2.79499,9.29747,1.11129,37.5305,14.5732,114.726,-9.11305,0.179626,-0.967588,-33.9939,-1.70732,9.26829
570.936,32.6325,-5.02969,0,3.12311,9.09389,1.18553,40.061,19.6037,111.341,-9.22562,0.232317,-1.11129,-35.7622,-1.85976,8.81098
570.946,33.4487,-5.14763,0,3.06802,8.86397,1.51126,41.5549,21.4329,110.915,-9.40045,0.205972,-1.16158,-37.3171,-1.7378,7.95732
570.956,34.2178,-5.25399,0,3.00335,8.86157,1.33882,41.5549,27.3171,108.537,-9.53936,0.174836,-1.19032,-39.3902,-1.85976,6.43293
570.966,34.803,-5.38024,0,2.32317,9.28789,1.62382,41.5244,30.6098,100.884,-9.63516,0.0766406,-1.31247,-40.1829,-2.04268,5.03049
570.976,35.2774,-5.52393,0,2.24653,9.4244,1.35558,38.2622,34.2073,92.0732,-9.69025,-0.00479004,-1.37714,-41.189,-1.76829,3.62805
570.986,35.6519,-5.66091,0,2.05253,8.88313,1.18314,37.1037,31.25,83.6585,-9.65672,-0.102986,-1.41067,-41.25,-2.13415,1.70732
570.996,35.9496,-5.81797,0,2.09804,8.48316,1.0083,36.128,27.8659,74.7866,-9.56571,-0.155676,-1.46336,-41.3415,-1.98171,0.335366
571.006,36.1625,-6.00075,0,2.07409,8.37538,1.19511,35.1829,23.811,66.7073,-9.50583,-0.182021,-1.55437,-41.5549,-1.95122,-0.518293
571.016,36.3522,-6.22803,0,2.38065,8.07601,0.948428,32.439,19.2988,59.6341,-9.44356,-0.193997,-1.59987,-41.5854,-1.43293,-0.579268
571.026,36.4903,-6.58596,0,2.42855,7.96104,1.04662,32.0732,13.5976,53.6585,-9.43159,-0.220342,-1.6813,-41.7378,-0.609756,-0.853659
571.036,36.5185,-7.08785,0,2.43813,8.17899,1.22146,33.1098,14.6646,43.4756,-9.43877,-0.229922,-1.7795,-41.6159,0.121951,-1.0061
571.046,36.4545,-7.42245,0,2.58902,8.28916,1.7292,30.5183,12.3476,32.5915,-9.42201,-0.241897,-1.76273,-41.9817,0.548781,-0.853659
571.056,36.369,-7.70889,0,2.98659,8.0329,1.80105,29.2378,18.3537,24.0549,-9.44117,-0.217947,-1.85854,-41.9817,0.914634,-0.792683
571.066,36.2139,-7.95862,0,2.94348,7.76705,1.93278,25.5488,13.4146,16.0366,-9.46512,-0.261057,-1.96152,-42.2256,1.37195,-0.396341
571.076,36.0419,-8.19542,0,3.24046,7.49641,1.84417,24.4512,18.5671,8.68902,-9.44835,-0.277822,-1.96152,-42.5,1.37195,-0.762195
571.086,35.6404,-8.41042,0,3.36979,7.24733,1.77231,23.2012,20.6098,2.40854,-9.35255,-0.277822,-1.94715,-42.8049,1.58537,-0.884146
571.096,35.3941,-8.62672,0,3.52307,6.84736,1.66454,25.4573,22.7744,-4.11585,-9.24717,-0.174836,-2.00703,-43.628,1.89024,-0.853659
571.106,35.1401,-8.89022,0,3.56379,6.69887,1.50168,27.2561,22.6524,-10.8537,-9.11544,-0.0574805,-2.14594,-44.4512,1.95122,-0.945122
571.116,34.8503,-9.13396,0,3.51349,6.31088,0.819097,32.9268,18.0793,-17.2561,-9.01725,0.0646655,-2.24892,-45.3659,2.80488,-0.945122
571.126,34.4605,-9.38924,0,3.87035,6.93119,1.27176,41.1585,25.3659,-28.2012,-9.02922,0.193997,-2.43094,-45.7012,3.62805,-1.12805
571.136,34.1212,-9.64535,0,4.81399,7.73112,2.77343,21.4939,42.5305,-29.4207,-9.07473,0.246687,-2.52675,-45.3963,4.17683,-1.31098
571.146,33.7413,-9.90338,0,4.92656,7.78621,1.2502,18.1098,53.811,-35.0915,-9.14897,0.253872,-2.60099,-44.8476,4.11585,-1.21951
571.156,33.3162,-10.1545,0,4.94811,7.96104,1.96392,15.3963,43.0793,-39.5427,-9.27112,0.0574805,-2.66805,-44.3293,4.45122,-2.0122
571.166,32.8997,-10.3912,0,5.03673,7.6928,0.965193,8.20122,39.9085,-42.2866,-9.34297,-0.0526904,-2.64889,-43.75,3.78049,-3.35366
571.176,32.5297,-10.6125,0,5.05349,7.03657,0.598755,13.3841,23.1098,-43.4451,-9.32381,-0.0646655,-2.58662,-43.2622,3.23171,-4.2378
571.186,32.0497,-10.8092,0,4.23439,6.57672,-0.392783,25.8537,9.81707,-49.4817,-9.31663,-0.0502954,-2.37107,-43.1402,1.92073,-4.39024
571.196,31.599,-11.1497,0,4.78285,6.44021,-0.323328,39.7866,-6.15854,-55.2744,-9.29986,0.0191602,-2.3088,-41.9817,-0.335366,-4.11585
571.206,31.2137,-11.3271,0,5.99234,7.11081,0.859812,38.3232,-10.5183,-56.7073,-9.24238,0.0335303,-2.27766,-40.8537,-1.37195,-3.56707
571.216,30.9921,-11.5545,0,7.32876,7.18266,0.874182,26.4939,-7.65244,-51.9207,-9.2328,-0.0598755,-2.32556,-39.5122,-0.914634,-3.2622
571.226,30.921,-11.9901,0,7.95146,6.84497,0.131726,24.2988,-7.9878,-44.5732,-9.2304,-0.184417,-2.54112,-37.9878,0.27439,-3.68902
571.236,30.9759,-12.2283,0,8.56219,6.73719,-0.720901,30.6707,-8.29268,-37.0122,-9.25436,-0.287402,-2.71116,-36.5549,1.79878,-5.33537
571.246,31.1316,-12.4151,0,8.81367,6.90245,-0.742456,36.7988,-11.2805,-26.8902,-9.36213,-0.332908,-2.76625,-35.4573,2.92683,-6.79878
571.256,31.3791,-12.6079,0,8.98851,7.12279,-0.684976,38.689,-2.77439,-16.5244,-9.38848,-0.328118,-2.87642,-35.061,3.65854,-9.45122
571.266,31.6735,-12.7726,0,8.26042,7.04854,-0.974773,34.7256,10.5793,-7.0122,-9.44596,-0.182021,-2.76385,-36.2805,2.77439,-11.4634
571.276,31.8355,-12.7872,0,6.46416,7.04136,-1.53281,41.189,30.0305,-5.82317,-9.54655,0.0359253,-2.19144,-38.1402,0.396341,-12.8049
571.286,31.6547,-12.6635,0,4.83075,8.6053,-0.0215552,43.8415,38.4451,-13.2927,-9.78605,0.112566,-1.67651,-40.6402,-5.09146,-13.2012
571.296,31.0769,-12.5071,0,3.9901,11.2159,2.02619,62.1341,48.0488,-34.3293,-10.2507,-0.373623,-1.58071,-41.7378,-10.3049,-12.9573
571.306,30.1363,-12.2951,0,4.02363,13.678,5.54208,63.5671,45.6098,-66.0061,-10.9069,-1.12087,-1.38193,-39.3598,-13.3841,-11.4024
571.316,29.2768,-12.1491,0,7.39103,15.6898,7.64251,22.3171,42.9878,-77.6829,-11.7332,-2.20581,-1.78908,-33.0488,-12.8354,-7.80488
571.326,28.9478,-12.0102,0,11.5847,14.018,7.69999,-26.4329,54.3902,-54.5732,-13.1319,-2.94348,-2.00703,-24.0854,-9.48171,-4.26829
571.336,29.2385,-11.8926,0,15.5293,12.4565,2.81654,-29.4207,76.6768,-15.8841,-13.757,-4.24637,-2.19863,-13.8415,-8.07927,-1.64634
571.346,30.113,-11.6949,0,16.5807,10.0232,-3.27399,12.1951,113.11,28.811,-13.7139,-4.41163,-1.66693,-3.35366,-6.18902,1.7378
571.356,31.1783,-11.5468,0,10.6363,9.14418,-3.71468,58.2012,111.067,69.5122,-13.4025,-4.39486,-1.8777,3.90244,-3.71951,4.2378
571.366,31.6488,-11.2949,0,2.62494,11.429,-0.792751,74.7866,85.3049,85.2439,-12.0948,-2.90516,-1.1065,9.78659,-3.68902,10.1524
571.376,31.2642,-10.9081,0,-4.83315,12.3511,2.37107,57.0427,53.1402,68.9634,-11.235,-1.18074,-0.308958,10.5793,-5.21341,18.5061
571.386,30.0977,-10.4045,0,-8.70111,11.1321,3.17819,33.7195,29.8171,22.3476,-11.4027,-0.205972,0.352068,7.40854,-7.43902,23.628
571.396,28.3754,-9.94835,0,-8.98611,9.30226,3.4129,6.21951,2.68293,-24.5122,-11.4721,1.52084,0.215552,1.34146,-6.64634,25.3049
571.406,26.5183,-9.44506,0,-7.01741,8.20773,1.3939,-15.122,-39.3293,-48.872,-11.5967,1.0586,0.546064,-4.26829,-13.1402,23.1707
571.416,24.9167,-8.90277,0,-3.57576,8.73464,-1.04183,-10.3354,-84.0854,-63.872,-11.944,1.51365,0.869392,-11.5854,-17.3476,17.2561
571.426,23.7157,-8.354,0,-0.184417,9.44835,-1.71004,2.43902,-91.9207,-69.4207,-11.2542,1.38193,0.958008,-17.0122,-18.1098,9.32927
571.436,22.7763,-7.78783,0,2.39741,10.4591,-2.04056,19.4817,-86.7073,-73.811,-10.2746,0.708926,1.05141,-21.9207,-20.3049,1.7378
571.446,22.039,-7.26502,0,4.59365,11.7715,0.112566,37.4085,-67.0427,-72.2561,-9.54415,-0.222737,0.886157,-24.7561,-22.1646,-4.11585
571.456,21.5017,-6.74816,0,6.19352,12.1188,2.15312,20.0305,-40.5793,-65.0915,-9.51541,-0.474214,0.941243,-29.2683,-27.8354,-7.43902
571.466,21.1888,-6.38805,0,6.9719,10.8973,2.67045,-1.43293,-7.83537,-54.6037,-8.86636,-1.825,0.344883,-21.189,-23.8415,-7.89634
571.476,21.0449,-6.09883,0,6.93358,9.78844,1.51365,-11.7988,20.2134,-43.5061,-8.83762,-2.25371,0.124541,-16.9512,-21.8598,-5.21341
571.486,21.0018,-5.83942,0,6.33722,8.89271,-0.292192,-11.3415,32.0732,-33.8415,-9.01725,-2.75427,0.0550855,-11.5244,-20.5793,-1.31098
571.496,20.9637,-5.66183,0,5.13492,7.99218,-1.86572,-1.12805,37.5,-27.8049,-9.19687,-3.00335,-0.232317,-6.06707,-18.628,2.16463
571.506,20.7342,-5.48884,0,3.43925,7.85806,-2.16749,13.5671,40.9451,-28.872,-9.18011,-3.08,-0.220342,-0.182927,-16.4939,4.66463
571.516,20.2432,-5.32172,0,1.91123,8.62446,-1.53281,22.561,38.4146,-33.2927,-9.19209,-2.82133,-0.215552,4.66463,-15.061,5.91463
571.526,19.6183,-5.12135,0,1.12805,9.45075,-0.275427,21.189,34.6037,-36.3415,-9.24478,-2.56028,-0.0526904,8.75,-13.0793,6.0061
571.536,18.945,-4.97452,0,0.859812,10.0088,0.603545,14.1463,29.4207,-38.689,-9.43877,-2.27048,-0.241897,11.9207,-10.9756,4.93902
571.546,18.2857,-4.84338,0,0.926873,10.4111,0.955613,4.63415,14.878,-38.9939,-9.63756,-2.20342,-0.287402,14.6646,-9.02439,3.07927
571.556,17.6708,-4.69184,0,1.05141,10.1501,0.840652,-5.70122,-3.59756,-37.5,-9.84353,-1.96631,-0.182021,15.2134,-8.29268,1.34146
571.566,17.0889,-4.55224,0,1.14961,9.61361,0.0862207,-9.5122,-20.0305,-37.2256,-9.88185,-1.67172,-0.208367,14.8476,-7.9878,0.579268
571.576,16.521,-4.44377,0,1.27655,9.5202,-0.0287402,-12.6524,-35.3659,-38.6585,-9.77168,-1.46815,-0.316143,13.5671,-7.5,0.792683
571.586,15.9865,-4.38433,0,1.65256,9.5681,0.0191602,-15.0915,-49.4207,-40.8232,-9.616,-1.27176,-0.500559,12.4085,-6.64634,1.4939
571.596,15.4971,-4.31969,0,2.04295,9.31423,-0.105381,-17.5915,-52.561,-42.561,-9.48428,-1.17356,-0.462239,11.1585,-6.79878,2.43902
571.606,15.0102,-4.26074,0,2.09564,9.0412,-0.213157,-19.6341,-57.8354,-44.6951,-9.35974,-1.09931,-0.469424,10.2134,-7.68293,3.2622
571.616,14.6548,-4.23509,0,3.23088,9.15376,-0.749641,-17.0122,-55.8232,-45.3049,-9.26633,-1.08255,-0.59157,9.78659,-7.92683,4.14634
571.626,14.3783,-4.23628,0,3.57337,8.72745,-0.716111,-14.939,-58.5366,-43.75,-9.22562,-1.19751,-0.694556,9.87805,-8.14024,3.90244
571.636,14.1941,-4.24338,0,4.19128,8.76817,-0.852627,-10.3963,-55.0305,-41.5854,-9.22083,-1.38432,-0.718506,10.5183,-8.10976,3.5061
571.646,14.0659,-4.28627,0,4.61041,8.87355,-1.00112,-6.21951,-49.7866,-40.1524,-9.23759,-1.49689,-0.866997,11.372,-7.5,3.14024
571.656,14.0189,-4.34497,0,4.95769,8.63165,-1.16158,-3.75,-36.9817,-37.0427,-9.15376,-1.63819,-0.929268,11.7683,-6.76829,2.83537
571.666,14.0069,-4.4074,0,5.13732,8.79212,-0.838257,2.22561,-24.6646,-34.4512,-9.10586,-1.66693,-0.946033,12.7744,-5.64024,3.17073
571.676,14.0012,-4.46908,0,5.00559,8.87594,-0.696951,2.62195,-16.0366,-32.0427,-9.07473,-1.70286,-0.946033,13.3841,-4.90854,4.29878
571.686,13.9721,-4.5478,0,4.61281,8.93342,-0.387993,1.79878,-7.68293,-30.122,-9.06754,-1.66693,-1.0107,13.2317,-3.9939,5.60976
571.696,13.907,-4.68323,0,4.29187,8.93582,-0.210762,1.25,1.7378,-30.4878,-9.07473,-1.65017,-1.17835,13.7805,-2.77439,7.0122
571.706,13.7948,-4.85559,0,3.88951,9.09868,-0.162861,1.09756,2.46951,-30.3049,-9.12742,-1.56634,-1.19511,14.3293,-1.70732,8.14024
571.716,13.6716,-5.07217,0,3.63324,9.05078,-0.0694556,1.34146,5.30488,-29.0549,-9.11065,-1.45857,-1.14961,14.3902,-0.884146,8.84146
571.726,13.52,-5.45057,0,3.31231,9.06515,-0.0766406,2.13415,6.95122,-28.5366,-9.09149,-1.41306,-1.19272,14.9085,-0.0914634,9.57317
571.736,13.3141,-5.73838,0,2.90995,9.09149,-0.0646655,1.58537,4.02439,-29.6341,-9.11065,-1.3939,-1.27894,15.7317,0.548781,10.3049
571.746,13.1079,-5.86634,0,2.94108,9.31423,-0.0287402,1.43293,3.65854,-29.6341,-9.12502,-1.39151,-1.28373,17.2256,2.04268,10.7317
571.756,12.9025,-6.02059,0,2.96982,9.51062,0.00479004,-0.335366,3.41463,-29.6037,-9.09628,-1.47773,-1.52563,19.4512,3.96341,11.2195
571.766,12.6763,-6.1799,0,2.73032,9.45075,-0.0934058,-0.823171,3.96341,-29.6341,-9.09149,-1.59508,-1.59987,21.7378,5.88415,11.9512
571.776,12.4104,-6.32208,0,2.45969,9.41961,-0.119751,-1.95122,3.10976,-31.128,-9.06754,-1.73878,-1.55437,24.1159,7.65244,12.4695
571.786,12.1216,-6.48233,0,2.39502,9.36692,-0.155676,-0.609756,2.92683,-33.4146,-9.04599,-1.74357,-1.64777,26.4939,8.68902,13.628
571.796,11.8173,-6.68124,0,2.38304,9.35016,-0.246687,0.27439,2.10366,-35.4878,-9.03162,-1.80584,-1.82979,29.1768,10.4878,14.5427
571.806,11.5197,-6.87437,0,2.56746,9.07952,-0.143701,-1.43293,1.18902,-38.4756,-8.97174,-1.79387,-1.825,31.4329,12.1646,15.8537
571.816,11.2853,-7.03375,0,3.08718,9.3286,-0.0431104,0,-1.15854,-37.7744,-8.87594,-1.73878,-1.69807,33.811,13.8415,16.9817
571.826,11.0662,-7.19204,0,3.01772,8.91426,-0.0790356,-0.579268,0.335366,-37.5,-8.82086,-1.6334,-1.70765,35.3659,15.061,18.5061
571.836,10.8537,-7.34575,0,3.27639,8.98132,-0.153281,-3.75,0.182927,-40,-8.74422,-1.46815,-1.69807,36.7073,16.9512,19.3902
571.846,10.6717,-7.51686,0,3.65959,9.17053,-0.313748,-1.61585,4.90854,-40.8232,-8.72506,-1.31008,-1.78668,37.9268,18.9634,20.6402
571.856,10.4653,-7.71941,0,3.47996,9.0867,0.0335303,-0.914634,7.22561,-42.0427,-8.74422,-1.15919,-1.94236,38.5671,21.8293,21.7073
571.866,10.2297,-7.88511,0,3.23807,9.331,-0.196392,-1.92073,16.0061,-41.7378,-8.85199,-1.02028,-1.84656,38.3841,24.3293,22.3476
571.876,9.96493,-8.00002,0,3.01293,9.07473,-0.464634,-2.7439,17.5915,-43.628,-9.0867,-0.986748,-1.71004,37.0122,26.0671,22.5915
571.886,9.62849,-8.12194,0,2.6944,9.43398,-0.840652,1.95122,17.378,-46.5244,-9.3286,-0.965193,-1.80345,35.3049,27.6829,22.1646
571.896,9.21094,-8.26084,0,2.14354,9.1346,-0.914897,5.88415,17.7439,-49.9085,-9.45554,-0.972378,-1.92081,32.5305,29.6646,21.311
571.906,8.75221,-8.38131,0,1.88728,9.2831,-0.886157,9.87805,9.45122,-51.4634,-9.50104,-0.981958,-1.87291,29.939,30.6098,20.6098
571.916,8.33563,-8.47959,0,2.15073,9.50344,-0.866997,13.2317,5.21341,-50.6707,-9.70701,-0.766406,-1.83698,26.7378,29.6951,19.7866
571.926,7.88944,-8.60217,0,1.91362,9.44596,-0.519719,12.622,-4.63415,-51.8902,-9.65193,-0.613125,-1.95194,23.7805,28.689,19.9695
571.936,7.47761,-8.7353,0,1.98547,9.50583,-0.435894,10.9146,-9.05488,-50,-9.72138,-0.522114,-2.03577,22.6524,27.622,21.128
571.946,7.09203,-8.82654,0,1.90644,9.0412,-0.534089,5.27439,-12.7439,-48.3841,-9.89143,-0.579595,-1.90644,21.8902,26.311,21.8598
571.956,6.77164,-8.85152,0,2.23695,8.96935,-1.0586,3.93293,-19.0854,-46.7988,-10.2986,-0.799937,-1.69328,21.5854,24.3293,21.4024
571.966,6.68454,-8.78787,0,3.51828,8.59093,-1.74836,16.7073,-7.37805,-40.5183,-10.7728,-0.936453,-1.3484,21.7378,22.1646,20.0915
571.976,6.64088,-8.66572,0,3.88951,10.0184,-1.56395,17.1037,-8.04878,-34.1159,-11.2758,-1.02267,-1.1065,21.0976,19.939,17.1951
571.986,6.78506,-8.5137,0,4.94093,10.0327,-1.2023,8.71951,-4.45122,-25.2439,-11.7069,-0.931663,-0.969983,19.1768,18.2317,13.1707
571.996,6.99078,-8.34482,0,4.82836,9.83874,-1.09213,-1.06707,-0.426829,-18.5061,-11.8961,-0.728086,-0.866997,17.4085,16.311,9.63415
572.006,7.17486,-8.13509,0,3.54223,8.95258,-1.14961,-1.21951,4.57317,-11.0061,-11.8074,-0.486189,-0.61552,15.4268,13.0488,6.67683
572.016,7.32101,-7.90502,0,2.90276,8.76577,-0.936453,3.2622,11.0366,-7.86585,-11.6685,-0.411943,-0.464634,12.8963,9.11585,4.57317
572.026,7.45799,-7.67383,0,2.53154,8.72027,-0.589175,7.83537,15.4573,-4.7561,-11.4051,-0.277822,-0.407153,10.5793,5.85366,2.46951
572.036,7.70519,-7.44778,0,2.0669,8.76098,-0.502954,13.6585,18.6585,-1.28049,-11.1321,-0.0359253,-0.397573,7.46951,3.41463,1.67683
572.046,7.80123,-7.23626,0,1.75076,9.33339,-0.373623,18.689,21.9512,3.17073,-10.9931,0.213157,-0.474214,5.09146,2.07317,0.853659
572.056,7.82086,-7.05209,0,1.02986,10.083,-0.0814307,21.7378,17.8354,6.03659,-10.962,0.126936,-0.62031,3.2622,1.31098,-0.0304878
572.066,7.83776,-6.92134,0,0.855022,11.0147,0.189207,17.3171,7.71341,8.62805,-10.9285,-0.165256,-0.795146,2.28659,1.46341,-2.28659
572.076,7.82353,-6.78692,0,0.517324,11.6614,0.529299,10.0305,-3.96341,9.35976,-10.8399,-0.517324,-0.764011,2.7439,1.34146,-5.15244
572.086,7.8816,-6.60617,0,1.01788,12.4828,0.390388,0.701219,-7.89634,12.378,-10.6315,-0.797541,-0.696951,3.2622,0.487805,-7.10366
572.096,8.03403,-6.36485,0,1.50647,12.2912,0.467029,-5.30488,-10.0915,17.378,-10.5237,-0.946033,-0.474214,4.26829,-0.579268,-6.7378
572.106,8.26654,-6.17047,0,1.9735,11.6422,0.816702,-12.622,-8.14024,20.4878,-10.5932,-1.11368,-0.337698,4.90854,-2.37805,-4.42073
572.116,8.58953,-6.00838,0,2.39981,10.6459,1.05141,-17.1951,-9.84756,23.9024,-10.586,-1.12805,-0.409548,5.51829,-3.32317,-1.06707
572.126,9.04267,-5.85341,0,3.10155,10.186,0.977168,-17.8659,-5.82317,29.2073,-10.5525,-0.929268,-0.397573,5.60976,-4.45122,3.14024
572.136,9.58868,-5.71092,0,3.32429,10.0184,1.29331,-21.0671,-8.35366,36.7073,-10.4399,-0.823887,-0.421523,7.43902,-4.66463,6.37195
572.146,10.2229,-5.55721,0,3.55421,9.8555,1.41067,-24.878,-9.69512,43.811,-10.2483,-0.637075,-0.337698,10.1524,-4.96951,8.59756
572.156,10.9371,-5.38801,0,3.73623,9.61361,1.54239,-27.5,-9.48171,50.3963,-10.0998,-0.390388,-0.234712,11.9207,-5.85366,10.5793
572.166,11.7022,-5.21043,0,3.59013,9.41003,1.56395,-29.5732,-10.061,57.7744,-9.86748,-0.225132,-0.162861,13.7195,-7.5,11.4939
572.176,12.5236,-5.03416,0,3.45122,9.30944,1.94236,-31.5244,-9.11585,66.189,-9.70462,-0.112566,-0.136516,15.6402,-9.26829,12.1037
572.186,13.3783,-4.83387,0,3.19496,9.36453,2.019,-36.0366,-9.17683,74.3293,-9.51781,0.0287402,-0.00479004,16.6768,-10.5488,12.5305
572.196,14.2514,-4.63281,0,2.87642,9.58966,2.05253,-39.7866,-10.7927,82.3171,-9.37411,0.134121,0.0311353,17.2256,-10.6707,12.8354
572.206,15.1374,-4.43421,0,2.63692,9.77647,1.84417,-40.7927,-11.9207,88.689,-9.24957,0.273032,0.0526904,16.8293,-11.2195,13.2012
572.216,16.0236,-4.24407,0,2.24413,9.84832,1.66933,-41.6463,-12.9573,95.1219,-9.27831,0.409548,0.0502954,16.0366,-11.4329,13.9024
572.226,16.9235,-4.09459,0,2.09085,9.98484,1.48731,-37.9573,-11.4329,100.396,-9.39327,0.536484,-0.0862207,14.8476,-11.4329,14.8171
572.236,17.7369,-3.95691,0,1.59508,10.7081,1.7292,-37.7439,-14.5427,100.244,-9.5705,0.56762,-0.112566,13.4146,-11.2805,15.5183
572.246,18.5675,-3.85891,0,1.60466,10.1693,1.50407,-41.9817,-14.2378,102.652,-9.83156,0.656235,-0.263452,11.7683,-10.6707,15.8232
572.256,19.4134,-3.7673,0,1.54,9.86269,1.35079,-40.9146,-18.872,106.098,-9.96568,0.701741,-0.277822,10,-10.3354,16.0976
572.266,20.2731,-3.7246,0,1.32924,9.57768,0.833467,-33.628,-25.4878,111.22,-10.0854,0.692161,-0.481399,8.56707,-8.81098,16.0976
572.276,21.1112,-3.70744,0,1.08015,9.79563,1.04423,-27.4085,-43.4451,114.055,-10.1693,0.57241,-0.59157,6.7378,-7.62195,15.9146
572.286,21.9769,-3.6924,0,1.51844,9.78605,0.694556,-15.3354,-44.2378,113.415,-10.2315,0.445474,-0.60115,4.69512,-6.92073,15.2744
572.296,22.7887,-3.71537,0,1.56634,10.2938,0.864602,-7.65244,-51.1585,110.03,-10.2555,0.308958,-0.771196,3.65854,-6.03659,14.878
572.306,23.5475,-3.7432,0,1.86333,10.7512,0.938848,-4.54268,-60.3659,103.872,-10.2363,0.306563,-0.795146,2.92683,-5.4878,14.9695
572.316,24.3053,-3.79457,0,2.72314,11.1249,0.66821,-1.25,-54.4207,97.3171,-10.1573,0.275427,-0.898132,2.68293,-4.96951,15.9146
572.326,24.9253,-3.83329,0,2.77104,11.2781,0.385598,1.82927,-37.8963,84.6951,-10.0687,0.198787,-0.843047,3.01829,-4.90854,16.9512
572.336,25.3933,-3.87968,0,2.55549,11.5416,0.402363,2.95732,-33.7195,73.1402,-9.96328,0.141306,-0.874182,3.56707,-4.87805,17.9573
572.346,25.7499,-3.93472,0,2.66805,11.1057,0.61073,-1.12805,-23.2317,60.6402,-9.84114,0.165256,-0.907712,4.45122,-4.69512,18.3841
572.356,26.0667,-4.00255,0,3.15185,10.2148,0.376018,-4.90854,-14.6951,49.878,-9.71899,0.174836,-0.960403,5.18293,-4.81707,18.3841
572.366,26.3377,-4.08078,0,3.06802,9.14897,0.390388,-3.23171,-13.7805,43.0183,-9.62319,0.227527,-0.996328,5.85366,-3.90244,18.0183
572.376,26.595,-4.12459,0,3.29076,8.57656,0.354463,1.34146,-2.04268,37.1646,-9.56092,0.311353,-0.862207,5.64024,-3.87195,17.3171
572.386,26.8081,-4.17546,0,3.24286,8.43526,0.584385,4.96951,2.22561,33.1098,-9.4723,0.447869,-0.890947,5.51829,-4.05488,16.4939
572.396,26.9751,-4.22185,0,3.16861,8.17899,0.483794,8.44512,8.56707,28.5366,-9.45554,0.59157,-0.876577,4.7561,-3.75,16.0671
572.406,27.0783,-4.26034,0,3.01772,7.94667,0.467029,11.128,12.8659,23.1402,-9.44835,0.711321,-0.847837,3.04878,-3.35366,15.2744
572.416,27.1122,-4.25819,0,2.83091,7.81495,0.560435,16.25,17.2256,18.0793,-9.49386,0.814307,-0.701741,1.43293,-3.5061,14.4817
572.426,27.0344,-4.23275,0,2.40939,8.04727,0.407153,17.5915,16.8902,13.3841,-9.55613,0.888552,-0.617915,-0.426829,-2.9878,14.0854
572.436,26.8969,-4.22585,0,2.33514,8.1742,0.440684,17.8354,12.7439,8.62805,-9.616,0.907712,-0.689766,-2.77439,-2.2561,13.628
572.446,26.492,-4.20989,0,2.28724,8.30114,0.524509,20.5488,12.2561,2.04268,-9.70941,0.845442,-0.66342,-4.69512,-2.19512,13.0793
572.456,26.2088,-4.22719,0,2.31838,8.45442,0.443079,21.9207,12.9878,-4.17683,-9.76689,0.826282,-0.768801,-7.13415,-1.28049,11.9817
572.466,25.8854,-4.28919,0,2.3088,8.42328,0.409548,24.9695,13.9634,-10.7927,-9.76928,0.735271,-0.850232,-8.65854,-0.548781,11.0061
572.476,25.5166,-4.38826,0,2.41418,8.7059,0.136516,26.4634,12.9878,-16.4329,-9.7597,0.680186,-0.890947,-9.5122,0.121951,9.7561
572.486,25.0642,-4.50029,0,2.18186,8.47837,0.198787,25.1829,3.87195,-23.5366,-9.6639,0.60115,-1.02986,-10.5488,1.15854,8.84146
572.496,24.6262,-4.56587,0,2.5962,8.14307,0.296982,26.8293,-4.2378,-29.6341,-9.55134,0.450264,-0.984353,-10.7622,2.56098,8.04878
572.506,24.223,-4.64536,0,3.21412,8.10475,0.0263452,30.8841,-3.17073,-35.0305,-9.51781,0.347278,-1.08015,-11.311,4.11585,7.04268
572.516,23.7856,-4.74436,0,3.44643,8.56938,-0.229922,33.3537,0.640244,-39.9085,-9.44117,0.273032,-1.17595,-12.4695,6.03659,6.03659
572.526,23.3086,-4.84319,0,3.45841,8.5095,-0.177231,35.4878,2.56098,-45.2744,-9.40524,0.359253,-1.18793,-13.4756,7.80488,4.96951
572.536,22.8382,-4.95204,0,3.68114,8.70829,0.241897,32.1037,2.0122,-47.1951,-9.36692,0.459844,-1.24062,-14.5732,9.35976,4.45122
572.546,22.3121,-5.07609,0,3.44404,8.32748,0.869392,30.4573,1.61585,-52.9268,-9.41961,0.560435,-1.32924,-15.5488,10.5793,3.84146
572.556,21.8407,-5.17579,0,4.5218,8.48076,0.823887,36.7073,17.378,-59.8476,-9.46512,0.510139,-1.2526,-15.5793,11.128,3.01829
572.566,21.3306,-5.26379,0,4.73256,9.11544,1.24302,37.0427,27.6829,-63.4756,-9.53697,0.514929,-1.22864,-15.5183,11.4939,2.13415
572.576,20.821,-5.36055,0,4.51222,8.87355,0.732876,27.439,35.8841,-63.4756,-9.56331,0.397573,-1.28373,-15.0915,12.5,1.0061
572.586,20.2997,-5.47418,0,3.87035,8.19576,0.488584,27.0122,23.75,-62.2866,-9.55134,0.308958,-1.36995,-14.6037,13.6585,0.365854
572.596,19.83,-5.57068,0,4.20805,8.72985,-0.191602,33.3841,29.6037,-59.0244,-9.58247,0.126936,-1.31966,-13.75,14.1463,-0.97561
572.606,19.3461,-5.69076,0,3.40093,8.63644,-0.117356,34.4207,21.0061,-52.7744,-9.53457,0.0622705,-1.42983,-12.9268,15.0305,-2.10366
572.616,18.8997,-5.77379,0,3.54942,9.32381,0.0335303,36.8293,19.2988,-48.5976,-9.55134,0.0431104,-1.29331,-11.9207,15.3659,-3.20122
572.626,18.4554,-5.79942,0,3.44404,9.60163,1.0586,27.2256,17.439,-47.0427,-9.55852,0.143701,-1.06339,-11.0366,14.7256,-3.68902
572.636,18.1115,-5.83548,0,4.15296,9.81958,0.775986,15,14.2378,-44.2073,-9.81479,0.158071,-1.14242,-10.061,14.2988,-3.59756
572.646,17.9618,-5.84761,0,5.17324,9.39566,0.285007,11.128,8.9939,-37.1646,-10.2291,0.0263452,-1.08734,-9.69512,14.9695,-3.23171
572.656,18.0125,-5.85521,0,5.88696,8.7035,-0.193997,16.128,10.8841,-27.7134,-10.5165,-0.100591,-1.09931,-9.69512,14.5427,-2.83537
572.666,18.107,-5.83416,0,5.60914,8.66039,0.907712,25.3049,19.0854,-20.7927,-10.6411,-0.153281,-0.979563,-10.1829,12.9878,-2.89634
572.676,18.045,-5.79469,0,4.14578,9.4723,1.54718,32.8659,20.7012,-17.622,-10.6171,-0.141306,-0.888552,-10.6098,10.7927,-2.28659
572.686,17.5762,-5.73347,0,1.33163,9.78366,1.53042,30.6098,3.44512,-26.8293,-10.5213,-0.00958008,-0.773591,-11.4329,8.84146,-1.18902
572.696,17.0488,-5.66607,0,1.08015,9.38129,1.50647,60.5793,-22.6524,-31.3415,-10.4638,0.153281,-0.730481,-12.9878,7.83537,0.457317
572.706,16.5297,-5.57872,0,1.96392,11.2518,-0.948428,44.4817,-9.05488,-38.3841,-10.507,0.344883,-0.62989,-15.4268,6.55488,2.68293
572.716,16.0757,-5.51178,0,2.5483,10.95,-0.737666,18.0183,-30.0305,-39.3293,-10.6507,0.402363,-0.720901,-17.4085,5.06098,4.35976
572.726,16.0423,-5.44647,0,4.56012,10.768,-1.37235,10.4573,-23.9939,-17.439,-10.6794,0.531694,-0.728086,-19.1159,3.17073,5.06098
572.736,16.3992,-5.37195,0,7.11081,9.75491,-1.82979,7.31707,-8.90244,-4.57317,-10.5956,0.598755,-0.744851,-19.8476,0.97561,5.21341
572.746,16.903,-5.3337,0,8.78254,9.51541,-1.72202,5.51829,-4.69512,-2.59146,-10.3776,0.59636,-0.888552,-19.9085,-0.0304878,4.7561
572.756,17.4279,-5.34884,0,8.6053,8.54543,-1.29331,6.92073,2.9878,-4.32927,-10.083,0.536484,-0.977168,-19.9695,-0.426829,3.5061
572.766,18.0142,-5.39264,0,6.80665,7.52515,-1.12087,9.26829,20.6402,-1.79878,-9.83874,0.486189,-1.03225,-20.3049,-0.884146,2.59146
572.776,18.3995,-5.4908,0,5.99952,7.5994,-0.799937,20.2439,50.1829,-3.90244,-9.62798,0.450264,-1.12805,-21.8902,-0.853659,1.58537
572.786,18.6595,-5.6025,0,5.41035,8.2221,-0.584385,25.7012,67.3171,-4.57317,-9.51541,0.5772,-1.17116,-24.0854,-1.03659,0.823171
572.796,18.8279,-5.67176,0,4.72777,8.73224,-0.543669,23.1402,72.2866,-3.65854,-9.49865,0.701741,-1.08494,-26.7988,-0.97561,0.853659
