time,angle1,angle2,intgangle,accX1,accY1,accZ1,gyroX1,gyroY1,gyroZ1,accX2,accY2,accZ2,gyroX2,gyroY2,gyroZ2
1040.27,89.5741,-6.48073,0,9.51062,0.289797,2.04056,-5.15244,-25.4573,2.19512,-9.46512,-0.603545,-1.32924,0.0609756,16.5854,7.07317
1040.28,89.5699,-6.53733,0,9.74533,0.261057,1.98068,-6.09756,-26.2195,2.2561,-9.5202,-0.603545,-1.30768,0.640244,17.9573,6.89024
1040.29,89.5634,-6.60361,0,9.81479,0.313748,1.90644,-6.76829,-26.9512,2.56098,-9.57289,-0.512534,-1.36516,0.731707,19.1768,6.28049
1040.3,89.55,-6.66022,0,9.77647,0.392783,1.78429,-8.04878,-27.439,2.83537,-9.61121,-0.431104,-1.33882,1.09756,20.8232,5.45732
1040.31,89.5312,-6.7077,0,9.66869,0.421523,1.76752,-11.0061,-28.4146,2.77439,-9.6639,-0.378413,-1.31487,0.579268,22.4695,4.5122
1040.32,89.5045,-6.73514,0,9.60163,0.526904,1.66693,-12.8049,-29.2683,3.20122,-9.78126,-0.340093,-1.2502,-0.152439,23.5976,4.20732
1040.33,89.4968,-6.75338,0,9.69264,0.311353,1.58311,-15.3659,-30.8537,2.43902,-9.8603,-0.354463,-1.22386,-1.12805,24.3293,3.62805
1040.34,89.497,-6.77618,0,9.87227,0.361648,1.47773,-17.0427,-29.3902,3.44512,-9.93933,-0.371228,-1.25739,-1.4939,24.0854,3.84146
1040.35,89.4976,-6.80454,0,10.4878,0.342488,1.29571,-18.0793,-25.061,2.9878,-9.87706,-0.368833,-1.27894,-1.61585,23.0793,4.87805
1040.36,89.4722,-6.83444,0,10.6219,0.289797,1.26218,-19.5732,-23.0183,0.579268,-9.85072,-0.423918,-1.28852,-1.58537,21.6768,5.57927
1040.37,89.4386,-6.8707,0,10.7201,0.249082,1.02986,-21.4024,-18.3841,-1.52439,-9.88185,-0.512534,-1.32684,-0.609756,20.7927,6.06707
1040.38,89.3602,-6.93269,0,10.5453,0.462239,1.01309,-22.5915,-13.689,-3.96341,-9.90341,-0.598755,-1.45138,0.457317,19.878,6.37195
1040.39,89.2718,-7.01147,0,10.5836,0.65863,0.711321,-24.2378,-8.10976,-2.71341,-9.91778,-0.622705,-1.54,0.914634,19.3902,5.79268
1040.4,89.1585,-7.10176,0,10.0327,0.785566,0.728086,-25,-8.44512,-1.61585,-9.89862,-0.570015,-1.60227,1.37195,19.5732,5.51829
1040.41,88.9992,-7.19616,0,9.79803,0.711321,0.845442,-26.7073,-9.42073,0.27439,-9.84593,-0.546064,-1.62861,2.19512,18.8415,5.30488
1040.42,88.9669,-7.31326,0,9.77647,0.443079,0.790356,-28.3841,-7.83537,1.46341,-9.89383,-0.464634,-1.75555,2.83537,18.4756,5.27439
1040.43,89.0038,-7.4427,0,9.82437,0.0502954,0.859812,-29.8171,-7.28659,1.79878,-9.88185,-0.392783,-1.82979,2.43902,18.5061,5.39634
1040.44,89.0879,-7.55682,0,10.1812,-0.268242,0.677791,-27.8049,-1.95122,1.03659,-9.86748,-0.402363,-1.78189,2.31707,17.8049,5.21341
1040.45,89.1796,-7.69308,0,10.4998,-0.373623,0.328118,-24.5427,2.83537,0.884146,-9.95849,-0.399968,-1.92081,1.89024,16.2805,5.42683
1040.46,89.2836,-7.84893,0,10.7345,-0.464634,0.105381,-21.6159,4.96951,0.426829,-9.94652,-0.390388,-2.03337,1.7378,15.1524,5.18293
1040.47,89.4314,-8.00887,0,10.5477,-0.62989,-0.122146,-18.0183,7.22561,-0.152439,-9.94652,-0.373623,-2.08127,2.07317,13.9939,5.36585
1040.48,89.6036,-8.18533,0,9.96328,-0.593965,-0.146096,-16.0366,5.54878,-0.335366,-9.87227,-0.320933,-2.16989,1.70732,13.872,5.51829
1040.49,89.8352,-8.38038,0,9.08431,-0.64905,0.0862207,-14.7561,-2.40854,1.0061,-9.81,-0.270637,-2.27287,1.67683,13.3537,5.33537
1040.5,89.9538,-8.58772,0,8.63165,-0.510139,0.229922,-13.8415,-10.7012,3.53659,-9.75731,-0.292192,-2.35191,1.43293,12.9878,5.39634
1040.51,90.0811,-8.80169,0,9.2807,-0.646655,0.359253,-14.6951,-17.7134,4.45122,-9.64953,-0.328118,-2.39262,1.12805,13.1707,5.54878
1040.52,90.1777,-9.01635,0,9.84353,-0.359253,0.332908,-14.1463,-19.2378,5.73171,-9.62798,-0.440684,-2.42855,1.12805,13.2012,5.94512
1040.53,90.3523,-9.23966,0,10.119,-1.23104,0.0886157,-12.8354,-14.878,2.53049,-9.54415,-0.490979,-2.48364,1.31098,13.9634,6.03659
1040.54,90.4561,-9.46547,0,10.3297,-0.713716,-0.00958008,-9.02439,-10.3963,1.70732,-9.48907,-0.476609,-2.51956,2.13415,14.5122,6.18902
1040.55,90.5133,-9.70341,0,10.3656,-0.0886157,0.102986,-7.86585,-11.4634,5.7622,-9.5226,-0.519719,-2.62255,2.89634,15.4268,5.91463
1040.56,90.6026,-9.90328,0,10.7632,-0.500559,-0.114961,-6.25,-5.82317,4.69512,-9.62558,-0.488584,-2.51956,3.17073,16.6159,5.33537
1040.57,90.6636,-10.0928,0,10.598,-0.318538,0.0311353,-6.4939,-2.83537,3.90244,-9.70701,-0.462239,-2.52914,3.5061,17.0427,4.5122
1040.58,90.7334,-10.256,0,10.3752,-0.395178,0.105381,-7.07317,-3.53659,3.96341,-9.69504,-0.459844,-2.44052,3.2622,17.5,3.47561
1040.59,90.8265,-10.4302,0,10.2531,-0.637075,0.342488,-6.58537,-1.06707,0.945122,-9.70462,-0.364043,-2.52196,3.20122,17.7134,2.7439
1040.6,90.8858,-10.6114,0,10.404,-0.55325,0.414338,-5.70122,3.04878,-0.762195,-9.7118,-0.325723,-2.58662,3.2622,18.2317,1.98171
1040.61,90.9819,-10.7966,0,9.99681,-0.680186,0.479004,-4.57317,1.70732,-0.792683,-9.72378,-0.320933,-2.64171,2.68293,18.2622,2.28659
1040.62,91.0452,-10.9976,0,9.89622,-0.833467,0.361648,-0.579268,4.7561,-2.5,-9.64474,-0.395178,-2.72553,3.44512,18.3841,1.95122
1040.63,91.0795,-11.1879,0,9.60642,-0.783171,0.565225,3.90244,3.93293,-4.14634,-9.59445,-0.455054,-2.69919,4.20732,18.5976,1.92073
1040.64,91.0951,-11.3799,0,9.38848,-0.661025,0.493374,8.10976,1.79878,-4.60366,-9.63277,-0.510139,-2.75188,5.03049,18.628,2.28659
1040.65,91.0906,-11.5666,0,9.40285,-0.479004,0.335303,10.6098,0.884146,-4.32927,-9.69504,-0.507744,-2.78062,5.91463,18.6585,2.56098
1040.66,91.0852,-11.7316,0,9.44356,-0.421523,0.320933,12.7134,1.64634,-3.75,-9.82197,-0.493374,-2.74948,6.12805,19.0244,2.65244
1040.67,91.0707,-11.8693,0,9.56331,-0.359253,0.198787,13.1707,3.71951,-3.78049,-9.92257,-0.407153,-2.68003,5.67073,18.811,1.95122
1040.68,91.0534,-11.974,0,9.92496,-0.416733,0.213157,13.2317,4.48171,-4.54268,-10.0639,-0.383203,-2.58902,4.26829,17.5,0.853659
1040.69,91.0302,-12.0587,0,10.2124,-0.483794,0.201182,13.4146,4.05488,-5.7622,-10.0447,-0.227527,-2.50998,1.89024,16.8293,-0.243902
1040.7,90.9875,-12.1607,0,10.2986,-0.462239,0.222737,13.9024,5.09146,-7.5,-10.0327,-0.148491,-2.60578,-0.884146,15.3963,-1.0061
1040.71,90.9335,-12.2566,0,10.2962,-0.435894,0.232317,14.5122,7.92683,-8.44512,-10.0615,-0.122146,-2.60339,-3.01829,14.7866,-1.15854
1040.72,90.8713,-12.3761,0,10.2339,-0.347278,0.411943,15.7317,9.32927,-8.41463,-10.0711,-0.220342,-2.73751,-5.09146,14.0549,-1.12805
1040.73,90.8053,-12.4939,0,10.1836,-0.234712,0.414338,16.4634,11.1585,-7.65244,-10.0256,-0.332908,-2.7399,-6.21951,12.9573,-1.09756
1040.74,90.7306,-12.6282,0,10.186,-0.119751,0.457449,17.439,12.2561,-7.34756,-9.97765,-0.531694,-2.82852,-7.22561,11.8598,-1.31098
1040.75,90.6475,-12.7756,0,9.9537,-0.0407153,0.529299,17.6829,13.0793,-7.46951,-9.88664,-0.682581,-2.89079,-7.71341,10.2134,-1.55488
1040.76,90.5615,-12.9502,0,9.7621,0.0287402,0.60115,17.8963,13.1707,-7.10366,-9.8076,-0.814307,-3.02491,-7.80488,9.02439,-1.34146
1040.77,90.4738,-13.1311,0,9.58247,0.0718506,0.716111,17.4085,11.8598,-6.92073,-9.75252,-0.804727,-3.07042,-7.65244,8.14024,-1.25
1040.78,90.3926,-13.2989,0,9.49386,0.112566,0.735271,17.2256,10.0915,-5.91463,-9.73336,-0.771196,-3.03688,-6.82927,7.37805,-1.25
1040.79,90.321,-13.4283,0,9.42919,0.146096,0.910107,17.2866,7.71341,-4.63415,-9.77407,-0.761616,-2.90037,-6.52439,6.09756,-0.640244
1040.8,90.2626,-13.5341,0,9.52499,0.0862207,1.0107,17.5305,5.03049,-4.17683,-9.80042,-0.665815,-2.81894,-6.18902,4.78659,-0.0609756
1040.81,90.2159,-13.6458,0,9.70462,0.0431104,1.09692,18.1707,3.47561,-3.65854,-9.76689,-0.589175,-2.84049,-6.34146,3.41463,0.731707
1040.82,90.1746,-13.7619,0,9.9082,0.0479004,1.09692,18.8415,3.2622,-3.14024,-9.74773,-0.55804,-2.82373,-6.0061,2.13415,0.762195
1040.83,90.1329,-13.9025,0,10.0016,0.0502954,1.13763,19.6037,2.89634,-3.2622,-9.65672,-0.632285,-2.84049,-6.34146,1.46341,0.792683
1040.84,90.0765,-14.0865,0,10.095,0.117356,1.12805,19.4207,3.44512,-4.08537,-9.58487,-0.706531,-2.87163,-6.21951,0.853659,0.945122
1040.85,90.0132,-14.2757,0,10.1142,0.170046,1.12566,19.0244,3.75,-4.29878,-9.54176,-0.778381,-2.95306,-6.4939,1.09756,1.12805
1040.86,89.9452,-14.4514,0,10.0687,0.208367,1.12805,18.0183,4.87805,-4.45122,-9.51781,-0.790356,-3.00096,-6.15854,1.46341,1.37195
1040.87,89.8657,-14.5657,0,9.96807,0.306563,1.09213,16.372,5.64024,-4.57317,-9.62558,-0.821492,-2.88121,-6.28049,1.61585,1.67683
1040.88,89.7784,-14.6731,0,9.9058,0.409548,1.04902,14.7561,5.73171,-4.2378,-9.58487,-0.787961,-2.82852,-5.91463,1.28049,1.4939
1040.89,89.691,-14.8247,0,9.86988,0.447869,1.14482,12.8354,5.60976,-3.90244,-9.616,-0.775986,-2.96743,-5.51829,1.0061,1.82927
1040.9,89.6045,-15.0124,0,9.91299,0.474214,1.21427,11.0976,6.34146,-3.65854,-9.67348,-0.790356,-2.96743,-4.72561,0.213415,2.10366
1040.91,89.5176,-15.1716,0,9.78844,0.486189,1.28134,9.84756,6.7378,-3.62805,-9.69264,-0.790356,-2.92432,-4.26829,-0.0914634,2.22561
1040.92,89.4405,-15.2416,0,9.69264,0.433499,1.28852,8.59756,7.5,-3.32317,-9.7118,-0.761616,-2.87402,-3.9939,-1.37195,2.31707
1040.93,89.3826,-15.3116,0,9.54894,0.316143,1.42025,8.17073,7.31707,-2.80488,-9.68306,-0.775986,-2.92432,-4.2378,-2.31707,2.5
1040.94,89.3295,-15.3717,0,9.46033,0.301772,1.47533,7.86585,5.54878,-2.37805,-9.70222,-0.766406,-2.92911,-3.9939,-3.75,3.14024
1040.95,89.2916,-15.436,0,9.50583,0.234712,1.4418,7.13415,4.08537,-1.67683,-9.68546,-0.764011,-2.96024,-4.08537,-4.60366,3.53659
1040.96,89.2588,-15.4893,0,9.54415,0.220342,1.346,6.82927,2.56098,-1.31098,-9.71659,-0.732876,-2.9339,-4.42073,-5.36585,3.87195
1040.97,89.2258,-15.5526,0,9.63037,0.232317,1.35319,6.18902,0.914634,-0.792683,-9.73815,-0.768801,-2.99856,-4.48171,-6.46341,4.29878
1040.98,89.1955,-15.5866,0,9.73575,0.229922,1.24781,5.60976,-0.670732,-0.487805,-9.7597,-0.754431,-2.88121,-4.60366,-7.2561,4.69512
1040.99,89.1734,-15.6134,0,9.77647,0.201182,1.19511,5.30488,-2.07317,-0.914634,-9.67827,-0.780776,-2.83091,-4.66463,-8.53659,5.06098
1041,89.1567,-15.642,0,9.83635,0.186812,1.17356,5.18293,-2.0122,-0.701219,-9.61121,-0.811912,-2.82612,-4.14634,-9.87805,5.45732
1041.01,89.1355,-15.6949,0,9.89622,0.191602,1.21667,4.42073,-2.40854,-1.40244,-9.52978,-0.843047,-2.91953,-3.53659,-11.4024,6.0061
1041.02,89.1053,-15.7848,0,9.88664,0.220342,1.19511,3.84146,-1.67683,-2.07317,-9.40045,-0.900527,-3.05844,-2.62195,-11.1585,6.52439
1041.03,89.0773,-15.8978,0,9.87706,0.170046,1.1999,3.29268,-0.396341,-2.65244,-9.29028,-0.979563,-3.14227,-1.37195,-9.87805,6.85976
1041.04,89.0468,-15.9791,0,9.83874,0.0742456,1.23104,2.43902,0.945122,-4.14634,-9.34297,-0.986748,-3.03449,-0.97561,-8.96341,7.04268
1041.05,89.0118,-16.0447,0,9.77647,0.0574805,1.19032,2.28659,1.18902,-4.84756,-9.47949,-0.950823,-3.02012,-0.731707,-7.40854,7.28659
1041.06,88.9732,-16.0835,0,9.79323,0.0479004,1.14482,2.22561,1.67683,-5.39634,-9.53936,-0.811912,-2.92671,-0.396341,-6.92073,7.31707
1041.07,88.9294,-16.1037,0,9.74773,0.0550855,1.22386,2.34756,0.762195,-5.91463,-9.58487,-0.687371,-2.86205,-0.609756,-6.7378,7.46951
1041.08,88.8716,-16.0993,0,9.80521,0.102986,1.14482,2.65244,1.28049,-6.85976,-9.57768,-0.538879,-2.75188,-0.243902,-7.53049,7.9878
1041.09,88.8031,-16.0841,0,9.87706,0.186812,1.14242,2.16463,0.304878,-7.07317,-9.59924,-0.534089,-2.70877,-0.731707,-8.62805,8.2622
1041.1,88.7369,-16.0887,0,9.93933,0.196392,1.14482,2.13415,0.640244,-6.89024,-9.59205,-0.59157,-2.79499,-1.03659,-9.02439,8.81098
1041.11,88.6567,-16.0657,0,10.0806,0.352068,1.02746,0.762195,1.92073,-6.67683,-9.58487,-0.64905,-2.66805,-1.28049,-9.69512,9.20732
1041.12,88.5675,-16.1289,0,10.2483,0.474214,0.869392,-1.09756,0.97561,-6.43293,-9.49625,-0.716111,-3.03209,-1.12805,-9.17683,9.39024
1041.13,88.4802,-16.2208,0,10.3752,0.476609,0.651445,-4.69512,3.65854,-6.46341,-9.38129,-0.65863,-3.13508,-0.548781,-6.98171,9.81707
1041.14,88.4042,-16.3438,0,10.6051,0.395178,0.524509,-7.77439,5.57927,-6.4939,-9.36213,-0.608335,-3.28357,0.27439,-5.33537,10.061
1041.15,88.3066,-16.4505,0,10.792,0.617915,0.263452,-11.9512,6.98171,-6.52439,-9.41482,-0.541274,-3.21891,0.97561,-3.17073,10
1041.16,88.2197,-16.5214,0,11.2638,0.603545,-0.0981958,-18.3232,9.93902,-6.06707,-9.69983,-0.565225,-3.11353,1.40244,-1.37195,9.35976
1041.17,88.1385,-16.6391,0,11.5608,0.514929,-0.258662,-19.8171,17.0427,-6.70732,-9.92257,-0.704136,-3.26681,1.82927,-0.304878,7.56098
1041.18,88.0575,-16.6762,0,10.677,0.56762,0.282612,-17.6829,17.622,-5.85366,-10.0615,-0.859812,-3.13748,2.46951,0.914634,5.91463
1041.19,87.9714,-16.7063,0,10.8159,0.752036,0.747246,-15.3659,21.0976,-4.60366,-10.0998,-0.938848,-3.13987,3.81098,1.18902,5.09146
1041.2,87.9207,-16.7327,0,10.0998,0.61073,2.12199,-7.31707,12.1646,-1.43293,-10.0639,-1.07536,-3.08958,5.4878,0.0609756,5.18293
1041.21,87.903,-16.7476,0,9.56092,0.66342,2.77343,-1.03659,3.10976,2.56098,-10.1142,-1.23104,-3.09916,7.95732,-1.18902,5.91463
1041.22,87.872,-16.7471,0,9.15856,1.18074,2.4549,4.48171,5.42683,7.56098,-10.1285,-1.40348,-3.04886,10.6707,-3.17073,5.91463
1041.23,87.8568,-16.7198,0,9.49865,1.41306,1.20709,1.25,24.1768,11.372,-10.1142,-1.54958,-2.91713,13.75,-5.79268,6.4939
1041.24,87.913,-16.6687,0,9.55852,0.943638,1.30289,-0.640244,28.9634,12.8659,-10.0567,-1.48012,-2.78301,16.3415,-8.17073,7.19512
1041.25,88.0343,-16.6159,0,9.3789,0.263452,1.26936,-0.426829,26.7378,11.4024,-9.91059,-1.29092,-2.72793,17.5915,-10.7012,7.83537
1041.26,88.213,-16.5525,0,8.57656,-0.450264,1.46336,2.04268,17.1646,8.07927,-9.77168,-1.01309,-2.63213,18.0183,-12.622,8.59756
1041.27,88.4467,-16.4766,0,7.96584,-0.931663,1.57113,3.87195,10.7012,4.39024,-9.60882,-0.701741,-2.52196,17.5,-13.9939,9.2378
1041.28,89.6769,-16.3836,0,7.791,-0.955613,1.61424,5.2439,5.91463,0.670732,-9.4723,-0.431104,-2.39741,15.9146,-15.2134,9.35976
1041.29,89.826,-16.2765,0,7.72873,-0.874182,1.73878,5.64024,3.65854,-3.56707,-9.43877,-0.193997,-2.31119,14.0854,-16.0671,9.45122
1041.3,89.8561,-16.1673,0,7.84129,-0.608335,1.95434,6.09756,1.46341,-6.4939,-9.40524,-0.0383203,-2.27527,12.4085,-16.311,9.7561
1041.31,89.8287,-16.0686,0,8.00895,-0.433499,2.05493,7.28659,-2.40854,-9.42073,-9.31423,0.00479004,-2.28006,10.5488,-16.4024,10.5793
1041.32,89.7416,-15.9756,0,8.26042,-0.237107,1.94955,7.10366,-4.11585,-12.5915,-9.32142,-0.0335303,-2.28964,8.9939,-16.0061,11.5244
1041.33,89.6082,-15.8736,0,8.73943,-0.0646655,1.74836,6.15854,-3.71951,-15,-9.37171,-0.150886,-2.24653,7.77439,-16.4634,11.9207
1041.34,89.4511,-15.7682,0,9.17053,-0.0455054,1.66454,4.66463,-3.44512,-17.4085,-9.4268,-0.203577,-2.22737,6.21951,-16.6159,12.5915
1041.35,89.299,-15.6418,0,9.89622,-0.158071,1.74357,3.29268,-4.5122,-18.5061,-9.52978,-0.273032,-2.14115,5.2439,-17.2256,12.1341
1041.36,89.1343,-15.4711,0,11.18,0.251477,1.70286,1.15854,-6.7378,-15.6098,-9.616,-0.241897,-1.94236,4.26829,-18.1402,11.9512
1041.37,89.0054,-15.3175,0,12.6505,0.493374,1.4921,-0.731707,-6.61585,-10.3659,-9.65432,-0.131726,-1.99745,3.29268,-19.4817,11.6159
1041.38,88.8997,-15.1882,0,13.3115,0.768801,1.28852,-1.64634,-2.86585,-6.06707,-9.56571,-0.0598755,-2.05972,1.46341,-20.2134,11.0671
1041.39,88.7739,-15.0873,0,12.1356,1.32205,1.24302,-2.89634,5.03049,-2.19512,-9.58726,-0.0263452,-2.16749,-0.487805,-19.5427,10.4268
1041.4,88.6904,-15.039,0,10.5644,0.696951,1.49928,-5.21341,13.5671,-3.14024,-9.63995,-0.136516,-2.39502,-2.59146,-17.2866,9.02439
1041.41,88.6156,-14.9641,0,9.20646,0.464634,1.78668,-6.79878,18.4451,-4.26829,-9.72617,-0.249082,-2.28485,-4.35976,-14.9695,7.68293
1041.42,88.5804,-14.9094,0,8.74422,0.0958008,1.75315,-7.40854,20.5793,-5.18293,-9.84353,-0.378413,-2.39023,-5.64024,-12.8049,6.79878
1041.43,88.5743,-14.9134,0,8.73224,-0.138911,1.41785,-6.4939,16.8902,-5.4878,-9.88904,-0.443079,-2.66087,-5.85366,-10.2439,6.18902
1041.44,88.527,-14.964,0,9.06275,0.201182,1.06099,-3.75,8.47561,-5.15244,-9.94173,-0.555645,-2.89318,-4.78659,-7.34756,6.09756
1041.45,88.4423,-14.9672,0,9.74294,0.66342,0.759221,-2.22561,-4.48171,-3.35366,-10.1166,-0.740061,-2.72553,-3.44512,-6.85976,6.25
1041.46,88.3346,-14.8813,0,10.5668,1.01788,0.907712,-2.31707,-13.5061,-1.79878,-10.4351,-1.0083,-2.37825,-2.19512,-7.86585,5.67073
1041.47,88.2192,-14.7609,0,11.1081,1.14242,1.16637,-1.92073,-18.3537,-0.396341,-10.6698,-1.2023,-2.24653,0.487805,-10.122,5.21341
1041.48,88.0919,-14.6671,0,11.2949,1.59748,0.869392,1.0061,-15.8537,1.25,-10.6075,-1.23344,-2.34233,3.01829,-11.8293,5.30488
1041.49,87.8361,-14.544,0,10.6507,3.49912,0.682581,1.43293,-5.91463,7.13415,-10.4758,-1.15679,-2.15552,5.39634,-14.0854,5.88415
1041.5,87.8375,-14.4286,0,11.2853,1.02986,0.881367,-3.96341,18.2317,6.37195,-10.3872,-1.12805,-2.15312,7.28659,-16.25,6.98171
1041.51,87.886,-14.2886,0,9.78605,0.277822,1.54718,-5.70122,27.622,3.81098,-10.3656,-0.986748,-2.01182,8.59756,-18.1098,6.76829
1041.52,87.9663,-14.1148,0,8.74901,0.0550855,1.80824,-4.42073,29.5427,1.79878,-10.2986,-0.833467,-1.81542,8.75,-19.9085,6.37195
1041.53,88.7194,-13.9974,0,7.9826,-0.244292,2.07648,-2.56098,19.939,0.0609756,-10.1932,-0.63468,-2.02858,8.56707,-21.0976,5.70122
1041.54,89.0786,-13.9042,0,7.93709,-0.464634,1.94476,-0.27439,8.14024,-1.21951,-9.96089,-0.414338,-2.07169,7.77439,-21.25,5.18293
1041.55,89.2363,-13.8014,0,8.0329,-0.471819,2.00224,2.22561,-5.21341,-2.13415,-9.87227,-0.241897,-1.99266,6.28049,-21.0976,4.63415
1041.56,89.2975,-13.7036,0,8.55022,-0.280217,1.71962,4.72561,-14.0854,-2.31707,-9.69264,-0.213157,-1.96152,5.03049,-21.7683,3.96341
1041.57,89.3077,-13.6356,0,9.0412,-0.0886157,1.3005,7.2561,-16.9207,-2.43902,-9.58726,-0.131726,-2.05493,3.29268,-22.4695,3.44512
1041.58,89.2994,-13.5284,0,9.57289,0.0718506,1.06339,9.11585,-14.2988,-1.64634,-9.48667,-0.0646655,-1.85135,0.945122,-23.2622,3.32317
1041.59,89.3006,-13.3716,0,9.94173,0.00239502,1.18314,10.2439,-8.2622,-1.70732,-9.50344,-0.122146,-1.62382,-0.762195,-25.6402,3.04878
1041.6,89.2839,-13.2327,0,10.2866,0.158071,1.40827,10.7317,1.15854,-1.21951,-9.45314,-0.150886,-1.66693,-3.38415,-27.5915,2.89634
1041.61,89.2807,-13.0982,0,10.3656,-0.00239502,1.86333,9.48171,8.87195,-2.0122,-9.36692,-0.182021,-1.64777,-5.67073,-28.5976,3.17073
1041.62,89.2745,-12.9247,0,10.2722,-0.110171,2.10522,9.05488,12.0732,-3.44512,-9.38369,-0.320933,-1.46336,-7.5,-29.3902,3.56707
1041.63,89.2326,-12.7589,0,9.95131,0.203577,2.24413,8.87195,10.8537,-3.32317,-9.38129,-0.479004,-1.46575,-7.86585,-28.9329,4.02439
1041.64,89.1825,-12.6592,0,9.78844,0.352068,2.10522,8.65854,7.95732,-1.70732,-9.26394,-0.462239,-1.69567,-7.68293,-26.4939,4.84756
1041.65,89.1178,-12.5757,0,9.79803,0.431104,1.94715,8.17073,3.62805,-0.97561,-9.17772,-0.469424,-1.7292,-7.83537,-23.9329,5.60976
1041.66,89.0474,-12.4402,0,9.75491,0.385598,1.75315,7.0122,0.457317,0.121951,-9.22562,-0.507744,-1.50407,-7.59146,-21.7378,6.12805
1041.67,88.9859,-12.2786,0,9.65193,0.505349,1.60227,5.64024,-1.03659,1.0061,-9.38848,-0.570015,-1.3963,-6.95122,-19.939,6.15854
1041.68,88.9296,-12.1439,0,9.79323,0.59157,1.59029,3.5061,-1.43293,1.40244,-9.55852,-0.56283,-1.50886,-6.12805,-18.689,5.82317
1041.69,88.8503,-11.9635,0,9.8603,0.632285,1.47773,1.70732,-1.0061,0.884146,-9.72138,-0.63468,-1.31008,-5.27439,-17.8659,5.30488
1041.7,88.7157,-11.7292,0,9.88904,0.65863,1.67172,0.152439,0.304878,-0.0304878,-9.91059,-0.735271,-1.06578,-5.15244,-18.3841,4.5122
1041.71,88.6229,-11.4288,0,9.8603,0.730481,1.64777,-0.670732,2.07317,-1.7378,-10.107,-0.835862,-0.749641,-5.30488,-20.0305,3.65854
1041.72,88.5633,-11.1639,0,9.74054,0.498164,1.59269,-1.4939,2.89634,-1.25,-10.119,-0.934058,-0.857417,-4.54268,-21.0671,3.20122
1041.73,88.4684,-10.8905,0,9.616,0.744851,1.44659,-0.853659,0.548781,-2.77439,-10.0112,-0.886157,-0.764011,-3.81098,-20.7317,3.07927
1041.74,88.3927,-10.6029,0,9.63516,0.59157,1.25978,-1.76829,0.213415,-3.38415,-9.98723,-0.826282,-0.651445,-3.87195,-21.0671,3.62805
1041.75,88.337,-10.2964,0,9.71899,0.493374,1.26457,-1.58537,-0.243902,-2.68293,-9.93215,-0.883762,-0.514929,-3.93293,-21.4329,3.9939
1041.76,88.271,-10.0076,0,9.79323,0.59157,1.48491,-1.28049,-2.04268,-2.59146,-9.87946,-0.857417,-0.536484,-3.87195,-20.9756,4.17683
1041.77,88.2044,-9.63239,0,9.87706,0.62989,1.33642,-0.823171,-0.487805,-1.76829,-9.94891,-0.593965,-0.112566,-6.46341,-23.3537,4.2378
1041.78,88.154,-9.39318,0,9.80521,0.524509,1.46096,-0.0914634,-1.82927,-1.25,-9.99681,-0.864602,-0.646655,-3.29268,-22.1341,4.26829
1041.79,88.1175,-9.16373,0,9.8124,0.455054,1.36995,1.18902,0.426829,-1.15854,-9.72138,-0.716111,-0.627495,-2.13415,-19.0244,4.35976
1041.8,88.0787,-8.92339,0,9.82677,0.469424,1.36037,2.7439,0.365854,-0.701219,-9.68306,-0.744851,-0.538879,-1.64634,-18.3232,4.48171
1041.81,88.0861,-8.69709,0,9.79323,0.289797,1.33163,4.08537,-0.670732,-0.335366,-9.73336,-0.778381,-0.560435,-0.518293,-17.5305,4.39024
1041.82,88.0486,-8.47129,0,9.81719,0.471819,1.32684,6.46341,-0.97561,-1.25,-9.65672,-0.804727,-0.519719,0.487805,-17.2561,4.11585
1041.83,88.0264,-8.21592,0,9.79803,0.378413,1.27894,8.01829,-1.64634,-1.52439,-9.68546,-0.821492,-0.356858,1.76829,-17.7134,4.14634
1041.84,88.0012,-7.95738,0,9.83874,0.416733,1.36037,8.75,-2.10366,-1.15854,-9.74773,-0.859812,-0.301772,1.95122,-17.378,4.02439
1041.85,87.9853,-7.72482,0,9.96089,0.385598,1.37235,8.71951,-3.93293,-0.914634,-9.75731,-0.876577,-0.368833,2.5,-16.2195,3.78049
1041.86,87.9813,-7.51095,0,10.0184,0.352068,1.32205,8.59756,-3.78049,-0.426829,-9.6663,-0.790356,-0.404758,2.22561,-14.878,3.17073
1041.87,87.9848,-7.28735,0,10.0758,0.344883,1.30768,8.17073,-3.35366,0.0914634,-9.57529,-0.737666,-0.323328,1.70732,-14.0244,3.10976
1041.88,88.0003,-7.06818,0,10.0902,0.299377,1.33642,6.82927,-1.61585,0.243902,-9.58008,-0.696951,-0.304167,0.853659,-13.2622,3.5061
1041.89,87.9392,-6.84297,0,10.1525,0.675395,1.33403,6.85976,0,-1.43293,-9.59445,-0.64905,-0.241897,0.27439,-12.8049,3.96341
1041.9,87.8959,-6.66423,0,10.107,0.56283,1.35798,5.51829,1.82927,-1.21951,-9.63516,-0.622705,-0.402363,0,-12.4695,4.35976
1041.91,87.855,-6.51937,0,10.0112,0.543669,1.31008,5.42683,3.75,-1.37195,-9.7142,-0.646655,-0.519719,0.27439,-11.372,4.78659
1041.92,87.7968,-6.36092,0,9.9082,0.63947,1.36037,4.69512,4.39024,-1.12805,-9.75252,-0.60594,-0.438289,0.457317,-11.128,5.33537
1041.93,87.7256,-6.16814,0,9.88664,0.720901,1.34121,3.90244,4.05488,-1.12805,-9.82916,-0.716111,-0.265847,0.579268,-11.4024,5.67073
1041.94,87.6782,-5.99725,0,9.86988,0.5772,1.46096,3.38415,4.32927,-0.548781,-9.89862,-0.831072,-0.330513,0.670732,-12.0427,5.94512
1041.95,87.6284,-5.85085,0,9.78366,0.57241,1.59269,3.23171,3.90244,-0.335366,-9.94412,-0.857417,-0.409548,0.97561,-11.7378,5.57927
1041.96,87.6069,-5.72156,0,9.73575,0.469424,1.62382,3.38415,3.14024,-0.213415,-9.95849,-0.866997,-0.459844,1.21951,-11.6463,5.15244
1041.97,87.6311,-5.57558,0,9.75491,0.342488,1.64298,3.53659,3.04878,1.31098,-9.96328,-0.807122,-0.364043,1.31098,-11.5854,4.48171
1041.98,87.504,-5.4102,0,9.70941,0.799937,1.66214,3.96341,1.85976,-0.0914634,-9.97765,-0.787961,-0.253872,0.884146,-11.7683,4.17683
1041.99,87.4486,-5.24873,0,9.77647,0.689766,1.68609,3.84146,1.28049,0.579268,-10.0208,-0.687371,-0.244292,0.579268,-12.8659,4.35976
1042,87.4117,-5.08688,0,9.82437,0.63468,1.70046,3.93293,1.95122,0.640244,-10.0639,-0.637075,-0.215552,0.0609756,-13.2317,4.08537
1042.01,87.3769,-4.94964,0,9.83156,0.64905,1.69807,4.20732,2.16463,0.762195,-10.0687,-0.62031,-0.296982,-0.243902,-13.811,4.11585
1042.02,87.3422,-4.85293,0,9.83395,0.641865,1.65256,4.29878,1.89024,0.670732,-10.0112,-0.63468,-0.450264,-0.182927,-13.6585,4.66463
1042.03,87.3202,-4.74493,0,9.82437,0.646655,1.66933,4.11585,1.31098,1.18902,-9.93933,-0.694556,-0.380808,-0.182927,-13.811,5.45732
1042.04,87.3028,-4.63102,0,9.79323,0.64905,1.73399,3.65854,0.853659,1.43293,-9.9537,-0.775986,-0.337698,0.0609756,-15.122,5.85366
1042.05,87.2857,-4.52554,0,9.81,0.65863,1.6358,3.23171,1.21951,1.4939,-9.92017,-0.821492,-0.354463,0.670732,-15.9756,5.97561
1042.06,87.278,-4.43029,0,9.74533,0.58199,1.70046,2.92683,0.365854,1.34146,-9.91299,-0.862207,-0.380808,1.18902,-16.0671,6.34146
1042.07,87.2936,-4.3465,0,9.70222,0.471819,1.71004,2.65244,0.487805,1.76829,-9.9082,-0.883762,-0.414338,1.92073,-16.2195,6.4939
1042.08,87.3129,-4.25546,0,9.67109,0.469424,1.67891,2.40854,0.426829,2.16463,-9.92257,-0.855022,-0.368833,2.40854,-16.4024,6.43293
1042.09,87.3278,-4.16399,0,9.66151,0.474214,1.73639,1.70732,-0.182927,1.85976,-9.93215,-0.845442,-0.352068,2.71341,-17.0732,6.15854
1042.1,87.3501,-4.04936,0,9.69025,0.428708,1.76513,1.40244,-0.609756,1.92073,-9.9082,-0.780776,-0.234712,3.38415,-17.7439,6.21951
1042.11,87.3714,-3.92865,0,9.67588,0.428708,1.74836,1.18902,-0.945122,1.89024,-9.92496,-0.761616,-0.189207,3.68902,-18.3841,6.40244
1042.12,87.4032,-3.82396,0,9.69504,0.356858,1.78429,1.06707,-1.34146,1.89024,-9.88185,-0.754431,-0.237107,3.59756,-18.1098,6.18902
1042.13,87.4348,-3.7227,0,9.71659,0.330513,1.73399,1.06707,-1.21951,1.0061,-9.83635,-0.735271,-0.232317,3.44512,-17.378,5.88415
1042.14,87.4626,-3.62029,0,9.73815,0.342488,1.7316,-0.0304878,-1.52439,0.823171,-9.89143,-0.720901,-0.210762,3.47561,-16.9817,6.03659
1042.15,87.489,-3.51589,0,9.74533,0.347278,1.63819,-0.365854,-1.67683,0.304878,-9.87946,-0.718506,-0.184417,3.04878,-17.2561,5.7622
1042.16,87.5089,-3.39063,0,9.78126,0.361648,1.62382,-1.18902,-1.46341,-0.0914634,-9.91538,-0.742456,-0.0766406,2.95732,-18.2012,5.4878
1042.17,87.5188,-3.26804,0,9.84114,0.364043,1.59508,-1.52439,-0.97561,-0.518293,-9.93694,-0.811912,-0.0670605,3.04878,-18.5671,5.51829
1042.18,87.5325,-3.13376,0,9.87227,0.330513,1.60706,-1.37195,-0.365854,-0.701219,-9.92496,-0.807122,0.00479004,3.07927,-19.2378,5.21341
1042.19,87.5397,-3.00799,0,9.86269,0.349673,1.54,-1.46341,0.182927,-0.823171,-9.92017,-0.859812,-0.00958008,3.14024,-19.6951,5.42683
1042.2,87.537,-2.8761,0,9.8555,0.373623,1.53521,-1.25,0.640244,-1.18902,-9.87946,-0.864602,0.0383203,3.04878,-20.2744,5.7622
1042.21,87.5223,-2.71123,0,9.8579,0.419128,1.45617,-1.09756,0.884146,-1.58537,-9.85311,-0.852627,0.203577,3.62805,-20.9146,6.31098
1042.22,87.5142,-2.53484,0,9.85072,0.395178,1.42025,-0.884146,0.853659,-1.37195,-9.89862,-0.828677,0.282612,3.93293,-21.7988,6.85976
1042.23,87.5177,-2.34734,0,9.89143,0.277822,1.39151,-0.792683,1.46341,-1.89024,-9.96568,-0.814307,0.364043,4.20732,-21.7988,7.07317
1042.24,87.5203,-2.17068,0,9.88185,0.280217,1.44659,-0.426829,1.67683,-1.92073,-9.98244,-0.792751,0.349673,4.05488,-21.7073,7.0122
1042.25,87.5123,-1.97486,0,9.83395,0.316143,1.40588,-0.0609756,1.98171,-2.34756,-9.98244,-0.742456,0.464634,3.68902,-22.1341,7.04268
1042.26,87.4998,-1.75768,0,9.84593,0.335303,1.43941,0.640244,2.31707,-2.53049,-9.95849,-0.632285,0.59157,3.65854,-22.1951,6.67683
1042.27,87.4806,-1.54918,0,9.84593,0.342488,1.45617,0.945122,2.83537,-3.07927,-9.93215,-0.56762,0.589175,3.5061,-22.7439,6.4939
1042.28,87.4604,-1.30675,0,9.82916,0.368833,1.43941,1.31098,2.92683,-2.89634,-9.92257,-0.538879,0.773591,2.7439,-23.2012,6.52439
1042.29,87.4406,-1.08078,0,9.85311,0.402363,1.50407,2.2561,3.17073,-2.5,-9.88185,-0.534089,0.740061,2.37805,-23.5671,6.58537
1042.3,87.4174,-0.864752,0,9.84593,0.404758,1.50886,2.59146,2.9878,-2.83537,-9.94412,-0.55325,0.740061,2.04268,-23.9024,6.7378
1042.31,87.3928,-0.660492,0,9.91299,0.409548,1.55916,3.04878,3.44512,-2.9878,-9.88185,-0.574805,0.720901,1.95122,-24.4207,6.61585
1042.32,87.3616,-0.473918,0,9.8603,0.443079,1.53521,3.14024,2.86585,-3.2622,-9.90101,-0.565225,0.680186,2.16463,-24.4512,6.58537
1042.33,87.3309,-0.291141,0,9.87467,0.469424,1.52084,3.41463,2.40854,-2.95732,-9.91778,-0.548459,0.696951,2.22561,-24.6341,6.70732
1042.34,87.301,-0.105575,0,9.8579,0.440684,1.57592,3.56707,2.34756,-3.29268,-9.9082,-0.579595,0.740061,2.28659,-24.9085,6.76829
1042.35,87.2918,0.066606,0,9.81958,0.301772,1.68849,3.65854,1.98171,-3.01829,-9.91299,-0.608335,0.713716,2.62195,-25.122,6.25
1042.36,87.2597,0.241634,0,9.75491,0.443079,1.68849,4.35976,1.52439,-3.5061,-9.92736,-0.61552,0.756826,2.04268,-25.6402,6.31098
1042.37,87.2268,0.447158,0,9.78366,0.457449,1.67891,4.08537,1.06707,-3.5061,-9.93454,-0.61073,0.922083,1.82927,-26.0366,6.43293
1042.38,87.2295,0.659846,0,9.86988,0.277822,1.62382,4.48171,1.25,-2.43902,-9.9561,-0.6251,0.991538,1.28049,-26.4024,6.0061
1042.39,87.1945,0.836979,0,9.97765,0.519719,1.70765,5.2439,1.28049,-3.10976,-9.93454,-0.6251,0.869392,0.396341,-26.5854,5.7622
1042.4,87.1475,1.03954,0,9.79563,0.56762,1.65017,4.48171,1.25,-3.71951,-9.93694,-0.61552,1.01309,-0.579268,-26.4329,5.51829
1042.41,87.1451,1.25582,0,9.75491,0.285007,1.59748,3.38415,1.18902,-2.89634,-9.9537,-0.603545,1.11129,-1.46341,-26.4024,5.06098
1042.42,87.1142,1.46221,0,9.72857,0.402363,1.74597,2.89634,-0.182927,-4.17683,-9.92496,-0.61552,1.10171,-1.89024,-26.9817,4.96951
1042.43,87.059,1.66363,0,9.68306,0.505349,1.57113,2.95732,-0.792683,-5.42683,-9.90101,-0.60594,1.11368,-2.19512,-26.4329,4.90854
1042.44,87.0334,1.84792,0,9.75252,0.332908,1.72681,2.13415,-1.89024,-4.66463,-9.89383,-0.670605,1.07297,-2.68293,-25.8537,5.2439
1042.45,86.9911,2.05118,0,9.79323,0.443079,1.82021,1.58537,-3.07927,-5.09146,-9.84353,-0.725691,1.18314,-2.59146,-25.6402,5.12195
1042.46,86.9228,2.25861,0,9.90101,0.59157,1.66454,1.92073,-1.43293,-6.12805,-9.73815,-0.749641,1.22386,-2.62195,-25.5183,5.4878
1042.47,86.8875,2.4599,0,9.69743,0.419128,1.72202,1.37195,-2.65244,-4.84756,-9.70462,-0.756826,1.22864,-1.79878,-25.4878,5.64024
1042.48,86.8151,2.66618,0,9.74294,0.670605,1.76992,1.28049,-0.701219,-5.70122,-9.58247,-0.785566,1.26936,-1.34146,-24.878,5.64024
1042.49,86.7377,2.88116,0,9.6663,0.720901,1.6358,1.4939,-0.0914634,-5.67073,-9.5202,-0.799937,1.33403,-0.792683,-23.9024,5.57927
1042.5,86.7027,3.0834,0,9.61361,0.524509,1.72202,0.365854,-0.396341,-3.87195,-9.48907,-0.833467,1.31247,-0.304878,-22.8963,5.27439
1042.51,86.6351,3.31482,0,9.70941,0.720901,1.68849,0.304878,1.58537,-4.93902,-9.43398,-0.859812,1.46336,0.0609756,-22.2561,4.69512
1042.52,86.5684,3.54846,0,9.64474,0.661025,1.65256,0.396341,-0.0304878,-5.67073,-9.45554,-0.869392,1.51605,0.0914634,-21.4024,3.90244
1042.53,86.518,3.78969,0,9.70941,0.555645,1.56634,-0.609756,0.670732,-5.45732,-9.42201,-0.871787,1.58311,0.731707,-20.6707,3.38415
1042.54,86.4912,4.05145,0,9.74294,0.447869,1.67172,-1.76829,-0.457317,-4.5122,-9.4244,-0.838257,1.71244,1.0061,-20.4573,3.07927
1042.55,86.4213,4.31697,0,9.8555,0.706531,1.62861,-1.0061,-0.365854,-5.91463,-9.42919,-0.809517,1.77471,1.31098,-19.6341,2.62195
1042.56,86.3459,4.5885,0,9.77168,0.704136,1.56155,-0.609756,-1.31098,-6.58537,-9.45314,-0.787961,1.85135,1.40244,-18.7805,2.77439
1042.57,86.2837,4.83397,0,9.73336,0.637075,1.55437,-0.853659,-0.27439,-6.15854,-9.44356,-0.735271,1.78429,1.25,-17.7439,3.23171
1042.58,86.2147,5.08531,0,9.8124,0.699346,1.53042,-1.31098,0.182927,-6.31098,-9.4747,-0.809517,1.85854,2.07317,-16.7378,3.14024
1042.59,86.1367,5.32863,0,9.75252,0.704136,1.62143,-0.182927,-0.304878,-7.2561,-9.49146,-0.783171,1.87051,2.16463,-16.4024,3.35366
1042.6,86.0551,5.56649,0,9.74294,0.780776,1.55437,0.457317,0.97561,-6.85976,-9.49625,-0.804727,1.88967,2.43902,-16.3415,3.41463
1042.61,85.989,5.83027,0,9.64714,0.771196,1.59748,0.457317,-0.701219,-5.45732,-9.45793,-0.819097,2.03577,3.23171,-16.2195,3.41463
1042.62,85.9379,6.09326,0,9.81479,0.716111,1.52802,0.335366,-0.792683,-4.87805,-9.42919,-0.828677,2.07169,3.87195,-16.128,3.59756
1042.63,85.8613,6.3447,0,9.79084,0.912502,1.57832,0.457317,-0.640244,-5.21341,-9.35016,-0.835862,2.05014,4.57317,-15.2744,3.81098
1042.64,85.7729,6.58833,0,9.69264,0.993933,1.55437,1.06707,-2.13415,-5.4878,-9.33579,-0.843047,2.05732,4.84756,-14.0549,3.93293
1042.65,85.7004,6.83442,0,9.76449,0.965193,1.55437,0.731707,-0.792683,-4.45122,-9.30226,-0.790356,2.10283,4.81707,-13.0488,4.11585
1042.66,85.6383,7.08635,0,9.70941,0.946033,1.6358,0.396341,-0.792683,-3.62805,-9.31902,-0.716111,2.17468,4.26829,-12.3171,3.9939
1042.67,85.5836,7.33647,0,9.66869,0.948428,1.59987,0.670732,-0.518293,-2.7439,-9.331,-0.673001,2.213,3.71951,-12.1646,4.17683
1042.68,85.5385,7.59123,0,9.69264,0.929268,1.66454,1.0061,-1.31098,-1.7378,-9.38608,-0.574805,2.28964,3.44512,-12.2866,4.05488
1042.69,85.4963,7.83072,0,9.74533,0.931663,1.6813,1.52439,-0.853659,-1.37195,-9.38848,-0.538879,2.26808,3.10976,-11.6159,4.45122
1042.7,85.4561,8.06895,0,9.78126,0.931663,1.60227,1.34146,-0.731707,-1.09756,-9.39566,-0.531694,2.3064,2.86585,-10.9756,4.48171
1042.71,85.4169,8.31056,0,9.79323,0.934058,1.54718,1.82927,-0.701219,-1.09756,-9.44596,-0.524509,2.37586,2.71341,-10.3963,4.72561
1042.72,85.3795,8.53634,0,9.83635,0.934058,1.46096,2.13415,-0.335366,-0.731707,-9.41961,-0.598755,2.34233,2.56098,-9.48171,4.57317
1042.73,85.3432,8.75475,0,9.82437,0.936453,1.56395,2.40854,-0.304878,-0.97561,-9.39087,-0.61073,2.34233,2.34756,-9.11585,4.66463
1042.74,85.3064,8.95103,0,9.77407,0.929268,1.56155,2.31707,0.121951,-0.487805,-9.36692,-0.687371,2.27766,2.65244,-8.53659,4.39024
1042.75,85.2779,9.16333,0,9.75012,0.898132,1.5855,2.7439,-0.182927,-0.548781,-9.32381,-0.728086,2.37107,2.34756,-8.32317,4.81707
1042.76,85.2527,9.36675,0,9.76928,0.886157,1.5855,2.65244,0.426829,-0.0304878,-9.36932,-0.735271,2.38065,2.19512,-8.14024,4.7561
1042.77,85.2454,9.56112,0,9.77647,0.857417,1.59748,2.71341,0.487805,0.426829,-9.38608,-0.754431,2.38065,2.04268,-7.59146,4.69512
1042.78,85.2488,9.75932,0,9.74533,0.835862,1.64298,2.77439,0.335366,0.884146,-9.40285,-0.725691,2.43573,1.85976,-7.2561,4.63415
1042.79,85.2579,9.94214,0,9.74773,0.816702,1.59508,2.56098,-0.0609756,1.06707,-9.41243,-0.706531,2.4046,1.61585,-6.7378,4.81707
1042.8,85.2721,10.1114,0,9.73336,0.783171,1.66933,2.62195,-0.0914634,0.97561,-9.43638,-0.687371,2.38304,1.15854,-6.61585,4.7561
1042.81,85.2845,10.2729,0,9.7118,0.795146,1.62861,2.56098,-0.792683,1.12805,-9.45793,-0.740061,2.38304,0.731707,-6.18902,4.90854
1042.82,85.3032,10.4297,0,9.74533,0.756826,1.64059,2.53049,-0.914634,0.97561,-9.41961,-0.708926,2.38065,0.548781,-6.18902,5.03049
1042.83,85.324,10.5603,0,9.80521,0.754431,1.6358,2.65244,-0.731707,1.21951,-9.42919,-0.692161,2.29443,0.0304878,-5.70122,5.03049
1042.84,85.3409,10.6756,0,9.75731,0.761616,1.63819,2.59146,-0.762195,1.03659,-9.45793,-0.744851,2.25611,-0.213415,-5.39634,5.15244
1042.85,85.3534,10.7988,0,9.73096,0.792751,1.61424,2.31707,-0.670732,1.28049,-9.45075,-0.802332,2.3088,-0.0609756,-5.2439,5.12195
1042.86,85.3737,10.9193,0,9.77886,0.747246,1.59269,2.07317,-0.640244,1.21951,-9.47709,-0.790356,2.32317,-0.27439,-4.93902,5
1042.87,85.3902,11.019,0,9.79323,0.759221,1.53042,1.64634,-0.792683,1.06707,-9.4747,-0.862207,2.25132,-0.213415,-4.66463,5
1042.88,85.4071,11.0925,0,9.75252,0.759221,1.61185,1.06707,-1.09756,1.25,-9.44117,-0.871787,2.14354,-0.182927,-4.14634,4.96951
1042.89,85.4293,11.183,0,9.77407,0.725691,1.55916,1.31098,-0.762195,1.18902,-9.48428,-0.893342,2.23695,-0.0609756,-3.93293,4.81707
1042.9,85.4493,11.2773,0,9.78126,0.732876,1.52323,0.945122,-0.579268,1.12805,-9.48188,-0.888552,2.27287,0.121951,-4.29878,4.81707
1042.91,85.4742,11.3516,0,9.8124,0.708926,1.56874,0.914634,0.0914634,1.31098,-9.49625,-0.895737,2.20581,0.243902,-4.17683,4.84756
1042.92,85.4987,11.413,0,9.83395,0.706531,1.60227,0.457317,0.121951,1.25,-9.52978,-0.866997,2.16989,0.213415,-3.96341,4.78659
1042.93,85.5229,11.4775,0,9.82197,0.704136,1.54958,0.335366,0.518293,1.28049,-9.5705,-0.902922,2.20821,0.426829,-4.81707,4.81707
1042.94,85.5478,11.5249,0,9.77886,0.689766,1.53521,0.213415,0.335366,1.12805,-9.59445,-0.895737,2.15073,0.152439,-4.96951,4.69512
1042.95,85.569,11.583,0,9.74054,0.694556,1.55916,0.335366,-0.0304878,0.731707,-9.62319,-0.893342,2.213,0.335366,-5,4.78659
1042.96,85.5976,11.6341,0,9.77647,0.661025,1.5376,0.548781,-0.0304878,0.396341,-9.62798,-0.895737,2.19384,0.457317,-5.51829,4.5122
1042.97,85.6283,11.6925,0,9.83874,0.64905,1.4921,0.426829,0.335366,0.396341,-9.65432,-0.898132,2.24174,0.518293,-6.34146,4.11585
1042.98,85.6523,11.7311,0,9.8555,0.673001,1.54718,0.914634,0.518293,0.152439,-9.69264,-0.902922,2.17228,0.609756,-6.52439,4.26829
1042.99,85.6599,11.7702,0,9.87946,0.735271,1.54239,0.945122,0.884146,0.396341,-9.7597,-0.948428,2.19623,1.03659,-7.2561,4.29878
1043,85.6549,11.7969,0,9.86509,0.778381,1.61664,1.4939,0.640244,0.27439,-9.78844,-0.977168,2.15312,1.0061,-7.9878,4.08537
1043.01,85.6606,11.8342,0,9.82437,0.742456,1.56395,1.46341,0.914634,0.487805,-9.81479,-0.912502,2.2106,1.58537,-8.96341,3.96341
1043.02,85.6765,11.8714,0,9.81719,0.696951,1.54,1.28049,0.670732,0.426829,-9.80042,-0.869392,2.213,2.16463,-9.78659,4.02439
1043.03,85.6913,11.9128,0,9.81,0.696951,1.56634,1.52439,1.06707,0.335366,-9.7621,-0.821492,2.22976,2.07317,-10.7012,4.39024
1043.04,85.7323,11.9832,0,9.8076,0.598755,1.52084,1.64634,1.09756,0.243902,-9.76689,-0.795146,2.36867,2.37805,-11.4024,4.87805
1043.05,85.7851,12.0586,0,9.8124,0.55804,1.54718,1.92073,1.0061,-0.0609756,-9.72138,-0.756826,2.39262,2.37805,-12.378,5.21341
1043.06,85.8406,12.1171,0,9.8076,0.522114,1.57832,2.31707,0.426829,-0.182927,-9.65911,-0.764011,2.31359,2.0122,-13.2012,5.54878
1043.07,85.8815,12.1809,0,9.78366,0.541274,1.59029,2.68293,0.121951,-0.365854,-9.63995,-0.809517,2.34233,1.98171,-14.2683,5.64024
1043.08,85.9107,12.2265,0,9.77647,0.548459,1.56634,2.43902,-0.365854,-0.640244,-9.60403,-0.778381,2.26329,1.70732,-14.939,5.91463
1043.09,85.9329,12.26,0,9.73815,0.548459,1.55197,2.83537,0.0914634,-0.884146,-9.54655,-0.838257,2.20342,1.43293,-14.8476,6.15854
1043.1,85.9392,12.3214,0,9.77168,0.598755,1.56395,2.62195,0,-1.15854,-9.56331,-0.895737,2.33754,1.4939,-15.6402,5.94512
1043.11,85.9484,12.4042,0,9.84832,0.589175,1.54239,2.83537,-0.152439,-1.09756,-9.54655,-0.912502,2.43813,1.21951,-16.8293,5.97561
1043.12,85.9439,12.4743,0,9.8603,0.656235,1.54479,2.2561,0.0914634,-1.21951,-9.55373,-0.950823,2.39741,1.55488,-17.8354,5.85366
1043.13,85.9318,12.53,0,9.86509,0.699346,1.55197,2.40854,0.0914634,-1.25,-9.57289,-0.953218,2.34951,1.95122,-18.4451,5.88415
1043.14,85.911,12.6142,0,9.82197,0.747246,1.55197,2.31707,-0.0609756,-1.28049,-9.58966,-0.969983,2.49082,2.22561,-19.2378,5.73171
1043.15,85.8915,12.6842,0,9.83874,0.744851,1.52563,1.92073,0.731707,-1.28049,-9.65193,-0.941243,2.45729,2.53049,-19.8171,5.79268
1043.16,85.8867,12.762,0,9.79323,0.665815,1.56395,1.55488,1.0061,-1.18902,-9.67109,-0.883762,2.50998,2.65244,-20.122,5.91463
1043.17,85.8787,12.8664,0,9.77407,0.677791,1.61424,1.46341,0.792683,-1.28049,-9.73096,-0.886157,2.66087,2.62195,-21.6768,6.21951
1043.18,85.8692,12.9867,0,9.78844,0.682581,1.60466,1.52439,0.609756,-1.37195,-9.76689,-0.831072,2.76146,2.19512,-23.1402,6.03659
1043.19,85.8559,13.1067,0,9.78605,0.696951,1.61903,2.0122,0.579268,-1.52439,-9.81719,-0.814307,2.79499,2.43902,-25.3659,6.0061
1043.2,85.8257,13.2368,0,9.80042,0.816702,1.61664,1.58537,0.304878,-1.15854,-9.83156,-0.802332,2.86684,2.34756,-27.6829,6.15854
1043.21,85.7937,13.3428,0,9.83635,0.835862,1.57113,1.21951,-0.182927,-1.15854,-9.78126,-0.828677,2.76146,3.44512,-29.6646,6.0061
1043.22,85.7589,13.4398,0,9.83874,0.857417,1.6334,0.0609756,-0.0914634,-1.21951,-9.72857,-0.792751,2.72314,3.9939,-31.311,5.91463
1043.23,85.7242,13.5708,0,9.88185,0.869392,1.59269,-0.792683,0.121951,-0.792683,-9.64235,-0.835862,2.87163,4.35976,-32.9878,5.91463
1043.24,85.6808,13.6863,0,9.88425,0.919688,1.4897,-1.40244,0.762195,-0.792683,-9.57289,-0.876577,2.80217,4.7561,-34.6341,5.85366
1043.25,85.6533,13.8324,0,9.85311,0.843047,1.54718,-1.67683,0.731707,-0.609756,-9.53457,-0.895737,2.95066,4.63415,-36.311,5.82317
1043.26,85.6215,14.0106,0,9.75731,0.855022,1.6334,-1.70732,0.426829,-0.609756,-9.51541,-0.895737,3.11832,5.06098,-38.0488,5.57927
1043.27,85.6025,14.2028,0,9.72617,0.799937,1.65496,-2.34756,-0.731707,-0.670732,-9.59445,-0.866997,3.24046,5.12195,-40.8232,5.67073
1043.28,85.5864,14.411,0,9.73815,0.778381,1.69088,-2.07317,-0.0304878,-1.09756,-9.68546,-0.862207,3.38177,5.85366,-43.3232,5.45732
1043.29,85.5591,14.6556,0,9.74533,0.826282,1.67651,-3.10976,0.0914634,-1.58537,-9.75252,-0.797541,3.61887,6.40244,-46.4329,5.57927
1043.3,85.5336,14.9341,0,9.78366,0.804727,1.71962,-4.11585,0.426829,-1.95122,-9.84593,-0.814307,3.86556,7.0122,-50.7622,5.88415
1043.31,85.5109,15.248,0,9.87946,0.783171,1.66933,-4.81707,1.55488,-2.16463,-9.87946,-0.795146,4.10985,8.29268,-55.3049,5.51829
1043.32,85.4928,15.5378,0,9.92975,0.785566,1.60227,-4.29878,0.487805,-1.76829,-9.85311,-0.804727,4.03561,9.11585,-59.3293,5.27439
1043.33,85.4798,15.703,0,9.97765,0.754431,1.60945,-3.38415,1.06707,-1.79878,-9.59924,-0.677791,3.38177,10.2744,-61.25,5.30488
1043.34,85.4642,15.851,0,9.84832,0.775986,1.62861,-2.07317,1.55488,-1.64634,-9.33818,-0.5772,3.24046,11.128,-61.0976,6.15854
1043.35,85.431,15.8442,0,9.72138,0.871787,1.47773,-1.55488,2.2561,-1.82927,-9.06275,-0.56283,2.49322,12.4695,-60,6.79878
1043.36,85.3964,15.9104,0,9.62079,0.881367,1.45617,-1.31098,2.92683,-1.64634,-8.83523,-0.476609,2.7399,12.8049,-57.8963,7.65244
1043.37,85.3717,15.9275,0,9.41961,0.826282,1.81303,0.0304878,3.10976,-0.762195,-8.81367,-0.524509,2.53633,13.3841,-58.3537,8.5061
1043.38,85.3385,16.12,0,9.35974,0.838257,1.83698,0.243902,2.34756,-0.0914634,-8.88073,-0.56762,3.3195,12.561,-59.2073,8.68902
1043.39,85.338,16.4421,0,9.55613,0.792751,1.85854,-0.121951,0.335366,0.365854,-9.17053,-0.646655,4.07153,11.5854,-63.5061,8.38415
1043.4,85.4166,16.7485,0,9.78605,0.526904,1.96871,1.28049,-5.51829,-0.0914634,-9.56571,-0.680186,4.22721,11.4939,-68.2622,7.22561
1043.41,85.4305,17.0038,0,10.1693,0.5772,1.77231,2.22561,-11.8293,-1.82927,-9.94652,-0.66821,4.19128,12.5305,-70,5.88415
1043.42,85.4151,17.2028,0,10.3345,0.56762,1.60466,1.31098,-12.9878,-4.5122,-10.2124,-0.706531,4.05956,14.2378,-70.5183,5.03049
1043.43,85.3652,17.3466,0,10.3393,0.694556,1.55676,-0.823171,-10.5488,-6.61585,-10.2387,-0.737666,3.82485,15.7012,-71.0671,4.81707
1043.44,85.3089,17.506,0,10.2866,0.735271,1.36756,-3.56707,-7.80488,-6.85976,-10.1764,-0.814307,3.90867,16.311,-72.561,5.51829
1043.45,85.2724,17.6698,0,10.2507,0.546064,1.43222,-3.75,-4.35976,-7.07317,-9.94173,-0.958008,3.87035,16.0976,-75,6.52439
1043.46,85.2367,17.8695,0,10.095,0.419128,1.70286,-1.28049,-8.35366,-8.44512,-9.72617,-1.00591,3.99489,15.3963,-77.4085,7.7439
1043.47,85.1728,18.1265,0,10.2291,0.519719,1.60945,-0.823171,-15.7317,-10.3049,-9.57529,-1.12326,4.25595,14.3902,-80.2134,8.75
1043.48,85.1009,18.4528,0,10.1525,0.550855,1.57353,-2.95732,-20.5183,-10.8537,-9.33818,-1.06099,4.54575,14.2378,-82.6524,10.061
1043.49,85.0098,18.8687,0,10.2291,0.447869,1.68609,-3.87195,-16.4024,-14.1768,-9.12263,-1.03225,4.96009,14.4207,-85.3354,11.128
1043.5,84.9326,19.3691,0,10.3728,0.203577,1.152,-6.28049,-10.061,-15.7622,-9.0412,-0.962798,5.44627,14.939,-89.0549,12.1037
1043.51,84.8519,19.8979,0,10.2674,-0.00958008,1.14721,-3.75,-11.6463,-18.689,-8.83523,-0.912502,5.578,15.9146,-92.1951,12.439
1043.52,84.7916,20.426,0,8.88792,-0.263452,1.33403,-3.10976,-16.9817,-20.122,-8.658,-0.766406,5.57321,17.3171,-93.7195,12.5915
1043.53,84.6916,20.9387,0,10.5357,-0.0598755,0.593965,-4.35976,-12.5,-21.4939,-8.40652,-0.661025,5.44148,18.872,-92.8049,12.7439
1043.54,84.5484,21.377,0,9.35734,0.155676,1.9735,-3.75,-14.9085,-23.5061,-8.16702,-0.677791,5.01757,19.9695,-88.9024,12.4085
1043.55,84.4385,21.866,0,9.62319,-0.0383203,1.33642,-1.61585,-14.4207,-22.8049,-7.80297,-0.63947,5.12774,20.9146,-83.7195,11.7683
1043.56,84.2596,22.5119,0,10.2842,0.376018,1.17595,0.823171,-17.7439,-25.3354,-7.53234,-0.637075,5.83666,19.6341,-81.9817,10.7317
1043.57,84.106,23.1869,0,9.83156,0.141306,1.77471,4.32927,-22.561,-25.7012,-7.50839,-0.603545,6.11209,17.8049,-82.9878,10
1043.58,83.8798,23.8791,0,10.4016,0.555645,0.819097,4.66463,-10.9451,-28.872,-7.42696,-0.464634,6.28932,16.2805,-82.5915,10.0305
1043.59,83.6457,24.6045,0,10.1046,0.541274,1.12326,4.05488,-8.10976,-30.122,-7.26649,-0.344883,6.49529,14.5122,-81.7378,10.2439
1043.6,83.3997,25.3617,0,9.87706,0.579595,1.02267,4.48171,-8.2622,-31.2195,-7.00304,-0.134121,6.60786,13.811,-78.5061,11.0671
1043.61,83.1618,26.1672,0,9.77647,0.543669,0.783171,4.29878,-5.54878,-31.25,-6.75635,-0.143701,6.83539,13.3841,-74.5122,12.1646
1043.62,82.9026,27.0262,0,9.5681,0.783171,1.11129,3.65854,-9.78659,-30.8537,-6.69168,-0.102986,7.30481,12.6829,-71.189,13.2012
1043.63,82.6506,27.8761,0,9.86509,0.859812,1.4921,5.21341,-8.65854,-30.0305,-6.61983,-0.0934058,7.39103,11.8902,-67.7744,13.4451
1043.64,82.3952,28.7086,0,10.0016,0.914897,1.35798,4.78659,-7.89634,-30.3963,-6.49769,-0.141306,7.36469,11.0671,-64.8171,12.7134
1043.65,82.1352,29.5362,0,10.1621,0.941243,1.13045,4.20732,-7.13415,-31.25,-6.37315,-0.126936,7.41019,10.5488,-61.7683,11.5244
1043.66,81.8613,30.346,0,10.1094,1.1041,1.04902,3.14024,-3.78049,-31.2805,-6.37075,-0.102986,7.51078,9.57317,-58.7805,10.2134
1043.67,81.595,31.1178,0,9.71899,1.13045,1.40588,4.35976,-6.28049,-30.2439,-6.23663,-0.00239502,7.31918,8.65854,-54.5732,9.29878
1043.68,81.328,31.9135,0,9.83156,1.21906,1.14721,4.7561,-4.45122,-29.9695,-6.12167,0.0934058,7.5491,8.20122,-50.3659,8.62805
1043.69,81.0633,32.7197,0,9.73096,1.1999,1.54718,5.09146,-9.2378,-30.3659,-6.04503,0.102986,7.74789,8.38415,-47.5,8.20122
1043.7,80.7964,33.4914,0,10.0375,1.22625,1.44659,6.46341,-9.7561,-31.25,-5.94204,-0.0191602,7.60419,8.65854,-42.7744,8.14024
1043.71,80.4996,34.2898,0,9.87946,1.3963,0.946033,5.21341,-11.7073,-32.6524,-5.8199,-0.0934058,7.85566,7.7439,-37.2256,8.01829
1043.72,80.1735,35.0981,0,9.54655,1.57832,1.0083,3.62805,-10.061,-33.5061,-5.74565,-0.165256,8.06643,7.16463,-33.0183,7.46951
1043.73,79.8564,35.8924,0,9.64953,1.59508,0.919688,3.9939,-10.3659,-33.2622,-5.66901,-0.158071,8.09996,6.21951,-29.3293,7.40854
1043.74,79.5329,36.6637,0,9.54894,1.64298,1.23823,2.80488,-12.8659,-33.7805,-5.66901,-0.222737,8.16941,6.25,-25.4878,7.68293
1043.75,79.2223,37.4073,0,9.85072,1.65975,1.1041,4.11585,-12.7439,-33.5366,-5.72889,-0.210762,8.28437,5.88415,-21.6463,7.89634
1043.76,78.8949,38.1255,0,9.98723,1.79626,1.03465,4.66463,-15.6707,-34.6037,-5.72889,-0.193997,8.32269,6.12805,-17.2561,8.14024
1043.77,78.5438,38.81,0,10.0687,1.91123,1.12805,7.04268,-17.7439,-36.5549,-5.8654,-0.191602,8.48316,6.55488,-14.4207,8.68902
1043.78,78.1504,39.4683,0,10.186,2.17947,0.828677,7.89634,-17.9573,-38.872,-5.95402,-0.150886,8.62207,7.04268,-12.2561,8.96341
1043.79,77.7177,40.0975,0,10.1405,2.47885,0.646655,6.43293,-16.4024,-40.3049,-6.057,-0.100591,8.74901,7.46951,-10.3963,9.26829
1043.8,77.2573,40.7061,0,10.1932,2.68242,0.790356,6.64634,-17.1951,-41.9512,-6.12646,-0.0766406,8.88792,7.5,-8.78049,9.57317
1043.81,76.7698,41.3018,0,10.0926,2.86444,0.692161,4.7561,-15.8841,-43.4146,-6.11928,-0.0311353,8.97174,6.67683,-6.82927,10.1524
1043.82,76.275,41.878,0,9.95131,2.8836,0.905317,6.52439,-16.189,-44.5122,-6.17436,0.0431104,9.0867,5.39634,-6.28049,10.3963
1043.83,75.7484,42.4309,0,9.79323,3.08479,0.450264,6.4939,-18.2012,-46.0671,-6.251,0.107776,9.18969,4.20732,-5.2439,10.3049
1043.84,75.2057,42.9563,0,9.68546,3.19017,0.217947,4.87805,-19.5427,-47.2561,-6.21747,0.162861,9.06754,3.41463,-4.2378,9.96951
1043.85,74.6497,43.4588,0,9.72617,3.35303,0.371228,4.2378,-20.2134,-48.1098,-6.27256,0.191602,8.92624,2.86585,-2.37805,9.29878
1043.86,74.0849,44.0111,0,9.92975,3.45362,0.455054,5,-21.0671,-49.8171,-6.28214,0.201182,8.86157,2.80488,-1.03659,8.68902
1043.87,73.503,44.6995,0,9.91059,3.56379,0.476609,5.18293,-21.2805,-51.4939,-6.33243,0.165256,8.87594,2.71341,0,7.80488
1043.88,72.9258,45.2938,0,10.0974,3.58055,0.385598,6.03659,-21.311,-52.7134,-6.28932,0.0742456,8.97653,2.71341,0.304878,6.70732
1043.89,72.3316,45.7041,0,9.86988,3.63085,0.301772,6.79878,-22.9573,-54.2683,-6.24382,0.0455054,8.76338,2.77439,1.82927,5.79268
1043.9,71.7475,46.0826,0,9.96089,3.57816,0.0407153,6.58537,-21.4634,-55.3354,-6.13365,0.0335303,8.77775,2.31707,3.5061,5.12195
1043.91,71.1474,46.4641,0,9.57289,3.54463,0.282612,7.2561,-24.2683,-57.0122,-5.99952,0.0311353,8.78493,2.04268,4.78659,4.93902
1043.92,70.5204,46.8242,0,9.57289,3.73144,-0.251477,5.36585,-21.4329,-58.9939,-5.91091,0.0766406,8.62446,1.06707,6.34146,4.69512
1043.93,69.889,47.1639,0,9.36692,3.81766,0.299377,5.79268,-26.6159,-58.9329,-5.8175,0.0934058,8.44484,0.365854,8.07927,5.09146
1043.94,69.2434,47.4897,0,9.26633,4.02603,0.110171,5.4878,-24.3598,-58.9939,-5.81271,0.124541,8.43765,0.0914634,9.42073,5.33537
1043.95,68.6023,47.7884,0,9.16334,4.15296,0.371228,5.4878,-25.6707,-58.0183,-5.80553,0.143701,8.3179,0,10.7012,5.12195
1043.96,67.9695,48.0422,0,9.2328,4.27271,-0.0694556,4.66463,-27.9268,-57.561,-5.83666,0.0886157,8.10954,-0.487805,12.3171,5.09146
1043.97,67.3372,48.2631,0,9.20406,4.36373,0.136516,5.33537,-31.128,-57.7134,-5.85822,0.0718506,7.97302,-0.487805,14.5732,4.5122
1043.98,66.7122,48.4723,0,9.20885,4.39486,-0.102986,5.15244,-29.0244,-57.9573,-5.86061,0.0838257,7.95625,-0.304878,15.8537,3.93293
1043.99,66.0909,48.6647,0,9.24478,4.48827,-0.0910107,5.67073,-26.9817,-58.0793,-5.90372,0.0287402,7.95386,-0.548781,16.7988,2.68293
1044,65.4778,48.849,0,9.15137,4.45713,-0.0287402,4.87805,-26.4329,-58.3537,-5.88935,0.0742456,7.9323,-0.518293,18.1707,2.10366
1044.01,64.8558,49.005,0,9.02683,4.53138,-0.467029,1.0061,-20.7317,-59.1159,-5.88935,0.0718506,7.78381,-0.945122,20.1829,1.15854
1044.02,64.2412,49.1503,0,8.91666,4.46671,0.335303,-0.518293,-17.0122,-59.7256,-5.82948,0.110171,7.67604,-1.40244,22.6829,0.97561
1044.03,63.6318,49.2756,0,8.98132,4.5697,-0.0981958,-1.98171,-14.4512,-59.7256,-5.79116,0.122146,7.52994,-1.4939,24.7866,1.15854
1044.04,63.0323,49.4105,0,8.72506,4.52898,0.361648,-0.884146,-19.7561,-58.9939,-5.78637,0.0814307,7.62574,-1.25,25.5793,1.15854
1044.05,62.4228,49.4889,0,8.40412,4.6152,0.227527,-0.121951,-22.0122,-58.5061,-5.79834,0.0143701,7.29523,-0.548781,26.5549,1.31098
1044.06,61.8158,49.5297,0,8.24366,4.71579,-0.0191602,-0.396341,-26.4329,-57.4695,-5.78397,-0.0431104,7.05812,-0.27439,29.4512,1.46341
1044.07,61.2229,49.589,0,8.464,4.91219,-0.570015,-1.09756,-24.0244,-56.5244,-5.8175,-0.131726,7.23056,0.182927,31.2805,1.12805
1044.08,60.635,49.646,0,8.40891,4.99601,-0.258662,-1.79878,-24.3598,-56.0366,-5.82708,-0.138911,7.24493,-0.243902,32.4085,1.21951
1044.09,60.0804,49.6634,0,8.63644,4.99122,-0.529299,-0.27439,-24.8171,-55.2439,-5.87977,-0.138911,7.0701,0.426829,33.75,0.853659
1044.1,59.5085,49.6796,0,8.33706,5.17324,-0.390388,-1.46341,-23.2622,-54.4817,-5.89414,-0.138911,7.08686,0.97561,35.7927,0.823171
1044.11,58.9479,49.6777,0,8.29874,5.23791,-0.536484,-3.62805,-22.9878,-53.5976,-6.00431,-0.0742456,7.10842,1.12805,36.8902,0.884146
1044.12,58.391,49.6161,0,8.1287,5.24988,-0.143701,-3.32317,-23.5976,-53.1402,-6.07856,-0.0550855,6.82581,1.37195,38.4451,0.548781
1044.13,57.8474,49.5429,0,8.08798,5.23791,-0.364043,-2.80488,-23.3841,-52.7744,-6.17676,-0.0814307,6.85215,1.52439,40.6098,0.609756
1044.14,57.3126,49.4633,0,8.11912,5.36484,-0.232317,-3.44512,-26.8902,-51.9207,-6.26537,-0.0263452,6.89526,1.82927,41.8293,0.365854
1044.15,56.7743,49.3324,0,7.87243,5.32413,-0.222737,-5.7622,-24.9085,-52.1037,-6.39231,-0.00479004,6.70605,1.76829,43.4756,0.0609756
1044.16,56.2526,49.2062,0,8.01134,5.42232,-0.325723,-6.46341,-27.1341,-51.4634,-6.45937,0.0359253,6.77551,1.55488,44.8476,0.0609756
1044.17,55.7271,49.0314,0,7.79339,5.40316,-0.481399,-7.43902,-25.8232,-51.6159,-6.57193,-0.0191602,6.57672,1.03659,46.0366,0.243902
1044.18,55.2264,48.8456,0,8.07122,5.49657,-0.490979,-6.95122,-27.8049,-51.128,-6.62702,-0.0143701,6.52882,1.40244,47.3476,-0.152439
1044.19,54.7322,48.6521,0,7.92033,5.49896,-0.706531,-7.5,-26.1585,-50.4268,-6.69168,0.0359253,6.50727,1.76829,48.2927,0
1044.2,54.258,48.4338,0,8.01613,5.45585,-0.201182,-7.80488,-27.1951,-50.4878,-6.72042,0.0215552,6.35159,1.89024,49.6037,-0.304878
1044.21,53.7695,48.2122,0,7.68562,5.39837,-0.464634,-7.43902,-30.9146,-51.189,-6.82102,-0.0239502,6.38033,1.40244,50.6707,-0.487805
1044.22,53.3055,47.96,0,7.67843,5.11337,-0.570015,-7.43902,-29.9085,-52.5915,-6.83539,-0.0502954,6.17676,1.31098,51.8902,-0.731707
1044.23,52.8081,47.7135,0,7.51318,5.23551,-0.718506,-8.01829,-30.2439,-54.4817,-6.86892,0.0239502,6.18394,1.0061,52.8659,-0.97561
1044.24,52.3101,47.4358,0,7.61377,5.19719,-0.531694,-9.84756,-34.4207,-56.6768,-6.92879,-0.00718506,6.01629,0.152439,54.1768,-0.914634
1044.25,51.8139,47.1617,0,7.76465,5.03912,-0.876577,-10.0915,-37.6829,-60.2439,-7.00064,0.0981958,6.04024,-1.15854,55.3659,-0.670732
1044.26,51.2554,46.8968,0,7.52276,5.82229,-0.936453,-10.2134,-37.4695,-57.8963,-7.09405,0.205972,6.11209,-2.53049,55.3354,-0.396341
1044.27,50.7366,46.5699,0,7.64969,5.13971,-0.859812,-12.5,-37.0732,-62.8354,-7.1156,0.268242,5.74565,-3.23171,56.5244,0.213415
1044.28,50.153,46.2435,0,8.06643,7.4054,-1.53281,-6.92073,-28.1402,-52.8354,-7.14195,0.340093,5.70494,-4.39024,58.4451,0.792683
1044.29,49.6522,45.9099,0,7.79818,6.26777,-1.35319,-7.77439,-25.2744,-53.2622,-7.23056,0.378413,5.67141,-5.36585,58.7195,1.64634
1044.3,49.1794,45.5873,0,7.72394,5.76481,-1.22146,-8.96341,-23.3537,-55.6098,-7.30241,0.390388,5.71691,-7.31707,59.0549,2.0122
1044.31,48.7285,45.1958,0,7.73112,5.30018,-0.823887,-6.40244,-18.0488,-59.0549,-7.33834,0.356858,5.33131,-8.17073,60.061,2.16463
1044.32,48.226,44.7962,0,7.61616,5.64506,-1.1065,-5.36585,-15.4573,-60.9146,-7.39822,0.332908,5.25946,-9.42073,61.6768,1.70732
1044.33,47.7099,44.449,0,7.70957,5.79355,-1.06099,-5.67073,-18.2927,-62.561,-7.43654,0.251477,5.47022,-10,62.1951,1.40244
1044.34,47.1439,44.0541,0,7.31678,5.91091,-1.02028,-3.87195,-16.9512,-64.6037,-7.47486,0.170046,5.1924,-10.7317,62.5,1.37195
1044.35,46.5657,43.621,0,7.37427,6.0115,-1.4418,-4.90854,-12.5915,-66.4939,-7.58503,0.0550855,5.00799,-11.4634,64.1463,1.25
1044.36,45.9675,43.2053,0,7.25691,6.03784,-0.926873,-2.0122,-12.3476,-68.5366,-7.73831,0.0215552,5.11097,-11.6159,64.6341,1.37195
1044.37,45.319,42.7501,0,7.03896,6.48092,-1.32924,0.670732,-10.3963,-69.0244,-7.81734,-0.0359253,4.89063,-11.5244,65,1.52439
1044.38,44.5987,42.2799,0,6.67492,7.04136,-1.41067,1.76829,-11.1585,-69.7256,-7.98021,0.0167651,4.83315,-11.8902,65.4878,1.98171
1044.39,43.824,41.8199,0,6.2534,7.71436,-1.32445,1.82927,-10.1524,-67.6829,-8.11193,0.00479004,4.87147,-12.2866,65.1219,2.86585
1044.4,43.0912,41.3163,0,6.30369,7.74549,-1.16877,1.58537,-9.54268,-65.2134,-8.19815,-0.0239502,4.62478,-12.6524,65.6402,4.02439
1044.41,42.3428,40.8052,0,6.40668,8.97653,-1.3484,1.79878,-11.5854,-60.9146,-8.2724,-0.0622705,4.53617,-12.5305,66.3719,4.84756
1044.42,41.6741,40.3084,0,6.43781,8.2724,-1.70286,1.89024,-10.3963,-59.1463,-8.38975,-0.0958008,4.57209,-12.5915,66.4329,5.54878
1044.43,41.0494,39.7644,0,6.33243,7.36469,-1.21427,3.29268,-7.04268,-61.7378,-8.46879,-0.203577,4.29667,-12.5,66.9207,5.91463
1044.44,40.438,39.2178,0,6.53601,7.54192,-0.991538,3.75,-4.7561,-62.1037,-8.54543,-0.275427,4.22242,-11.4329,67.0122,5.94512
1044.45,39.8326,38.6703,0,6.39231,6.78988,-0.732876,4.2378,-1.34146,-67.561,-8.5598,-0.361648,4.12422,-11.2195,67.6524,5.60976
1044.46,39.1876,38.1495,0,6.38512,6.90005,-1.01309,6.28049,1.15854,-71.8293,-8.54543,-0.431104,4.14099,-10.7317,67.7744,5.4878
1044.47,38.4915,37.6127,0,5.99234,7.05573,-1.08255,5.91463,-4.29878,-73.3841,-8.5574,-0.402363,3.97813,-10.9756,68.1707,5.33537
1044.48,37.6886,37.0519,0,5.92767,8.78254,-1.57592,4.81707,3.10976,-72.8049,-8.53585,-0.445474,3.76258,-10.3659,68.1707,5.03049
1044.49,36.866,36.5152,0,5.2427,8.50471,-0.969983,0.0304878,-3.62805,-71.6159,-8.5598,-0.421523,3.78174,-10.3049,68.1098,5.12195
1044.5,36.0632,35.9923,0,5.32892,8.72027,-1.55916,0.548781,-2.83537,-70.8232,-8.62686,-0.402363,3.77695,-9.66463,67.3171,5.27439
1044.51,35.377,35.4726,0,5.95402,8.52387,-1.41067,0.0914634,-1.31098,-67.7134,-8.70111,-0.328118,3.72905,-9.72561,66.9512,6.03659
1044.52,34.6562,34.9259,0,5.34089,8.82325,-1.32445,5.60976,-4.11585,-65,-8.71069,-0.241897,3.51828,-10.0305,66.0671,6.46341
1044.53,33.979,34.3853,0,5.2427,7.32636,-1.80584,3.78049,1.43293,-71.0061,-8.96695,-0.292192,3.55181,-10.0915,67.2256,6.98171
1044.54,33.2569,33.7714,0,5.29539,7.66885,-1.17116,3.56707,0.914634,-75,-8.80649,-0.359253,3.07042,-9.63415,68.3232,7.04268
1044.55,32.527,33.1925,0,5.22354,7.13716,-1.16158,6.43293,-1.7378,-80.4878,-9.00048,-0.330513,3.18538,-9.57317,68.1098,7.77439
1044.56,31.6134,32.6528,0,4.3781,8.86397,-1.74357,9.7561,13.5671,-80.4878,-8.93342,-0.325723,3.23328,-9.66463,67.4085,8.17073
1044.57,30.7859,32.0711,0,4.90261,8.83762,-1.24541,1.67683,10.3049,-79.1463,-8.87355,-0.335303,2.9339,-9.90854,67.3171,8.47561
1044.58,30.0294,31.5484,0,5.04391,9.26633,-1.59987,6.06707,15.2134,-72.6524,-8.84481,-0.337698,3.08,-10.4878,66.2805,8.5061
1044.59,29.2622,30.9819,0,4.5194,8.72745,-1.33403,2.65244,11.372,-72.8659,-8.80649,-0.332908,2.7878,-10.9451,65,8.47561
1044.6,28.4599,30.3475,0,4.02842,8.25324,-1.13763,0.27439,14.5122,-75.2439,-8.73464,-0.366438,2.38783,-10.9146,66.25,8.04878
1044.61,27.6754,29.7836,0,4.28229,8.26042,-1.0562,-0.548781,12.8354,-77.8963,-8.72027,-0.387993,2.57225,-11.5549,66.311,7.62195
1044.62,26.9045,29.2263,0,4.10027,7.84369,-0.981958,4.87805,7.40854,-78.5061,-8.7514,-0.421523,2.51477,-11.7988,65.0305,7.13415
1044.63,26.0391,28.6387,0,3.5566,8.98611,-1.28134,4.66463,4.63415,-77.4695,-8.76098,-0.459844,2.29922,-11.1585,64.0549,6.4939
1044.64,25.219,28.0631,0,3.71947,9.04599,-1.00351,5.36585,5.85366,-76.1585,-8.67237,-0.440684,2.22976,-10.4573,63.872,5.97561
1044.65,24.4531,27.4595,0,4.02842,9.30705,-0.819097,1.0061,3.38415,-74.4512,-8.92145,-0.63468,2.08127,-9.42073,62.5,5.33537
1044.66,23.6558,26.7981,0,3.42727,8.75859,-0.447869,2.04268,-7.37805,-75.061,-8.83523,-0.627495,1.7292,-8.01829,64.1463,4.87805
1044.67,22.8779,26.1211,0,3.47038,9.26154,-1.6334,-3.68902,-0.762195,-73.0183,-8.8496,-0.711321,1.56395,-7.7439,64.4207,4.42073
1044.68,22.1002,25.5425,0,3.13029,8.85439,-1.11608,-2.7439,-4.72561,-72.4085,-8.92145,-0.756826,1.86812,-6.76829,64.1463,3.78049
1044.69,21.2702,24.9361,0,2.33035,9.31184,-1.30768,-3.62805,-12.1341,-68.2622,-8.85199,-0.799937,1.64777,-6.28049,63.4146,3.14024
1044.7,20.544,24.3673,0,3.14227,9.13939,-2.00224,-8.71951,-9.45122,-69.4207,-8.85918,-0.807122,1.70286,-5.91463,62.6524,2.56098
1044.71,19.7998,23.7805,0,2.8381,9.14897,-1.33642,-7.9878,-10.9451,-69.1768,-8.78733,-0.792751,1.52802,-5.51829,63.4451,2.2561
1044.72,19.1524,23.1941,0,3.28836,8.87115,-1.43701,-6.34146,-13.2012,-67.1646,-8.75859,-0.783171,1.43222,-4.93902,63.5976,2.04268
1044.73,18.5384,22.7139,0,3.26441,8.52866,-1.03944,-1.89024,-14.0244,-66.311,-8.71548,-0.670605,1.75315,-4.72561,61.5244,2.04268
1044.74,17.9293,22.2291,0,3.03928,8.36101,-1.2502,0.182927,-17.561,-65.0915,-8.65081,-0.56283,1.64538,-4.48171,60.5793,2.5
1044.75,17.2712,21.7211,0,2.27766,8.45921,-1.99984,-4.11585,-18.2622,-61.311,-8.62686,-0.522114,1.47533,-4.45122,61.0366,3.14024
1044.76,16.6861,21.2641,0,2.69679,8.34664,-2.33993,-2.92683,-17.9268,-61.0061,-8.64602,-0.452659,1.59987,-4.20732,61.1585,3.81098
1044.77,16.1265,20.7935,0,2.7902,8.50232,-1.71723,2.28659,-20.9146,-60.122,-8.65081,-0.522114,1.47533,-3.35366,60.5793,3.93293
1044.78,15.6343,20.3181,0,3.24765,8.85439,-2.29443,6.70732,-14.7561,-58.4146,-8.76098,-0.565225,1.40109,-3.23171,60.0915,3.56707
1044.79,15.0957,19.9292,0,2.54591,9.36932,-2.12917,3.23171,-12.1951,-54.0854,-9.01725,-0.584385,1.71723,-2.89634,57.439,3.2622
1044.8,14.6775,19.5221,0,3.47996,8.88313,-1.76992,4.87805,-7.31707,-55.5183,-8.98611,-0.62989,1.57353,-3.07927,57.1037,2.80488
1044.81,14.214,19.1049,0,2.71356,9.44356,-2.18426,3.10976,3.14024,-50.061,-8.99569,-0.641865,1.46815,-3.96341,57.1341,2.37805
1044.82,13.7292,18.717,0,2.27287,9.00767,-1.53281,0.0304878,-5.03049,-49.3598,-9.09149,-0.665815,1.53521,-5.15244,55.5488,2.19512
1044.83,13.3231,18.3057,0,2.70158,8.4137,-1.25739,3.56707,0.914634,-49.7561,-9.0867,-0.60115,1.37474,-6.85976,54.9085,1.82927
1044.84,12.8827,17.8902,0,2.32556,9.00767,-1.43222,5.91463,-1.70732,-47.2866,-9.04359,-0.526904,1.28373,-7.65244,53.75,2.34756
1044.85,12.4798,17.4819,0,2.4046,9.12981,-1.48252,6.18902,1.95122,-44.939,-9.11784,-0.536484,1.25499,-8.75,52.0427,3.38415
1044.86,12.0739,17.0523,0,2.28964,9.2352,-1.22864,4.72561,4.45122,-44.3598,-9.16334,-0.57241,1.1065,-9.02439,50.9756,3.81098
1044.87,11.653,16.6395,0,1.97829,9.30705,-0.948428,3.20122,4.45122,-42.8049,-9.17532,-0.661025,1.1065,-8.59756,50.2744,4.42073
1044.88,11.2547,16.2331,0,1.87291,9.40524,-1.03944,2.0122,6.09756,-39.8476,-9.20406,-0.692161,1.06818,-8.78049,49.1463,4.48171
1044.89,10.8876,15.8079,0,1.79147,9.32621,-0.929268,-0.731707,4.72561,-36.6768,-9.25196,-0.771196,0.929268,-8.75,48.5061,4.7561
1044.9,10.4835,15.3596,0,1.18314,9.3765,-1.01788,-0.243902,3.65854,-33.689,-9.26154,-0.766406,0.766406,-8.44512,48.8415,5
1044.91,10.0897,14.8717,0,1.15919,9.60403,-1.2981,0.213415,2.46951,-32.8354,-9.35255,-0.814307,0.536484,-8.01829,49.5732,4.78659
1044.92,9.69483,14.3769,0,1.05141,9.59205,-1.08494,-0.213415,-4.14634,-32.4695,-9.4747,-0.797541,0.433499,-7.04268,48.75,4.57317
1044.93,9.33175,13.8948,0,1.27894,9.7597,-1.23823,-0.701219,-4.93902,-32.5,-9.51302,-0.680186,0.404758,-6.09756,47.1646,5.06098
1044.94,8.96676,13.3766,0,1.19511,9.70222,-1.29571,-1.67683,-4.57317,-32.5305,-9.64953,-0.708926,0.174836,-4.81707,46.372,4.93902
1044.95,8.61394,12.9058,0,1.31726,9.63037,-1.54479,-1.40244,-2.34756,-33.5976,-9.7118,-0.637075,0.289797,-3.9939,44.939,5.70122
1044.96,8.29308,12.4183,0,1.52323,9.67827,-1.48012,-0.823171,2.43902,-33.4146,-9.81719,-0.64905,0.138911,-2.77439,43.689,6.21951
1044.97,7.96026,11.9191,0,1.28613,9.63037,-1.49449,-1.58537,7.13415,-32.561,-9.93215,-0.692161,0.00479004,-1.58537,43.0793,6.89024
1044.98,7.63344,11.4079,0,1.23104,9.56331,-1.36995,-1.18902,11.8902,-32.0732,-9.98723,-0.742456,-0.136516,-0.396341,42.2256,7.40854
1044.99,7.31193,10.8997,0,1.04902,9.40764,-1.34121,0.914634,10.7012,-30.2134,-10.0208,-0.778381,-0.213157,0.701219,41.6159,7.53049
1045,6.93716,10.3959,0,0.495769,9.63756,-1.27415,0.457317,10.7317,-29.3293,-9.98005,-0.785566,-0.282612,1.55488,40.7317,7.16463
1045.01,6.53504,9.89035,0,0.196392,9.59445,-1.30529,0.0304878,8.90244,-29.2683,-9.92257,-0.804727,-0.376018,2.43902,40.2439,6.89024
1045.02,6.16548,9.38028,0,0.296982,9.60642,-1.1999,-0.121951,7.46951,-27.9878,-9.91059,-0.826282,-0.483794,3.75,39.4817,6.15854
1045.03,5.79328,8.87466,0,0.134121,9.52499,-1.22625,-0.731707,2.7439,-27.0427,-9.8555,-0.756826,-0.550855,5.27439,38.1707,5.82317
1045.04,5.41583,8.37646,0,-0.0239502,9.65432,-1.33642,-1.70732,-2.83537,-26.4024,-9.88904,-0.752036,-0.608335,6.67683,37.561,5.85366
1045.05,5.06053,7.9247,0,0.0359253,9.59445,-1.31487,-2.92683,-4.84756,-25.6402,-9.93694,-0.735271,-0.495769,6.82927,35.4268,5.33537
1045.06,4.72543,7.45616,0,0.0431104,9.62079,-1.12566,-3.59756,-5.94512,-24.3902,-10.0327,-0.723296,-0.656235,7.07317,33.2927,5.18293
1045.07,4.44624,7.00011,0,0.335303,9.52978,-1.00351,-2.80488,-9.54268,-22.9573,-10.1693,-0.701741,-0.694556,8.2622,30.9451,4.87805
1045.08,4.20415,6.53651,0,0.462239,9.50583,-0.946033,-1.31098,-11.8293,-21.311,-10.2339,-0.682581,-0.816702,8.59756,29.1463,4.78659
1045.09,3.96958,6.07597,0,0.366438,9.73336,-1.46575,-3.84146,-11.25,-19.7561,-10.3273,-0.64905,-0.895737,9.2378,27.5,5.33537
1045.1,3.75786,5.61905,0,0.443079,9.47949,-1.58311,-4.11585,-13.2317,-18.9634,-10.4111,-0.59157,-0.972378,9.29878,25.5488,5.88415
1045.11,3.57154,5.18241,0,0.534089,9.56571,-1.64538,-4.35976,-13.2622,-17.8659,-10.4974,-0.5772,-0.972378,8.90244,23.2317,6.15854
1045.12,3.39604,4.75594,0,0.486189,9.5202,-1.42025,-4.63415,-12.439,-16.5854,-10.4614,-0.57241,-1.00351,8.9939,21.7683,6.40244
1045.13,3.26838,4.33653,0,0.737666,9.44117,-1.35079,-4.02439,-11.5549,-15.2134,-10.4878,-0.603545,-1.05381,8.56707,19.6646,6.82927
1045.14,3.15617,3.93552,0,0.696951,9.55613,-1.22864,-3.2622,-14.8476,-13.2927,-10.3896,-0.61552,-1.03704,8.90244,18.2012,6.64634
1045.15,3.08558,3.57082,0,0.895737,9.5681,-1.25978,-2.86585,-15.2744,-11.6768,-10.2938,-0.55804,-0.936453,8.59756,15.3354,6.61585
1045.16,3.02302,3.22867,0,0.787961,9.78605,-1.46575,-3.47561,-16.4024,-9.48171,-10.1429,-0.457449,-0.888552,8.01829,12.7134,6.76829
1045.17,3.0014,2.86168,0,0.919688,9.69504,-1.51126,-3.90244,-13.5366,-7.10366,-10.0758,-0.462239,-1.0562,8.38415,10.9451,6.76829
1045.18,2.9999,2.49634,0,0.943638,9.61121,-1.23104,-4.66463,-15.0915,-5.51829,-10.0639,-0.483794,-1.11368,8.41463,9.81707,6.67683
1045.19,3.04129,2.12695,0,1.09931,9.59684,-1.21906,-4.90854,-15.7927,-3.47561,-10.1022,-0.502954,-1.2023,8.75,8.5061,6.34146
1045.2,3.1745,1.76566,0,1.29092,9.55613,-1.23344,-3.68902,-12.622,-1.34146,-10.0567,-0.493374,-1.22625,8.68902,7.37805,5.79268
1045.21,3.30366,1.41794,0,1.06339,9.68306,-1.26218,-3.32317,-10.8841,0.701219,-9.99202,-0.438289,-1.21906,8.90244,6.12805,5.70122
1045.22,3.41215,1.06148,0,1.03225,9.67109,-1.41306,-3.84146,-11.6463,0.914634,-9.91299,-0.387993,-1.30768,9.08537,5.91463,5.30488
1045.23,3.5189,0.714095,0,1.06578,9.69504,-1.27894,-4.39024,-11.0976,1.03659,-9.83874,-0.371228,-1.31726,8.20122,5.57927,5.4878
1045.24,3.60288,0.37107,0,0.972378,9.65672,-1.24781,-3.96341,-9.14634,1.18902,-9.77647,-0.364043,-1.34361,7.53049,5.09146,5.64024
1045.25,3.66064,0.0384956,0,0.850232,9.60642,-1.28373,-3.04878,-6.55488,1.4939,-9.73096,-0.265847,-1.34361,6.15854,4.72561,6.03659
1045.26,3.67779,-0.295364,0,0.63947,9.62558,-1.21188,-3.2622,-7.56098,1.31098,-9.75252,-0.306563,-1.3939,5.27439,4.17683,6.06707
1045.27,3.69475,-0.634689,0,0.66342,9.67109,-1.35319,-3.23171,-6.31098,0.762195,-9.71899,-0.330513,-1.45138,4.54268,3.81098,6.21951
1045.28,3.70212,-0.952702,0,0.6251,9.69743,-1.24062,-2.65244,-5.33537,0.792683,-9.75012,-0.273032,-1.42983,3.93293,3.87195,6.40244
1045.29,3.7261,-1.2838,0,0.689766,9.70941,-1.29331,-2.9878,-4.2378,1.34146,-9.80042,-0.282612,-1.51126,3.2622,3.2622,6.79878
1045.3,3.77655,-1.59333,0,0.816702,9.66151,-1.24541,-2.13415,-3.2622,0.792683,-9.84353,-0.320933,-1.48731,3.47561,3.23171,6.89024
1045.31,3.78415,-1.90958,0,0.63947,9.77886,-1.21667,-2.59146,-2.95732,0.914634,-9.94412,-0.383203,-1.55916,3.38415,2.83537,6.95122
1045.32,3.77376,-2.21061,0,0.538879,9.77168,-1.26457,-3.68902,-4.48171,1.06707,-9.96089,-0.517324,-1.56634,3.62805,2.92683,6.67683
1045.33,3.72958,-2.50989,0,0.440684,9.69264,-1.1065,-3.87195,-6.12805,0.609756,-9.98005,-0.534089,-1.63819,3.38415,3.17073,6.34146
1045.34,3.72762,-2.79503,0,0.58678,9.71659,-1.13045,-3.87195,-4.90854,0.853659,-9.92736,-0.474214,-1.60945,3.68902,3.04878,6.12805
1045.35,3.74789,-3.07644,0,0.680186,9.69025,-1.22386,-3.65854,-4.96951,1.09756,-9.91299,-0.486189,-1.56874,3.38415,2.37805,6.06707
1045.36,3.78446,-3.36731,0,0.756826,9.67109,-1.18793,-2.89634,-3.04878,0.640244,-9.89862,-0.502954,-1.61424,3.35366,2.13415,5.70122
1045.37,3.799,-3.66803,0,0.680186,9.69983,-1.13524,-2.71341,-1.06707,0.396341,-9.88425,-0.438289,-1.63819,3.29268,1.82927,5.7622
1045.38,3.77867,-3.95195,0,0.579595,9.69743,-1.07057,-2.0122,-0.97561,0.121951,-9.82677,-0.426313,-1.62861,3.20122,1.92073,5.67073
1045.39,3.78183,-4.24029,0,0.63468,9.67588,-1.18793,-1.85976,-0.884146,0.457317,-9.82916,-0.411943,-1.71004,3.32317,1.98171,5.39634
1045.4,3.7783,-4.50883,0,0.627495,9.7118,-1.2981,-1.46341,-1.89024,0.121951,-9.83635,-0.399968,-1.69088,3.01829,1.98171,5.42683
1045.41,3.77773,-4.78563,0,0.63468,9.78126,-1.2023,-1.67683,-1.85976,0.27439,-9.79323,-0.376018,-1.65975,2.9878,1.55488,5.60976
1045.42,3.74929,-5.07153,0,0.522114,9.7621,-1.09931,-1.58537,-1.64634,0.426829,-9.79563,-0.385598,-1.72681,2.9878,1.4939,5.60976
1045.43,3.72602,-5.3347,0,0.524509,9.81479,-1.09931,-1.89024,-3.90244,0.548781,-9.76689,-0.376018,-1.76034,2.89634,1.79878,5.85366
1045.44,3.73757,-5.56283,0,0.66342,9.7621,-1.10889,-2.31707,-4.57317,0.457317,-9.79084,-0.402363,-1.76752,2.95732,2.28659,6.12805
1045.45,3.73863,-5.78421,0,0.63468,9.80042,-1.06818,-2.10366,-4.60366,0.27439,-9.83156,-0.371228,-1.75315,2.86585,1.98171,6.31098
1045.46,3.71928,-6.00162,0,0.560435,9.81,-1.05141,-2.65244,-4.72561,0.304878,-9.82437,-0.390388,-1.7316,2.9878,1.70732,6.40244
1045.47,3.72125,-6.22144,0,0.62989,9.70701,-1.05141,-2.9878,-5.06098,0.243902,-9.81,-0.354463,-1.62622,2.77439,1.0061,6.85976
1045.48,3.75495,-6.42991,0,0.747246,9.72138,-1.01309,-3.35366,-5,0.701219,-9.82916,-0.404758,-1.62143,2.62195,0.914634,7.07317
1045.49,3.78268,-6.66151,0,0.718506,9.65672,-0.993933,-2.56098,-3.93293,1.06707,-9.8076,-0.356858,-1.60227,2.34756,0.487805,7.0122
1045.5,3.80809,-6.89222,0,0.716111,9.66869,-1.04183,-2.16463,-4.05488,0.548781,-9.8124,-0.320933,-1.65256,2.04268,0.518293,7.10366
1045.51,3.83171,-7.10516,0,0.720901,9.73336,-1.06818,-1.76829,-4.69512,0.518293,-9.76449,-0.313748,-1.72202,2.10366,0.884146,6.64634
1045.52,3.84256,-7.28447,0,0.675395,9.70462,-1.13284,-2.19512,-3.59756,0.396341,-9.7621,-0.311353,-1.67651,1.7378,0.914634,6.98171
1045.53,3.84643,-7.46269,0,0.646655,9.72857,-1.11608,-2.31707,-3.62805,0.579268,-9.7597,-0.330513,-1.71723,1.58537,0.97561,6.98171
1045.54,3.85963,-7.6109,0,0.680186,9.63756,-1.04902,-2.53049,-3.59756,0.396341,-9.80281,-0.354463,-1.71962,1.40244,1.21951,7.07317
1045.55,3.87597,-7.76923,0,0.696951,9.66869,-1.06099,-1.43293,-3.65854,0.0609756,-9.87227,-0.354463,-1.70286,1.37195,0.640244,6.79878
1045.56,3.88488,-7.9393,0,0.680186,9.6639,-1.08015,-0.884146,-3.29268,-0.0304878,-9.88425,-0.378413,-1.76034,1.21951,0.609756,6.92073
1045.57,3.86304,-8.07699,0,0.59636,9.70941,-1.08015,-1.34146,-3.81098,-0.152439,-9.92496,-0.409548,-1.66693,1.09756,0.243902,7.0122
1045.58,3.82982,-8.24932,0,0.55804,9.69983,-1.17835,-1.46341,-3.68902,-0.121951,-9.90101,-0.399968,-1.72202,1.21951,-0.0609756,6.85976
1045.59,3.79653,-8.41408,0,0.541274,9.7621,-1.21427,-1.64634,-4.02439,0.152439,-9.87946,-0.428708,-1.7316,1.03659,0.0609756,7.0122
1045.6,3.77191,-8.53846,0,0.574805,9.78126,-1.18074,-2.9878,-4.5122,-0.0609756,-9.8555,-0.428708,-1.67891,0.731707,-0.0609756,6.76829
1045.61,3.75223,-8.68249,0,0.58199,9.66869,-1.10171,-2.62195,-3.81098,-0.396341,-9.83635,-0.510139,-1.73639,0.731707,0.0914634,6.46341
1045.62,3.73377,-8.81616,0,0.593965,9.6639,-1.09213,-2.28659,-3.90244,-1.06707,-9.78126,-0.57241,-1.78429,1.12805,0.487805,6.09756
1045.63,3.73026,-8.95103,0,0.675395,9.63277,-1.17356,-1.67683,-3.68902,-1.28049,-9.81479,-0.550855,-1.81782,1.28049,0.457317,5.57927
1045.64,3.739,-9.07278,0,0.764011,9.61121,-1.22146,-1.52439,-2.7439,-1.55488,-9.82437,-0.579595,-1.80345,2.19512,0.365854,5.30488
1045.65,3.76266,-9.23581,0,0.912502,9.5226,-1.16877,-1.31098,-1.64634,-2.13415,-9.81958,-0.60594,-1.85375,2.83537,0.0304878,4.87805
1045.66,3.78988,-9.28602,0,1.0107,9.53936,-1.20709,-1.64634,1.03659,-2.65244,-9.80521,-0.58199,-1.69807,2.77439,-0.365854,4.72561
1045.67,3.81957,-9.29637,0,0.993933,9.6184,-1.1544,-0.823171,2.95732,-2.2561,-9.77647,-0.56762,-1.62143,2.77439,-0.518293,4.48171
1045.68,3.8598,-9.31243,0,1.02986,9.68306,-1.18314,-0.457317,5.06098,-1.89024,-9.76689,-0.61073,-1.6334,2.13415,-0.487805,4.63415
1045.69,3.88203,-9.35196,0,0.910107,9.78126,-1.16398,-0.884146,6.12805,-1.70732,-9.77647,-0.62989,-1.67412,2.19512,-0.152439,4.7561
1045.7,3.91304,-9.37834,0,0.917292,9.72378,-1.14482,-1.25,5.60976,-1.40244,-9.76928,-0.62031,-1.65735,2.34756,0.213415,4.87805
1045.71,3.9964,-9.45301,0,1.07776,9.61361,-1.17116,-1.18902,5.79268,-0.914634,-9.77168,-0.60115,-1.73639,1.67683,0,5.09146
1045.72,4.14359,-9.52125,0,1.10171,9.62558,-1.16398,-0.97561,4.63415,-0.0914634,-9.74294,-0.60115,-1.73399,1.79878,-0.0304878,5
1045.73,4.25203,-9.52468,0,1.01549,9.68306,-1.16158,-0.823171,5,-0.0304878,-9.75731,-0.55804,-1.64298,1.34146,-0.213415,4.93902
1045.74,4.32302,-9.50853,0,1.01549,9.63277,-1.27415,-1.28049,5.97561,-0.579268,-9.79084,-0.565225,-1.60227,0.518293,-0.853659,4.96951
1045.75,4.3842,-9.49779,0,1.16158,9.49625,-1.20948,-0.945122,7.5,-1.64634,-9.83156,-0.531694,-1.62143,-0.121951,-0.670732,4.78659
1045.76,4.45838,-9.49633,0,1.3939,9.46033,-1.28134,-1.55488,10.7317,-2.37805,-9.89622,-0.60594,-1.65256,-0.97561,-0.701219,4.54268
1045.77,4.5226,-9.54019,0,1.46815,9.40285,-1.25499,-1.7378,14.3598,-3.29268,-9.89383,-0.661025,-1.7771,-1.76829,-0.884146,3.90244
1045.78,4.53799,-9.57976,0,1.16877,9.61121,-1.25499,-1.58537,16.6768,-3.62805,-9.89383,-0.689766,-1.7795,-2.53049,-1.03659,3.10976
1045.79,4.51385,-9.63405,0,0.869392,9.83395,-1.33882,-2.13415,18.9939,-3.56707,-9.81958,-0.682581,-1.8274,-3.32317,-1.31098,2.65244
1045.8,4.45206,-9.70654,0,0.555645,9.83635,-1.40588,-3.10976,18.1402,-3.56707,-9.75252,-0.752036,-1.8753,-4.2378,-1.28049,2.46951
1045.81,4.36432,-9.80316,0,0.313748,9.6663,-1.3963,-3.78049,15.3049,-3.23171,-9.75252,-0.816702,-1.93278,-5.27439,-0.97561,2.31707
1045.82,4.2848,-9.91468,0,0.354463,9.62319,-1.42264,-4.29878,12.0732,-3.04878,-9.78126,-0.888552,-2.02379,-6.21951,-1.15854,1.98171
1045.83,4.2115,-10.0072,0,0.399968,9.62558,-1.56634,-4.60366,7.92683,-3.29268,-9.77407,-0.931663,-1.97829,-7.07317,-1.09756,1.92073
1045.84,4.15349,-10.0857,0,0.560435,9.63995,-1.76513,-4.78659,6.18902,-4.05488,-9.79563,-0.972378,-1.94715,-7.95732,-0.945122,2.0122
1045.85,4.10585,-10.1657,0,0.670605,9.69743,-1.88967,-5.21341,6.15854,-4.45122,-9.76449,-1.10171,-1.98068,-8.87195,-1.21951,2.56098
1045.86,4.05232,-10.202,0,0.687371,9.68785,-1.85375,-5.42683,5.7622,-5.36585,-9.8076,-1.18074,-1.88249,-9.5122,-1.55488,2.80488
1045.87,4.01096,-10.2489,0,0.809517,9.63516,-1.75555,-5.18293,6.21951,-5.7622,-9.81719,-1.26936,-1.94236,-10.3049,-1.98171,2.92683
1045.88,3.96412,-10.3004,0,0.826282,9.68067,-1.7316,-5,5.7622,-6.55488,-9.85311,-1.35319,-1.98547,-10.4268,-2.2561,2.95732
1045.89,3.92082,-10.349,0,0.864602,9.60642,-1.71962,-5,6.28049,-6.82927,-9.75731,-1.35319,-1.96392,-10.7317,-2.34756,2.95732
1045.9,3.86745,-10.4058,0,0.816702,9.68306,-1.64298,-5.73171,6.4939,-7.28659,-9.72857,-1.41306,-1.99984,-11.311,-2.40854,2.83537
1045.91,3.80205,-10.484,0,0.728086,9.78126,-1.63101,-6.12805,5.60976,-7.46951,-9.65672,-1.41546,-2.0669,-11.5549,-2.19512,2.89634
1045.92,3.74296,-10.5688,0,0.768801,9.78605,-1.64777,-6.61585,4.72561,-7.43902,-9.65672,-1.43222,-2.09804,-11.8293,-2.04268,3.01829
1045.93,3.68876,-10.6434,0,0.816702,9.70222,-1.57353,-7.19512,3.65854,-7.71341,-9.62079,-1.37953,-2.06211,-11.8902,-1.98171,2.92683
1045.94,3.64077,-10.7191,0,0.864602,9.72138,-1.54,-7.7439,3.38415,-7.7439,-9.62319,-1.36037,-2.07648,-12.2256,-1.92073,3.23171
1045.95,3.58904,-10.7791,0,0.845442,9.69743,-1.55676,-8.10976,2.31707,-8.01829,-9.63756,-1.36756,-2.02619,-12.378,-1.67683,3.53659
1045.96,3.55124,-10.8185,0,0.922083,9.72378,-1.60706,-8.59756,1.52439,-7.59146,-9.62319,-1.3005,-1.96631,-12.9268,-1.76829,3.47561
1045.97,3.51527,-10.8563,0,0.953218,9.7118,-1.6837,-9.11585,0.609756,-7.86585,-9.61121,-1.31487,-1.95434,-13.9329,-1.43293,3.32317
1045.98,3.49791,-10.8849,0,1.05381,9.67827,-1.60227,-9.7561,0,-7.28659,-9.58966,-1.29571,-1.91841,-15.0305,-1.12805,3.47561
1045.99,3.51895,-10.897,0,1.31726,9.65911,-1.64538,-10.3963,-0.701219,-6.58537,-9.54655,-1.28852,-1.86812,-15.5793,-1.06707,3.47561
1046,3.57351,-10.8958,0,1.51365,9.72138,-1.69567,-10.6098,-0.0914634,-5.39634,-9.51541,-1.20948,-1.82979,-16.4939,-1.06707,3.75
1046.01,3.67197,-10.8739,0,1.71244,9.63277,-1.62143,-11.0976,-1.7378,-3.78049,-9.49386,-1.20709,-1.76752,-17.6829,-1.34146,4.39024
1046.02,3.86645,-10.8559,0,1.93757,9.61121,-1.65735,-11.25,-3.9939,-1.58537,-9.45554,-1.17356,-1.77471,-18.628,-0.97561,4.2378
1046.03,4.11982,-10.8914,0,2.12917,9.58247,-1.65017,-11.9512,-4.60366,1.52439,-9.45075,-1.22864,-1.88728,-19.1768,-0.701219,4.32927
1046.04,4.37607,-10.9004,0,2.38065,9.44117,-1.58311,-12.5,-4.60366,5.51829,-9.4268,-1.1999,-1.82979,-19.8476,-0.396341,4.14634
1046.05,4.71019,-10.8298,0,2.70877,9.41722,-1.4418,-13.2012,-3.81098,10.2744,-9.46991,-1.14961,-1.71962,-20.2134,-0.121951,3.71951
1046.06,5.13358,-10.809,0,3.04886,9.33818,-1.17116,-13.3841,-2.10366,15.9146,-9.47709,-1.11847,-1.78429,-20.7927,0,3.78049
1046.07,5.65848,-10.8035,0,3.43925,9.16095,-0.833467,-13.0183,0.365854,22.0427,-9.50583,-1.1065,-1.80584,-20.6402,-0.304878,3.84146
1046.08,6.31683,-10.8033,0,3.92544,8.88073,-0.694556,-12.561,5.4878,30.061,-9.52499,-1.06578,-1.81782,-19.878,-0.945122,4.45122
1046.09,7.13358,-10.7459,0,4.48348,8.44723,-0.428708,-10.1829,10.9146,39.1768,-9.50104,-1.08973,-1.63101,-19.0854,-1.82927,5.12195
1046.1,8.09962,-10.7238,0,4.99362,8.20534,-0.258662,-7.19512,17.4085,49.2073,-9.50583,-1.08734,-1.72202,-17.2561,-2.77439,5.42683
1046.11,9.20042,-10.6857,0,5.42232,8.09996,-0.210762,-6.37195,24.0549,59.878,-9.33579,-0.936453,-1.62143,-15.1524,-3.44512,6.15854
1046.12,10.4113,-10.6096,0,5.66183,8.03769,-0.129331,-6.15854,31.7073,70.5793,-9.25675,-0.775986,-1.43941,-12.9268,-4.69512,6.79878
1046.13,11.6895,-10.5354,0,5.61632,8.01134,-0.0335303,-5.88415,38.628,80.1829,-9.10826,-0.579595,-1.40827,-10.7927,-5.57927,8.04878
1046.14,13.0055,-10.466,0,5.51573,8.20534,-0.0502954,-5.4878,47.561,88.9329,-8.97893,-0.352068,-1.3939,-9.42073,-6.43293,8.20122
1046.15,14.2905,-10.4058,0,5.03912,8.79451,-0.146096,-3.9939,52.561,96.8293,-8.95019,-0.191602,-1.41546,-8.78049,-6.79878,8.23171
1046.16,15.534,-10.3863,0,4.74693,9.64953,-0.397573,-3.44512,57.1037,102.591,-9.03401,-0.0431104,-1.5855,-8.62805,-7.83537,7.5
1046.17,16.6779,-10.3965,0,4.31343,10.9572,-0.692161,-3.9939,56.7683,104.573,-9.32621,0.119751,-1.76034,-8.10976,-9.35976,6.61585
1046.18,17.6923,-10.4459,0,3.67396,11.999,-0.843047,-4.96951,53.7805,102.805,-9.70701,0.105381,-2.00942,-6.7378,-10.4268,5.67073
1046.19,18.5876,-10.5258,0,3.30992,12.5667,-1.17595,-6.21951,48.628,97.3476,-10.0806,0.0862207,-2.23695,-5.27439,-9.66463,4.72561
1046.2,19.353,-10.6296,0,2.66805,12.6361,-1.09213,-6.12805,38.7805,91.7073,-10.4782,0.00958008,-2.4549,-4.14634,-7.71341,4.54268
1046.21,20.0438,-10.7337,0,2.21779,12.1835,-1.00591,-4.72561,29.2073,88.9329,-10.8566,-0.0239502,-2.56028,-3.84146,-4.78659,4.7561
1046.22,20.7191,-10.8829,0,2.07409,11.7572,-1.03225,-2.92683,22.0732,89.3902,-11.0267,-0.0574805,-2.82133,-4.11585,-2.22561,5.70122
1046.23,21.3873,-11.0485,0,1.81303,11.3117,-0.960403,-0.0304878,16.25,91.8902,-11.1033,-0.0958008,-2.85247,-4.26829,-0.701219,6.85976
1046.24,22.1682,-11.2502,0,2.89079,10.9836,-1.71004,2.46951,26.1585,93.2317,-10.9812,-0.0359253,-2.94827,-4.60366,0.396341,8.35366
1046.25,22.8849,-11.4883,0,2.40699,11.2135,-0.656235,3.2622,12.4085,93.6585,-10.7393,0.114961,-2.92432,-5.88415,0.0304878,10.7622
1046.26,23.6343,-11.7425,0,3.18538,10.8949,-0.395178,3.56707,13.4451,89.9085,-10.5477,0.277822,-2.91953,-6.98171,-0.0304878,13.2927
1046.27,24.3225,-11.94,0,3.06323,10.6986,0.146096,4.60366,5.7622,85.8537,-10.4686,0.364043,-2.85965,-8.01829,-0.518293,16.0671
1046.28,24.945,-12.0807,0,3.05365,10.4088,0.296982,7.37805,2.2561,79.7866,-10.4327,0.378413,-2.83091,-8.44512,-1.98171,18.5061
1046.29,25.4683,-12.1902,0,2.75188,10.1214,0.165256,9.35976,2.31707,73.2622,-10.3034,0.273032,-2.6944,-8.96341,-2.37805,19.8476
1046.3,25.9152,-12.2679,0,2.71116,10.0088,-0.131726,10.3659,13.0183,66.6463,-10.1884,0.167651,-2.56507,-8.71951,-3.87195,20.4878
1046.31,26.3166,-12.3303,0,2.96982,9.81,-0.335303,12.5,25.3963,59.4817,-10.0256,0.0550855,-2.47406,-8.53659,-5.27439,21.189
1046.32,26.6747,-12.363,0,3.03209,9.46512,0.0119751,15.8232,31.6159,53.9939,-9.84353,-0.00718506,-2.3064,-8.07927,-6.64634,21.4329
1046.33,27.057,-12.3525,0,3.42248,9.07473,-0.0622705,18.3841,42.2866,51.2805,-9.67827,0.0479004,-2.08127,-7.28659,-7.65244,22.1037
1046.34,27.4527,-12.3832,0,3.53026,8.63405,0.0790356,20.8841,46.2195,50.2134,-9.43877,0.0790356,-2.20821,-6.58537,-8.17073,23.0183
1046.35,27.8626,-12.4162,0,3.76018,8.26521,-0.0981958,23.3841,53.6585,47.9268,-9.30705,0.244292,-2.19384,-6.28049,-9.57317,22.9573
1046.36,28.2535,-12.4566,0,3.90388,8.06882,-0.182021,24.5122,62.5915,44.0549,-9.17772,0.416733,-2.20102,-5.91463,-10.0915,23.2317
1046.37,28.5689,-12.4995,0,3.67635,8.01853,-0.0910107,24.878,68.1707,39.5732,-9.12502,0.483794,-2.20581,-5.85366,-10.3659,22.4085
1046.38,28.8147,-12.534,0,3.50631,8.08559,-0.0119751,24.1768,72.2256,35.5488,-9.14179,0.548459,-2.18186,-6.52439,-10.4878,21.0671
1046.39,28.9948,-12.5577,0,3.24525,8.06882,0.165256,24.2988,70.7317,32.4695,-9.18011,0.60594,-2.15073,-7.80488,-10.7317,19.9695
1046.4,29.1304,-12.5634,0,3.06323,8.0305,0.263452,23.9634,67.4085,30.3963,-9.26633,0.555645,-2.09804,-9.66463,-11.25,18.3232
1046.41,29.2319,-12.5615,0,2.94108,8.06164,0.306563,23.3232,62.8963,28.9024,-9.40524,0.534089,-2.09804,-11.7378,-12.1646,16.128
1046.42,29.2988,-12.5754,0,2.7878,7.9826,0.287402,22.1951,56.311,27.1951,-9.46991,0.457449,-2.18186,-12.3171,-12.3476,14.4817
1046.43,29.3582,-12.5985,0,2.86205,7.90596,0.335303,21.0976,49.939,25.2439,-9.48188,0.490979,-2.22737,-13.0183,-12.2256,13.4451
1046.44,29.4088,-12.6095,0,2.98419,7.81734,0.332908,20.4268,43.9329,22.439,-9.51541,0.512534,-2.18426,-14.0854,-10.7317,11.8293
1046.45,29.453,-12.64,0,3.14945,7.76705,0.318538,19.7866,39.3902,19.4817,-9.54176,0.541274,-2.27766,-15.0305,-9.32927,10.7317
1046.46,29.4718,-12.6973,0,3.25483,7.79339,0.361648,19.3902,35.6098,15.7622,-9.55373,0.57241,-2.4046,-15.4878,-8.10976,10.0915
1046.47,29.4777,-12.7802,0,3.43446,7.70238,0.467029,20.3963,32.0427,11.7073,-9.58726,0.550855,-2.53633,-15.8232,-6.64634,9.45122
1046.48,29.4541,-12.8833,0,3.57097,7.75747,0.320933,22.1037,28.75,7.34756,-9.62558,0.481399,-2.65129,-16.311,-5.82317,8.5061
1046.49,29.3302,-12.9675,0,3.47996,7.92272,0.196392,21.311,23.5976,2.95732,-9.69983,0.435894,-2.60339,-16.8293,-5.45732,7.56098
1046.5,29.0133,-13.0291,0,3.6524,7.96823,0.0646655,19.878,18.5061,-0.914634,-9.77407,0.409548,-2.53633,-17.439,-6.0061,6.61585
1046.51,28.8657,-13.0743,0,3.65959,7.92512,0.179626,19.4512,14.7561,-6.34146,-9.79323,0.385598,-2.47885,-18.6585,-7.10366,6.0061
1046.52,28.6714,-13.1217,0,3.74821,7.96104,0.373623,17.8354,12.561,-12.378,-9.76449,0.423918,-2.49082,-20.5793,-8.35366,5.18293
1046.53,28.436,-13.1595,0,3.73863,7.76226,0.534089,17.1037,6.82927,-17.9878,-9.67348,0.603545,-2.43334,-22.4695,-8.84146,4.90854
1046.54,28.1645,-13.1972,0,3.89909,7.71436,0.323328,16.9817,2.83537,-24.3902,-9.60642,0.749641,-2.42376,-24.2988,-9.63415,4.45122
1046.55,27.8658,-13.248,0,4.01884,7.70238,0.385598,17.3476,-0.609756,-29.2378,-9.55852,0.926873,-2.47645,-26.7988,-9.45122,3.81098
1046.56,27.5867,-13.2864,0,4.38528,7.51318,0.261057,20.0305,-2.28659,-33.3841,-9.54415,1.02507,-2.42615,-28.5061,-9.08537,3.53659
1046.57,27.3362,-13.3329,0,4.7134,7.47725,0.285007,21.9817,-6.92073,-35.0305,-9.47949,1.11847,-2.4525,-30,-8.9939,2.95732
1046.58,27.1238,-13.4009,0,4.83075,7.19464,0.241897,23.0183,-11.7378,-35.0305,-9.42919,1.19751,-2.54351,-32.0122,-9.11585,2.31707
1046.59,26.9953,-13.474,0,5.4343,6.9743,0.184417,28.9634,-14.2988,-35.1524,-9.40045,1.18553,-2.56986,-32.8659,-9.14634,1.92073
1046.6,26.9002,-13.5245,0,5.64746,6.88089,0.158071,33.6585,-17.1037,-34.9695,-9.41003,1.13284,-2.48603,-33.4451,-9.60366,1.4939
1046.61,26.8543,-13.5624,0,6.05221,6.93837,0.167651,38.4451,-17.8354,-33.6585,-9.48907,0.974773,-2.45969,-33.75,-10.3049,0.731707
1046.62,26.8365,-13.5548,0,6.40907,7.18745,0.0502954,39.4817,-15.6402,-32.1646,-9.52978,0.802332,-2.27527,-33.3841,-11.5549,-0.548781
1046.63,26.8607,-13.5336,0,6.8785,7.41498,0.198787,38.4756,-10.8841,-30.2134,-9.4723,0.694556,-2.20102,-33.5061,-12.8963,-1.67683
1046.64,26.926,-13.5318,0,7.38624,7.70717,0.256267,35.6707,-0.792683,-27.8659,-9.3765,0.732876,-2.2609,-33.3537,-13.7805,-2.37805
1046.65,27.0329,-13.5325,0,7.58503,7.97062,0.0934058,31.1585,9.39024,-23.0793,-9.3789,0.708926,-2.27287,-33.1402,-14.4817,-2.46951
1046.66,27.1636,-13.534,0,7.47725,8.1263,0.0550855,27.8049,15.8537,-18.4756,-9.39566,0.713716,-2.28006,-32.7439,-14.1159,-2.68293
1046.67,27.2664,-13.5121,0,7.24972,8.58136,-0.0167651,25.061,17.439,-16.0976,-9.5681,0.716111,-2.21779,-32.2561,-13.8415,-2.34756
1046.68,27.3263,-13.4421,0,7.01022,9.04599,-0.0886157,22.439,13.628,-15.3354,-9.88185,0.687371,-2.0669,-31.6159,-14.0244,-1.61585
1046.69,27.2528,-13.2466,0,6.50487,10.4327,-0.486189,19.7561,9.69512,-16.9207,-10.4375,0.522114,-1.57592,-29.2378,-16.7073,-0.487805
1046.7,26.9498,-13.0548,0,5.13492,12.423,-0.66342,18.1402,7.83537,-21.128,-11.1632,0.117356,-1.66933,-24.4817,-20.1524,0.945122
1046.71,26.5604,-12.8519,0,4.35654,13.1654,-0.165256,17.561,-2.34756,-22.1037,-11.8961,-0.481399,-1.6813,-18.2622,-23.3537,3.38415
1046.72,26.3524,-12.6752,0,4.99122,12.4852,0.433499,15,-18.6585,-11.4939,-12.3487,-1.23823,-1.84896,-11.25,-25.1524,5.57927
1046.73,26.5103,-12.533,0,7.04375,11.1105,0.124541,15.5183,-21.5244,3.81098,-12.3128,-1.71004,-1.99505,-3.81098,-24.1159,8.29268
1046.74,26.9584,-12.4227,0,8.47597,9.70462,-0.347278,24.1463,-9.5122,15.8841,-11.8625,-1.68609,-2.06211,2.62195,-23.2012,10.1829
1046.75,27.5275,-12.4246,0,8.46879,8.81128,-1.12087,33.2927,9.02439,23.5671,-10.9907,-1.21427,-2.4525,9.17683,-21.8293,12.4695
1046.76,27.996,-12.4394,0,6.70845,8.61968,-2.0669,32.8049,20.5793,26.6463,-10.1693,-0.574805,-2.32796,14.7256,-19.2378,14.3598
1046.77,28.1579,-12.3519,0,3.73384,8.67476,-2.26808,25.6707,27.6829,26.128,-9.73815,0.368833,-1.77231,16.9512,-17.3476,16.128
1046.78,28.0309,-12.3099,0,1.7795,8.72027,-1.59029,17.1341,25.3963,20.9756,-9.29028,0.301772,-1.87051,15.3354,-18.2927,17.6524
1046.79,27.6636,-12.2694,0,0.931663,8.11433,-0.819097,19.1463,17.0122,6.82927,-9.53457,1.44659,-1.91362,13.5061,-12.4085,16.6768
1046.8,27.0098,-12.1455,0,0.114961,7.95146,-0.6251,26.8293,7.83537,-11.9512,-10.0136,1.89925,-1.62143,10.3354,-11.5549,15.1524
1046.81,26.224,-11.9633,0,0.364043,8.54782,-0.902922,27.9878,-8.14024,-30.0305,-10.5668,2.11959,-1.40827,5.88415,-9.78659,13.4146
1046.82,25.4899,-11.7122,0,1.69807,9.10107,-1.17356,24.9085,-24.5427,-42.9573,-11.0794,1.9711,-1.09931,2.04268,-8.41463,11.4024
1046.83,24.8493,-11.4004,0,3.20214,9.68067,-2.23216,20.6402,-27.1341,-50.7012,-11.338,1.48731,-0.768801,-1.25,-7.95732,9.78659
1046.84,24.2493,-11.037,0,3.99729,10.4998,-3.00814,17.4085,-16.0061,-53.0488,-11.4626,0.787961,-0.452659,-4.17683,-7.83537,9.17683
1046.85,23.5899,-10.6649,0,3.14466,10.974,-2.95545,15.8841,1.7378,-50.4268,-11.3572,-0.146096,-0.332908,-5.79268,-6.31098,8.2622
1046.86,22.7651,-10.2315,0,0.876577,10.6028,-1.67172,15.122,-0.701219,-45.6707,-11.144,-0.756826,0.0431104,-5.91463,-5.15244,6.82927
1046.87,21.8173,-9.76801,0,-0.534089,9.50104,-0.785566,17.1341,-18.75,-43.689,-10.6602,-1.33163,0.234712,-5.21341,-3.84146,5.67073
1046.88,20.8036,-9.30072,0,-1.05141,8.77775,-1.35558,18.4451,-40.122,-44.9695,-10.6315,-0.273032,0.368833,-9.54268,-8.87195,5.54878
1046.89,19.8971,-8.78819,0,-0.289797,8.56699,-2.43573,19.0244,-50.7317,-46.0976,-9.81958,-1.57353,0.464634,0.152439,-3.10976,4.78659
1046.9,19.1406,-8.18214,0,0.692161,9.0388,-2.96503,19.5427,-55.1829,-45.5183,-9.46033,-1.3939,0.840652,4.72561,-3.17073,4.90854
1046.91,18.5347,-7.55544,0,1.78429,9.55373,-3.73623,16.128,-54.2988,-44.3598,-9.39327,-1.43701,1.04902,8.65854,-3.38415,3.90244
1046.92,18.0103,-6.91966,0,2.36149,9.66869,-3.85838,11.8902,-47.8963,-43.689,-9.36453,-1.70765,1.0562,11.5549,-2.83537,1.70732
1046.93,17.5096,-6.30859,0,2.37346,9.36692,-3.74102,10.8232,-36.4634,-43.3537,-9.40764,-1.90404,0.993933,15.5183,-2.5,-0.945122
1046.94,17.0182,-5.4668,0,2.27766,9.11305,-3.6524,11.5854,-29.9085,-43.0488,-9.36692,-1.91841,0.838257,18.628,-1.03659,-2.9878
1046.95,16.5467,-4.62607,0,2.19863,8.99809,-3.62366,12.1341,-27.0122,-41.4024,-9.37411,-1.85614,0.699346,21.25,0.731707,-3.9939
1046.96,16.1011,-4.2656,0,2.2106,9.12742,-3.68354,10.2439,-27.378,-39.4817,-9.40524,-1.75555,0.502954,23.6585,2.59146,-4.7561
1046.97,15.6681,-4.01582,0,2.08606,9.12981,-3.4129,8.9939,-25.9146,-37.5915,-9.47709,-1.63819,0.306563,26.0366,4.2378,-4.7561
1046.98,15.2266,-3.79863,0,1.89686,9.29747,-3.2692,8.23171,-24.3293,-36.6159,-9.56331,-1.51126,0.239502,27.6829,5.30488,-4.87805
1046.99,14.7759,-3.63272,0,1.79626,9.43159,-2.96264,6.95122,-25.4878,-36.9207,-9.63756,-1.30768,0.0694556,28.628,6.67683,-4.29878
1047,14.3049,-3.47947,0,1.59987,9.38129,-2.48124,5.57927,-26.5549,-37.6524,-9.8124,-1.2023,0.0455054,29.1159,7.04268,-3.84146
1047.01,13.8212,-3.32881,0,1.47054,9.3765,-2.44052,4.48171,-28.689,-38.3537,-10.0088,-0.986748,0.0622705,28.7805,7.19512,-3.56707
1047.02,13.3059,-3.21828,0,1.24781,9.43398,-2.39502,3.29268,-34.4207,-39.7561,-10.1716,-0.785566,-0.0886157,28.5366,8.04878,-3.41463
1047.03,12.7831,-3.10817,0,1.20709,9.47709,-2.5962,1.28049,-38.5366,-41.0061,-10.3369,-0.632285,-0.0718506,27.7134,8.17073,-3.2622
1047.04,12.2453,-2.99882,0,1.04662,9.39087,-2.66566,0.518293,-44.2378,-41.7683,-10.2459,-0.416733,-0.0550855,26.6159,8.04878,-3.17073
1047.05,11.7064,-2.93898,0,0.977168,9.42919,-2.91474,0.792683,-49.1768,-42.0732,-10.0303,-0.296982,-0.253872,25.9146,7.80488,-3.04878
1047.06,11.1982,-2.874,0,1.15679,9.41482,-3.03449,0.0304878,-52.8049,-42.2561,-9.80521,-0.285007,-0.215552,25.5183,8.04878,-2.28659
1047.07,10.7451,-2.82669,0,1.58071,9.41482,-3.09916,0.27439,-49.3293,-42.8354,-9.59445,-0.342488,-0.275427,25.4878,7.40854,-2.04268
1047.08,10.3147,-2.80158,0,1.69807,9.38369,-3.08958,0.884146,-49.4817,-42.9268,-9.39566,-0.416733,-0.354463,24.6951,6.89024,-1.79878
1047.09,9.89159,-2.80103,0,1.6813,9.3765,-2.9818,1.18902,-47.3171,-42.8659,-9.31184,-0.481399,-0.447869,24.4817,6.85976,-1.55488
1047.1,9.50187,-2.80834,0,1.98308,9.32381,-3.04407,0.731707,-40.2744,-44.0854,-9.331,-0.541274,-0.481399,24.2073,6.31098,-0.884146
1047.11,9.11446,-2.80976,0,2.04535,9.21843,-2.94108,0.548781,-37.7134,-45.6707,-9.43638,-0.608335,-0.464634,23.6585,5.03049,-0.27439
1047.12,8.70279,-2.86327,0,1.85135,9.09389,-2.94348,0.121951,-29.1463,-46.8902,-9.48428,-0.531694,-0.675395,22.3476,3.90244,0.579268
1047.13,8.20615,-2.91638,0,1.25499,9.12263,-2.49322,-0.396341,-35.4268,-48.9024,-9.60642,-0.541274,-0.684976,21.4329,3.2622,1.46341
1047.14,7.7952,-2.95894,0,1.96871,9.09149,-2.98898,-0.914634,-22.1646,-50.122,-9.55852,-0.498164,-0.62989,20.7927,2.31707,2.19512
1047.15,7.28727,-3.06027,0,1.05381,9.17053,-2.56028,-1.15854,-31.6159,-49.2988,-9.58487,-0.550855,-0.792751,20.061,1.67683,2.95732
1047.16,6.85613,-3.15736,0,1.50647,9.10586,-2.92911,-1.03659,-27.7439,-48.2927,-9.64714,-0.541274,-0.799937,19.9085,1.58537,3.29268
1047.17,6.45199,-3.29562,0,1.55676,9.20885,-2.99617,-1.0061,-26.0976,-46.8293,-9.62319,-0.656235,-1.0083,20.1524,2.2561,2.9878
1047.18,6.0331,-3.44836,0,1.20709,9.18969,-2.68242,-1.34146,-29.6646,-44.8476,-9.47709,-0.752036,-1.0586,20.7012,2.31707,2.46951
1047.19,5.68633,-3.62044,0,1.65975,9.00288,-2.90755,-0.121951,-20.0305,-44.3902,-9.21364,-0.773591,-1.17595,21.4939,3.20122,2.56098
1047.2,5.25306,-3.81834,0,0.914897,9.21603,-2.64171,-0.609756,-22.0732,-44.1768,-9.10826,-0.859812,-1.27655,23.0793,3.20122,2.40854
1047.21,4.85825,-4.01244,0,1.20948,9.33339,-2.71356,-1.61585,-22.1037,-44.6341,-8.9454,-0.929268,-1.28613,24.0854,3.53659,1.85976
1047.22,4.46821,-4.21307,0,1.21427,9.24717,-2.61776,-2.68293,-19.2073,-45.1524,-8.92624,-0.977168,-1.35798,25.5183,3.84146,1.85976
1047.23,4.10976,-4.43369,0,1.45138,9.21125,-2.58183,-1.98171,-19.1463,-45.7317,-8.87355,-1.03704,-1.4897,27.1037,4.57317,1.92073
1047.24,3.6949,-4.65284,0,1.1065,9.18969,-2.4525,-2.07317,-19.7561,-47.9573,-8.87355,-1.02507,-1.53521,28.7805,5.18293,2.0122
1047.25,3.28847,-4.88239,0,1.14961,8.96695,-2.60339,-1.37195,-17.1341,-48.8415,-8.87834,-0.972378,-1.62382,29.6951,6.06707,2.80488
1047.26,2.87336,-5.10277,0,1.05141,8.96456,-2.56507,-1.76829,-17.0732,-49.2988,-8.91905,-1.0107,-1.6334,30.5793,6.34146,3.47561
1047.27,2.45323,-5.35183,0,1.00112,9.01485,-2.38544,-1.58537,-15.8841,-49.939,-8.83523,-1.01309,-1.76992,31.189,6.7378,4.66463
1047.28,2.00613,-5.60162,0,0.831072,9.11305,-2.53633,-1.82927,-17.9573,-51.25,-8.79691,-0.919688,-1.80584,31.6768,7.0122,5.82317
1047.29,1.53868,-5.85867,0,0.706531,9.14418,-2.4022,-2.37805,-18.2927,-52.622,-8.75859,-0.878972,-1.86812,31.8598,7.56098,6.98171
1047.3,1.06478,-6.09596,0,0.63947,9.07233,-2.37825,-2.37805,-18.75,-53.4451,-8.77056,-0.840652,-1.83219,31.6159,7.56098,7.92683
1047.31,0.577433,-6.34739,0,0.507744,9.0412,-2.33035,-2.28659,-21.4024,-54.1159,-8.72266,-0.783171,-1.91602,31.4634,7.2561,9.17683
1047.32,0.138436,-6.55786,0,0.804727,9.12502,-2.4501,-1.40244,-22.2256,-53.9024,-8.72027,-0.706531,-1.79147,31.5549,7.31707,10.3049
1047.33,-0.252164,-6.7012,0,0.986748,9.35734,-2.53872,-0.152439,-23.4451,-51.8598,-8.68674,-0.65863,-1.54958,30.9451,6.37195,11.8293
1047.34,-0.588321,-6.84731,0,1.22625,9.33339,-2.61297,0.701219,-24.1463,-50.0915,-8.57417,-0.622705,-1.55676,30.2134,5.67073,12.9268
1047.35,-0.903897,-7.00773,0,1.22625,9.14179,-2.35909,1.70732,-30.4573,-48.9939,-8.59333,-0.574805,-1.64298,30.1829,6.25,14.2073
1047.36,-1.12113,-7.21491,0,1.79387,8.86876,-2.62015,2.43902,-28.4451,-47.3476,-8.67955,-0.60594,-1.8753,30.0915,8.9939,14.5427
1047.37,-1.26484,-7.43368,0,2.08846,8.69632,-2.55549,2.16463,-34.6037,-44.5122,-8.91905,-0.740061,-2.00703,30.8232,11.5854,14.7866
1047.38,-1.29327,-7.61503,0,2.63692,8.33467,-2.75906,1.89024,-34.1463,-41.311,-9.18969,-0.965193,-1.94476,31.6159,12.9878,14.0549
1047.39,-1.23416,-7.71482,0,2.91474,8.2245,-2.94827,1.37195,-33.2622,-36.4329,-9.63756,-1.21906,-1.71244,32.2256,12.0427,12.9268
1047.4,-1.12386,-7.80291,0,2.99856,8.38257,-2.89797,-0.121951,-34.2683,-31.4329,-10.2195,-1.64059,-1.78189,32.6524,9.78659,10.9146
1047.41,-0.999748,-7.85964,0,2.70637,8.40173,-2.92911,-1.64634,-30.9451,-26.0671,-10.6794,-1.66454,-1.7292,33.2012,7.56098,8.59756
1047.42,-0.87517,-7.84362,0,2.36149,8.62446,-3.35063,-1.95122,-27.6524,-20.5793,-10.9596,-1.30529,-1.42983,32.7744,4.81707,7.46951
1047.43,-0.721809,-7.5971,0,2.18426,8.93342,-3.58534,-1.58537,-32.1341,-14.1768,-11.4626,-0.941243,-0.538879,30.8232,-0.548781,7.40854
1047.44,-0.526624,-7.17834,0,2.20102,9.29507,-3.63564,1.37195,-35.6098,-8.75,-12.2338,-0.55325,0.627495,26.8598,-8.23171,6.89024
1047.45,-0.215353,-6.73856,0,2.94587,10.289,-4.31104,4.2378,-32.0122,-2.71341,-13.2612,-0.105381,0.893342,19.6646,-14.8171,4.96951
1047.46,0.135231,-6.4527,0,3.25483,11.4769,-4.39726,4.32927,-31.4024,2.80488,-13.9366,0.732876,0.0981958,11.4329,-15.4268,2.89634
1047.47,0.51428,-6.4323,0,3.2213,11.7811,-4.26313,3.5061,-23.6585,7.7439,-13.5414,1.69807,-1.42025,4.84756,-10.0915,1.58537
1047.48,0.922454,-6.55834,0,2.96982,11.4841,-3.90388,2.5,-16.311,13.1098,-12.6601,1.825,-2.14115,-0.121951,-2.28659,2.0122
1047.49,1.37597,-6.71766,0,2.73751,11.429,-2.98659,0.914634,-16.2195,20.6707,-12.1212,0.670605,-2.24413,-2.65244,2.0122,-0.0914634
1047.5,1.90671,-6.81168,0,2.71595,11.8027,-2.38783,-3.53659,-23.0488,30.5183,-11.7787,-0.704136,-1.87291,-2.77439,2.5,-3.53659
1047.51,2.55001,-6.82129,0,3.07042,12.1451,-2.08606,-10.3354,-30.5183,40.5793,-11.8697,-1.69807,-1.46336,-2.07317,0.670732,-7.0122
1047.52,3.343,-6.79172,0,3.80329,12.3727,-1.21906,-21.2805,-39.2988,51.25,-12.2338,-2.33514,-1.31966,1.4939,-0.0609756,-9.35976
1047.53,4.21516,-6.69684,0,3.93262,12.3224,-0.450264,-34.2378,-33.0793,59.6951,-12.4757,-2.62734,-0.998723,5.51829,-0.213415,-9.32927
1047.54,5.08957,-6.54461,0,3.11113,11.9895,-0.227527,-43.8415,-18.7195,68.1402,-12.7032,-2.50519,-0.699346,8.65854,0,-8.78049
1047.55,6.03584,-6.32513,0,2.8381,11.4506,0.117356,-49.1463,-14.9695,78.5366,-12.2098,-2.05253,-0.273032,11.7683,-1.06707,-7.22561
1047.56,7.02487,-5.91579,0,2.3088,11.3716,0.455054,-53.9939,-13.7805,89.8171,-11.1273,-1.76752,0.754431,15,-3.68902,-3.17073
1047.57,8.06336,-5.56116,0,1.69088,11.3141,1.01788,-60.5183,-22.4085,102.957,-10.5429,-0.783171,0.543669,17.7744,-4.84756,1.43293
1047.58,9.16646,-5.16877,0,1.33882,10.8518,1.02028,-63.9939,-34.7256,114.665,-9.64714,-0.383203,0.716111,20.7317,-5.70122,5.79268
1047.59,10.2969,-4.6698,0,0.771196,10.1405,-0.0215552,-62.439,-38.628,125.183,-9.26394,0.282612,1.1999,22.7134,-8.20122,9.08537
1047.6,11.5045,-4.12888,0,0.708926,9.72617,-0.447869,-57.8659,-40.2439,135.732,-8.6556,0.555645,1.36037,23.9024,-8.47561,10.1524
1047.61,12.7527,-3.59167,0,0.555645,9.92017,-0.862207,-55.7317,-53.9329,144.299,-8.29156,0.63947,1.36995,23.0183,-9.39024,10.6707
1047.62,14.0059,-3.06462,0,0.452659,10.1405,-1.22386,-51.7988,-62.622,148.689,-8.05206,0.723296,1.36995,20.6098,-8.90244,9.60366
1047.63,15.2246,-2.56947,0,0.488584,10.4854,-1.7292,-48.1402,-68.7805,147.5,-8.04487,0.723296,1.32924,15.6707,-9.39024,8.23171
1047.64,16.3811,-2.12455,0,0.65863,10.8327,-2.0669,-41.25,-74.2683,141.982,-8.16223,0.831072,1.23583,9.96951,-9.08537,6.64634
1047.65,17.4998,-1.77522,0,1.17595,11.2183,-2.4046,-32.7134,-77.3476,135.366,-8.39454,1.06578,0.977168,3.9939,-8.2622,5.67073
1047.66,18.592,-1.48281,0,1.61185,11.3117,-2.29443,-23.5671,-85.4268,130.61,-8.77775,1.2023,0.852627,-1.98171,-7.28659,5.7622
1047.67,19.6941,-1.29655,0,1.99266,10.9213,-2.27048,-14.4207,-95.8232,129.299,-9.10586,1.31247,0.488584,-6.79878,-4.87805,6.89024
1047.68,20.8224,-1.16343,0,2.47166,10.3177,-2.68482,-4.84756,-83.8719,127.835,-9.45554,1.31008,0.232317,-11.2805,-2.37805,8.65854
1047.69,21.9396,-1.07742,0,3.04886,10.3177,-2.87881,4.39024,-58.0183,122.896,-9.70941,1.1544,-0.0646655,-13.7805,-0.121951,10.6707
1047.7,23.0122,-1.11681,0,3.38416,10.1645,-2.80936,11.189,-26.6159,116.646,-9.82197,0.919688,-0.308958,-15.1829,1.64634,12.7744
1047.71,24.0624,-1.18741,0,3.80569,9.73575,-2.58423,18.75,5.79268,110.549,-9.78126,0.661025,-0.464634,-16.4939,2.95732,14.4512
1047.72,25.121,-1.28555,0,4.55293,9.54655,-2.92671,24.8171,38.689,105.091,-9.6663,0.435894,-0.60115,-17.0427,4.11585,14.939
1047.73,26.1094,-1.37359,0,4.30864,9.24478,-2.51717,28.9939,62.622,101.128,-9.51302,0.280217,-0.57241,-17.9268,4.93902,15.2744
1047.74,27.0412,-1.4713,0,4.09069,8.86876,-2.75188,34.4817,89.1768,97.8354,-9.3765,0.208367,-0.617915,-18.6585,5.06098,13.9024
1047.75,27.8685,-1.5447,0,3.70989,8.89031,-2.76864,38.7805,105.823,93.3841,-9.26633,0.249082,-0.526904,-19.5732,4.87805,12.8354
1047.76,28.5548,-1.60358,0,3.28118,8.99569,-2.86923,41.9512,117.226,86.0061,-9.1849,0.359253,-0.467029,-21.189,3.90244,12.1341
1047.77,29.0919,-1.68006,0,2.77822,9.19687,-2.95066,41.372,121.006,78.7805,-9.20406,0.452659,-0.531694,-23.3841,3.35366,11.189
1047.78,29.5092,-1.74371,0,2.41897,9.01964,-2.7878,40.7927,122.043,71.311,-9.30226,0.61073,-0.474214,-26.372,2.40854,10.6098
1047.79,29.7505,-1.81629,0,1.56395,8.98611,-2.15791,40.3049,117.439,64.6951,-9.37411,0.646655,-0.469424,-28.628,1.55488,10.3963
1047.8,29.9294,-1.91914,0,1.31726,8.95258,-2.12917,38.8415,118.354,61.8902,-9.34297,0.804727,-0.440684,-31.5244,0.426829,10.8841
1047.81,30.0066,-2.00544,0,0.895737,8.87834,-1.7795,39.7866,112.622,57.1951,-9.34776,0.725691,-0.455054,-35.061,-0.670732,11.0976
1047.82,29.983,-2.09672,0,0.421523,9.03401,-1.76992,39.0854,107.988,53.3841,-9.35016,0.62989,-0.534089,-37.7134,-1.28049,11.5244
1047.83,29.9118,-2.22451,0,0.198787,8.91426,-1.41785,39.0244,102.713,51.311,-9.38129,0.548459,-0.713716,-39.1768,-1.89024,11.311
1047.84,29.8068,-2.35269,0,0.174836,8.83762,-1.22146,39.1159,96.189,48.0183,-9.44596,0.428708,-0.785566,-40.2439,-2.2561,11.0366
1047.85,29.6244,-2.50161,0,-0.177231,8.6053,-0.902922,39.1463,84.2683,44.6341,-9.44596,0.325723,-0.890947,-41.5549,-2.40854,10.3049
1047.86,29.434,-2.69792,0,0.0119751,8.34904,-0.881367,38.8415,74.5427,40.8537,-9.42201,0.306563,-1.05141,-42.1646,-2.2561,9.81707
1047.87,29.18,-2.91741,0,-0.129331,8.16462,-0.735271,38.4146,59.2683,36.0061,-9.39806,0.198787,-1.08255,-42.9573,-1.85976,9.08537
1047.88,28.8763,-3.11244,0,-0.0981958,7.97781,-0.701741,36.4024,45.122,30,-9.42919,0.143701,-1.12326,-43.2927,-2.28659,8.35366
1047.89,28.5535,-3.38331,0,0.208367,7.95146,-0.64426,33.75,31.9207,22.9268,-9.42919,0.102986,-1.2502,-43.4146,-1.58537,7.83537
1047.9,28.2167,-3.75781,0,0.560435,7.90835,-0.550855,29.8171,22.8659,15.6402,-9.43159,0.0742456,-1.30289,-43.3232,-0.853659,6.82927
1047.91,27.8332,-4.35771,0,0.687371,7.75507,-0.373623,25.5488,15,8.29268,-9.41482,0.0455054,-1.41785,-43.3537,0.182927,5.70122
1047.92,21.3603,-4.73032,0,0.950823,7.60179,-0.318538,22.3476,9.29878,-0.152439,-9.40764,0.0383203,-1.48252,-43.6585,0.914634,4.84756
1047.93,21.0367,-5.04243,0,1.22146,7.40061,-0.210762,21.5244,4.90854,-8.44512,-9.31184,0.114961,-1.69567,-43.5366,1.92073,4.05488
1047.94,20.7139,-5.30734,0,1.70046,7.24733,-0.174836,21.9512,3.93293,-16.9512,-9.21125,0.172441,-1.7771,-43.2317,3.10976,3.20122
1047.95,20.3332,-5.56724,0,1.82979,7.36947,-0.0479004,23.6585,1.37195,-25.0305,-9.15856,0.246687,-1.87291,-42.4085,4.20732,2.86585
1047.96,19.9387,-5.82811,0,2.41178,7.69041,-0.153281,24.4207,4.69512,-34.2988,-9.13939,0.273032,-1.91123,-42.0427,4.11585,2.19512
1047.97,19.4851,-6.10352,0,2.54351,7.92991,-0.246687,24.6646,7.34756,-41.8902,-9.11784,0.265847,-1.94236,-41.372,3.29268,1.4939
1047.98,19.0722,-6.39562,0,3.23088,7.96823,0.102986,24.5427,12.0732,-47.4085,-9.09149,0.277822,-1.90165,-40.9756,2.43902,0.701219
1047.99,18.745,-6.78281,0,4.48348,8.13109,0.426313,24.6341,20.4573,-53.3841,-8.9454,0.251477,-2.08846,-40.2744,2.10366,-0.0609756
1048,18.5041,-7.09764,0,5.79355,8.23887,0.205972,22.439,30.3963,-57.9878,-8.7993,0.268242,-2.04535,-38.6585,2.80488,-0.670732
1048.01,18.3883,-7.43874,0,6.83299,7.98021,0.138911,16.0671,37.7744,-56.8598,-8.71308,0.277822,-2.13157,-36.7988,2.7439,-0.701219
1048.02,18.4154,-7.74117,0,7.68562,7.76465,-0.239502,14.0549,35.1829,-50.9451,-8.6101,0.265847,-2.19144,-34.2683,3.78049,0.213415
1048.03,18.5668,-8.02934,0,8.20294,7.67125,-1.42264,12.5305,25.6098,-42.7134,-8.58136,0.275427,-2.26329,-31.0671,5.09146,1.43293
1048.04,18.8352,-8.29839,0,8.49034,7.69759,-2.48124,13.9634,13.9634,-32.2866,-8.7059,0.217947,-2.28964,-27.9573,6.25,3.20122
1048.05,19.1861,-8.53205,0,8.61489,7.85806,-3.06802,17.1951,11.0976,-22.9573,-9.02922,0.136516,-2.27527,-26.0061,6.76829,3.93293
1048.06,19.5426,-8.67188,0,7.81495,8.12151,-2.83091,18.1707,10.7622,-14.0549,-9.47709,0.0311353,-2.01661,-24.9085,5.91463,4.26829
1048.07,19.9003,-8.7645,0,7.01501,8.19097,-2.32556,19.8171,5.18293,-6.46341,-9.86988,0.0191602,-1.90644,-24.5122,4.11585,3.71951
1048.08,20.3773,-8.81893,0,6.61504,8.42807,-1.73399,18.1707,-0.609756,-0.762195,-10.2603,0.208367,-1.79387,-25.6707,1.76829,3.32317
1048.09,20.7841,-8.74731,0,6.88329,8.58375,-1.27176,14.2073,-3.87195,2.89634,-10.5836,0.462239,-1.36756,-27.1646,-1.25,3.14024
1048.1,21.0934,-8.51955,0,6.78988,10.083,-1.43941,10.0915,-5.36585,4.63415,-11.1129,0.699346,-0.589175,-28.1098,-7.62195,3.68902
1048.11,21.0247,-8.25231,0,4.84512,14.3198,-1.88488,-3.93293,0.396341,-2.10366,-11.7595,0.613125,-0.378413,-25.7622,-14.5122,5.67073
1048.12,20.6389,-8.05597,0,2.64171,15.7856,0.754431,-6.70732,6.21951,-15.8537,-12.5739,-0.0502954,-0.742456,-18.4146,-17.1951,9.02439
1048.13,20.4086,-7.99523,0,3.70989,13.3331,1.30289,-1.46341,-5.73171,-13.1098,-13.4289,-1.55916,-1.55197,-9.5122,-14.2073,11.7683
1048.14,20.611,-7.92758,0,7.68322,11.1776,-0.673001,6.61585,-17.5915,-8.10976,-14.4994,-2.66805,-1.61185,-3.17073,-11.4024,12.9268
1048.15,20.9509,-7.9185,0,8.66039,9.74054,-3.4608,12.8963,4.60366,-8.23171,-14.2552,-3.59253,-1.93039,3.38415,-2.68293,12.7744
1048.16,21.1065,-7.8574,0,5.81511,8.24845,-4.84512,21.9512,54.1768,-13.1707,-13.1702,-2.97461,-1.46815,9.14634,3.41463,14.7561
1048.17,20.7473,-7.71443,0,1.83698,9.01964,-4.46671,21.8293,73.2622,-17.0732,-11.7476,-1.4897,-0.869392,8.84146,4.66463,18.9634
1048.18,19.9644,-7.45299,0,-1.13045,9.86748,-3.43925,18.3841,46.7683,-24.2073,-11.2686,-0.134121,-0.249082,9.05488,2.86585,24.9085
1048.19,18.8466,-7.14189,0,-2.91234,9.59684,-2.88839,16.6159,13.0488,-38.872,-11.5033,0.289797,0.0119751,6.28049,-2.10366,28.872
1048.2,17.52,-6.64686,0,-3.27639,9.02683,-2.96264,20.6402,-7.43902,-56.189,-11.5272,0.385598,0.55325,4.2378,0.27439,29.878
1048.21,16.2565,-6.21427,0,-1.86812,9.80281,-3.42967,22.8963,-13.6585,-71.1585,-12.775,1.5376,0.948428,-4.93902,-5.51829,26.9207
1048.22,15.0982,-5.78463,0,-0.514929,10.8087,-2.73272,23.9329,-8.84146,-79.4512,-12.502,1.98068,1.00591,-12.0122,-4.54268,22.5915
1048.23,14.0565,-5.28214,0,0.613125,10.8111,-1.91841,22.3476,-4.78659,-82.1037,-11.9128,2.08846,1.43462,-19.8476,-7.28659,18.4451
1048.24,13.1042,-4.68486,0,1.26697,10.1645,-1.53521,20.8841,1.61585,-82.9878,-10.8327,1.83219,1.86093,-27.9573,-10.6707,16.311
1048.25,12.1853,-4.03327,0,1.36995,9.45554,-1.50886,18.9634,6.95122,-83.8415,-9.96568,1.04423,2.06451,-34.5427,-13.2317,14.8171
1048.26,11.2942,-3.39018,0,1.24302,8.73703,-1.89446,17.9878,7.83537,-82.5915,-9.09149,0.0287402,1.95434,-39.6951,-15.0305,12.9878
1048.27,10.4145,-2.94426,0,0.898132,8.43526,-2.43573,16.3415,6.43293,-79.1159,-8.30593,-0.603545,1.13763,-40.5793,-14.4207,11.4024
1048.28,9.56178,-2.581,0,0.632285,8.55022,-2.81654,15.8232,5.21341,-74.3902,-8.11433,-0.883762,0.874182,-40.4573,-16.189,10.1524
1048.29,8.75421,-2.33265,0,0.411943,8.86157,-2.85726,15.6098,0.731707,-68.3232,-7.96823,-1.23344,0.502954,-33.811,-15.8841,10
1048.3,8.05073,-2.17567,0,0.699346,9.0891,-3.0297,13.3537,-4.48171,-62.8963,-8.0305,-1.71962,0.217947,-25.1829,-15.5488,9.96951
1048.31,7.46686,-2.11897,0,1.12566,8.80409,-3.21412,11.7378,-8.62805,-58.0183,-8.30114,-2.34712,-0.117356,-16.4939,-13.3537,9.14634
1048.32,6.9989,-2.12375,0,1.57592,8.43286,-3.21891,12.439,-7.62195,-54.1159,-8.62207,-2.7878,-0.344883,-7.0122,-10.2744,7.37805
1048.33,6.59258,-2.14781,0,1.75076,8.39454,-3.2692,14.1159,-6.43293,-51.2195,-8.87834,-2.94108,-0.428708,1.4939,-7.04268,4.78659
1048.34,6.19544,-2.13561,0,1.63819,8.59812,-3.19496,14.8476,-8.35366,-49.0854,-9.15137,-2.75667,-0.299377,9.26829,-3.93293,2.62195
1048.35,5.77383,-2.27269,0,1.30768,9.02922,-2.9794,14.0549,-15.7622,-47.1951,-9.4268,-2.42855,-0.603545,14.5122,-0.487805,1.61585
1048.36,5.37495,-2.34555,0,1.23583,9.39806,-2.9794,10.9146,-24.6037,-44.2073,-9.75491,-2.17468,-0.646655,19.5427,2.07317,0.396341
1048.37,4.99736,-2.39044,0,1.15919,9.43159,-2.57704,7.80488,-31.9207,-41.8598,-9.8579,-1.89207,-0.584385,22.6829,3.14024,-0.792683
1048.38,4.64333,-2.43461,0,1.09213,9.40045,-2.53633,5.54878,-37.7744,-39.4512,-9.92257,-1.61185,-0.598755,24.4207,3.90244,-1.46341
1048.39,4.32612,-2.48627,0,1.14482,9.39327,-2.58902,3.29268,-45.9146,-37.0732,-9.8603,-1.30289,-0.637075,25.5183,4.7561,-2.10366
1048.4,4.00529,-2.54637,0,0.859812,9.18969,-2.80217,1.79878,-51.7683,-34.8171,-9.74533,-1.16877,-0.675395,25.7317,5.42683,-2.43902
1048.41,3.66505,-2.58372,0,0.60594,8.94779,-2.95785,0.670732,-59.1768,-34.4512,-9.7597,-0.946033,-0.589175,25.4573,5.42683,-2.53049
1048.42,3.33907,-2.59622,0,0.61552,9.01964,-2.9339,-1.25,-68.5976,-33.75,-9.79323,-0.752036,-0.490979,24.9695,4.32927,-2.89634
1048.43,3.06259,-2.63358,0,0.950823,9.10347,-3.14706,-2.2561,-74.2683,-33.5671,-9.7621,-0.62989,-0.593965,24.2988,3.84146,-2.68293
1048.44,2.84111,-2.69045,0,1.30768,9.21364,-3.43446,-3.38415,-77.3476,-32.8354,-9.73575,-0.531694,-0.673001,24.3293,3.32317,-3.17073
1048.45,2.69687,-2.72393,0,1.89925,9.14418,-3.59732,-5.09146,-72.1341,-32.8659,-9.69264,-0.423918,-0.5772,24.2073,2.62195,-3.01829
1048.46,2.62597,-2.80118,0,2.43813,8.86636,-3.62127,-5.42683,-65.3963,-33.1098,-9.616,-0.359253,-0.687371,23.9939,1.70732,-3.23171
1048.47,2.58639,-2.90723,0,2.79499,8.77775,-3.53984,-5.15244,-54.0244,-34.7256,-9.45793,-0.445474,-0.756826,23.9329,1.67683,-3.20122
1048.48,2.58623,-3.04701,0,3.18777,8.68913,-3.51828,-4.54268,-36.25,-35.8537,-9.34537,-0.505349,-0.785566,23.9634,1.25,-3.44512
1048.49,2.52622,-3.21684,0,2.76146,8.64123,-2.9818,-3.84146,-27.9573,-37.0122,-9.27591,-0.505349,-0.847837,23.9329,1.18902,-3.5061
1048.5,2.45213,-3.42721,0,2.70398,8.64123,-3.1255,-2.89634,-12.8963,-37.8659,-9.25915,-0.60594,-0.912502,23.872,0.97561,-3.81098
1048.51,2.24314,-3.64963,0,1.72202,8.96695,-2.76864,-2.37805,-10.5488,-38.5061,-9.2352,-0.66342,-0.929268,23.5366,0.823171,-3.81098
1048.52,1.99028,-3.97553,0,1.31966,8.97653,-2.43334,-3.71951,-6.12805,-38.2927,-9.22083,-0.764011,-1.02028,23.4146,0.426829,-3.5061
1048.53,1.7188,-4.33292,0,1.02028,9.06994,-2.41418,-2.71341,-9.48171,-36.7378,-9.15616,-0.814307,-1.152,24.0854,0.609756,-2.80488
1048.54,1.41959,-4.71642,0,0.792751,9.20166,-2.49322,-2.04268,-11.5244,-37.0732,-9.05796,-0.811912,-1.19272,24.8171,0.579268,-2.22561
1048.55,1.13126,-5.02964,0,0.855022,9.21125,-2.53154,-2.62195,-13.0793,-37.3476,-8.95019,-0.744851,-1.28613,25.7622,1.15854,-0.762195
1048.56,0.848278,-5.22458,0,0.821492,9.2807,-2.43573,-2.95732,-15.3963,-36.8902,-8.82325,-0.752036,-1.33642,26.9512,2.53049,0.97561
1048.57,0.559102,-5.4241,0,0.692161,9.17053,-2.41657,-3.87195,-18.2927,-36.5854,-8.73224,-0.754431,-1.41546,28.2927,2.95732,2.80488
1048.58,0.260484,-5.6506,0,0.56283,9.17532,-2.23216,-3.68902,-21.0976,-36.4939,-8.72506,-0.766406,-1.64538,30.3963,4.05488,4.48171
1048.59,-0.0265415,-5.88357,0,0.63947,9.2831,-2.26329,-3.9939,-21.2195,-36.7988,-8.66997,-0.785566,-1.74118,32.7134,5.2439,6.15854
1048.6,-0.323846,-6.13543,0,0.490979,9.12502,-2.00224,-4.35976,-25.6707,-36.6768,-8.63884,-0.797541,-1.85614,34.9085,5.88415,7.71341
1048.61,-0.543084,-6.39335,0,1.14721,9.14658,-2.31359,-4.39024,-28.0793,-37.622,-8.53106,-0.869392,-1.90404,37.2256,7.0122,9.17683
1048.62,-0.804859,-6.6004,0,0.831072,9.25436,-2.35191,-4.60366,-27.1951,-38.2927,-8.4616,-0.771196,-1.7316,38.811,7.37805,10.6402
1048.63,-1.03832,-6.74449,0,1.1065,9.30944,-2.62734,-4.45122,-26.9512,-39.2988,-8.3179,-0.696951,-1.49449,39.2683,7.40854,12.5915
1048.64,-1.26541,-6.86598,0,1.21188,9.36692,-2.57704,-3.41463,-30.2134,-40.3354,-8.10475,-0.570015,-1.3939,38.6585,7.43902,14.3293
1048.65,-1.39589,-6.96622,0,2.08367,9.41243,-3.00575,-1.31098,-20.4573,-41.372,-7.85566,-0.469424,-1.29331,38.0183,8.65854,16.5244
1048.66,-1.50674,-7.22356,0,2.34951,9.14418,-2.72793,1.03659,-16.4939,-43.5671,-7.63053,-0.368833,-1.81782,37.1646,13.0793,18.5366
1048.67,-1.58372,-7.5835,0,2.73511,8.5574,-2.76385,4.48171,-6.43293,-47.1037,-7.58982,-0.356858,-2.20821,37.1646,18.4146,20.3963
1048.68,-1.66879,-7.88026,0,2.6944,8.10954,-2.39741,7.59146,-6.64634,-49.4207,-7.8844,-0.354463,-2.10762,36.311,22.5,21.3415
1048.69,-1.7236,-8.10707,0,2.95545,8.1263,-2.41897,8.90244,-5.21341,-49.7866,-8.38496,-0.411943,-2.01182,34.5732,23.3537,21.372
1048.7,-1.71154,-8.25784,0,3.33147,8.03769,-2.66326,8.53659,-5.12195,-48.2317,-9.14897,-0.560435,-1.91123,32.2561,23.2317,20.3963
1048.71,-1.70961,-8.35894,0,2.96743,7.97062,-2.45969,7.04268,-8.32317,-44.9695,-9.87946,-0.589175,-1.86812,30.3963,20.8841,17.8659
1048.72,-1.68895,-8.43324,0,2.71835,7.99697,-2.46687,5.03049,-9.81707,-39.6951,-10.4567,-0.627495,-1.87051,29.7561,18.811,16.2195
1048.73,-1.66413,-8.51287,0,2.33993,8.1766,-2.70877,3.29268,-4.84756,-33.5061,-10.8375,-0.608335,-1.98068,29.3598,17.561,14.3598
1048.74,-1.63272,-8.49428,0,1.99745,8.50471,-3.23088,2.16463,-11.2195,-27.1646,-11.1033,-0.673001,-1.55437,29.3598,15.0305,13.9939
1048.75,-1.6531,-8.33978,0,1.21906,9.05078,-2.9339,1.58537,-20.3963,-21.0671,-11.4027,-0.680186,-0.905317,28.2927,10.7622,13.6585
1048.76,-1.51761,-7.96145,0,2.08846,9.84353,-3.69791,2.07317,-22.1646,-13.9939,-11.9823,-0.395178,0.253872,26.0366,4.54268,13.7805
1048.77,-1.27477,-7.48898,0,2.65847,10.3872,-3.76258,3.65854,-29.939,-7.62195,-13.2157,0.00239502,0.888552,19.5732,-1.89024,12.1341
1048.78,-0.851097,-7.13444,0,3.98292,10.9812,-4.35415,4.78659,-28.5061,-1.46341,-14.3725,0.898132,0.361648,12.0732,-3.75,9.08537
1048.79,-0.386255,-6.95466,0,4.16494,11.4602,-4.35654,5.33537,-33.1707,4.90854,-14.8898,2.00703,-0.682581,4.63415,0.396341,6.70732
1048.8,0.183134,-6.87193,0,4.70621,11.5943,-4.33259,3.14024,-27.0427,12.2256,-14.6791,2.42376,-1.24062,-2.65244,6.98171,4.17683
1048.81,0.852252,-6.75599,0,5.01996,11.7907,-3.8488,-1.61585,-15.4268,21.5854,-14.2216,1.58311,-0.967588,-7.56098,10.5183,-0.0609756
1048.82,1.59694,-6.68238,0,4.99362,12.0613,-2.82133,-11.6463,-2.92683,31.8293,-13.4935,-0.00958008,-1.14242,-10.2439,11.6768,-6.4939
1048.83,2.40017,-6.62675,0,4.49785,12.6289,-1.64059,-22.9268,4.7561,45.2134,-12.7798,-1.4897,-1.16877,-9.35976,10.5183,-13.2622
1048.84,3.26689,-6.53785,0,3.89909,13.2133,-0.57241,-35.2134,6.18902,59.7866,-12.2745,-2.4501,-0.931663,-5.70122,8.35366,-17.561
1048.85,4.22048,-6.43933,0,3.40332,13.4385,0.431104,-46.8902,2.46951,74.9695,-12.023,-2.89079,-0.845442,2.22561,5.79268,-17.2256
1048.86,5.274,-6.32133,0,3.05125,13.2421,0.799937,-55.8232,-6.09756,89.6341,-11.7739,-2.63213,-0.708926,10.6098,4.35976,-12.8049
1048.87,6.44127,-5.97623,0,2.80217,12.6697,1.16398,-62.7439,-18.0183,104.421,-11.7572,-1.97829,0.457449,17.2561,-2.59146,-6.76829
1048.88,7.72166,-5.69615,0,2.72793,11.4697,0.905317,-66.7073,-26.4024,116.494,-10.9572,-1.70765,0.172441,25.1524,-3.04878,-0.945122
1048.89,9.04391,-5.31706,0,2.00463,10.5022,0.522114,-66.4024,-30.0915,128.628,-10.0303,-1.2023,0.62989,32.0122,-3.93293,4.96951
1048.9,10.361,-4.83715,0,1.11847,10.277,0.198787,-65.061,-34.0549,140.183,-9.42919,-0.546064,1.07776,34.3902,-4.81707,7.65244
1048.91,11.6689,-4.28403,0,0.411943,10.404,-0.320933,-64.2988,-37.0732,149.97,-8.5598,-0.198787,1.36756,31.8902,-9.7561,10.122
1048.92,12.9552,0.91281,0,-0.00958008,10.5596,-0.555645,-63.75,-41.189,155.183,-7.55389,-0.251477,0.689766,31.9817,-0.182927,9.20732
1048.93,14.2371,1.35415,0,0.0670605,10.9452,-0.912502,-61.128,-47.1646,156.524,-8.19576,1.25499,1.74118,24.1159,-8.20122,8.10976
1048.94,15.4609,1.7925,0,0.359253,11.4817,-1.49689,-55.7317,-54.4512,150.274,-8.2221,1.70046,1.79866,14.7866,-7.34756,6.76829
1048.95,16.5773,2.11939,0,0.6251,12.2529,-2.06451,-47.0732,-68.7805,139.512,-8.24126,2.05493,1.45138,4.5122,-7.89634,5.21341
1048.96,17.6805,2.3183,0,1.30529,12.3439,-2.66566,-39.4817,-91.9817,134.085,-8.63884,2.28724,1.07297,-5.70122,-6.61585,4.17683
1048.97,18.762,2.45237,0,1.28852,11.4147,-3.42248,-32.5,-105.305,133.293,-8.98372,2.33754,0.881367,-15,-4.93902,3.87195
1048.98,19.8571,2.46798,0,1.45138,10.6986,-3.45841,-21.3415,-101.585,134.268,-9.20885,2.26329,0.447869,-23.3537,-2.9878,4.39024
1048.99,20.9603,2.37975,0,1.81303,10.4854,-3.57576,-10.3963,-90.3049,133.079,-9.38848,2.00703,0.129331,-29.2378,-1.98171,6.12805
1049,22.0507,2.04943,0,2.36149,10.2148,-3.57097,-2.5,-69.2073,127.47,-9.66151,1.5879,-0.318538,-32.4695,-0.731707,8.71951
1049.01,23.0896,1.55099,0,2.62255,9.7142,-3.2716,4.14634,-44.1768,120.183,-9.82916,1.12805,-0.65384,-33.0488,0.426829,11.5549
1049.02,24.1165,1.15028,0,3.21412,9.56331,-3.19975,9.84756,-11.8293,113.994,-9.93454,0.694556,-0.905317,-32.0427,1.18902,13.2317
1049.03,25.1175,0.791978,0,3.58055,9.15616,-2.63452,13.689,21.128,107.774,-9.88664,0.299377,-0.991538,-30.3659,1.70732,14.2378
1049.04,26.1032,0.46114,0,3.95657,8.6077,-2.45729,19.1768,55.4268,101.463,-9.64714,-0.00958008,-0.953218,-28.5061,2.0122,13.75
1049.05,27.002,0.0790694,0,3.72426,8.24366,-2.26329,25.5183,79.3293,95.3659,-9.4268,-0.0598755,-0.857417,-27.7744,1.37195,12.8659
1049.06,27.7872,-0.406852,0,3.45362,8.0784,-2.44052,31.4024,104.207,87.9878,-9.20885,0.00958008,-0.759221,-28.4756,0.792683,11.5549
1049.07,28.4121,-1.17781,0,2.99856,7.90356,-2.56028,38.1402,116.524,78.0793,-9.00767,0.165256,-0.708926,-29.4207,0.0914634,11.0366
1049.08,28.8352,-1.47673,0,2.43813,8.1263,-2.70158,41.0976,121.311,67.0732,-8.96456,0.275427,-0.646655,-30.8841,-1.03659,10.9756
1049.09,29.0948,-1.65311,0,2.19144,8.35383,-2.95066,40.9756,127.622,55.3354,-8.98851,0.526904,-0.637075,-32.3476,-1.76829,10.7622
1049.1,29.1878,-1.7591,0,1.60227,8.37778,-2.50759,40.122,128.506,46.7683,-9.12263,0.66342,-0.584385,-34.7866,-2.40854,11.128
1049.11,29.1804,-1.87951,0,1.41785,8.57896,-2.39023,35.8232,131.098,39.6646,-9.24957,0.807122,-0.711321,-37.439,-3.01829,10.9451
1049.12,28.9924,-2.05012,0,0.589175,8.4137,-2.10522,34.9695,127.896,32.1951,-9.35495,0.907712,-0.917292,-39.7256,-2.86585,10.5488
1049.13,28.642,-2.23166,0,-0.222737,8.18618,-1.84417,35.2744,123.841,26.5854,-9.40764,0.996328,-0.996328,-41.189,-2.86585,9.54268
1049.14,28.189,-2.42838,0,-0.64905,7.88919,-1.54239,36.6159,118.72,21.8293,-9.48188,0.962798,-1.09213,-41.8598,-2.80488,8.75
1049.15,27.6227,-2.64571,0,-1.22864,7.73112,-1.26218,39.6037,107.409,18.1707,-9.50344,0.831072,-1.20948,-42.5305,-2.83537,7.22561
1049.16,27.0021,-2.88771,0,-1.37474,7.61616,-1.02507,43.4146,96.2805,13.9329,-9.50583,0.63468,-1.346,-42.4695,-2.89634,5.30488
1049.17,26.3564,-3.13379,0,-1.26218,7.61616,-1.00112,45.2744,83.689,8.62805,-9.48907,0.428708,-1.37953,-42.0122,-2.7439,2.77439
1049.18,25.2181,-3.45427,0,-1.23104,7.62814,-0.821492,43.8415,68.4756,3.17073,-9.40524,0.268242,-1.49689,-41.2195,-1.95122,0.579268
1049.19,23.2896,-3.89321,0,-0.965193,7.47725,-0.565225,40.2744,54.8171,-2.28659,-9.35495,0.158071,-1.63101,-40.1829,-1.31098,-1.21951
1049.2,22.5913,-4.60066,0,-0.934058,7.3599,-0.306563,36.6159,37.8049,-8.75,-9.25196,0.150886,-1.75315,-39.2683,-0.579268,-2.31707
1049.21,21.8244,-5.27533,0,-0.955613,7.05333,-0.505349,35.7927,16.8902,-16.4024,-9.17053,0.112566,-1.79387,-38.3841,0.640244,-3.17073
1049.22,20.9843,-5.64574,0,-0.898132,7.31199,-0.766406,36.9817,-6.92073,-26.8902,-9.0867,0.165256,-1.91841,-37.4085,2.10366,-3.71951
1049.23,20.1251,-5.95298,0,-0.598755,7.81734,-0.696951,32.1951,-20.3049,-35.9146,-9.01964,0.227527,-1.99505,-36.7683,3.2622,-3.93293
1049.24,19.2955,-6.2528,0,0.0407153,8.32509,-0.0119751,25.8537,-31.4939,-44.1463,-8.95977,0.270637,-2.10762,-36.2805,4.60366,-3.71951
1049.25,18.5603,-6.52314,0,1.12087,8.67237,0.450264,22.5,-38.2927,-50.6707,-8.94779,0.299377,-2.05972,-35.7927,5.64024,-3.90244
1049.26,17.9342,-6.77483,0,2.43334,8.90708,1.01309,26.6159,-51.189,-57.1951,-8.8951,0.244292,-2.019,-35.5183,6.0061,-4.81707
1049.27,17.4722,-7.03134,0,4.58646,9.12023,0.799937,29.878,-52.8049,-65.0305,-8.85918,0.134121,-2.07409,-34.7561,6.37195,-5.82317
1049.28,17.1273,-7.30354,0,6.4426,9.19927,0.637075,26.2805,-40.2744,-70.9756,-8.76098,0.0359253,-2.16031,-34.0244,7.53049,-7.16463
1049.29,16.9732,-7.59118,0,8.26282,8.84481,0.320933,20.8841,-26.311,-68.6281,-8.57417,0.0790356,-2.22018,-32.5305,9.54268,-7.59146
1049.3,17.0499,-7.90899,0,10.0423,8.40412,-0.0598755,17.1341,-13.7805,-59.7256,-8.40173,0.256267,-2.33993,-29.7866,10.6707,-6.70732
1049.31,17.3613,-8.22174,0,11.4721,7.77423,-1.35319,18.2927,2.07317,-47.4695,-8.45202,0.445474,-2.38304,-26.189,12.2256,-4.26829
1049.32,17.8472,-8.52091,0,11.6781,7.33115,-3.03209,23.5366,9.87805,-33.1098,-8.65081,0.421523,-2.43334,-21.8293,13.3841,-0.670732
1049.33,18.4142,-8.75607,0,10.986,7.53234,-3.89909,26.2805,14.0854,-19.1159,-9.12742,0.148491,-2.34233,-17.9268,13.3537,1.46341
1049.34,18.9663,-8.95643,0,9.41722,7.8365,-3.95418,33.4451,19.5122,-8.59756,-9.60163,-0.150886,-2.34951,-15.2439,13.2927,1.79878
1049.35,19.3955,-9.0871,0,7.31918,8.22689,-3.62366,39.2988,23.4451,-3.17073,-9.9537,-0.122146,-2.15073,-13.6585,12.8049,0.640244
1049.36,19.7757,-9.1594,0,6.20789,8.50711,-2.94348,36.6463,26.7378,2.19512,-10.119,0.112566,-1.93997,-14.6646,12.1341,-0.487805
1049.37,20.1099,-9.14923,0,5.60914,8.32748,-1.82021,30.3963,27.2866,4.84756,-10.2243,0.58199,-1.59269,-17.561,9.78659,-1.37195
1049.38,20.3079,-9.03071,0,4.50024,8.53824,-1.35798,20.6707,27.7134,3.32317,-10.4519,1.01309,-1.12326,-21.4329,5.97561,-1.37195
1049.39,20.199,-8.84879,0,3.1255,10.3106,-1.59987,15.1524,29.2378,-3.9939,-10.8183,1.09931,-0.941243,-23.9939,1.58537,-1.0061
1049.4,19.6329,-8.63657,0,1.11608,15.2898,-0.718506,3.01829,32.7439,-25.061,-11.3189,0.641865,-0.720901,-23.872,-2.7439,0.426829
1049.41,18.9029,-8.45746,0,1.12805,17.2226,2.68242,-10.6402,29.1159,-42.0732,-12.2266,-0.0407153,-0.886157,-20.1829,-6.09756,3.17073
1049.42,18.6261,-8.38138,0,5.53489,15.3042,3.0273,-14.9085,8.9939,-30.2439,-13.6181,-1.24541,-1.56634,-13.3841,-4.96951,6.61585
1049.43,18.9138,-8.28868,0,11.0243,12.7199,-0.443079,-2.0122,6.70732,-16.128,-14.8587,-2.77104,-1.57592,-4.78659,-2.31707,10.1524
1049.44,19.35,-8.21527,0,10.2076,10.0256,-4.04519,9.81707,49.2683,-9.78659,-15.0671,-3.47278,-1.69807,0,1.46341,11.189
1049.45,19.2776,-8.16553,0,3.24765,8.943,-5.30018,16.128,100,-8.62805,-13.7139,-3.81766,-1.66693,7.19512,5.88415,13.628
1049.46,18.5748,-7.96488,0,-2.15791,9.53697,-4.29906,17.0732,98.1402,-6.25,-11.8841,-2.18905,-0.637075,8.53659,6.40244,18.5061
1049.47,17.5313,-7.65916,0,-5.36005,9.61361,-3.33387,12.2561,55.8841,-9.08537,-10.7417,-0.740061,-0.0431104,9.26829,5.97561,23.689
1049.48,16.1786,-7.27301,0,-7.10842,8.55501,-2.32077,11.0061,3.20122,-21.189,-10.9404,0.58199,0.340093,7.56098,2.89634,24.939
1049.49,14.6748,-6.94899,0,-6.81383,8.1742,-2.46927,16.6463,-36.5854,-39.1768,-10.4375,2.80936,0.172441,3.20122,7.92683,26.5549
1049.5,13.3271,-6.35067,0,-4.45713,9.01246,-3.16861,17.4085,-58.3537,-53.872,-11.6757,1.44899,1.65975,-0.0914634,-4.35976,22.8963
1049.51,12.2861,-5.79592,0,-1.59269,10.0974,-3.11113,15.122,-63.4756,-60.7317,-11.8146,2.23455,1.58071,-8.17073,-5.64024,17.2256
1049.52,11.5482,-5.21034,0,1.35319,10.5596,-2.92192,12.9573,-58.0183,-65.1219,-11.3428,2.18426,1.78429,-15.7927,-10.3963,10.5488
1049.53,11.031,-4.60302,0,3.58055,10.3896,-2.89558,10.8232,-37.9268,-68.0183,-10.1693,1.5879,1.80584,-23.9024,-11.4024,6.46341
