time,angle1,angle2,intgangle,accX1,accY1,accZ1,gyroX1,gyroY1,gyroZ1,accX2,accY2,accZ2,gyroX2,gyroY2,gyroZ2
826.984,88.9256,-4.87205,0,9.12742,0.134121,-3.33147,-0.121951,0.152439,-0.792683,-9.91538,-0.423918,-0.826282,0.0304878,-0.579268,5.57927
826.994,88.9292,-4.87739,0,9.14418,0.131726,-3.33626,0.0914634,0.487805,-0.701219,-9.87467,-0.423918,-0.855022,-0.0304878,-0.731707,5.73171
827.003,88.927,-4.85474,0,9.11544,0.148491,-3.39374,-0.121951,0.27439,-0.792683,-9.88425,-0.450264,-0.795146,-0.304878,-0.518293,5.94512
827.014,88.9227,-4.85421,0,9.11784,0.162861,-3.38177,0.213415,0.731707,-0.670732,-9.9058,-0.452659,-0.840652,-0.0914634,-0.609756,5.79268
827.023,88.922,-4.85517,0,9.12981,0.155676,-3.37458,0.213415,1.09756,-0.548781,-9.89862,-0.479004,-0.843047,-0.0914634,-0.457317,6.06707
827.034,88.9262,-4.84023,0,9.12023,0.136516,-3.37698,0.365854,0.914634,-0.579268,-9.88904,-0.517324,-0.809517,0.335366,-0.426829,5.79268
827.044,88.9232,-4.82738,0,9.13939,0.155676,-3.38895,0.304878,0.518293,-0.731707,-9.89862,-0.498164,-0.809517,0.0609756,-0.609756,5.70122
827.054,88.9106,-4.8093,0,9.15856,0.177231,-3.32429,0.27439,0.731707,-1.18902,-9.88904,-0.502954,-0.799937,0.152439,-0.335366,5.64024
827.064,88.9105,-4.79568,0,9.16334,0.136516,-3.38177,0.396341,0.518293,-0.914634,-9.91059,-0.490979,-0.802332,0.27439,-0.670732,5.97561
827.074,88.8987,-4.78313,0,9.17053,0.191602,-3.34584,0.426829,0.304878,-0.792683,-9.9082,-0.476609,-0.802332,0.27439,-0.670732,5.79268
827.083,88.8915,-4.76372,0,9.16813,0.167651,-3.36979,0.365854,0.335366,-0.945122,-9.90341,-0.443079,-0.780776,0,-0.823171,5.67073
827.094,88.8846,-4.74908,0,9.1346,0.179626,-3.31231,0.304878,0.304878,-0.640244,-9.89143,-0.452659,-0.790356,-0.0914634,-0.701219,5.60976
827.104,88.887,-4.72628,0,9.15376,0.146096,-3.33387,0.0609756,0.213415,-0.640244,-9.9082,-0.510139,-0.775986,0.0914634,-0.426829,5.42683
827.114,88.8867,-4.72974,0,9.16574,0.160466,-3.29555,0.152439,0.243902,-0.548781,-9.89622,-0.500559,-0.826282,-0.0304878,-0.548781,5.57927
827.124,88.8882,-4.74231,0,9.16334,0.158071,-3.32908,0,0.121951,-0.457317,-9.86509,-0.512534,-0.843047,0.0609756,-0.487805,5.36585
827.134,88.8809,-4.75932,0,9.11784,0.186812,-3.33387,-0.213415,0.182927,-0.457317,-9.84593,-0.495769,-0.850232,-0.0914634,-0.365854,5.42683
827.144,88.8911,-4.75304,0,9.11544,0.131726,-3.32189,-0.0609756,0.121951,-0.426829,-9.91299,-0.541274,-0.814307,-0.213415,-0.121951,5.79268
827.154,88.8898,-4.72786,0,9.12742,0.165256,-3.32908,-0.304878,-0.304878,-0.487805,-9.92975,-0.524509,-0.773591,0.121951,-0.396341,6.12805
827.164,88.892,-4.71459,0,9.137,0.146096,-3.3195,-0.182927,-0.304878,-0.640244,-9.91778,-0.524509,-0.792751,0.121951,-0.426829,5.7622
827.174,88.8992,-4.69585,0,9.15137,0.141306,-3.34105,-0.304878,-0.243902,-0.396341,-9.89622,-0.488584,-0.775986,0.213415,-0.518293,5.79268
827.184,88.9082,-4.71351,0,9.14658,0.134121,-3.33387,0.182927,-0.182927,-0.396341,-9.88185,-0.488584,-0.850232,0.213415,-0.518293,5.79268
827.194,88.912,-4.70345,0,9.12742,0.143701,-3.29555,-0.243902,-0.0609756,-0.518293,-9.85311,-0.495769,-0.787961,0.182927,-0.884146,6.21951
827.204,88.9221,-4.6984,0,9.12263,0.134121,-3.29794,-0.243902,0.0304878,-0.304878,-9.84114,-0.488584,-0.799937,0.213415,-0.426829,6.09756
827.213,88.9237,-4.67682,0,9.12981,0.138911,-3.28836,-0.152439,-0.182927,-0.731707,-9.85311,-0.483794,-0.764011,0.152439,-0.548781,5.94512
827.224,88.9304,-4.7051,0,9.12981,0.138911,-3.37219,-0.27439,-0.0914634,-0.365854,-9.86988,-0.464634,-0.864602,0.213415,-0.396341,6.03659
827.234,88.9247,-4.7279,0,9.13939,0.170046,-3.31231,-0.152439,0,-0.609756,-9.86509,-0.469424,-0.850232,0.121951,0.0914634,5.88415
827.243,88.9209,-4.69368,0,9.14418,0.167651,-3.30752,-0.121951,0.0609756,-0.518293,-9.85311,-0.464634,-0.759221,0.243902,-0.0609756,5.91463
827.254,88.9135,-4.63225,0,9.12981,0.172441,-3.40332,-0.304878,0.0914634,-0.762195,-9.87706,-0.476609,-0.711321,0.27439,-0.0304878,5.88415
827.264,88.915,-4.60529,0,9.13939,0.146096,-3.36979,-0.182927,0.0609756,-0.609756,-9.88425,-0.462239,-0.754431,0.152439,-0.121951,5.97561
827.273,88.9173,-4.60023,0,9.15137,0.150886,-3.32429,-0.213415,0.0304878,-0.457317,-9.8579,-0.483794,-0.785566,0.27439,-0.121951,5.85366
827.284,88.908,-4.57342,0,9.12263,0.184417,-3.38177,-0.182927,-0.0609756,-0.640244,-9.87946,-0.486189,-0.747246,0.0304878,-0.182927,5.97561
827.294,88.8949,-4.54268,0,9.15137,0.203577,-3.38177,-0.0304878,0.243902,-0.487805,-9.91778,-0.495769,-0.740061,0.121951,-0.0914634,6.0061
827.303,88.8934,-4.56559,0,9.12742,0.160466,-3.32429,-0.121951,0.304878,-0.609756,-9.89383,-0.481399,-0.823887,0.0609756,0.0304878,5.85366
827.313,88.8877,-4.56778,0,9.14179,0.167651,-3.35542,-0.0609756,-0.0609756,-0.823171,-9.93694,-0.481399,-0.797541,0.121951,-0.121951,5.88415
827.324,88.8808,-4.55065,0,9.13221,0.182021,-3.33387,-0.152439,0.213415,-0.579268,-9.9537,-0.495769,-0.761616,0,-0.27439,5.85366
827.334,88.8812,-4.54176,0,9.16813,0.165256,-3.33147,-0.152439,0.304878,-0.396341,-9.93454,-0.443079,-0.773591,0.0914634,-0.27439,5.82317
827.344,88.8799,-4.52293,0,9.17772,0.177231,-3.36261,0,0.243902,-0.213415,-9.92257,-0.467029,-0.752036,-0.0609756,-0.27439,5.94512
827.354,88.8809,-4.51103,0,9.14179,0.160466,-3.37937,-0.365854,-0.0304878,-0.457317,-9.93454,-0.464634,-0.759221,0.0609756,-0.579268,5.7622
827.364,88.8865,-4.51787,0,9.13221,0.150886,-3.35063,0.121951,0.0304878,-0.335366,-9.91059,-0.464634,-0.797541,-0.0304878,-0.548781,5.51829
827.374,88.8944,-4.50478,0,9.14179,0.146096,-3.30752,-0.152439,0,-0.27439,-9.88904,-0.505349,-0.754431,-0.213415,-0.457317,5.85366
827.383,88.9,-4.53929,0,9.12263,0.141306,-3.34345,0,-0.121951,-0.487805,-9.90101,-0.500559,-0.843047,-0.0304878,-0.182927,5.97561
827.393,88.9094,-4.54201,0,9.1346,0.136516,-3.30273,0.152439,-0.457317,-0.335366,-9.88185,-0.510139,-0.790356,0.0304878,-0.396341,5.91463
827.404,88.9117,-4.53945,0,9.15137,0.148491,-3.38177,0.213415,-0.396341,-0.518293,-9.88664,-0.493374,-0.780776,0.152439,-0.27439,5.7622
827.414,88.9041,-4.5482,0,9.14418,0.186812,-3.3195,-0.182927,-0.121951,-0.365854,-9.89383,-0.483794,-0.807122,0.243902,-0.731707,6.34146
827.424,88.9095,-4.56923,0,9.15616,0.150886,-3.34105,-0.243902,0.0609756,-0.27439,-9.87706,-0.488584,-0.833467,0.335366,-0.609756,5.91463
827.434,88.9207,-4.59733,0,9.137,0.119751,-3.31471,0.0304878,0.0609756,-0.487805,-9.88425,-0.488584,-0.840652,0.182927,-0.182927,5.67073
827.444,88.925,-4.60413,0,9.15376,0.146096,-3.365,0.182927,0,-0.396341,-9.88904,-0.510139,-0.807122,0.0914634,-0.121951,5.85366
827.454,88.9249,-4.62798,0,9.15137,0.153281,-3.32189,0.182927,0.182927,-0.548781,-9.89143,-0.474214,-0.838257,-0.0304878,-0.121951,5.97561
827.463,88.9284,-4.64041,0,9.137,0.138911,-3.34584,-0.213415,-0.182927,-0.579268,-9.88425,-0.483794,-0.823887,0.152439,-0.27439,5.54878
827.474,88.9319,-4.64964,0,9.13221,0.124541,-3.3171,-0.0609756,-0.152439,-0.823171,-9.87467,-0.455054,-0.819097,0.243902,-0.27439,5.85366
827.483,88.9346,-4.64758,0,9.12023,0.138911,-3.3674,-0.121951,0.182927,-0.609756,-9.87706,-0.490979,-0.799937,-0.213415,-0.0609756,5.7622
827.494,88.9361,-4.67919,0,9.15137,0.136516,-3.34824,0.182927,0.335366,-0.731707,-9.90101,-0.457449,-0.857417,-0.0914634,0.0304878,5.60976
827.504,88.937,-4.69264,0,9.18729,0.143701,-3.33866,0.121951,0.243902,-0.640244,-9.87467,-0.479004,-0.831072,-0.182927,-0.0914634,5.60976
827.514,88.9352,-4.70359,0,9.15137,0.153281,-3.365,0,0,-0.640244,-9.89622,-0.474214,-0.831072,-0.0304878,0.0914634,6.03659
827.523,88.9264,-4.70941,0,9.13939,0.170046,-3.37937,0.182927,0.426829,-0.914634,-9.89143,-0.488584,-0.823887,0.152439,-0.0914634,5.94512
827.534,88.9209,-4.71911,0,9.137,0.165256,-3.33866,-0.182927,0.396341,-0.731707,-9.91538,-0.488584,-0.833467,0.304878,-0.0609756,5.94512
827.543,88.915,-4.72333,0,9.13221,0.165256,-3.29076,-0.0304878,0.396341,-0.792683,-9.91538,-0.495769,-0.826282,0.27439,-0.152439,5.70122
827.554,88.9084,-4.71905,0,9.09628,0.162861,-3.37219,-0.27439,0.243902,-0.914634,-9.91299,-0.483794,-0.811912,-0.152439,-0.0304878,5.85366
827.563,88.9072,-4.69679,0,9.1346,0.153281,-3.30034,-0.243902,0.182927,-0.701219,-9.92017,-0.483794,-0.780776,0.182927,0.0609756,5.7622
827.574,88.8986,-4.67396,0,9.15137,0.179626,-3.34105,0.121951,0.152439,-0.762195,-9.88185,-0.467029,-0.771196,0.0914634,-0.182927,5.60976
827.583,88.8955,-4.65812,0,9.12742,0.162861,-3.3171,-0.0304878,0.152439,-0.670732,-9.92975,-0.481399,-0.783171,-0.0304878,-0.152439,5.73171
827.594,88.891,-4.65851,0,9.13221,0.167651,-3.32189,-0.304878,0.0609756,-0.701219,-9.92257,-0.486189,-0.809517,0.0914634,-0.304878,5.7622
827.604,88.8807,-4.66081,0,9.16095,0.193997,-3.36261,0,0.426829,-0.609756,-9.86988,-0.500559,-0.809517,0.0914634,-0.487805,5.88415
827.614,88.8785,-4.66471,0,9.13221,0.165256,-3.34824,-0.27439,0.0609756,-0.609756,-9.88185,-0.500559,-0.814307,0.0914634,-0.487805,5.70122
827.623,88.878,-4.67092,0,9.1346,0.160466,-3.365,-0.27439,0.0609756,-0.579268,-9.93933,-0.488584,-0.823887,0.0304878,-0.335366,5.82317
827.633,88.8877,-4.66931,0,9.137,0.122146,-3.35542,-0.0609756,0.0304878,-0.609756,-9.85311,-0.510139,-0.802332,0.121951,-0.213415,5.88415
827.643,88.8876,-4.66889,0,9.12742,0.162861,-3.34824,-0.152439,0,-0.457317,-9.88904,-0.524509,-0.807122,0.457317,-0.243902,5.67073
827.654,88.8918,-4.66894,0,9.16334,0.148491,-3.34584,-0.182927,-0.0304878,-0.457317,-9.9082,-0.529299,-0.809517,0.548781,-0.27439,5.57927
827.664,88.8971,-4.6525,0,9.15137,0.134121,-3.35303,0.121951,0.0914634,-0.640244,-9.89383,-0.488584,-0.775986,0.426829,-0.335366,5.79268
827.674,88.8872,-4.62411,0,9.14418,0.189207,-3.36261,-0.0304878,0.213415,-0.670732,-9.93215,-0.459844,-0.756826,0.457317,-0.152439,5.67073
827.683,88.8844,-4.60023,0,9.15376,0.174836,-3.29315,-0.121951,0,-0.396341,-9.88904,-0.452659,-0.749641,0.27439,-0.487805,5.54878
827.694,88.8797,-4.58315,0,9.137,0.174836,-3.30992,-0.213415,0.0914634,-0.579268,-9.8555,-0.440684,-0.752036,0.304878,-0.823171,5.64024
827.703,88.8876,-4.58769,0,9.11784,0.141306,-3.30992,-0.0609756,-0.304878,-0.396341,-9.8579,-0.433499,-0.799937,-0.27439,-0.457317,5.70122
827.714,88.8816,-4.60861,0,9.10826,0.177231,-3.30513,-0.121951,-0.27439,-0.609756,-9.87946,-0.469424,-0.831072,-0.0304878,-0.213415,5.54878
827.724,88.8811,-4.59249,0,9.15856,0.160466,-3.33866,0.0304878,-0.152439,-0.579268,-9.91059,-0.469424,-0.768801,0.213415,0.213415,5.67073
827.734,88.8872,-4.61145,0,9.12981,0.150886,-3.33147,0.121951,-0.243902,-0.304878,-9.92017,-0.517324,-0.831072,0.0304878,0.152439,5.39634
827.744,88.8766,-4.61564,0,9.13221,0.198787,-3.30273,-0.213415,-0.701219,-0.426829,-9.88904,-0.529299,-0.804727,-0.0304878,-0.0609756,5.85366
827.754,88.8717,-4.61437,0,9.15376,0.177231,-3.32189,0.243902,-0.487805,-0.579268,-9.93694,-0.536484,-0.799937,0.27439,-0.365854,5.82317
827.763,88.8783,-4.62868,0,9.13939,0.150886,-3.34345,0.0609756,-0.27439,-0.304878,-9.9082,-0.500559,-0.833467,0.213415,-0.640244,5.85366
827.774,88.873,-4.63857,0,9.14179,0.182021,-3.42727,0.0304878,0,-0.457317,-9.9082,-0.447869,-0.823887,0.304878,-0.487805,5.82317
827.783,88.878,-4.64705,0,9.14418,0.143701,-3.30992,0.182927,-0.243902,-0.548781,-9.86748,-0.457449,-0.816702,0.609756,-0.27439,5.70122
827.794,88.8789,-4.62789,0,9.12502,0.155676,-3.33626,0.304878,-0.243902,-0.579268,-9.88664,-0.471819,-0.761616,0.213415,-0.579268,5.60976
827.804,88.8862,-4.61534,0,9.12023,0.129331,-3.32429,-0.121951,0.0304878,-0.640244,-9.86269,-0.464634,-0.775986,0.0609756,-0.213415,5.33537
827.814,88.8886,-4.58568,0,9.11544,0.146096,-3.31231,-0.457317,-0.0609756,-0.640244,-9.8555,-0.471819,-0.740061,-0.27439,-0.304878,5.4878
827.824,88.8923,-4.56068,0,9.14179,0.143701,-3.35303,-0.548781,0.335366,-0.579268,-9.84593,-0.467029,-0.742456,-0.0304878,-0.335366,5.4878
827.833,88.9004,-4.54791,0,9.12981,0.119751,-3.37937,-0.335366,0.243902,-0.701219,-9.8603,-0.455054,-0.766406,-0.579268,0,5.33537
827.844,88.8995,-4.519,0,9.10586,0.131726,-3.44164,-0.396341,0.335366,-1.06707,-9.87227,-0.455054,-0.737666,-0.243902,-0.0609756,5.51829
827.854,88.9077,-4.53006,0,9.09868,0.107776,-3.38656,-0.152439,0.487805,-0.853659,-9.88664,-0.481399,-0.799937,-0.548781,-0.0609756,5.15244
827.863,88.9044,-4.49947,0,9.12742,0.143701,-3.41051,-0.0304878,0.731707,-1.03659,-9.88904,-0.467029,-0.730481,-0.731707,0.121951,5.21341
827.874,88.9065,-4.49964,0,9.17053,0.110171,-3.42248,0.182927,1.09756,-1.15854,-9.8555,-0.416733,-0.775986,-0.945122,-0.152439,5.18293
827.883,88.9007,-4.58887,0,9.12502,0.114961,-3.35303,0.152439,1.55488,-1.67683,-9.83156,-0.402363,-0.972378,-1.58537,0.640244,5.33537
827.893,88.8981,-4.63579,0,9.07952,0.0934058,-3.35542,0.0304878,1.52439,-1.7378,-9.79803,-0.416733,-0.943638,-1.7378,1.89024,5.73171
827.904,88.8958,-4.68662,0,9.06036,0.0646655,-3.37458,0.396341,1.89024,-2.07317,-9.85072,-0.438289,-0.986748,-2.5,2.34756,5.67073
827.914,88.894,-4.75355,0,9.03641,0.0694556,-3.40572,1.12805,2.43902,-1.98171,-9.88664,-0.488584,-1.08015,-3.90244,3.04878,5.70122
827.925,88.8832,-4.80978,0,9.05078,0.0670605,-3.35542,1.92073,2.34756,-2.71341,-9.96328,-0.59636,-1.0586,-4.2378,3.10976,5.88415
827.934,88.8582,-4.88861,0,9.0412,0.119751,-3.42967,2.37805,2.59146,-3.35366,-10.0088,-0.641865,-1.16637,-3.9939,2.9878,5.85366
827.944,88.8241,-4.96442,0,9.06036,0.196392,-3.48715,2.86585,2.92683,-3.2622,-10.0232,-0.589175,-1.17835,-3.90244,3.5061,5.91463
827.954,88.7882,-5.01064,0,9.06275,0.186812,-3.50391,2.62195,2.77439,-3.65854,-10.1645,-0.59157,-1.08015,-3.62805,3.38415,5.36585
827.964,88.7497,-5.04371,0,9.137,0.170046,-3.47996,3.35366,2.7439,-4.2378,-10.2315,-0.617915,-1.03704,-3.47561,3.10976,4.78659
827.974,88.7053,-5.08284,0,9.12263,0.179626,-3.45601,3.62805,2.92683,-4.78659,-10.1956,-0.66821,-1.06099,-3.32317,2.68293,4.39024
827.984,88.6552,-5.13867,0,9.15376,0.217947,-3.43925,3.53659,3.9939,-4.96951,-10.0543,-0.670605,-1.11368,-2.68293,2.40854,4.72561
827.994,88.5937,-5.23326,0,9.11544,0.249082,-3.38177,3.38415,5.09146,-5.82317,-9.9058,-0.66342,-1.23583,-1.55488,2.07317,5.4878
828.003,88.5306,-5.2826,0,9.09149,0.263452,-3.39614,2.95732,5.03049,-5.91463,-9.95849,-0.701741,-1.06339,-0.97561,1.28049,5.57927
828.014,88.4763,-5.31455,0,9.0412,0.191602,-3.35782,2.77439,4.66463,-6.06707,-10.0279,-0.725691,-0.998723,-0.0914634,0.396341,5.54878
828.024,88.4215,-5.34065,0,9.09389,0.124541,-3.24286,1.43293,3.65854,-7.10366,-10.0256,-0.718506,-0.991538,-0.27439,-0.396341,5.45732
828.034,88.3641,-5.4102,0,9.19448,0.158071,-3.23328,1.37195,2.86585,-7.07317,-9.98723,-0.684976,-1.06818,-0.579268,0.152439,5.09146
828.044,88.3002,-5.42738,0,9.24478,0.205972,-3.22609,0.792683,2.95732,-7.2561,-9.98244,-0.603545,-0.981958,-0.365854,0.365854,5.12195
828.054,88.2572,-5.41909,0,9.34058,0.0455054,-3.25004,-0.182927,3.71951,-7.28659,-9.98723,-0.55804,-0.926873,-0.426829,0.762195,5.15244
828.063,88.1819,-5.37593,0,9.50104,0.237107,-3.40332,-0.609756,5.27439,-8.32317,-10.0136,-0.476609,-0.843047,-0.213415,0.640244,5.18293
828.074,88.1016,-5.30104,0,9.43877,0.296982,-3.33387,-1.82927,6.7378,-8.23171,-9.95131,-0.390388,-0.773591,-0.487805,0.457317,5.03049
828.083,88.0284,-5.18966,0,9.35016,0.285007,-3.2692,-1.70732,7.89634,-7.77439,-9.87946,-0.356858,-0.718506,-0.518293,0.182927,4.66463
828.094,87.956,-5.09386,0,9.22322,0.328118,-3.32668,-1.40244,9.54268,-7.2561,-9.76928,-0.383203,-0.735271,-0.701219,-0.121951,4.26829
828.104,87.8899,-4.9869,0,9.24238,0.325723,-3.25723,-1.46341,9.84756,-6.79878,-9.72378,-0.395178,-0.689766,-0.823171,0.243902,3.96341
828.114,87.8348,-4.88088,0,9.27112,0.285007,-3.29076,-1.21951,10,-6.34146,-9.6639,-0.416733,-0.632285,-1.03659,0.640244,3.96341
828.124,87.7875,-4.79983,0,9.15376,0.268242,-3.15903,-1.09756,9.39024,-5.82317,-9.6663,-0.443079,-0.63468,-0.823171,0.97561,3.75
828.134,87.747,-4.74457,0,9.17292,0.287402,-3.21651,-0.152439,9.17683,-5,-9.67348,-0.447869,-0.65863,-0.792683,1.37195,3.32317
828.144,87.6958,-4.67943,0,9.06275,0.378413,-3.10874,0.365854,10.122,-4.93902,-9.64953,-0.433499,-0.58678,-0.213415,1.98171,3.53659
828.154,87.6486,-4.61283,0,8.91905,0.359253,-3.01054,0.396341,8.65854,-4.81707,-9.70941,-0.438289,-0.570015,-0.335366,2.0122,2.83537
828.164,87.5911,-4.55507,0,8.87115,0.426313,-2.93629,1.09756,6.61585,-5.03049,-9.7142,-0.402363,-0.56283,0.121951,2.7439,2.77439
828.174,87.5121,-4.49738,0,8.61728,0.541274,-2.57465,0.518293,3.62805,-5.60976,-9.73575,-0.387993,-0.546064,0.457317,3.07927,2.5
828.184,87.4335,-4.45847,0,8.68195,0.512534,-2.36867,-0.213415,-0.762195,-6.18902,-9.76449,-0.356858,-0.608335,0.243902,3.32317,2.2561
828.193,87.3764,-4.41468,0,8.96456,0.443079,-2.09804,-1.18902,-6.03659,-5.27439,-9.83874,-0.325723,-0.58678,0.243902,3.23171,1.92073
828.203,87.3405,-4.37793,0,9.60642,0.471819,-2.22258,-1.76829,-10.3963,-3.2622,-9.89143,-0.380808,-0.608335,0.457317,3.44512,1.40244
828.214,87.3315,-4.35788,0,10.4543,0.512534,-2.88121,-1.21951,-12.5305,-0.487805,-9.93454,-0.378413,-0.673001,0.823171,3.62805,1.03659
828.223,87.3301,-4.35045,0,10.392,0.6251,-3.79611,1.21951,-10.2439,1.61585,-9.91778,-0.411943,-0.720901,1.4939,3.90244,1.21951
828.234,87.3259,-4.35155,0,9.8555,0.699346,-3.97813,2.04268,-4.26829,2.59146,-9.93454,-0.380808,-0.756826,1.92073,4.2378,1.09756
828.244,87.308,-4.33059,0,8.96216,0.656235,-3.50631,0.518293,2.62195,2.13415,-9.93215,-0.371228,-0.661025,1.85976,4.66463,1.09756
828.254,87.3393,-4.29367,0,8.72506,0.335303,-3.1734,-0.0304878,5.70122,1.15854,-9.9537,-0.328118,-0.589175,1.52439,4.78659,1.21951
828.264,87.4225,-4.26366,0,8.72985,0.261057,-2.82133,0.518293,4.32927,-0.0914634,-9.9561,-0.210762,-0.613125,0.823171,4.69512,1.31098
828.274,87.4472,-4.21474,0,8.8472,0.268242,-2.90995,1.61585,1.61585,-1.09756,-9.92257,-0.126936,-0.524509,-0.396341,4.63415,1.46341
828.284,87.4545,-4.17993,0,8.94779,0.277822,-3.08718,2.68293,1.12805,-1.67683,-9.83156,-0.0958008,-0.57241,-2.22561,4.48171,1.55488
828.294,87.4587,-4.14934,0,9.07473,0.296982,-3.19496,3.23171,1.58537,-1.61585,-9.75491,-0.134121,-0.579595,-4.17683,4.60366,1.58537
828.304,87.4773,-4.10271,0,9.29747,0.263452,-3.30992,4.02439,0.914634,-1.12805,-9.77886,-0.263452,-0.507744,-6.34146,4.60366,1.79878
828.314,87.4472,-4.09242,0,9.31663,0.512534,-3.45122,3.96341,-1.46341,-0.884146,-9.9561,-0.378413,-0.665815,-8.17073,4.42073,1.18902
828.324,87.4598,-4.11965,0,9.25436,0.299377,-3.48954,3.65854,-2.92683,-1.06707,-10.095,-0.440684,-0.838257,-9.81707,4.45122,0.609756
828.334,87.4661,-4.15519,0,9.21364,0.246687,-3.37219,4.14634,-2.62195,-1.98171,-10.119,-0.488584,-0.881367,-10.1524,4.17683,-0.0914634
828.344,87.4553,-4.20791,0,9.1849,0.368833,-3.18059,4.08537,-2.40854,-1.76829,-10.0663,-0.550855,-0.955613,-10.2439,3.71951,-0.335366
828.354,87.4161,-4.26479,0,9.15376,0.531694,-3.11592,4.02439,-1.79878,-1.85976,-10.0208,-0.66821,-0.969983,-10.2439,2.9878,-0.0914634
828.363,87.3303,-4.34398,0,9.10107,0.708926,-3.04646,3.96341,-1.4939,-0.792683,-9.95131,-0.759221,-1.04662,-9.81707,2.40854,0.426829
828.374,87.3662,-4.44398,0,8.37778,0.0718506,-2.76385,2.04268,-1.70732,-2.59146,-9.91538,-0.888552,-1.13045,-8.5061,2.28659,0.640244
828.383,87.3999,-4.53159,0,8.43526,-0.182021,-2.89558,-0.365854,-0.762195,-4.78659,-9.8579,-0.938848,-1.06818,-7.9878,1.85976,1.15854
828.393,87.402,-4.6488,0,8.97174,-0.117356,-3.35542,1.28049,0.0914634,-6.64634,-9.78605,-0.958008,-1.18314,-7.07317,1.98171,1.03659
828.404,87.3642,-4.7681,0,10.0998,0.488584,-3.82724,5.60976,-1.58537,-3.5061,-9.73096,-0.938848,-1.17116,-6.89024,1.67683,1.15854
828.414,87.3407,-4.90192,0,10.4064,0.61073,-4.02363,8.32317,-3.41463,-0.426829,-9.67109,-0.979563,-1.20709,-6.55488,1.52439,0.853659
828.424,87.3422,-5.00787,0,9.92496,0.529299,-3.56379,6.64634,-5.15244,1.18902,-9.75252,-0.917292,-1.17356,-6.37195,1.64634,0.518293
828.434,87.3823,-5.11225,0,9.29028,0.296982,-3.34824,5.2439,-4.05488,1.98171,-9.77647,-0.898132,-1.20469,-6.67683,1.79878,0.213415
828.443,87.4636,-5.21673,0,8.78493,0.124541,-3.09676,4.17683,-2.10366,1.28049,-9.74054,-0.845442,-1.24062,-6.52439,2.13415,0.335366
828.453,87.6077,-5.32544,0,8.61249,0.155676,-3.04167,4.54268,-0.121951,-0.0304878,-9.72138,-0.874182,-1.20948,-5.94512,1.43293,0.518293
828.463,87.6286,-5.39598,0,8.70829,0.205972,-3.14706,5.51829,1.52439,-1.55488,-9.74773,-0.926873,-1.1065,-5.57927,1.25,0.731707
828.474,87.6296,-5.50434,0,8.90708,0.251477,-3.30513,6.7378,2.10366,-2.0122,-9.70462,-0.960403,-1.11608,-5.03049,0.365854,1.43293
828.483,87.6199,-5.62017,0,9.11544,0.280217,-3.44883,6.95122,1.58537,-2.46951,-9.71659,-0.895737,-1.11847,-4.66463,0.0914634,1.58537
828.493,87.6086,-5.72268,0,9.34776,0.311353,-3.47038,7.37805,1.09756,-2.28659,-9.69025,-0.924478,-1.10889,-4.48171,0.0609756,1.76829
828.504,87.5922,-5.80331,0,9.40285,0.385598,-3.45601,7.07317,1.58537,-1.79878,-9.68306,-0.866997,-1.11847,-4.2378,0.396341,1.7378
828.513,87.5812,-5.82446,0,9.3286,0.328118,-3.40572,5.97561,2.7439,-2.10366,-9.67109,-0.847837,-1.02746,-4.69512,0.701219,1.64634
828.523,87.5723,-5.86456,0,9.18729,0.289797,-3.2237,5.4878,4.26829,-2.40854,-9.71899,-0.826282,-1.10171,-5.12195,1.25,1.58537
828.534,87.5626,-5.92391,0,9.08191,0.282612,-3.13269,5.12195,5.15244,-2.56098,-9.75252,-0.768801,-1.17356,-5.51829,1.34146,1.67683
828.543,87.5444,-5.95144,0,9.05557,0.301772,-2.96503,4.66463,6.28049,-3.07927,-9.80281,-0.780776,-1.09692,-5.97561,1.31098,1.85976
828.553,87.5285,-5.9655,0,9.04359,0.282612,-2.97222,4.14634,6.61585,-3.14024,-9.87467,-0.787961,-1.06339,-6.18902,0.762195,2.16463
828.563,87.5065,-5.99136,0,9.0891,0.313748,-3.08958,4.45122,5.70122,-3.35366,-9.91059,-0.843047,-1.09931,-6.70732,0.731707,2.59146
828.574,87.4769,-6.02157,0,9.17053,0.356858,-3.10634,4.29878,4.20732,-3.59756,-9.94173,-0.898132,-1.11847,-6.34146,0.701219,2.95732
828.583,87.4415,-6.05167,0,9.24717,0.383203,-3.19975,4.81707,3.04878,-3.93293,-9.93215,-0.962798,-1.12326,-6.55488,0.731707,3.29268
828.593,87.4033,-6.10753,0,9.26154,0.383203,-3.15903,4.60366,2.43902,-4.29878,-9.97526,-0.979563,-1.20948,-6.15854,0.853659,3.75
828.603,87.3621,-6.17146,0,9.24478,0.416733,-3.11592,4.57317,2.28659,-4.2378,-10.0088,-1.03944,-1.2526,-5.91463,0.914634,3.93293
828.614,87.3172,-6.25411,0,9.24717,0.450264,-3.10874,4.7561,1.82927,-4.26829,-10.0639,-1.0562,-1.31726,-4.7561,0.762195,4.35976
828.624,87.2724,-6.35251,0,9.31184,0.457449,-3.11592,5.12195,1.34146,-4.29878,-10.0854,-1.06578,-1.346,-3.90244,0.426829,4.5122
828.634,87.2428,-6.46979,0,9.30465,0.399968,-3.14706,4.93902,1.12805,-3.59756,-10.107,-1.12805,-1.40588,-3.23171,0.335366,4.84756
828.643,87.2046,-6.52937,0,9.2831,0.486189,-3.16622,5.57927,1.21951,-3.38415,-10.1429,-1.12566,-1.27415,-2.65244,-0.0304878,5.15244
828.653,87.1784,-6.58722,0,9.27352,0.399968,-3.14945,5.36585,1.4939,-3.38415,-10.1573,-1.08255,-1.31008,-2.31707,-0.426829,5.57927
828.663,87.153,-6.6267,0,9.30226,0.404758,-3.18777,5.85366,2.04268,-3.32317,-10.0902,-0.991538,-1.2981,-2.19512,-1.31098,5.85366
828.674,87.1278,-6.66719,0,9.25675,0.392783,-3.19975,5.42683,2.10366,-3.47561,-10.0567,-0.926873,-1.32205,-1.85976,-1.92073,6.55488
828.683,87.1079,-6.71185,0,9.29747,0.337698,-3.30034,5.67073,1.64634,-3.71951,-9.97526,-0.895737,-1.34361,-2.13415,-2.37805,6.85976
828.693,87.0828,-6.73691,0,9.35734,0.354463,-3.38895,6.61585,1.46341,-4.08537,-9.89143,-0.934058,-1.27176,-2.5,-3.32317,7.40854
828.703,87.0557,-6.77311,0,9.34537,0.361648,-3.36979,6.67683,0.731707,-4.2378,-9.88904,-1.01309,-1.32445,-2.65244,-3.53659,7.65244
828.714,87.0268,-6.82126,0,9.31423,0.359253,-3.33147,5.60976,-0.335366,-4.48171,-9.85311,-1.07297,-1.37714,-2.28659,-3.62805,8.10976
828.724,86.9979,-6.84717,0,9.1346,0.294587,-3.4129,7.9878,-0.792683,-5.27439,-9.84832,-1.08734,-1.28852,-1.79878,-3.29268,8.32317
828.734,86.9549,-6.86803,0,9.05796,0.373623,-3.13029,6.95122,-2.5,-5.70122,-9.85311,-1.14482,-1.27415,-1.21951,-3.56707,9.05488
828.744,86.9223,-6.87892,0,9.06275,0.289797,-3.05844,7.83537,-0.823171,-5.82317,-9.83156,-1.07536,-1.23344,-0.548781,-3.71951,9.17683
828.754,86.8836,-6.88915,0,9.11065,0.306563,-2.9339,7.2561,0.548781,-6.31098,-9.82677,-0.989143,-1.23344,0.487805,-4.45122,9.54268
828.763,86.8402,-6.90006,0,9.29268,0.383203,-2.9818,7.10366,1.92073,-5.97561,-9.82197,-0.943638,-1.23823,1.25,-4.87805,9.60366
828.774,86.7969,-6.94508,0,9.44835,0.426313,-3.01054,6.70732,3.62805,-5.60976,-9.77407,-0.888552,-1.38193,1.76829,-4.96951,9.26829
828.784,86.7508,-6.96922,0,9.58247,0.519719,-2.97222,6.46341,4.78659,-4.90854,-9.77168,-0.910107,-1.2981,1.76829,-4.63415,9.08537
828.793,86.7075,-6.99214,0,9.58247,0.541274,-2.98659,5.57927,6.03659,-4.45122,-9.82916,-0.938848,-1.30289,1.4939,-4.02439,8.44512
828.804,86.6688,-6.97666,0,9.55852,0.538879,-2.99856,5.15244,6.85976,-4.08537,-9.92496,-0.950823,-1.1544,1.55488,-3.68902,8.38415
828.814,86.6384,-6.93108,0,9.46512,0.493374,-2.96503,4.45122,7.62195,-3.84146,-10.0519,-0.898132,-1.03465,1.64634,-3.90244,8.84146
828.824,86.6064,-6.87851,0,9.35016,0.524509,-2.86923,4.32927,7.22561,-3.59756,-10.0375,-0.862207,-0.991538,2.22561,-4.96951,9.48171
828.833,86.5778,-6.79566,0,9.25196,0.495769,-2.85007,4.05488,6.25,-3.62805,-10.1046,-0.807122,-0.852627,3.29268,-5.97561,10.1524
828.844,86.5369,-6.69229,0,9.27591,0.593965,-2.82852,3.93293,4.32927,-3.65854,-10.0806,-0.804727,-0.744851,3.65854,-7.92683,10.1829
828.854,86.512,-6.59709,0,9.40524,0.493374,-2.76864,3.38415,3.17073,-3.53659,-10.0447,-0.787961,-0.761616,4.45122,-9.60366,10.3659
828.864,86.482,-6.52247,0,9.34058,0.579595,-2.79738,3.01829,1.98171,-2.92683,-9.97047,-0.744851,-0.831072,4.45122,-10.5183,10.6098
828.874,86.4383,-6.43403,0,9.39087,0.687371,-2.78062,1.89024,1.40244,-2.95732,-9.83874,-0.735271,-0.747246,4.60366,-10.8841,10.6098
828.884,86.4206,-6.34062,0,9.36213,0.55804,-2.80936,0.243902,0.914634,-2.19512,-9.78366,-0.64905,-0.706531,4.08537,-11.189,10.0915
828.893,86.4295,-6.24989,0,9.27112,0.462239,-2.79738,0.213415,0.914634,-1.40244,-9.78126,-0.560435,-0.701741,3.93293,-10.8841,9.69512
828.904,86.456,-6.14447,0,9.24238,0.419128,-2.7423,-0.304878,1.43293,-1.0061,-9.79323,-0.452659,-0.622705,3.2622,-10.1829,8.96341
828.914,86.4842,-6.04376,0,9.2352,0.450264,-2.81175,-0.487805,1.95122,-0.609756,-9.79803,-0.397573,-0.6251,2.10366,-9.87805,8.5061
828.924,86.5126,-5.94787,0,9.18969,0.438289,-2.86684,-0.914634,1.89024,-0.670732,-9.78366,-0.337698,-0.627495,1.25,-9.5122,8.17073
828.934,86.5485,-5.86143,0,9.16574,0.395178,-2.91713,-1.06707,3.04878,-0.762195,-9.8124,-0.335303,-0.65384,0.457317,-9.45122,8.38415
828.944,86.5759,-5.77065,0,9.14897,0.378413,-3.02251,-0.914634,3.93293,-1.12805,-9.81479,-0.411943,-0.62031,-0.243902,-9.54268,8.87195
828.953,86.5957,-5.69036,0,9.0891,0.311353,-3.08239,-0.792683,4.39024,-1.98171,-9.80042,-0.481399,-0.64905,-0.457317,-9.14634,9.57317
828.964,86.6201,-5.62293,0,9.06275,0.251477,-3.11592,0.701219,5.12195,-2.22561,-9.81719,-0.498164,-0.692161,-0.182927,-9.11585,10.0305
828.974,86.6346,-5.55549,0,9.12502,0.229922,-3.16143,1.4939,5.60976,-2.95732,-9.78366,-0.481399,-0.677791,-0.27439,-8.59756,10.122
828.984,86.6656,-5.48933,0,9.11065,0.143701,-3.14706,1.98171,5.09146,-2.68293,-9.76689,-0.481399,-0.670605,-0.304878,-8.56707,9.69512
828.993,86.6735,-5.46237,0,9.03641,0.234712,-3.13748,3.14024,4.35976,-3.32317,-9.74294,-0.488584,-0.826282,-0.945122,-7.7439,8.90244
829.004,86.658,-5.41376,0,9.01246,0.368833,-3.06083,3.59756,2.40854,-3.71951,-9.74773,-0.455054,-0.728086,-1.79878,-6.98171,8.35366
829.013,86.645,-5.37466,0,9.17053,0.383203,-3.04407,3.56707,1.64634,-3.41463,-9.73096,-0.455054,-0.759221,-2.40854,-6.09756,7.46951
829.023,86.6293,-5.33795,0,9.2328,0.433499,-2.89318,3.29268,0.792683,-3.10976,-9.83874,-0.522114,-0.771196,-2.95732,-5.39634,6.52439
829.034,86.6125,-5.28537,0,9.16574,0.428708,-2.96743,3.87195,0.152439,-3.2622,-9.87227,-0.570015,-0.699346,-3.75,-4.87805,6.15854
829.044,86.5527,-5.2223,0,9.30226,0.696951,-2.74709,3.75,1.21951,-4.20732,-9.9082,-0.641865,-0.64905,-4.14634,-4.39024,5.85366
829.054,86.5152,-5.164,0,9.41003,0.589175,-2.84049,2.53049,1.92073,-3.53659,-9.92496,-0.704136,-0.65863,-4.26829,-4.63415,5.97561
829.064,86.5688,-5.10504,0,9.33579,0.112566,-3.00814,1.15854,0.823171,-1.92073,-9.91778,-0.704136,-0.64426,-3.59756,-5,6.40244
829.073,86.5984,-5.0616,0,8.91187,0.134121,-3.13029,3.62805,-0.609756,-2.9878,-9.89383,-0.701741,-0.699346,-3.07927,-5.39634,6.79878
829.083,86.4921,-5.02168,0,9.25196,0.998723,-2.74709,4.17683,1.67683,-5.15244,-9.88664,-0.699346,-0.706531,-2.95732,-5.70122,7.0122
829.094,86.4168,-4.97898,0,9.54894,0.838257,-2.79978,2.59146,2.2561,-4.54268,-9.88425,-0.706531,-0.687371,-2.40854,-5.60976,7.0122
829.104,86.3865,-4.94337,0,9.46272,0.529299,-2.96982,2.53049,2.19512,-3.90244,-9.95849,-0.732876,-0.716111,-2.31707,-5.30488,6.98171
829.114,86.3653,-4.91713,0,9.38129,0.495769,-2.89079,2.13415,2.28659,-3.44512,-9.93933,-0.807122,-0.749641,-1.79878,-4.87805,6.70732
829.125,86.4258,-4.87406,0,9.31663,0.117356,-2.99377,1.28049,0.518293,-1.79878,-9.98963,-0.792751,-0.675395,-1.21951,-4.72561,6.31098
829.134,86.4378,-4.8034,0,9.1849,0.364043,-2.94827,2.83537,-1.0061,-2.16463,-10.0351,-0.735271,-0.548459,-1.12805,-5.42683,6.28049
829.144,86.3443,-4.7199,0,9.12981,0.991538,-2.81415,3.44512,-0.487805,-3.90244,-10.0854,-0.747246,-0.481399,-1.37195,-5.79268,6.15854
829.154,86.2892,-4.62405,0,9.40285,0.787961,-2.74469,0.579268,-0.548781,-3.10976,-10.095,-0.699346,-0.411943,-2.04268,-6.61585,5.57927
829.164,86.2747,-4.54434,0,9.3286,0.493374,-2.96264,0.27439,-0.609756,-3.01829,-10.0447,-0.696951,-0.464634,-2.95732,-6.89024,5.30488
829.174,86.2574,-4.49439,0,9.30944,0.495769,-2.91713,0.0914634,0.121951,-3.2622,-9.9537,-0.718506,-0.5772,-3.56707,-6.70732,5.27439
829.184,86.2426,-4.47371,0,9.27112,0.455054,-2.9339,-0.365854,-0.182927,-3.53659,-9.85072,-0.764011,-0.689766,-3.14024,-6.40244,5.73171
829.193,86.2248,-4.48162,0,9.32381,0.469424,-3.04407,0,-0.0914634,-3.68902,-9.78366,-0.792751,-0.804727,-2.56098,-6.0061,6.03659
829.204,86.2006,-4.5022,0,9.33818,0.490979,-3.10155,-0.243902,-0.0304878,-4.08537,-9.83395,-0.874182,-0.864602,-1.61585,-5.45732,6.52439
829.214,86.1715,-4.56321,0,9.29268,0.543669,-3.09437,-0.0914634,0.670732,-3.93293,-9.88904,-0.912502,-1.04902,-0.518293,-5.2439,6.76829
829.224,86.2544,-4.65722,0,9.25675,-0.0455054,-3.21651,-0.518293,-1.82927,-2.07317,-9.84593,-0.898132,-1.19032,0.792683,-4.11585,7.2561
829.234,86.1804,-4.71038,0,8.96935,0.862207,-2.8836,3.04878,-1.06707,-3.75,-9.93933,-0.948428,-1.03944,1.95122,-3.75,7.40854
829.244,86.0992,-4.71641,0,9.29507,0.984353,-2.74948,0.640244,0.548781,-3.44512,-10.2291,-0.941243,-0.874182,1.92073,-4.72561,7.0122
829.253,86.0881,-4.76299,0,9.25436,0.536484,-3.05365,1.28049,0.762195,-2.53049,-10.3848,-0.943638,-1.07536,1.85976,-5.21341,6.15854
829.264,86.0726,-4.81683,0,9.18011,0.56762,-2.97701,2.13415,0.426829,-2.5,-10.404,-0.821492,-1.12087,2.5,-6.0061,6.03659
829.274,86.0536,-4.85318,0,9.21125,0.62031,-2.99617,2.53049,-0.640244,-2.13415,-10.4279,-0.759221,-1.05381,2.65244,-7.34756,6.06707
829.284,86.0286,-4.86918,0,9.31184,0.64905,-3.13508,2.92683,-2.22561,-2.46951,-10.4734,-0.720901,-0.972378,2.71341,-9.54268,6.34146
829.293,85.991,-4.95068,0,9.39087,0.752036,-3.12071,2.77439,-3.10976,-2.40854,-10.4231,-0.759221,-1.27655,3.04878,-11.128,6.37195
829.304,85.9545,-5.08931,0,9.38608,0.759221,-3.05125,2.34756,-3.14024,-2.22561,-10.2435,-0.766406,-1.53281,3.71951,-11.9207,6.37195
829.314,85.9348,-5.23969,0,9.47709,0.689766,-2.93629,1.98171,-2.65244,-1.70732,-10.1645,-0.835862,-1.59987,4.45122,-11.7378,6.40244
829.324,85.9506,-5.35581,0,9.43159,0.548459,-2.83331,0.884146,-1.46341,-0.97561,-10.1142,-0.989143,-1.46336,5.54878,-12.2561,6.76829
829.333,86.0158,-5.45369,0,9.34058,0.402363,-2.77343,0.121951,-0.335366,-0.548781,-10.1094,-1.10889,-1.40109,6.06707,-12.7439,6.61585
829.344,86.0772,-5.52004,0,9.29268,0.347278,-2.72314,-1.0061,0.823171,-0.914634,-10.2148,-1.11608,-1.29092,6.70732,-14.878,6.31098
829.354,86.1524,-5.53008,0,9.29747,0.294587,-2.65129,-2.5,2.28659,-0.853659,-10.2579,-1.08015,-1.05141,6.95122,-15.8841,5.73171
829.363,86.2018,-5.48252,0,9.2831,0.289797,-2.61536,-4.2378,3.23171,-1.46341,-10.2962,-0.955613,-0.795146,6.58537,-17.561,5.42683
829.374,86.2495,-5.39713,0,9.16095,0.296982,-2.72793,-5.54878,3.84146,-1.46341,-10.3585,-0.735271,-0.62031,5.54878,-20.3963,5.03049
829.384,86.2753,-5.3462,0,9.14897,0.330513,-2.86923,-6.21951,4.20732,-1.98171,-10.2842,-0.450264,-0.759221,4.7561,-22.439,5.36585
829.393,86.2848,-5.28794,0,9.14179,0.376018,-2.90037,-6.09756,4.48171,-2.43902,-10.1573,-0.241897,-0.708926,4.45122,-23.7195,6.52439
829.404,86.2587,-5.17906,0,9.13221,0.519719,-2.99617,-5.45732,5.21341,-3.65854,-10.0806,-0.150886,-0.469424,3.10976,-25.7927,8.14024
829.413,86.2189,-5.0391,0,9.17292,0.589175,-2.99617,-4.57317,4.78659,-4.20732,-10.0878,-0.155676,-0.313748,2.07317,-27.6524,9.32927
829.424,86.183,-4.91435,0,9.27112,0.510139,-3.04407,-3.56707,4.32927,-4.96951,-10.0639,-0.239502,-0.356858,1.06707,-28.689,10.5488
829.434,86.1693,-4.76215,0,9.41722,0.261057,-3.13269,-2.43902,4.26829,-5.97561,-10.0399,-0.313748,-0.213157,-0.243902,-29.3598,11.0671
829.444,86.1405,-4.55951,0,9.45314,0.342488,-3.07281,-2.07317,6.67683,-6.52439,-10.0375,-0.325723,0.0359253,-0.609756,-30.3049,11.1585
829.454,86.1257,-4.31586,0,9.42201,0.239502,-3.06083,-3.10976,9.72561,-6.43293,-10.0591,-0.361648,0.251477,-1.95122,-32.561,10.9146
829.464,86.1073,-4.20521,0,9.31902,0.258662,-3.03928,-3.41463,12.2866,-6.55488,-9.83635,-0.622705,-0.289797,-1.95122,-33.4756,10.1829
829.474,86.0866,-4.01347,0,9.14897,0.292192,-3.05125,-3.78049,11.9817,-6.34146,-10.119,-0.301772,0.0814307,-3.62805,-35.4878,9.5122
829.484,86.0403,-3.80035,0,9.07473,0.407153,-3.10395,-1.92073,11.311,-7.46951,-9.87706,-0.258662,0.205972,-3.59756,-35.0915,8.96341
829.493,85.9397,-3.61956,0,9.01964,0.720901,-3.08,1.58537,13.2317,-9.02439,-9.88425,-0.203577,0.102986,-4.29878,-33.9634,8.75
829.504,85.9281,-3.41334,0,9.34058,0.253872,-3.05365,-0.335366,12.378,-6.31098,-9.79084,-0.129331,0.241897,-5.70122,-34.9085,8.23171
829.513,85.873,-3.11781,0,8.84481,0.517324,-3.13508,2.13415,11.9817,-7.10366,-9.79323,-0.0862207,0.661025,-6.58537,-37.9878,8.2622
829.524,85.7252,-2.75397,0,8.8951,1.13045,-2.63931,3.35366,14.7866,-8.71951,-9.88185,-0.165256,1.01549,-7.77439,-40.9756,8.01829
829.534,85.5876,-2.38333,0,9.17053,1.08734,-2.61536,3.38415,14.4817,-8.96341,-10.0495,-0.323328,1.12566,-9.42073,-43.3232,7.22561
829.544,85.4586,-2.04317,0,9.39566,1.08494,-2.56507,3.9939,12.0732,-8.71951,-10.0064,-0.471819,1.04902,-9.78659,-44.8171,6.82927
829.553,85.3866,-1.71821,0,9.68067,0.756826,-2.56267,2.80488,10.3049,-7.5,-9.85072,-0.59157,1.02507,-9.17683,-44.9085,7.13415
829.564,85.4286,-1.43246,0,9.7621,0.0622705,-2.83331,0.335366,7.0122,-4.5122,-9.6663,-0.63468,0.893342,-7.9878,-43.9329,7.43902
829.574,85.3956,-1.21034,0,9.45075,0.452659,-2.69679,2.46951,8.62805,-7.10366,-9.4244,-0.689766,0.65384,-7.13415,-42.0122,8.47561
829.583,85.3901,-0.909592,0,9.14897,0.215552,-2.73511,2.04268,6.79878,-7.22561,-9.35016,-0.65384,1.01309,-6.06707,-40.4878,9.08537
829.594,85.2133,-0.530442,0,9.29028,1.25499,-2.20581,2.89634,9.57317,-11.7378,-9.46512,-0.64426,1.40827,-5.60976,-40.8537,9.87805
829.604,85.0882,-0.171013,0,9.38369,0.946033,-2.1651,-1.0061,8.81098,-10.7927,-9.75012,-0.55325,1.42983,-4.93902,-41.0671,10.3963
829.613,84.9917,0.135079,0,9.14179,0.613125,-2.5004,1.15854,9.66463,-12.0427,-9.99681,-0.570015,1.29092,-3.56707,-40.5183,10.1829
829.623,84.949,0.403505,0,9.51781,0.273032,-2.39981,1.0061,8.96341,-11.2195,-10.004,-0.531694,1.17835,-2.07317,-39.5427,9.66463
829.634,84.9584,0.666157,0,9.09868,-0.0814307,-3.24286,2.62195,4.20732,-10.3963,-9.79803,-0.450264,1.17595,-0.701219,-38.8415,10.0305
829.643,84.7816,1.03194,0,9.07952,0.934058,-2.79978,9.14634,1.4939,-16.3415,-9.63516,-0.395178,1.64777,0.0914634,-40.0915,10.3049
829.654,84.5373,1.43772,0,9.55613,1.45617,-2.20342,8.07927,0.121951,-17.8963,-9.63037,-0.383203,1.88488,-0.121951,-41.4024,10.9146
829.663,84.4217,1.80512,0,9.79563,0.723296,-2.52914,4.81707,-1.4939,-14.3293,-9.76928,-0.455054,1.81303,-0.548781,-40.7622,11.0976
829.674,84.2553,2.16447,0,9.66151,1.02986,-2.40699,7.62195,2.68293,-15.9451,-9.77647,-0.459844,1.84417,-0.640244,-39.878,11.0061
829.683,84.2469,2.49827,0,9.79563,0.0958008,-2.79738,2.31707,0.853659,-11.4329,-9.6663,-0.392783,1.77471,-0.731707,-38.4146,11.311
829.694,84.1156,2.86913,0,8.943,0.732876,-3.05365,10.122,-3.07927,-15.5793,-9.49146,-0.292192,1.96152,0,-37.8049,11.7988
829.704,83.8519,3.2509,0,9.06275,1.55197,-2.31359,8.68902,-2.68293,-19.0854,-9.3789,-0.285007,2.04774,1.31098,-39.0549,12.561
829.714,83.5791,3.6497,0,9.63037,1.75315,-2.05253,4.87805,3.20122,-19.3293,-9.43159,-0.354463,2.19863,3.14024,-40.3354,13.75
829.723,83.4089,4.03437,0,9.38608,1.20469,-2.40699,3.62805,2.9878,-15.5488,-9.43159,-0.431104,2.20581,5.09146,-40.3963,14.2988
829.734,83.212,4.29221,0,9.53936,1.40109,-2.1627,6.21951,7.2561,-16.4939,-9.28789,-0.66821,1.69807,8.41463,-37.3476,14.0854
829.744,83.2217,4.50456,0,9.70941,0.186812,-2.47166,1.15854,3.87195,-10.6098,-9.07473,-0.694556,1.51605,11.128,-34.3598,13.3232
829.754,83.0711,4.77219,0,8.91666,0.993933,-2.65368,10.7622,-0.487805,-16.2195,-8.95498,-0.766406,1.75794,13.0488,-31.6159,12.0732
829.764,82.7801,5.13994,0,9.24238,2.01421,-1.65017,7.65244,0.97561,-18.75,-8.84241,-0.752036,2.18905,13.2622,-31.1585,10.9756
829.773,82.6192,5.52337,0,9.73336,1.38911,-1.65496,-0.0609756,3.47561,-14.5732,-8.89271,-0.670605,2.32796,13.3841,-30.8537,9.60366
829.783,82.4557,5.84956,0,9.15616,1.25739,-2.05972,3.56707,3.68902,-15.7927,-9.00767,-0.617915,2.18186,12.6524,-29.1463,8.96341
829.794,82.3635,6.17924,0,9.58966,1.02507,-1.95913,-0.396341,4.35976,-12.3476,-9.00288,-0.443079,2.25132,12.3476,-27.2866,9.05488
829.803,82.3198,6.52754,0,8.88073,0.550855,-2.7423,1.67683,-0.396341,-12.8049,-8.9454,-0.292192,2.37107,11.3415,-26.0976,9.78659
829.814,82.0997,6.91249,0,9.2807,1.67412,-2.20102,6.0061,2.9878,-17.2561,-8.9909,-0.217947,2.5986,9.93902,-25.8537,10.2134
829.823,81.9587,7.26576,0,9.44835,1.43222,-2.1172,-1.28049,2.89634,-12.9268,-9.12023,-0.182021,2.56507,8.41463,-25.1829,10.6402
829.833,81.8,7.57786,0,9.21125,1.54239,-2.44771,0.426829,3.32317,-13.2012,-9.22322,-0.258662,2.47645,8.01829,-23.7805,10.3049
829.844,81.713,7.89833,0,9.5681,1.34121,-2.1651,-2.89634,3.17073,-9.32927,-9.22801,-0.292192,2.56986,7.71341,-21.9817,9.78659
829.854,81.6017,8.22559,0,9.25436,1.41306,-2.47885,-0.335366,0.365854,-10.5488,-9.20885,-0.332908,2.65129,7.9878,-20.4268,8.65854
829.864,81.5272,8.54188,0,9.60882,1.31726,-2.36867,-2.80488,2.31707,-8.81098,-9.21603,-0.368833,2.66326,8.17073,-19.0549,7.22561
829.874,81.416,8.86915,0,9.26154,1.50647,-2.5028,-1.95122,0.823171,-9.78659,-9.16095,-0.385598,2.75188,8.53659,-17.4695,6.67683
829.883,81.2592,9.20578,0,9.3286,1.75076,-2.26808,-0.792683,1.95122,-11.8293,-9.16334,-0.416733,2.85247,9.29878,-15.9756,6.15854
829.893,81.243,9.54094,0,9.72857,1.15679,-2.38304,-7.19512,0.0304878,-5.67073,-9.137,-0.364043,2.89797,9.93902,-14.5122,6.21951
829.904,81.1682,9.88595,0,9.06036,1.40588,-2.71595,-2.86585,-0.609756,-7.5,-9.14179,-0.342488,3.00335,10.6707,-13.4146,6.21951
829.914,81.0167,10.2265,0,9.11544,1.85375,-2.32077,0.945122,1.12805,-10.0305,-9.12502,-0.313748,3.03928,10.6707,-13.0793,6.58537
829.923,80.8867,10.5605,0,9.3765,1.87051,-2.18905,-3.65854,0.97561,-8.56707,-9.16574,-0.296982,3.08479,10.4878,-12.2256,7.04268
829.933,80.919,10.9115,0,9.56331,1.02267,-2.57465,-8.62805,-4.08537,-3.2622,-9.17292,-0.234712,3.2237,10.7622,-12.2561,7.37805
829.943,80.8558,11.2597,0,8.87115,1.46336,-2.80217,-1.0061,-2.95732,-5.85366,-9.18011,-0.114961,3.27639,10.4268,-12.4085,7.62195
829.953,80.6897,11.5986,0,9.25915,2.19623,-2.17468,0.518293,-0.27439,-8.38415,-9.14179,-0.0143701,3.28357,9.32927,-12.1951,7.5
829.964,80.5481,11.9265,0,9.46272,2.1627,-2.3088,-4.02439,-0.97561,-7.16463,-9.18969,0.0335303,3.31231,8.90244,-11.6768,7.5
829.974,80.5363,12.2391,0,9.57768,1.43941,-2.68003,-6.85976,-1.15854,-3.17073,-9.23759,0.0479004,3.3195,8.2622,-11.0061,7.22561
829.983,80.6612,12.5456,0,9.09389,0.718506,-3.11832,-2.77439,-3.10976,-1.70732,-9.18969,0.112566,3.33147,8.01829,-10.4878,6.7378
829.993,80.5357,12.8522,0,8.69153,1.97829,-2.61536,2.34756,-3.71951,-5.60976,-9.14658,0.136516,3.37219,7.0122,-10.2134,6.40244
830.004,80.3635,13.1489,0,9.3789,2.52914,-2.05972,-1.18902,-1.15854,-6.03659,-9.12023,0.0934058,3.37219,5.82317,-10.0915,5.45732
830.013,80.3184,13.4274,0,9.52499,1.77231,-2.55309,-5.03049,-0.762195,-2.53049,-9.0867,0.0646655,3.33147,5.15244,-9.72561,5.18293
830.023,80.3397,13.7083,0,9.29747,1.36277,-2.77822,-2.65244,-0.335366,-1.64634,-9.03162,-0.00239502,3.37219,4.08537,-9.08537,4.7561
830.034,80.3788,13.9852,0,9.17772,1.16637,-2.67284,-0.335366,-1.85976,-2.22561,-9.0412,-0.0383203,3.40811,3.56707,-8.65854,4.32927
830.044,80.3744,14.2285,0,9.15137,1.45378,-2.73272,0.0304878,-3.07927,-2.04268,-9.07233,-0.0694556,3.3171,2.43902,-7.86585,4.32927
830.054,80.3497,14.4829,0,9.20166,1.5879,-2.57944,-0.914634,-3.75,-2.10366,-9.10826,-0.0598755,3.42488,1.46341,-7.13415,3.75
830.064,80.3659,14.7021,0,9.27831,1.46575,-2.79738,-1.34146,-4.7561,-0.884146,-9.11544,-0.0598755,3.31231,0.579268,-6.64634,3.71951
830.073,80.4072,14.9033,0,9.21125,1.40827,-2.80457,0.487805,-5.45732,-0.426829,-9.1346,-0.00239502,3.27399,0.0609756,-5.70122,3.93293
830.083,80.4229,15.1041,0,9.22083,1.48252,-2.66805,1.25,-7.0122,-0.548781,-9.17053,-0.0335303,3.3171,-0.670732,-5.15244,3.68902
830.093,80.4235,15.312,0,9.2304,1.54479,-2.70877,1.82927,-7.77439,-0.335366,-9.20646,-0.0718506,3.39614,-1.15854,-4.81707,3.84146
830.104,80.4363,15.4935,0,9.2807,1.52084,-2.76385,1.79878,-8.04878,-0.182927,-9.19927,-0.117356,3.30273,-1.92073,-4.29878,3.56707
830.114,80.4647,15.6773,0,9.31902,1.48731,-2.78062,2.13415,-7.80488,0.0914634,-9.21603,-0.165256,3.32668,-2.2561,-3.47561,3.38415
830.123,80.4986,15.8486,0,9.33818,1.46575,-2.79259,2.31707,-7.22561,0.152439,-9.25675,-0.213157,3.3195,-2.65244,-3.41463,2.9878
830.134,80.5195,16.0015,0,9.32142,1.49928,-2.7902,2.22561,-6.4939,0.0914634,-9.22562,-0.227527,3.25004,-2.68293,-3.23171,2.7439
830.143,80.5259,16.1562,0,9.34058,1.54239,-2.79738,2.22561,-5.73171,0.0609756,-9.24478,-0.299377,3.27399,-2.65244,-2.86585,2.62195
830.154,80.5369,16.2974,0,9.331,1.51365,-2.84768,2.07317,-5.36585,-0.213415,-9.23759,-0.347278,3.23088,-3.07927,-2.68293,2.95732
830.164,80.5405,16.4315,0,9.30705,1.52323,-2.82852,2.0122,-4.69512,-0.426829,-9.26154,-0.378413,3.19975,-3.01829,-2.19512,2.92683
830.174,80.5607,16.555,0,9.31663,1.47054,-2.80696,2.07317,-3.75,-0.335366,-9.25196,-0.392783,3.15424,-2.83537,-1.92073,3.07927
830.184,80.5737,16.7106,0,9.31184,1.49928,-2.7902,2.0122,-3.29268,-0.213415,-9.2328,-0.390388,3.19496,-2.80488,-1.31098,3.14024
830.194,80.5886,16.8348,0,9.30705,1.4921,-2.81654,1.95122,-2.7439,-0.182927,-9.2328,-0.349673,3.08958,-2.80488,-1.03659,3.32317
830.203,80.5986,16.9739,0,9.32381,1.49928,-2.80457,2.04268,-2.40854,-0.335366,-9.24478,-0.359253,3.1255,-2.92683,-0.823171,3.10976
830.214,80.6032,17.1016,0,9.331,1.52323,-2.74709,1.70732,-1.85976,-0.213415,-9.24238,-0.359253,3.06323,-2.77439,-0.426829,3.20122
830.223,80.6125,17.209,0,9.32142,1.48491,-2.82373,1.95122,-1.31098,-0.548781,-9.2304,-0.376018,3.04886,-2.65244,-0.487805,3.29268
830.233,80.6405,17.3428,0,9.31423,1.43701,-2.80696,1.58537,-1.03659,-0.27439,-9.2352,-0.402363,3.06323,-2.37805,-0.0609756,2.9878
830.244,80.6658,17.4166,0,9.29747,1.45138,-2.71595,1.58537,-0.457317,-0.152439,-9.21843,-0.399968,3.00096,-1.82927,-0.243902,3.23171
830.254,80.6829,17.4597,0,9.27352,1.47773,-2.7399,1.43293,-0.0304878,0.0609756,-9.25436,-0.407153,2.97222,-1.79878,0.152439,3.44512
830.264,80.703,17.5228,0,9.24478,1.46336,-2.692,1.40244,-0.243902,0.0304878,-9.2831,-0.411943,3.03449,-1.64634,0.304878,3.44512
830.273,80.7322,17.6394,0,9.24957,1.42743,-2.70158,1.15854,-0.213415,-0.121951,-9.29507,-0.402363,3.11832,-1.79878,0.0304878,3.65854
830.284,80.7568,17.6942,0,9.25915,1.42743,-2.68721,1.21951,-0.365854,-0.243902,-9.31184,-0.378413,3.06323,-1.85976,0.304878,3.75
830.294,80.7766,17.7303,0,9.25196,1.4418,-2.68961,1.31098,-0.670732,-0.182927,-9.26154,-0.380808,3.03688,-1.7378,0.731707,3.62805
830.303,80.7812,17.7618,0,9.30465,1.48731,-2.66805,1.25,-0.97561,-0.27439,-9.25915,-0.352068,3.0297,-1.70732,0.670732,3.96341
830.314,80.7868,17.7711,0,9.31663,1.48491,-2.63931,1.15854,-1.18902,-0.27439,-9.28549,-0.349673,2.99856,-1.4939,0.945122,4.20732
830.323,80.7981,17.7816,0,9.30226,1.45617,-2.66087,0.792683,-1.46341,-0.396341,-9.31184,-0.404758,3.01054,-1.18902,0.823171,4.48171
830.334,80.8029,17.7953,0,9.29028,1.47054,-2.68482,0.457317,-1.52439,-0.487805,-9.32142,-0.445474,3.03449,-1.03659,1.52439,4.42073
830.344,80.8004,17.8092,0,9.30465,1.50886,-2.68482,0.335366,-1.12805,-0.182927,-9.28549,-0.402363,3.0273,-0.518293,1.67683,4.84756
830.354,80.7952,17.8159,0,9.29507,1.51126,-2.65368,0.0914634,-1.18902,-0.365854,-9.31902,-0.421523,3.01533,0.121951,1.40244,5.27439
830.363,80.789,17.8101,0,9.27591,1.50886,-2.63931,-0.182927,-0.945122,-0.487805,-9.32381,-0.414338,2.9794,0.213415,1.55488,5.27439
830.374,80.7849,17.8066,0,9.2807,1.51126,-2.6465,-0.121951,-0.762195,-0.213415,-9.35734,-0.340093,2.99617,-0.0609756,1.55488,5.51829
830.384,80.7685,17.8101,0,9.29028,1.55197,-2.70637,-0.396341,1.4939,-0.365854,-9.38129,-0.313748,3.02491,0,1.34146,5.51829
830.393,80.7643,17.8279,0,9.29507,1.53042,-2.66805,-0.640244,0.27439,0.213415,-9.37411,-0.282612,3.06562,0.0609756,1.25,5.45732
830.404,80.7798,17.837,0,9.29986,1.45857,-2.7423,-0.579268,-0.640244,-0.182927,-9.36932,-0.306563,3.04407,-0.27439,1.52439,5.45732
830.414,80.7944,17.8499,0,9.3286,1.47294,-2.74469,-0.27439,-0.457317,0.0304878,-9.35495,-0.282612,3.04886,-0.152439,1.21951,5.30488
830.424,80.8133,17.831,0,9.34537,1.45617,-2.7878,-0.487805,-0.701219,-0.0609756,-9.31423,-0.330513,2.94108,0.0609756,1.55488,5.45732
830.434,80.8381,17.8387,0,9.31184,1.43462,-2.76625,-0.701219,-0.426829,0.121951,-9.32621,-0.368833,3.0297,0.945122,2.04268,5.85366
830.443,80.8683,17.8442,0,9.31902,1.41306,-2.77583,-0.853659,0.0914634,-0.0609756,-9.26154,-0.364043,3.00096,0.823171,1.89024,5.91463
830.453,80.8907,17.872,0,9.20885,1.41785,-2.81654,-0.304878,0.518293,-0.0609756,-9.2807,-0.387993,3.08718,0.762195,1.95122,6.03659
830.463,80.9183,17.9008,0,9.17532,1.3939,-2.84768,-0.0609756,0.731707,-0.0914634,-9.21364,-0.390388,3.07521,0.884146,2.10366,6.28049
830.474,80.9329,17.8986,0,9.22801,1.40348,-2.84528,0.426829,1.28049,-0.518293,-9.2352,-0.316143,2.97701,1.12805,2.46951,6.31098
830.483,80.9501,17.9198,0,9.21364,1.40827,-2.8381,0.670732,1.28049,-0.27439,-9.27112,-0.265847,3.0776,0.914634,2.43902,6.40244
830.493,80.9679,17.922,0,9.20885,1.3963,-2.8357,1.37195,1.55488,-0.365854,-9.32142,-0.210762,3.02491,0.152439,2.43902,6.12805
830.504,80.9801,17.916,0,9.2352,1.40588,-2.7878,1.4939,1.92073,-0.518293,-9.36932,-0.246687,3.00814,-0.182927,2.86585,6.0061
830.513,80.9683,17.9215,0,9.21843,1.48252,-2.75667,1.31098,1.98171,-0.731707,-9.38608,-0.232317,3.05844,-0.243902,2.43902,5.70122
830.524,80.9599,17.9225,0,9.25196,1.48491,-2.76385,1.55488,1.95122,-0.457317,-9.39566,-0.265847,3.04407,-0.823171,2.04268,5.45732
830.534,80.9434,17.9316,0,9.23759,1.50647,-2.68961,1.52439,2.0122,-0.823171,-9.40524,-0.282612,3.0776,-0.701219,2.04268,5.2439
830.543,80.9345,17.9153,0,9.22322,1.47533,-2.67524,1.15854,2.16463,-0.792683,-9.35734,-0.330513,2.96982,-1.0061,2.10366,5.36585
830.553,80.9153,17.9057,0,9.23759,1.52084,-2.64171,0.914634,1.55488,-0.884146,-9.29268,-0.380808,2.97222,-0.701219,2.0122,5.27439
830.563,80.9026,17.9072,0,9.29028,1.51126,-2.61776,0.792683,1.58537,-0.640244,-9.30944,-0.378413,3.01533,-0.579268,2.19512,5.09146
830.574,80.8971,17.8901,0,9.34776,1.50407,-2.5962,0.548781,1.37195,-0.365854,-9.27112,-0.399968,2.9315,-0.152439,2.59146,5.54878
830.583,80.8843,17.878,0,9.30944,1.52323,-2.57704,0.152439,1.03659,-0.396341,-9.29268,-0.423918,2.95545,-0.152439,2.5,5.64024
830.594,80.8827,17.8742,0,9.31902,1.4921,-2.53872,-0.213415,0.548781,-0.27439,-9.30465,-0.356858,2.98898,0,2.43902,5.42683
830.604,80.8825,17.8697,0,9.29986,1.4897,-2.58183,-0.579268,-0.0609756,-0.121951,-9.331,-0.349673,2.99377,-0.27439,2.37805,5.7622
830.614,80.8943,17.8789,0,9.30465,1.46336,-2.59141,-0.548781,-0.396341,0.27439,-9.35495,-0.268242,3.05125,-0.548781,2.0122,5.88415
830.624,80.9023,17.866,0,9.24717,1.47054,-2.61057,-0.884146,-0.762195,0.487805,-9.35016,-0.225132,2.96982,-0.762195,2.2561,5.70122
830.634,80.9117,17.8453,0,9.24478,1.47054,-2.63931,-0.609756,-0.945122,0.731707,-9.38848,-0.225132,2.95545,-1.18902,1.82927,5.64024
830.643,80.9174,17.8349,0,9.24238,1.47294,-2.62973,-0.762195,-1.03659,0.426829,-9.38129,-0.246687,2.98659,-1.06707,1.70732,5.27439
830.654,80.9144,17.8166,0,9.24717,1.50407,-2.63213,-0.823171,-1.25,0.457317,-9.35734,-0.306563,2.95066,-0.914634,1.70732,5.39634
830.663,80.9269,17.7767,0,9.30226,1.45378,-2.6944,-1.12805,-1.12805,0.121951,-9.34297,-0.325723,2.86444,-1.0061,1.95122,5.03049
830.674,80.9478,17.752,0,9.27591,1.42264,-2.68482,-1.03659,-1.12805,0.579268,-9.31184,-0.328118,2.89797,-0.487805,2.13415,5.27439
830.684,80.9617,17.7436,0,9.27591,1.44659,-2.70158,-1.0061,-1.37195,0.609756,-9.31423,-0.402363,2.95306,-0.27439,2.16463,5.27439
830.693,80.9757,17.7263,0,9.24717,1.4418,-2.70158,-0.670732,-1.31098,0.701219,-9.31902,-0.354463,2.92671,-0.487805,1.67683,5.39634
830.703,80.9918,17.7135,0,9.25915,1.43941,-2.73032,-0.579268,-1.52439,0.97561,-9.30944,-0.371228,2.93629,-0.243902,1.61585,5.85366
830.714,81.0004,17.6963,0,9.21603,1.46096,-2.68242,-0.792683,-1.25,0.884146,-9.32381,-0.380808,2.92432,-0.243902,1.58537,5.85366
830.724,81.0121,17.6712,0,9.22562,1.43941,-2.75906,-0.335366,-1.18902,0.640244,-9.36692,-0.335303,2.90516,0.0914634,1.76829,5.79268
830.734,81.0292,17.6415,0,9.25196,1.42025,-2.73751,-0.243902,-1.25,0.609756,-9.40764,-0.342488,2.90037,0.0609756,1.61585,5.36585
830.744,81.0401,17.6138,0,9.31423,1.44659,-2.79259,-0.396341,-1.28049,0.487805,-9.43877,-0.320933,2.90755,0.0609756,1.7378,5.45732
830.753,81.0509,17.569,0,9.32381,1.45378,-2.79499,-0.487805,-1.34146,0.731707,-9.44356,-0.340093,2.86684,0.304878,1.21951,5.12195
830.764,81.0604,17.5719,0,9.30705,1.44659,-2.77822,-0.487805,-1.18902,0.457317,-9.48188,-0.373623,3.01054,0.304878,0.823171,5.27439
830.773,81.0739,17.5295,0,9.29986,1.42983,-2.70158,-0.609756,-0.670732,0.457317,-9.45314,-0.390388,2.90755,0.396341,0.365854,5.42683
830.784,81.0868,17.4595,0,9.26154,1.42264,-2.75427,-0.609756,-0.518293,0.335366,-9.43398,-0.390388,2.84768,0.304878,0.27439,5.51829
830.794,81.1011,17.3864,0,9.2304,1.41067,-2.7423,-0.731707,-0.243902,0.243902,-9.39087,-0.347278,2.8381,0.670732,-0.0304878,5.79268
830.803,81.1231,17.3468,0,9.2328,1.38672,-2.73751,-0.335366,-0.243902,0.121951,-9.42919,-0.376018,2.86923,0.396341,-0.457317,5.79268
830.813,81.1346,17.3287,0,9.26633,1.41067,-2.73751,-0.609756,-0.304878,-0.121951,-9.38848,-0.376018,2.89558,0.182927,-0.426829,5.70122
830.824,81.1464,17.3015,0,9.29028,1.3963,-2.78541,-0.518293,-0.213415,-0.365854,-9.38608,-0.361648,2.87642,0.152439,-0.335366,5.51829
830.834,81.1615,17.3059,0,9.27112,1.37714,-2.71356,-0.0914634,-0.243902,-0.426829,-9.41243,-0.330513,2.94108,0.0304878,-0.518293,5.60976
830.843,81.1659,17.2761,0,9.26394,1.39151,-2.74469,-0.426829,-0.487805,-0.762195,-9.40285,-0.330513,2.85965,0.27439,-0.701219,5.54878
830.854,81.1724,17.2139,0,9.2304,1.39151,-2.75427,-0.27439,0.0609756,-0.548781,-9.40285,-0.316143,2.79978,0.182927,-0.426829,5.2439
830.863,81.167,17.2012,0,9.21603,1.42743,-2.77104,-0.335366,0.0914634,-0.670732,-9.38369,-0.328118,2.8836,0.0304878,-0.27439,5.60976
830.873,81.1691,17.201,0,9.21125,1.38193,-2.76385,-0.426829,0.396341,-0.945122,-9.37171,-0.335303,2.90037,0.0304878,-0.518293,5.73171
830.884,81.1651,17.2035,0,9.22562,1.40348,-2.69679,-0.0609756,0.487805,-1.06707,-9.35255,-0.342488,2.90037,0.243902,-0.701219,5.60976
830.893,81.1615,17.19,0,9.23999,1.41306,-2.77343,-0.0609756,0.548781,-0.914634,-9.35016,-0.306563,2.86684,0.152439,-0.518293,5.7622
830.903,81.1548,17.1969,0,9.26394,1.41067,-2.7399,-0.0609756,0,-1.28049,-9.38608,-0.308958,2.91713,0.0304878,-0.426829,5.82317
830.914,81.1481,17.2042,0,9.24957,1.42983,-2.70158,-0.121951,0.152439,-0.914634,-9.39806,-0.268242,2.92192,0.121951,-0.243902,5.82317
830.924,81.1412,17.2039,0,9.25436,1.42504,-2.73272,0.243902,-0.27439,-1.06707,-9.39327,-0.320933,2.90755,0,-0.365854,5.27439
830.934,81.1306,17.2067,0,9.23759,1.4442,-2.68961,0.487805,-0.487805,-1.0061,-9.38129,-0.294587,2.90995,-0.0914634,-0.457317,5.12195
830.943,81.1209,17.224,0,9.25196,1.44899,-2.71356,0.243902,-0.0304878,-0.884146,-9.35016,-0.280217,2.93629,0.0304878,-0.792683,5.18293
830.953,81.1101,17.2241,0,9.25675,1.45617,-2.67284,0.0609756,-0.152439,-0.884146,-9.31902,-0.292192,2.88839,-0.152439,-0.853659,5.18293
830.964,81.0978,17.24,0,9.25915,1.46815,-2.69919,0.0609756,0.121951,-0.792683,-9.34537,-0.323328,2.9339,-0.152439,-0.762195,5.30488
830.973,81.0786,17.2511,0,9.25675,1.50168,-2.71835,0.121951,0.27439,-0.579268,-9.34297,-0.320933,2.92671,-0.0914634,-0.945122,5.21341
830.983,81.0744,17.2472,0,9.26873,1.44899,-2.68242,-0.121951,-0.0609756,-0.609756,-9.35495,-0.364043,2.89318,0.121951,-1.12805,5.73171
830.994,81.07,17.2636,0,9.23999,1.4442,-2.6944,0.243902,-0.121951,-0.640244,-9.34776,-0.385598,2.94108,-0.27439,-0.823171,5.27439
831.004,81.0641,17.2718,0,9.27352,1.45857,-2.71356,0.243902,-0.762195,-0.579268,-9.35734,-0.387993,2.9315,0.121951,-1.34146,5.42683
831.013,81.0678,17.2828,0,9.25196,1.42504,-2.71116,0.182927,-0.97561,-0.487805,-9.40524,-0.332908,2.95785,0.182927,-1.46341,5.21341
831.024,81.0697,17.2904,0,9.26154,1.43462,-2.75188,0.152439,-0.884146,-0.426829,-9.38848,-0.335303,2.94348,0.0609756,-1.40244,5.30488
831.033,81.0751,17.2976,0,9.25196,1.42983,-2.7423,0.487805,-0.914634,-0.243902,-9.39327,-0.311353,2.94587,0.396341,-1.52439,5.09146
831.044,81.078,17.3098,0,9.24717,1.42983,-2.68482,0.335366,-0.853659,-0.396341,-9.40045,-0.320933,2.96264,0.243902,-1.28049,5.21341
831.053,81.0668,17.314,0,9.25436,1.46575,-2.81415,-0.152439,-0.609756,-0.853659,-9.37171,-0.306563,2.9315,0.457317,-1.15854,5.18293
831.064,81.0707,17.3278,0,9.27112,1.42264,-2.79259,0,-0.27439,-0.548781,-9.36692,-0.340093,2.95545,0.182927,-0.97561,5.21341
831.074,81.0702,17.3431,0,9.2328,1.42743,-2.78541,0.27439,-0.670732,-0.670732,-9.31663,-0.349673,2.94587,-0.152439,-1.03659,5
831.083,81.0837,17.3444,0,9.27591,1.38672,-2.7399,0.0609756,-0.0609756,-0.548781,-9.31663,-0.373623,2.91234,0.0304878,-1.34146,4.84756
831.093,81.0915,17.3658,0,9.25196,1.41546,-2.73032,0.152439,-0.0609756,-0.335366,-9.33579,-0.380808,2.97701,-0.152439,-1.28049,5
831.103,81.0951,17.3945,0,9.24238,1.41785,-2.74948,0.335366,-0.0304878,-0.518293,-9.29507,-0.378413,2.98898,0,-1.31098,5.03049
831.114,81.0875,17.405,0,9.25196,1.44659,-2.79499,0.426829,0,-0.853659,-9.34776,-0.366438,2.96264,0.152439,-1.79878,5.33537
831.124,81.0808,17.4115,0,9.24957,1.44659,-2.76864,0.518293,0.182927,-0.792683,-9.331,-0.378413,2.94348,-0.0304878,-1.40244,4.96951
831.133,81.0752,17.4265,0,9.26154,1.42743,-2.74948,0.152439,0.0914634,-1.12805,-9.3789,-0.378413,2.98659,-0.0914634,-1.40244,5.15244
831.144,81.0693,17.446,0,9.24957,1.42983,-2.7423,0.457317,0.0914634,-1.09756,-9.35255,-0.347278,3.00096,-0.426829,-1.79878,5.2439
831.154,81.0606,17.4577,0,9.27591,1.4418,-2.76864,0.304878,0.426829,-1.21951,-9.36453,-0.342488,2.9818,-0.27439,-1.79878,5.64024
831.164,81.0445,17.4768,0,9.27591,1.48491,-2.75427,0.548781,0.762195,-1.12805,-9.3286,-0.320933,2.99617,-0.518293,-1.7378,5.54878
831.174,81.0304,17.4845,0,9.2831,1.48731,-2.77822,0.27439,0.823171,-0.914634,-9.28549,-0.325723,2.94827,-0.365854,-1.92073,5.79268
831.183,81.0117,17.4998,0,9.25675,1.51126,-2.76385,0.152439,0.823171,-0.609756,-9.28789,-0.340093,2.9794,-0.426829,-2.13415,5.97561
831.193,80.9944,17.5164,0,9.25196,1.50886,-2.72074,0.579268,0.762195,-0.518293,-9.31663,-0.411943,2.99856,-0.0609756,-2.37805,5.64024
831.204,80.9892,17.5214,0,9.25436,1.49449,-2.71835,0.518293,0.548781,0.335366,-9.30944,-0.354463,2.95545,0.0914634,-2.5,5.57927
831.214,80.9784,17.5167,0,9.27112,1.54239,-2.72314,0.701219,0.579268,0.701219,-9.34537,-0.419128,2.92911,0.121951,-2.68293,5.39634
831.224,80.9688,17.5173,0,9.27591,1.54239,-2.71116,1.06707,0.182927,0.731707,-9.35016,-0.416733,2.95066,0.457317,-3.29268,5.30488
831.233,80.965,17.5352,0,9.28549,1.54479,-2.70398,0.548781,0.335366,1.06707,-9.36453,-0.416733,3.0297,0.518293,-3.41463,4.96951
831.244,80.9726,17.5376,0,9.2831,1.49928,-2.67284,0.701219,0.27439,1.25,-9.40764,-0.409548,2.9794,1.0061,-4.14634,5.12195
831.254,80.9765,17.5551,0,9.29986,1.52323,-2.76146,0.579268,0.365854,1.28049,-9.44117,-0.352068,3.05844,0.762195,-4.63415,5.12195
831.263,80.9832,17.578,0,9.29747,1.52563,-2.72314,0.152439,-0.0304878,1.55488,-9.40045,-0.366438,3.07281,0.701219,-5.36585,5
831.273,80.9925,17.6069,0,9.28789,1.51605,-2.71835,0.426829,-0.121951,1.67683,-9.41482,-0.330513,3.10874,0.396341,-6.31098,5.51829
831.284,81.0086,17.6303,0,9.30465,1.55437,-2.79499,0.762195,0.243902,2.7439,-9.37411,-0.344883,3.07521,0.426829,-7.19512,5.79268
831.293,81.0293,17.621,0,9.27352,1.55916,-2.72074,0.701219,0.487805,3.32317,-9.40285,-0.349673,2.93869,0.853659,-8.01829,5.54878
831.304,81.0596,17.6096,0,9.20406,1.54239,-2.7399,0.0304878,0.823171,4.2378,-9.38608,-0.330513,2.92192,1.06707,-8.62805,5.67073
831.314,81.103,17.6077,0,9.17053,1.44899,-2.84289,0.152439,-0.182927,4.5122,-9.49625,-0.344883,2.99617,0.884146,-10.0305,5.39634
831.324,81.1354,17.6034,0,9.07712,1.46575,-2.66087,-0.121951,0.27439,3.90244,-9.64235,-0.421523,3.0297,1.03659,-11.5244,4.81707
831.333,81.1813,17.5854,0,9.17292,1.35079,-2.82133,1.03659,0.518293,3.62805,-9.72617,-0.416733,2.98898,0.792683,-13.0793,4.20732
831.344,81.2284,17.5827,0,9.18969,1.29331,-2.90995,1.12805,0.609756,2.9878,-9.71659,-0.397573,3.05365,0.609756,-14.4512,4.42073
831.354,81.2803,17.579,0,9.25436,1.23823,-2.91474,1.34146,0.396341,2.59146,-9.69264,-0.354463,3.03928,0.487805,-16.1585,4.29878
831.363,81.3254,17.5638,0,9.25675,1.25739,-2.91474,1.7378,0.945122,2.10366,-9.68067,-0.378413,2.9794,0.27439,-17.8354,4.93902
831.374,81.3651,17.5546,0,9.21125,1.26457,-2.91953,1.82927,1.43293,1.37195,-9.65911,-0.378413,2.99617,-0.0914634,-19.5732,5.21341
831.383,81.4152,17.5463,0,9.18729,1.21188,-2.8381,2.04268,1.06707,1.06707,-9.60882,-0.438289,2.9818,0.121951,-21.3415,5.39634
831.393,81.4911,17.5184,0,9.17532,1.13763,-2.83331,2.31707,1.12805,0.548781,-9.61121,-0.428708,2.88839,0.0609756,-23.1402,5.70122
831.404,81.5817,17.4734,0,9.16574,1.12805,-2.85007,2.56098,0.884146,0.152439,-9.59924,-0.433499,2.79978,0.213415,-24.5122,5.36585
831.414,81.6474,17.4389,0,9.15856,1.13524,-2.84289,3.01829,1.4939,-0.396341,-9.58726,-0.390388,2.8357,0.335366,-25.4268,5.36585
831.423,81.6766,17.4138,0,9.14179,1.17595,-2.85247,3.20122,1.76829,-0.97561,-9.65193,-0.352068,2.89079,0.152439,-26.8598,5.54878
831.433,81.6915,17.4113,0,9.15137,1.152,-2.86205,3.53659,1.03659,-1.76829,-9.72857,-0.356858,3.01293,0,-28.811,5.27439
831.444,81.7011,17.3932,0,9.24478,1.11847,-2.89558,4.60366,0.945122,-2.43902,-9.88185,-0.364043,2.98419,-0.27439,-30.4878,5.06098
831.454,81.6977,17.3567,0,9.2831,1.152,-2.9315,5.06098,0.213415,-3.07927,-9.98484,-0.366438,2.92192,-0.609756,-31.9207,4.5122
831.464,81.6831,17.3245,0,9.34297,1.18553,-2.91713,5.21341,0.670732,-3.78049,-9.97286,-0.387993,2.9315,-0.609756,-33.2927,4.48171
831.474,81.6635,17.3244,0,9.43638,1.23583,-2.98659,4.57317,1.95122,-3.81098,-9.97526,-0.426313,3.0776,-1.37195,-35.3049,4.90854
831.483,81.6351,17.332,0,9.54894,1.2981,-3.00814,3.62805,4.78659,-4.14634,-9.96328,-0.486189,3.10874,-1.40244,-37.6829,5.18293
831.493,81.601,17.3713,0,9.62798,1.35558,-3.13029,2.34756,7.92683,-4.20732,-9.98723,-0.543669,3.2692,-1.15854,-40.3659,5.73171
831.504,81.5687,17.4068,0,9.73575,1.38193,-3.2237,1.52439,10.9756,-3.96341,-9.91538,-0.584385,3.23328,-0.853659,-42.1037,6.4939
831.514,81.5379,17.4369,0,9.7142,1.37235,-3.02251,1.31098,13.5976,-3.96341,-9.89862,-0.651445,3.20693,-0.0914634,-43.4451,6.95122
831.524,81.5083,17.4759,0,9.5226,1.30529,-2.66326,1.0061,15.4573,-4.39024,-9.86988,-0.677791,3.24525,0.945122,-44.7866,7.9878
831.534,81.4765,17.5218,0,9.44835,1.2502,-2.76385,0.853659,17.0732,-5.21341,-9.87467,-0.720901,3.28597,2.68293,-46.2805,8.53659
831.543,81.4356,17.576,0,9.46272,1.3005,-2.96982,2.77439,16.2805,-5.60976,-9.80521,-0.802332,3.30992,4.02439,-47.7744,8.90244
831.554,81.3853,17.6601,0,9.37171,1.37235,-2.76146,1.37195,16.6463,-5.60976,-9.72857,-0.835862,3.43685,5.64024,-49.1768,9.14634
831.563,81.3469,17.7625,0,9.05317,1.11368,-2.73751,-0.0914634,20.4268,-7.19512,-9.58247,-0.811912,3.48715,7.65244,-50.4573,9.14634
831.574,81.3415,17.8387,0,8.943,0.696951,-2.79738,-2.43902,25.9146,-9.11585,-9.40045,-0.716111,3.3171,9.32927,-50.3963,9.57317
831.584,81.2695,18.0966,0,8.94779,1.0586,-2.75906,-1.70732,32.3171,-11.25,-9.30226,-0.570015,4.16015,8.9939,-51.7988,9.81707
831.593,81.189,18.4005,0,9.20885,1.09692,-2.58662,-2.28659,31.5854,-12.1646,-9.24478,-0.383203,4.40923,8.87195,-54.939,10.3049
831.603,81.1836,18.6446,0,9.72138,0.423918,-2.82852,1.79878,25.0915,-13.4451,-9.26154,-0.287402,4.17931,7.77439,-56.25,10.8232
831.614,81.0941,18.9282,0,9.48907,0.857417,-2.85965,6.28049,17.7134,-16.5854,-9.35255,-0.193997,4.46671,6.55488,-56.0061,10.8232
831.624,80.9632,19.2868,0,9.7597,1.1041,-2.59141,4.93902,16.5549,-18.3537,-9.39327,-0.131726,4.93134,5.33537,-57.4085,11.128
831.634,80.8062,19.6542,0,9.73815,1.22146,-2.37825,3.17073,20.3659,-19.878,-9.44835,-0.0622705,5.08223,3.56707,-58.4756,11.0976
831.643,80.6293,19.9947,0,9.58008,1.2981,-1.95913,-1.09756,21.3415,-21.0671,-9.50583,-0.0958008,5.04631,2.59146,-58.5061,10.8841
831.654,80.4292,20.3686,0,9.3765,1.27176,-1.78189,-3.9939,20.2134,-23.7805,-9.50823,-0.129331,5.30257,2.28659,-58.7195,10.9756
831.664,80.2157,20.7355,0,9.26394,1.19751,-2.45729,-6.95122,18.9939,-26.2805,-9.41482,-0.131726,5.29299,2.04268,-58.3537,11.0671
831.673,79.9823,21.1148,0,9.54655,1.12566,-2.92192,1.06707,11.4634,-30.061,-9.32381,-0.102986,5.38879,2.7439,-58.2012,11.2195
831.683,79.6853,21.5474,0,9.93694,1.56155,-2.40939,3.9939,5,-32.5305,-9.14418,-0.0694556,5.65943,3.2622,-57.3171,11.8293
831.693,79.363,21.9791,0,10.016,1.71962,-2.3064,4.39024,4.7561,-34.0549,-9.14418,-0.136516,5.75044,3.10976,-57.6524,12.1646
831.704,79.0307,22.4369,0,9.69983,1.77471,-1.91602,2.04268,5.03049,-34.4512,-9.01964,-0.162861,5.9157,1.67683,-56.6768,12.4695
831.714,78.6961,22.9352,0,9.59684,1.74597,-2.00224,1.03659,0.27439,-35.4878,-8.96456,-0.136516,6.21747,-0.640244,-55.7012,11.9512
831.723,78.3531,23.49,0,9.69264,1.76752,-1.97829,1.64634,-2.40854,-36.9817,-8.83283,-0.129331,6.57672,-3.53659,-55.7317,11.3415
831.734,77.9931,24.0604,0,9.96328,1.91841,-1.75555,-0.97561,-7.04268,-38.2622,-8.66997,-0.0311353,6.6821,-6.34146,-54.6037,10.3049
831.744,77.6056,24.628,0,10.4303,2.06211,-1.87291,-4.2378,-9.29878,-41.2195,-8.44723,-0.0167651,6.63181,-7.40854,-52.3171,9.69512
831.754,77.2114,25.1485,0,10.3704,2.15791,-2.10522,-5.94512,-8.20122,-41.5244,-8.3179,-0.0790356,6.38991,-7.13415,-48.5366,9.2378
831.763,76.7871,25.694,0,9.97047,2.27766,-1.83219,-7.53049,-9.63415,-43.1402,-8.16941,-0.215552,6.54559,-5.88415,-44.5732,9.45122
831.774,76.329,26.2385,0,9.88425,2.50998,-1.76752,-8.04878,-14.6646,-44.6341,-8.09996,-0.289797,6.61504,-3.9939,-41.9512,9.81707
831.784,75.8407,26.7812,0,9.92736,2.86684,-1.66214,-8.9939,-16.7683,-44.8476,-8.04727,-0.450264,6.69168,-1.95122,-40.0915,10.8232
831.793,75.3452,27.3422,0,9.89622,3.00096,-1.55676,-11.0061,-18.3232,-45.0305,-7.95865,-0.510139,6.85934,0.335366,-38.2927,12.2256
831.804,74.8521,27.9021,0,9.9082,3.11832,-1.62143,-12.8354,-20.8841,-44.5732,-7.89159,-0.55325,6.93358,1.67683,-36.0671,12.0732
831.814,74.3523,28.4925,0,9.96328,3.1734,-1.89925,-13.4756,-18.3841,-45.8537,-7.73112,-0.502954,7.12039,2.80488,-33.3537,12.1646
831.823,73.8501,29.1019,0,10.0639,3.30034,-1.98308,-14.5427,-16.6768,-46.128,-7.57305,-0.402363,7.24493,3.04878,-30.3963,12.1951
831.833,73.3448,29.7345,0,10.0423,3.3195,-2.04295,-15.8537,-15.3963,-47.1951,-7.42696,-0.294587,7.41259,2.80488,-26.7988,12.3476
831.844,72.8479,30.3659,0,9.9058,3.25244,-2.31838,-16.5549,-13.5976,-47.5915,-7.39582,-0.165256,7.54192,2.2561,-23.9024,12.4085
831.854,72.3408,30.9508,0,9.91299,3.35782,-2.24413,-16.189,-11.189,-48.5671,-7.44851,-0.0670605,7.45809,1.95122,-20.122,12.622
831.864,71.8071,31.5008,0,9.91538,3.56379,-2.20342,-16.25,-9.78659,-50.1524,-7.62574,0.0934058,7.56108,1.55488,-16.6463,12.8354
831.874,71.2188,32.028,0,9.79084,3.91107,-2.10283,-16.8598,-8.47561,-52.7134,-7.85806,0.105381,7.7886,0.487805,-14.0244,12.7134
831.883,70.6042,32.4961,0,9.72138,4.09548,-2.2106,-18.5976,-7.80488,-54.4207,-8.09277,0.146096,7.75747,-0.121951,-11.9512,12.5305
831.893,69.961,32.9171,0,9.49625,4.26313,-2.19384,-20.122,-8.41463,-55.8841,-8.2724,0.131726,7.73591,-0.701219,-9.69512,12.2866
831.904,69.3292,33.3143,0,9.41722,4.19368,-2.50759,-22.5915,-12.2561,-56.372,-8.36101,0.165256,7.77184,-1.34146,-7.56098,11.8902
831.914,68.695,33.6866,0,9.35974,4.23439,-2.44531,-23.5671,-14.7256,-57.2256,-8.45202,0.148491,7.79339,-1.37195,-6.37195,11.4329
831.924,68.0358,34.0296,0,9.34297,4.35654,-2.5483,-25.061,-13.0183,-59.7256,-8.47118,0.129331,7.70957,-1.03659,-5.2439,11.0366
831.934,67.362,34.3816,0,9.31663,4.46911,-2.57944,-23.2012,-14.939,-61.2805,-8.41849,0.112566,7.81016,-0.97561,-4.35976,10.7012
831.944,66.659,34.7168,0,9.0891,4.55293,-2.66566,-21.7988,-15.3963,-63.628,-8.30593,0.0790356,7.66167,-1.06707,-3.2622,10.3049
831.953,65.9285,35.1523,0,8.90947,4.8092,-2.57944,-23.9024,-15.5183,-64.2988,-8.19336,0.143701,7.39582,-1.06707,-0.152439,10.1524
831.964,65.2163,35.4714,0,8.7538,4.63915,-2.46448,-23.628,-17.3171,-64.8171,-8.02571,0.234712,7.36469,-1.98171,1.98171,10.061
831.974,64.5045,35.7604,0,8.78733,4.79962,-2.2609,-26.5549,-20.3354,-64.7561,-7.89159,0.359253,7.23775,-2.28659,3.07927,9.84756
831.983,63.8302,35.9845,0,8.85918,4.62239,-2.74948,-26.2805,-21.8598,-64.6037,-7.79339,0.387993,6.86892,-2.37805,4.78659,9.7561
831.994,63.1769,36.1884,0,8.94779,4.62718,-2.6944,-24.5427,-22.3171,-64.2683,-7.71196,0.361648,6.74198,-2.31707,6.92073,9.32927
832.003,62.5246,36.4049,0,8.76098,4.71819,-2.67045,-24.9085,-21.6463,-63.5366,-7.62335,0.263452,6.79228,-2.2561,9.02439,8.41463
832.013,61.8921,36.6008,0,8.74422,4.7134,-2.99617,-24.5427,-22.561,-62.8049,-7.53713,0.129331,6.64618,-2.40854,10.8841,7.53049
832.024,61.2622,36.7759,0,8.56219,4.76848,-2.66326,-22.7744,-21.9512,-62.2256,-7.44612,0.0215552,6.4929,-1.89024,13.4146,6.67683
832.034,60.6133,36.9244,0,8.38017,4.89781,-2.55309,-24.5122,-20.0915,-63.0183,-7.33115,-0.0383203,6.28453,-0.97561,16.0366,6.31098
832.043,59.9519,37.0695,0,8.17181,4.92895,-2.36149,-24.1463,-19.4207,-63.9939,-7.18027,-0.155676,6.17197,-0.457317,18.4756,6.76829
832.053,59.2612,37.2086,0,8.02092,5.18282,-2.22497,-26.8293,-19.9085,-64.7256,-7.12997,-0.174836,6.12885,-0.0914634,20.3659,7.07317
832.063,58.5852,37.3177,0,7.92272,5.0487,-2.52196,-26.6463,-18.5061,-65.3659,-7.12518,-0.196392,5.99473,0.426829,22.439,7.53049
832.074,57.9065,37.4013,0,7.8868,5.16127,-2.22737,-27.4695,-18.811,-65.6098,-7.15153,-0.165256,5.90612,0.609756,24.8171,7.71341
832.084,57.2404,37.4504,0,7.76226,5.15887,-2.18426,-27.378,-22.2561,-64.8781,-7.17308,-0.131726,5.76242,1.52439,27.5915,7.53049
832.093,56.5804,37.4908,0,7.91075,5.49657,-2.03337,-29.3598,-23.4451,-63.2012,-7.2138,-0.0263452,5.76242,1.95122,29.5122,7.40854
832.103,55.9475,37.5383,0,7.78621,5.36963,-2.27527,-30.5183,-21.25,-62.1951,-7.20661,0.100591,5.80313,1.98171,30.7317,6.98171
832.114,55.3084,37.5483,0,7.61616,5.49896,-2.16989,-32.4695,-22.8963,-61.5854,-7.3096,0.179626,5.70015,1.82927,31.7988,6.31098
832.124,54.6474,37.5195,0,7.13237,5.40556,-2.22976,-34.1768,-23.0183,-62.4085,-7.31678,0.225132,5.51094,1.85976,33.689,5.30488
832.133,53.9819,37.5041,0,7.05333,5.40556,-2.41178,-35.1524,-25.7622,-63.5976,-7.34552,0.270637,5.59716,1.70732,35.4573,4.78659
832.143,53.2956,37.4858,0,6.89766,5.48938,-1.96631,-33.75,-29.6646,-64.939,-7.33594,0.258662,5.57321,0.97561,36.8598,4.48171
832.154,52.5773,37.4183,0,6.84736,5.70494,-1.98787,-36.6463,-30.4268,-66.9817,-7.37427,0.170046,5.35287,0.640244,39.0854,3.96341
832.163,51.8777,37.316,0,6.99346,5.64746,-2.38544,-37.622,-30.4573,-68.3232,-7.48683,0.0383203,5.24988,-0.0304878,41.1585,3.71951
832.174,51.182,37.1904,0,7.13955,5.77439,-2.55549,-37.4695,-26.8293,-69.2683,-7.58263,0.0119751,5.18282,0.0914634,42.0732,3.59756
832.183,50.5054,37.0221,0,7.36708,5.87259,-2.62494,-36.9817,-27.1341,-69.5732,-7.597,0.00479004,4.96248,-0.213415,43.2622,3.29268
832.194,49.8117,36.8742,0,7.26409,6.07856,-2.55549,-37.1341,-25.3354,-69.9085,-7.60419,0.0215552,5.03433,-0.213415,44.2988,2.9878
832.203,49.097,36.7111,0,7.14674,6.28693,-2.89079,-39.2988,-20.3963,-70.5793,-7.61377,0.0862207,4.94093,-0.640244,45.5488,3.53659
832.213,48.4393,36.584,0,7.50599,6.12646,-2.91474,-37.0122,-16.9207,-70.5488,-7.64011,0.107776,5.10139,-1.18902,46.4634,3.62805
832.224,47.7743,36.4117,0,7.41019,6.41865,-2.79978,-33.7195,-15.2439,-69.2073,-7.61377,0.0742456,4.84512,-1.31098,48.3841,3.56707
832.233,47.0949,36.2123,0,7.17308,6.5408,-2.89079,-33.3232,-11.2195,-69.0549,-7.75028,0.0215552,4.77327,-1.55488,50.8841,3.5061
832.243,46.4169,36.014,0,7.05333,6.56235,-2.92911,-30.7317,-7.34756,-69.1159,-7.84848,0.0167651,4.80201,-1.85976,51.372,3.23171
832.254,45.7001,35.7754,0,6.70126,6.69887,-2.74469,-29.3902,-6.31098,-70.2744,-7.96344,0,4.64394,-2.04268,52.5915,3.41463
832.264,44.9433,35.4921,0,6.38991,6.81383,-2.61057,-29.5732,-5.91463,-72.0427,-7.98979,0.00239502,4.40923,-1.89024,54.7256,3.41463
832.274,44.1701,35.212,0,6.22226,6.72761,-2.9339,-30.061,-1.82927,-74.4512,-8.0329,0.0167651,4.39726,-2.0122,56.1585,4.05488
832.284,43.4036,34.9358,0,6.13125,6.42344,-2.61297,-26.4939,-1.09756,-77.1951,-8.06643,0.0167651,4.38289,-3.07927,56.5244,4.29878
832.294,42.5833,34.6239,0,6.05461,6.78988,-2.70637,-24.8171,1.15854,-80.2744,-8.09517,0.0526904,4.18649,-3.71951,57.7439,4.87805
832.303,41.7465,34.3437,0,5.93725,6.94077,-2.7902,-25.2439,6.06707,-81.2195,-8.09996,0.0670605,4.2775,-4.17683,58.5976,5.42683
832.313,40.8711,34.009,0,5.71212,7.12279,-2.6441,-22.3476,6.82927,-83.1707,-8.08559,0.0814307,3.97573,-4.78659,59.2683,5.67073
832.324,39.951,33.6772,0,5.59237,7.80058,-2.17228,-23.8415,6.06707,-83.2012,-8.11912,0.0359253,3.94699,-5.79268,59.9085,5.51829
832.333,39.0415,33.304,0,5.4798,7.80297,-2.32317,-25.5793,8.65854,-82.8659,-8.19336,0.00479004,3.74342,-6.55488,60.6402,5.21341
832.343,38.1604,32.8752,0,5.51813,7.73112,-2.20342,-23.2317,7.40854,-82.7134,-8.15025,-0.0455054,3.42248,-6.67683,61.372,4.66463
832.354,37.3065,32.4886,0,5.3864,7.57305,-2.05253,-22.0427,6.52439,-81.5549,-8.13349,-0.102986,3.52307,-6.58537,62.0427,4.05488
832.364,36.4617,32.1133,0,5.45106,7.72873,-1.65256,-22.2256,8.01829,-81.8902,-8.02811,-0.184417,3.4608,-6.31098,62.4085,3.59756
832.374,35.6198,31.7287,0,5.32652,7.76944,-1.91362,-23.2927,11.7683,-81.7683,-7.94188,-0.323328,3.32429,-6.25,63.2317,2.83537
832.383,34.8057,31.3192,0,5.32173,7.65209,-1.70286,-23.689,15.2439,-81.4329,-7.89877,-0.450264,3.14466,-5.45732,64.5427,2.5
832.394,33.8334,30.9219,0,4.09069,8.11672,-1.35798,-26.1585,15.7927,-82.7744,-7.87961,-0.493374,3.12071,-5.21341,64.8781,2.04268
832.403,32.9201,30.5137,0,4.34217,8.45681,-0.938848,-28.0183,11.4024,-79.6037,-7.91314,-0.498164,3.0273,-3.81098,64.7866,1.7378
832.413,32.0584,30.1302,0,4.44276,8.3179,-1.04423,-28.75,11.4329,-78.1098,-7.96823,-0.517324,3.08239,-3.44512,64.5732,1.31098
832.424,31.2114,29.6987,0,4.36133,8.19815,-1.24062,-32.8963,12.5305,-78.1707,-8.03769,-0.517324,2.85486,-3.53659,64.8171,0.945122
832.433,30.4393,29.2333,0,4.64394,7.89638,-1.75794,-33.4756,14.4512,-77.2561,-8.0808,-0.517324,2.66805,-3.01829,65.4878,0.426829
832.443,29.6282,28.8099,0,4.24637,8.02811,-1.27415,-32.0732,12.1646,-77.5305,-8.09756,-0.529299,2.76625,-3.35366,64.7866,0.304878
832.454,28.8808,28.3651,0,4.50264,8.35622,-1.21667,-32.5305,8.04878,-73.5976,-8.09277,-0.519719,2.61297,-2.83537,63.628,0.121951
832.464,28.2376,27.9061,0,4.06914,8.26521,-1.18793,-15.3049,10.7927,-60.1829,-8.14307,-0.548459,2.5028,-3.04878,63.1098,0
832.474,27.578,27.4627,0,4.00447,8.78972,-0.483794,-32.622,5.18293,-59.6646,-8.03529,-0.531694,2.46208,-3.47561,65.5183,0.0304878
832.484,26.8138,27.0439,0,2.64889,7.98021,-0.0694556,-40.2439,2.62195,-59.1768,-8.11193,-0.500559,2.51238,-4.57317,65.3659,0.0914634
832.493,26.1683,26.6928,0,2.87402,6.89047,-1.50168,-22.0732,-10.122,-57.3476,-8.15983,-0.397573,2.73032,-6.52439,64.8476,-0.0304878
832.504,25.3543,26.3268,0,2.68961,7.7431,-0.217947,-44.3598,-7.28659,-68.75,-8.30114,-0.301772,2.65847,-8.38415,62.439,-0.609756
832.513,24.8028,25.8728,0,4.91219,6.46655,-3.69073,-54.2073,28.8415,-80.4878,-8.33706,-0.213157,2.2609,-10.1524,62.6524,-0.670732
832.524,24.1064,25.4112,0,3.92065,7.61616,-3.10155,-37.378,5.2439,-76.0366,-8.33467,-0.131726,2.16031,-10.9756,63.3841,-1.03659
832.533,23.4125,24.9676,0,4.10985,8.95498,-2.55788,-29.1463,2.68293,-71.9207,-8.39694,-0.0598755,2.17468,-11.5549,63.2012,-0.97561
832.543,22.6661,24.4936,0,3.31471,9.67348,-0.608335,-39.3293,-8.9939,-66.9817,-8.34904,-0.0622705,1.97589,-11.5549,63.9024,-1.21951
832.554,22.1371,23.998,0,4.38768,8.37538,-2.05732,-37.7439,-5.57927,-64.1463,-8.42807,-0.172441,1.83698,-11.6768,63.9329,-1.34146
832.564,21.5825,23.5275,0,3.87514,9.137,-1.59508,-27.5915,-8.53659,-58.3232,-8.37059,-0.239502,1.84656,-12.439,65.2134,-1.52439
832.574,21.0271,23.1256,0,3.65719,9.01006,-1.43701,-30.6707,-5.67073,-57.7134,-8.53585,-0.304167,2.07888,-13.3841,62.8049,-1.89024
832.584,20.469,22.6607,0,3.42967,8.72266,-0.881367,-28.9634,-8.56707,-57.8354,-8.51669,-0.311353,1.76273,-14.2683,61.9207,-1.43293
832.593,19.9184,22.1606,0,3.22609,8.46639,-0.809517,-23.8415,-5.03049,-56.9817,-8.61489,-0.395178,1.57113,-13.8415,61.4329,-1.0061
832.604,19.3786,21.6843,0,3.14945,8.73943,-0.771196,-22.561,0.335366,-54.878,-8.69153,-0.443079,1.59987,-13.9329,60.1829,-0.396341
832.613,18.8317,21.2118,0,2.82373,8.69871,-0.383203,-19.9085,0.0609756,-52.9573,-8.74901,-0.500559,1.54958,-13.5061,59.0244,-0.548781
832.624,18.3059,20.7316,0,2.87642,9.07952,-0.443079,-22.7744,1.67683,-51.0976,-8.8496,-0.61073,1.46096,-13.2927,57.8963,-0.243902
832.633,17.7857,20.2642,0,2.78301,9.07473,-0.426313,-23.3841,1.58537,-50.5183,-8.7993,-0.64426,1.42743,-13.1098,57.8659,-0.243902
832.643,17.2799,19.7655,0,2.79499,9.35495,-0.00718506,-25.0915,-0.0914634,-49.2683,-8.84002,-0.718506,1.23583,-12.622,58.3537,-0.304878
832.653,16.7882,19.3273,0,2.66805,9.36932,-0.00958008,-28.2317,-1.09756,-47.3476,-8.85918,-0.752036,1.40109,-12.561,57.7134,-0.243902
832.664,16.3396,18.9173,0,2.63452,9.10347,-0.110171,-25.8232,-3.04878,-44.4512,-8.95737,-0.792751,1.45857,-12.7439,55.7317,0.213415
832.674,15.8806,18.5015,0,2.27048,9.22562,-0.289797,-26.128,-1.46341,-41.7073,-8.98372,-0.811912,1.37235,-13.0488,53.9024,0.243902
832.683,15.4192,18.0747,0,2.11241,9.23999,-0.170046,-24.939,-0.792683,-40.9451,-9.01485,-0.914897,1.26457,-12.378,52.7744,0.884146
832.693,14.9685,17.6525,0,2.08367,9.46991,-0.689766,-26.6463,4.26829,-39.8476,-9.00288,-0.929268,1.21188,-10.8841,51.4939,1.21951
832.704,14.5475,17.2473,0,2.26808,9.4244,-0.541274,-24.4207,3.71951,-40.0305,-8.98132,-0.910107,1.20948,-9.78659,50.2439,2.34756
832.714,14.1267,16.8218,0,2.08846,9.43398,-0.385598,-22.561,2.34756,-38.7195,-8.96935,-0.946033,1.06099,-9.08537,49.2988,3.78049
832.724,13.6685,16.3791,0,1.57832,9.32621,-0.258662,-19.9085,0.0914634,-37.5305,-9.08431,-0.986748,0.936453,-8.56707,49.2073,4.69512
832.735,13.1831,15.9406,0,1.3005,9.38129,-0.543669,-20.6402,-1.46341,-37.7439,-9.22801,-0.981958,0.895737,-7.95732,48.0488,5.97561
832.744,12.7307,15.5004,0,1.46815,9.47949,-0.419128,-18.9634,-3.87195,-37.2256,-9.30465,-1.00112,0.823887,-6.7378,47.5915,6.61585
832.754,12.2972,15.0488,0,1.4897,9.83874,-0.189207,-18.8415,-7.71341,-35.8232,-9.36453,-0.965193,0.708926,-5.91463,47.0122,6.92073
832.764,11.8623,14.5791,0,1.35798,9.98484,-0.0407153,-19.9085,-10.8232,-35.0915,-9.49386,-0.965193,0.56762,-4.87805,47.439,7.0122
832.773,11.4365,14.101,0,1.26936,9.62079,0.165256,-17.622,-14.0854,-34.5732,-9.60882,-0.847837,0.459844,-3.35366,47.2561,7.07317
832.784,10.9833,13.6357,0,1.00591,9.67109,0.196392,-16.2195,-13.9024,-35.0305,-9.6663,-0.759221,0.435894,-2.19512,46.5549,7.56098
832.793,10.5384,13.1633,0,1.09931,9.89862,0.196392,-15.4268,-13.75,-35.9146,-9.70941,-0.742456,0.328118,-1.28049,46.128,8.04878
832.804,10.1073,12.6712,0,1.17835,9.89622,0.275427,-15.8537,-13.6585,-36.3415,-9.67109,-0.720901,0.162861,0.396341,46.0976,8.5061
832.814,9.70613,12.1838,0,1.31726,9.73336,0.411943,-16.2805,-12.4695,-36.0366,-9.69504,-0.713716,0.100591,1.76829,46.7683,8.78049
832.824,9.30546,11.7168,0,1.28613,9.69743,0.467029,-16.7683,-9.87805,-36.4939,-9.76689,-0.740061,0.105381,2.77439,45.9756,8.62805
832.833,8.9272,11.282,0,1.31487,9.8124,0.617915,-17.5305,-6.43293,-35.1829,-9.70462,-0.749641,0.162861,3.32317,45.5183,8.29268
832.843,8.59589,10.8468,0,1.53042,9.79084,0.565225,-19.878,0.762195,-33.7195,-9.6663,-0.675395,0.0862207,3.65854,44.1463,7.89634
832.853,8.28523,10.4529,0,1.58311,9.55613,0.541274,-19.939,7.7439,-33.3537,-9.62558,-0.531694,0.186812,3.84146,42.9268,8.01829
832.863,7.98331,10.0409,0,1.47294,9.40045,0.502954,-19.4207,13.7805,-32.0732,-9.61121,-0.490979,0.0431104,3.65854,41.9817,8.35366
832.874,7.64819,9.63062,0,1.06339,9.36213,0.287402,-18.2317,16.5244,-31.128,-9.64474,-0.486189,-0.0191602,3.20122,41.6159,8.29268
832.884,7.28826,9.23669,0,0.857417,9.36213,0.251477,-16.7073,14.4512,-31.7988,-9.62558,-0.428708,-0.0191602,1.85976,41.0061,8.59756
832.893,6.92073,8.85781,0,0.766406,9.28789,0.191602,-13.628,11.7073,-32.2561,-9.65432,-0.364043,-0.0215552,0.579268,41.0366,8.29268
832.904,6.55514,8.45933,0,0.744851,9.32621,0.124541,-13.5671,12.1646,-32.5,-9.71899,-0.340093,-0.170046,-0.304878,40.9146,8.23171
832.914,6.21545,8.05855,0,0.838257,9.3789,0.282612,-13.2927,12.9878,-31.7073,-9.76928,-0.304167,-0.249082,-0.670732,40.5488,8.32317
832.923,5.90049,7.6628,0,0.890947,9.5202,0.407153,-14.8476,13.9329,-30.3659,-9.94412,-0.332908,-0.301772,-0.823171,39.8171,7.68293
832.934,5.59422,7.27154,0,0.819097,9.38369,0.342488,-13.2927,14.6951,-29.3902,-10.0878,-0.428708,-0.356858,-0.182927,38.6585,7.16463
832.943,5.30612,6.8924,0,0.797541,9.50104,0.476609,-11.5549,13.0488,-27.7744,-10.1597,-0.411943,-0.376018,0.579268,37.0122,6.34146
832.954,5.04436,6.51638,0,0.797541,9.68546,0.318538,-11.9512,11.6159,-25.4878,-10.2315,-0.399968,-0.433499,1.43293,35.7317,5.4878
832.963,4.80435,6.13845,0,0.651445,9.6184,0.411943,-11.9817,7.59146,-22.1037,-10.2842,-0.435894,-0.512534,2.04268,35.2134,4.63415
832.974,4.59547,5.75436,0,0.62031,9.59924,0.546064,-11.189,2.37805,-19.0549,-10.2794,-0.450264,-0.608335,3.38415,35.1524,3.93293
832.983,4.45227,5.36698,0,0.823887,9.48428,0.407153,-10,-0.97561,-15.3659,-10.301,-0.548459,-0.694556,5,34.4512,2.95732
832.993,4.39401,4.95563,0,1.11608,9.55373,0.289797,-8.81098,-3.41463,-10.4573,-10.2387,-0.62989,-0.869392,6.70732,33.7805,2.7439
833.004,4.38565,4.54421,0,1.27176,9.52978,0.0742456,-7.83537,-6.85976,-7.40854,-10.2052,-0.694556,-0.941243,8.5061,33.2012,2.59146
833.013,4.42085,4.11141,0,1.32924,9.62558,0.174836,-6.31098,-11.372,-3.84146,-10.1669,-0.783171,-1.10889,10,32.378,2.37805
833.024,4.51863,3.65781,0,1.1999,9.58487,0.237107,-4.48171,-14.5122,-0.884146,-10.1405,-0.843047,-1.27894,11.3415,31.311,2.65244
833.033,4.58463,3.19965,0,1.0562,9.6663,0.330513,-3.20122,-17.8659,1.43293,-10.0519,-0.783171,-1.36995,12.378,30.4878,3.01829
833.044,4.62327,2.70856,0,0.881367,9.71899,0.342488,-2.59146,-20.6402,2.53049,-9.95131,-0.65863,-1.5855,13.2927,30.122,3.65854
833.054,4.64612,2.28492,0,0.744851,9.72857,0.426313,-1.7378,-22.2256,2.89634,-10.1573,-0.440684,-1.39869,13.7805,30.061,4.29878
833.064,4.66309,1.86413,0,0.694556,9.91778,0.598755,-2.19512,-22.7134,3.14024,-9.7597,-0.526904,-1.40588,12.8963,29.1463,5.06098
833.073,4.687,1.42902,0,0.740061,9.83395,0.651445,-2.9878,-20.9451,3.23171,-9.85311,-0.356858,-1.55916,11.1585,26.5549,5.51829
833.083,4.72361,0.992055,0,0.852627,9.75012,0.960403,-2.89634,-19.0549,3.04878,-9.78126,-0.263452,-1.6334,10.4573,25.2439,5.51829
833.094,4.75936,0.553449,0,0.866997,9.72378,0.986748,-1.98171,-17.7134,2.80488,-9.8555,-0.177231,-1.7316,9.96951,23.9939,6.15854
833.104,4.79936,0.120392,0,0.922083,9.63756,0.775986,-0.548781,-15.7012,2.34756,-9.86269,-0.0742456,-1.78668,8.96341,23.0793,6.7378
833.114,4.83847,-0.289675,0,0.950823,9.7142,0.737666,0.0609756,-12.9268,1.89024,-9.94891,-0.0383203,-1.7771,7.7439,21.6768,7.16463
833.124,4.83376,-0.679825,0,0.696951,9.82197,0.811912,-0.0914634,-11.2195,1.67683,-9.98005,-0.0574805,-1.76752,6.98171,19.939,7.71341
833.134,4.81382,-1.05131,0,0.61073,9.92257,0.795146,-0.548781,-8.81098,1.58537,-10.0663,-0.129331,-1.76992,5.70122,17.8963,7.92683
833.143,4.76363,-1.42821,0,0.550855,9.92017,0.878972,-0.914634,-7.28659,0.792683,-10.0663,-0.167651,-1.86333,4.96951,16.5244,8.17073
833.154,4.69516,-1.80657,0,0.483794,9.97286,0.967588,-1.37195,-5.88415,0.609756,-10.0447,-0.253872,-1.93518,4.14634,15.7622,8.38415
833.164,4.60346,-2.19161,0,0.435894,9.95849,0.847837,-1.76829,-3.35366,-0.518293,-10.0327,-0.292192,-2.03337,3.68902,14.6951,7.86585
833.174,4.55005,-2.57166,0,0.555645,9.78366,0.735271,-1.70732,-2.40854,-1.82927,-10.0208,-0.352068,-2.07888,3.04878,13.872,8.47561
833.184,4.49334,-2.92756,0,0.524509,9.83395,0.761616,-0.518293,-0.365854,-1.76829,-10.0088,-0.383203,-2.03577,3.07927,12.5,8.53659
833.194,4.42355,-3.25968,0,0.443079,9.75012,0.684976,-1.79878,1.58537,-2.77439,-10.0208,-0.361648,-1.99505,2.71341,11.0061,8.93293
833.203,4.38839,-3.55772,0,0.673001,10.0016,0.766406,-0.884146,-0.823171,-2.22561,-10.0256,-0.356858,-1.90165,2.10366,8.96341,9.60366
833.214,4.34382,-3.83718,0,0.60115,9.80281,0.716111,-2.80488,-1.79878,-2.46951,-10.0471,-0.385598,-1.8753,1.37195,7.59146,9.5122
833.224,4.31154,-4.10305,0,0.65384,9.81,0.780776,-2.10366,-3.71951,-1.92073,-10.0375,-0.337698,-1.86093,0.762195,6.28049,9.14634
833.234,4.27997,-4.36701,0,0.646655,9.78605,0.687371,-2.34756,-3.44512,-1.79878,-10.0064,-0.344883,-1.88967,0.365854,5.21341,8.84146
833.244,4.254,-4.63151,0,0.687371,9.81479,0.61552,-2.2561,-2.86585,-1.95122,-9.9561,-0.268242,-1.88967,-0.243902,3.47561,8.14024
833.254,4.24271,-4.90561,0,0.728086,9.89862,0.526904,-2.37805,-2.40854,-1.0061,-9.86988,-0.244292,-1.88967,-0.762195,2.62195,7.86585
833.264,4.23286,-5.19267,0,0.730481,9.79323,0.481399,-2.34756,-1.31098,-1.09756,-9.86988,-0.222737,-1.87051,-0.823171,1.85976,7.43902
833.273,4.24337,-5.54053,0,0.802332,9.8076,0.632285,-2.04268,-0.853659,-0.701219,-9.83635,-0.301772,-1.97589,-1.70732,1.31098,7.28659
833.284,4.27413,-5.93646,0,0.819097,9.77407,0.682581,-2.13415,-0.243902,0.152439,-9.81479,-0.352068,-2.09325,-1.85976,1.06707,6.76829
833.294,4.31534,-6.34027,0,0.850232,9.75731,0.565225,-1.34146,-0.213415,-0.0304878,-9.84114,-0.419128,-2.02858,-2.34756,0.670732,6.64634
833.304,4.34743,-6.73775,0,0.843047,9.84114,0.471819,-1.28049,0.304878,0.0914634,-9.8076,-0.438289,-2.05253,-2.13415,0.640244,6.12805
833.314,4.38861,-7.13924,0,0.871787,9.79563,0.450264,-1.06707,1.89024,0.121951,-9.81958,-0.378413,-2.07409,-2.07317,0.487805,6.18902
833.324,4.3825,-7.5542,0,0.735271,9.80042,0.555645,-0.579268,2.46951,-0.0609756,-9.84114,-0.356858,-2.07888,-2.04268,0.243902,6.06707
833.334,4.35733,-7.97883,0,0.675395,9.82677,0.661025,-0.731707,1.55488,-0.121951,-9.84353,-0.347278,-2.09085,-2.40854,0.0609756,5.64024
833.343,4.32134,-8.3557,0,0.632285,9.82916,0.593965,-1.21951,1.67683,0.0914634,-9.8603,-0.325723,-2.1148,-2.89634,-0.121951,5.27439
833.354,4.29914,-8.59922,0,0.675395,9.84353,0.613125,-0.914634,1.18902,-0.0914634,-9.90101,-0.340093,-2.07888,-3.41463,-0.640244,4.54268
833.364,4.311,-8.82149,0,0.775986,9.79563,0.589175,-0.609756,0.97561,-0.0914634,-9.81479,-0.344883,-2.15552,-3.71951,-1.15854,4.05488
833.373,4.3322,-9.04079,0,0.811912,9.79803,0.517324,-0.0914634,1.89024,-0.152439,-9.81,-0.340093,-2.213,-3.38415,-1.28049,3.96341
833.384,4.34652,-9.2171,0,0.795146,9.81479,0.529299,-0.0914634,2.62195,-0.152439,-9.78366,-0.325723,-2.19863,-3.87195,-1.92073,3.44512
833.393,4.3364,-9.36738,0,0.720901,9.8555,0.536484,-0.27439,2.86585,-0.213415,-9.80042,-0.371228,-2.19384,-3.87195,-2.56098,3.65854
833.404,4.34871,-9.49902,0,0.807122,9.83156,0.541274,-0.365854,1.92073,-0.396341,-9.84353,-0.392783,-2.17228,-4.26829,-2.86585,3.5061
833.414,4.34534,-9.61568,0,0.744851,9.81719,0.613125,-0.182927,1.89024,-0.304878,-9.8603,-0.452659,-2.14594,-4.60366,-3.10976,2.92683
833.424,4.34627,-9.73613,0,0.771196,9.83156,0.598755,0.121951,2.31707,-0.518293,-9.83156,-0.433499,-2.18426,-4.54268,-3.38415,2.83537
833.434,4.36132,-9.86001,0,0.840652,9.77647,0.60115,-0.27439,2.59146,-0.731707,-9.77647,-0.395178,-2.20342,-4.96951,-3.2622,2.68293
833.443,4.36883,-9.97435,0,0.847837,9.77407,0.661025,0.518293,3.78049,-1.18902,-9.72617,-0.440684,-2.1651,-5.27439,-3.04878,2.7439
833.454,4.37569,-10.081,0,0.869392,9.80521,0.62989,1.18902,4.66463,-1.40244,-9.68306,-0.423918,-2.13396,-5.51829,-2.83537,3.23171
833.464,4.37395,-10.1859,0,0.804727,9.83874,0.646655,0.945122,5.85366,-1.15854,-9.68306,-0.423918,-2.14594,-5.64024,-2.83537,3.47561
833.473,4.36844,-10.2773,0,0.790356,9.86509,0.696951,0.152439,7.0122,-1.21951,-9.70222,-0.445474,-2.09804,-5.85366,-2.43902,3.75
833.484,4.34459,-10.3765,0,0.687371,9.83635,0.692161,-0.426829,6.4939,-1.31098,-9.69025,-0.467029,-2.1651,-6.15854,-2.9878,3.84146
833.494,4.32112,-10.4895,0,0.692161,9.80042,0.637075,-0.0609756,5.67073,-1.52439,-9.70701,-0.459844,-2.23216,-6.0061,-2.68293,3.78049
833.504,4.29465,-10.6111,0,0.680186,9.84593,0.680186,-0.609756,4.84756,-1.70732,-9.70462,-0.467029,-2.25611,-6.15854,-2.19512,3.56707
833.514,4.27982,-10.7217,0,0.744851,9.81958,0.608335,-0.640244,5.18293,-1.64634,-9.73096,-0.435894,-2.2585,-5.82317,-2.43902,3.29268
833.523,4.27254,-10.8021,0,0.811912,9.86748,0.62989,-0.213415,5.7622,-1.85976,-9.73096,-0.450264,-2.16749,-5.45732,-2.68293,3.68902
833.534,4.27079,-10.8906,0,0.828677,9.79084,0.555645,0.213415,6.28049,-1.7378,-9.75252,-0.433499,-2.22976,-4.96951,-2.95732,3.90244
833.544,4.26454,-10.9648,0,0.787961,9.84353,0.598755,0.182927,5.88415,-1.52439,-9.66869,-0.459844,-2.1627,-4.57317,-2.86585,4.42073
833.554,4.24213,-11.0465,0,0.677791,9.79084,0.646655,-0.213415,5.51829,-1.37195,-9.6639,-0.517324,-2.18905,-4.39024,-2.43902,4.7561
833.564,4.22847,-11.1385,0,0.718506,9.84593,0.574805,-0.0914634,4.5122,-1.18902,-9.62558,-0.519719,-2.19623,-4.54268,-1.82927,5.2439
833.573,4.21996,-11.227,0,0.735271,9.83874,0.584385,-0.27439,3.38415,-1.03659,-9.57289,-0.505349,-2.16031,-4.39024,-1.52439,5.45732
833.583,4.20545,-11.3046,0,0.711321,9.82197,0.632285,0.213415,2.40854,-1.25,-9.61121,-0.459844,-2.14833,-4.42073,-1.46341,5.70122
833.594,4.19534,-11.3793,0,0.713716,9.81,0.696951,0.640244,1.92073,-0.884146,-9.69504,-0.488584,-2.15312,-4.90854,-1.12805,5.79268
833.604,4.1889,-11.4926,0,0.728086,9.81,0.706531,0.518293,2.43902,-0.853659,-9.74533,-0.493374,-2.22976,-4.81707,-0.579268,5.94512
833.614,4.17526,-11.6029,0,0.716111,9.82677,0.696951,-0.0304878,2.10366,-1.34146,-9.74773,-0.495769,-2.24413,-4.32927,-0.579268,5.60976
833.624,4.15801,-11.7053,0,0.699346,9.80521,0.673001,-0.243902,1.70732,-1.4939,-9.75491,-0.514929,-2.22976,-4.42073,-0.426829,5.60976
833.634,4.13311,-11.7786,0,0.65384,9.79563,0.6251,-0.0914634,1.34146,-1.58537,-9.75252,-0.507744,-2.18186,-4.08537,-0.426829,5.60976
833.644,4.11036,-11.8537,0,0.675395,9.82197,0.699346,0.640244,0.97561,-1.79878,-9.76689,-0.512534,-2.20102,-4.20732,-0.396341,5.60976
833.653,4.08893,-11.9257,0,0.677791,9.8124,0.627495,0.152439,1.09756,-1.76829,-9.72857,-0.490979,-2.20102,-4.39024,-0.457317,5.42683
833.664,4.06646,-11.9961,0,0.670605,9.83874,0.723296,0.121951,1.03659,-1.79878,-9.73575,-0.524509,-2.22018,-4.29878,-0.548781,5.64024
833.673,4.0427,-12.0818,0,0.64426,9.88664,0.673001,-0.0914634,1.4939,-1.46341,-9.68785,-0.510139,-2.21779,-3.90244,-0.182927,5.91463
833.683,4.01694,-12.1206,0,0.64426,9.81,0.704136,-0.243902,1.85976,-1.89024,-9.71899,-0.565225,-2.14833,-3.23171,-0.0609756,5.88415
833.693,3.99573,-12.1714,0,0.665815,9.82677,0.651445,-0.365854,2.07317,-1.79878,-9.73096,-0.5772,-2.18665,-3.01829,0.182927,5.91463
833.704,3.96918,-12.2302,0,0.632285,9.80281,0.665815,-0.152439,1.98171,-1.92073,-9.73575,-0.58678,-2.2106,-2.2561,0.152439,6.15854
833.713,3.94636,-12.2441,0,0.62989,9.81958,0.64905,0.0609756,2.59146,-1.46341,-9.75252,-0.59157,-2.14594,-1.92073,0.548781,5.91463
833.724,3.92253,-12.2471,0,0.6251,9.84593,0.684976,-0.0914634,2.62195,-1.55488,-9.74054,-0.57241,-2.11959,-1.12805,0.304878,6.03659
833.734,3.90867,-12.2492,0,0.677791,9.82677,0.62031,-0.426829,1.92073,-1.4939,-9.74773,-0.534089,-2.11959,-1.09756,-0.0304878,6.09756
833.744,3.89993,-12.263,0,0.696951,9.8124,0.63468,-0.365854,1.67683,-1.37195,-9.75012,-0.538879,-2.14115,-0.396341,-0.0304878,6.12805
833.754,3.88645,-12.2668,0,0.680186,9.80281,0.61073,0,1.06707,-1.58537,-9.76449,-0.517324,-2.12917,-0.426829,-0.0304878,5.82317
833.764,3.8687,-12.2632,0,0.641865,9.80281,0.574805,0.182927,0.121951,-1.40244,-9.7597,-0.529299,-2.1148,-0.518293,0.182927,5.91463
833.773,3.85273,-12.2602,0,0.64905,9.82677,0.55325,0.152439,-0.365854,-1.37195,-9.79803,-0.529299,-2.12438,-0.27439,-0.0304878,5.70122
833.783,3.84371,-12.2621,0,0.677791,9.83395,0.61552,0.304878,-0.426829,-1.21951,-9.79323,-0.498164,-2.13157,-0.396341,-0.0304878,5.97561
833.794,3.8347,-12.261,0,0.680186,9.8603,0.66821,0.365854,0.182927,-1.25,-9.77168,-0.498164,-2.12199,-0.335366,-0.0304878,5.94512
833.804,3.82194,-12.2536,0,0.65863,9.8555,0.584385,0.27439,0.548781,-1.28049,-9.76449,-0.536484,-2.10762,-0.457317,0.182927,5.70122
833.814,3.81489,-12.25,0,0.687371,9.83395,0.617915,0,0.762195,-1.28049,-9.74054,-0.512534,-2.10762,-0.365854,0.365854,5.21341
833.823,3.80578,-12.2476,0,0.696951,9.82916,0.65863,0.0609756,0.548781,-1.61585,-9.73815,-0.529299,-2.11001,-0.457317,0.0914634,5.54878
833.833,3.80417,-12.2382,0,0.732876,9.78605,0.560435,0.579268,0.304878,-1.55488,-9.74294,-0.486189,-2.09804,-0.762195,0.0914634,5.45732
833.844,3.80124,-12.2427,0,0.696951,9.8124,0.536484,0.945122,1.55488,-1.15854,-9.71899,-0.502954,-2.1172,-0.701219,-0.27439,5.73171
833.854,3.78843,-12.224,0,0.66821,9.81479,0.60115,0.152439,1.52439,-1.58537,-9.72857,-0.534089,-2.07888,-0.609756,-0.0304878,5.64024
833.864,3.7754,-12.2291,0,0.677791,9.85311,0.598755,-0.0609756,1.82927,-1.7378,-9.73575,-0.546064,-2.11959,-0.853659,-0.27439,5.4878
833.874,3.75802,-12.2422,0,0.632285,9.84593,0.64426,0.152439,2.0122,-1.4939,-9.73336,-0.514929,-2.13396,-0.640244,0.152439,5.21341
833.884,3.74164,-12.228,0,0.617915,9.83395,0.617915,-0.304878,2.77439,-1.15854,-9.74054,-0.534089,-2.08846,-0.457317,-0.0609756,5.27439
833.893,3.71698,-12.2403,0,0.58199,9.84114,0.608335,-0.304878,2.37805,-1.4939,-9.77407,-0.543669,-2.14115,-0.213415,-0.0914634,5.03049
833.904,3.69398,-12.227,0,0.598755,9.81958,0.608335,-0.243902,2.40854,-1.7378,-9.79323,-0.502954,-2.09564,-0.243902,-0.396341,5.03049
833.914,3.68048,-12.2076,0,0.641865,9.84593,0.646655,-0.304878,1.98171,-1.4939,-9.8076,-0.524509,-2.07648,-0.27439,-0.701219,5.36585
833.924,3.67027,-12.1991,0,0.656235,9.82916,0.593965,0.182927,1.43293,-1.46341,-9.81719,-0.512534,-2.10043,-0.243902,-0.97561,5.27439
833.934,3.66473,-12.1877,0,0.665815,9.83635,0.560435,-0.0304878,1.15854,-1.21951,-9.77886,-0.474214,-2.08367,-0.518293,-0.914634,5.33537
833.944,3.64857,-12.189,0,0.61073,9.81719,0.560435,-0.304878,0.579268,-1.34146,-9.7597,-0.512534,-2.11241,-0.335366,-0.884146,5.30488
833.954,3.63945,-12.2104,0,0.641865,9.83156,0.579595,-0.487805,-0.426829,-1.21951,-9.72378,-0.519719,-2.14594,-0.213415,-0.396341,5.30488
833.964,3.63257,-12.2294,0,0.665815,9.84114,0.641865,-0.0914634,-0.335366,-1.40244,-9.69983,-0.534089,-2.14833,-0.457317,-0.823171,5.42683
833.974,3.61279,-12.2634,0,0.58199,9.87227,0.531694,-0.152439,0.0914634,-1.21951,-9.70222,-0.56762,-2.17468,-0.152439,-0.396341,5.42683
833.984,3.58902,-12.3083,0,0.570015,9.8579,0.603545,-0.426829,0.182927,-1.58537,-9.68785,-0.546064,-2.19384,-0.304878,-0.27439,5.39634
833.994,3.57479,-12.3206,0,0.632285,9.86509,0.63468,-0.670732,-0.0609756,-1.67683,-9.73336,-0.5772,-2.14594,-0.0914634,-0.0914634,5.4878
834.004,3.5656,-12.3179,0,0.661025,9.84832,0.66821,-1.06707,-0.335366,-1.67683,-9.71659,-0.589175,-2.1172,-0.609756,-0.213415,5.70122
834.014,3.55969,-12.3358,0,0.65384,9.83395,0.627495,-0.731707,0.335366,-1.34146,-9.74294,-0.56283,-2.1651,-0.27439,-0.335366,5.88415
834.023,3.55513,-12.3149,0,0.682581,9.84353,0.519719,-1.55488,0.548781,-1.61585,-9.72857,-0.5772,-2.08846,-0.457317,-0.182927,6.0061
834.034,3.55612,-12.3419,0,0.713716,9.8124,0.560435,-1.06707,0.884146,-1.61585,-9.71659,-0.57241,-2.17228,-0.121951,-0.182927,6.0061
834.044,3.56726,-12.3352,0,0.759221,9.74294,0.673001,-0.579268,1.0061,-1.52439,-9.71899,-0.55325,-2.1148,0.152439,-0.0914634,6.46341
834.054,3.56784,-12.3268,0,0.694556,9.81,0.617915,-0.0609756,1.52439,-1.40244,-9.7118,-0.546064,-2.10762,0.0914634,0.213415,6.06707
834.064,3.55366,-12.3422,0,0.60594,9.85311,0.58678,0,2.2561,-1.31098,-9.74294,-0.55325,-2.15791,0.335366,0.152439,6.0061
834.074,3.52899,-12.3722,0,0.55325,9.83395,0.59636,-0.457317,2.40854,-1.58537,-9.73575,-0.55804,-2.18186,0.304878,0,6.12805
834.084,3.49364,-12.3868,0,0.479004,9.87467,0.687371,-0.762195,1.37195,-1.40244,-9.75731,-0.58199,-2.16749,0.823171,0.121951,5.91463
834.094,3.46097,-12.4141,0,0.495769,9.85072,0.555645,-1.12805,0.884146,-1.64634,-9.7621,-0.62031,-2.19623,1.25,0.152439,6.18902
834.104,3.43092,-12.4088,0,0.500559,9.81719,0.550855,-0.97561,0.0609756,-1.4939,-9.79323,-0.55325,-2.14594,0.97561,-0.0609756,5.94512
834.114,3.41151,-12.3888,0,0.560435,9.84353,0.589175,-0.457317,-0.548781,-1.4939,-9.79323,-0.56762,-2.11241,1.06707,-0.335366,6.03659
834.124,3.40439,-12.3815,0,0.637075,9.88185,0.656235,-0.914634,-1.03659,-1.52439,-9.77647,-0.524509,-2.12917,0.914634,-0.792683,6.18902
834.134,3.40109,-12.3739,0,0.665815,9.83635,0.66821,-1.21951,-1.31098,-1.64634,-9.77168,-0.500559,-2.12678,0.457317,-0.670732,6.46341
834.143,3.39975,-12.364,0,0.670605,9.84593,0.622705,-1.03659,-1.28049,-1.55488,-9.76689,-0.507744,-2.1172,0.182927,-0.823171,6.12805
834.154,3.39784,-12.3609,0,0.680186,9.84832,0.641865,-1.15854,-0.548781,-1.70732,-9.73575,-0.510139,-2.12678,-0.121951,-0.823171,6.31098
834.164,3.39426,-12.3366,0,0.665815,9.86988,0.61073,-1.18902,0.0914634,-1.64634,-9.7118,-0.495769,-2.05972,-0.121951,-1.12805,5.94512
834.174,3.39395,-12.3271,0,0.670605,9.84832,0.524509,-1.31098,1.09756,-1.4939,-9.75012,-0.490979,-2.10283,-0.365854,-1.43293,6.28049
834.184,3.39485,-12.303,0,0.701741,9.83635,0.541274,-0.884146,2.0122,-1.76829,-9.77886,-0.519719,-2.05253,-0.609756,-1.82927,6.25
834.193,3.39891,-12.2945,0,0.694556,9.79323,0.548459,-0.884146,1.92073,-1.52439,-9.8076,-0.546064,-2.11001,-0.457317,-1.79878,5.97561
834.203,3.39227,-12.3067,0,0.622705,9.80281,0.56283,-0.701219,2.34756,-1.40244,-9.79084,-0.55804,-2.17947,-0.152439,-1.82927,6.09756
834.214,3.37183,-12.3077,0,0.534089,9.89143,0.56283,-0.548781,1.31098,-1.12805,-9.79084,-0.60115,-2.14115,-0.152439,-1.76829,5.94512
834.224,3.34347,-12.3108,0,0.490979,9.91299,0.62989,-1.18902,0.487805,-1.28049,-9.7621,-0.656235,-2.14115,-0.304878,-1.43293,5.88415
834.237,3.31343,-12.3178,0,0.483794,9.87706,0.598755,-1.28049,-0.487805,-1.55488,-9.73096,-0.560435,-2.14833,0.152439,-1.58537,5.88415
834.243,3.2882,-12.3254,0,0.502954,9.89622,0.64905,-1.21951,-1.15854,-1.40244,-9.73815,-0.560435,-2.15552,-0.0609756,-1.85976,5.94512
834.254,3.26882,-12.3448,0,0.546064,9.84593,0.622705,-1.31098,-1.0061,-1.67683,-9.70701,-0.548459,-2.19384,0.0304878,-2.0122,6.06707
834.264,3.24949,-12.3618,0,0.574805,9.84114,0.627495,-1.40244,-0.518293,-2.16463,-9.71659,-0.560435,-2.19144,0.0609756,-2.07317,6.37195
834.274,3.23254,-12.3794,0,0.59157,9.8555,0.60594,-1.37195,0.152439,-2.19512,-9.74773,-0.593965,-2.20342,0.0609756,-2.0122,6.52439
834.284,3.21173,-12.3861,0,0.57241,9.8603,0.64905,-1.85976,0.670732,-2.34756,-9.74533,-0.598755,-2.1651,0.518293,-1.92073,6.67683
834.293,3.18707,-12.3822,0,0.536484,9.82437,0.627495,-1.98171,0.487805,-2.31707,-9.76449,-0.598755,-2.13157,0.914634,-1.92073,6.64634
834.304,3.15364,-12.3814,0,0.476609,9.83395,0.701741,-2.59146,0.0304878,-2.43902,-9.77886,-0.584385,-2.14594,0.762195,-2.28659,6.43293
834.314,3.13335,-12.3731,0,0.555645,9.81958,0.64426,-2.65244,-0.457317,-2.28659,-9.77407,-0.555645,-2.1148,0.701219,-2.5,6.18902
834.324,3.10512,-12.3813,0,0.495769,9.83635,0.692161,-2.43902,-1.0061,-2.28659,-9.7621,-0.546064,-2.17707,0.792683,-2.65244,6.03659
834.334,3.0765,-12.3866,0,0.502954,9.89622,0.675395,-2.59146,-1.92073,-2.46951,-9.70222,-0.560435,-2.15312,0.945122,-2.56098,6.15854
834.344,3.04967,-12.3877,0,0.519719,9.88185,0.65384,-2.71341,-1.82927,-2.59146,-9.70941,-0.574805,-2.13875,1.15854,-2.46951,6.21951
834.354,3.02437,-12.392,0,0.531694,9.84832,0.613125,-2.86585,-1.43293,-2.68293,-9.75731,-0.570015,-2.1627,1.46341,-2.53049,6.31098
834.363,3.00296,-12.3868,0,0.560435,9.82197,0.665815,-2.37805,-1.43293,-2.7439,-9.76689,-0.59636,-2.12678,1.64634,-2.92683,6.64634
834.374,2.98337,-12.3762,0,0.538879,9.77407,0.613125,-2.59146,-1.4939,-2.37805,-9.79563,-0.608335,-2.11001,1.82927,-2.77439,6.61585
834.383,2.96756,-12.3453,0,0.555645,9.77407,0.617915,-2.65244,-2.16463,-2.28659,-9.83395,-0.589175,-2.02858,2.10366,-3.29268,6.58537
834.393,2.95259,-12.3259,0,0.529299,9.81,0.673001,-3.04878,-2.16463,-1.85976,-9.81,-0.589175,-2.0669,2.56098,-3.35366,6.25
834.404,2.95086,-12.3024,0,0.584385,9.80042,0.651445,-3.10976,-2.86585,-1.52439,-9.76689,-0.541274,-2.03577,2.28659,-3.71951,5.51829
834.414,2.95926,-12.28,0,0.637075,9.8076,0.711321,-3.62805,-3.29268,-1.43293,-9.72138,-0.519719,-2.02619,2.19512,-3.90244,5.64024
834.424,2.95841,-12.2621,0,0.59157,9.8076,0.725691,-3.35366,-2.83537,-1.52439,-9.69983,-0.512534,-2.03816,2.07317,-3.59756,5.54878
834.434,2.95001,-12.2353,0,0.546064,9.84593,0.718506,-3.38415,-3.17073,-1.4939,-9.73096,-0.538879,-2.00463,1.43293,-3.35366,5.51829
834.443,2.94034,-12.2031,0,0.550855,9.7597,0.692161,-4.5122,-2.62195,-1.76829,-9.77168,-0.58678,-1.98308,0.609756,-3.71951,5
834.454,2.92476,-12.1753,0,0.512534,9.8124,0.632285,-5.27439,-2.5,-1.7378,-9.82677,-0.6251,-2.00703,0.182927,-3.90244,4.57317
834.464,2.91384,-12.1516,0,0.55804,9.84353,0.58678,-5.91463,-2.2561,-1.95122,-9.87467,-0.64426,-2.02858,-0.182927,-4.5122,4.08537
834.474,2.90521,-12.1155,0,0.593965,9.79803,0.560435,-6.25,-0.945122,-2.2561,-9.88904,-0.661025,-1.9711,-0.670732,-5.2439,3.47561
834.483,2.89086,-12.0936,0,0.570015,9.84832,0.471819,-6.0061,0.823171,-2.43902,-9.86509,-0.65863,-2.02379,-1.06707,-6.15854,3.29268
834.493,2.87775,-12.0792,0,0.570015,9.86269,0.469424,-6.0061,1.28049,-2.34756,-9.82197,-0.701741,-2.04535,-1.58537,-6.18902,2.89634
834.503,2.85178,-12.0613,0,0.493374,9.82197,0.459844,-5.39634,1.15854,-2.65244,-9.77168,-0.711321,-2.01661,-1.82927,-6.55488,2.80488
834.513,2.82033,-12.0588,0,0.433499,9.77647,0.447869,-5.73171,-0.365854,-2.46951,-9.67827,-0.783171,-2.06211,-2.34756,-6.03659,2.77439
834.524,2.79022,-12.0449,0,0.426313,9.88185,0.452659,-5.82317,-1.85976,-2.22561,-9.67109,-0.843047,-2.00942,-2.7439,-5.2439,2.37805
834.534,2.7608,-12.0342,0,0.431104,9.97047,0.395178,-6.4939,-2.43902,-2.2561,-9.6639,-0.924478,-2.019,-3.23171,-4.93902,2.19512
834.543,2.72723,-12.0263,0,0.411943,10.0064,0.371228,-7.16463,-2.28659,-2.5,-9.63516,-0.950823,-2.02379,-3.9939,-5.03049,2.19512
834.554,2.70608,-12.0257,0,0.502954,9.93454,0.356858,-8.41463,-2.31707,-2.56098,-9.616,-0.974773,-2.05014,-4.14634,-4.45122,2.2561
834.563,2.70655,-12.0155,0,0.66821,9.86509,0.416733,-8.96341,-1.79878,-2.65244,-9.66869,-0.989143,-2.019,-4.81707,-4.20732,2.19512
834.574,2.71045,-12.0047,0,0.65863,9.84832,0.340093,-8.90244,-1.21951,-2.31707,-9.69025,-1.06099,-2.019,-4.87805,-4.48171,1.82927
834.584,2.72707,-12.0104,0,0.682581,9.83874,0.292192,-8.68902,-0.0304878,-1.7378,-9.64714,-1.12805,-2.07888,-5.18293,-3.59756,1.95122
834.593,2.73993,-12.0503,0,0.687371,9.91778,0.210762,-8.32317,0.365854,-1.89024,-9.61121,-1.18793,-2.20581,-4.90854,-2.71341,1.52439
834.604,2.75071,-12.1053,0,0.61073,9.86748,0.201182,-8.32317,-0.365854,-1.34146,-9.51541,-1.18553,-2.23934,-4.48171,-2.37805,1.67683
834.614,2.75874,-12.166,0,0.565225,9.83635,0.246687,-8.20122,-1.92073,-1.03659,-9.49146,-1.22864,-2.23455,-4.08537,-1.70732,1.7378
834.624,2.76874,-12.2656,0,0.550855,9.86748,0.316143,-8.56707,-3.90244,-0.701219,-9.47709,-1.27894,-2.33993,-3.56707,-1.37195,2.0122
834.634,2.77597,-12.3508,0,0.517324,9.86269,0.301772,-9.39024,-5.7622,-0.365854,-9.4747,-1.29092,-2.26329,-3.44512,-0.823171,2.28659
834.644,2.81409,-12.4008,0,0.60594,9.86748,0.201182,-9.87805,-6.82927,0.27439,-9.52978,-1.28134,-2.19863,-3.75,-0.640244,2.68293
834.653,2.87834,-12.4304,0,0.735271,9.82916,0.186812,-10.6402,-7.31707,0.670732,-9.57529,-1.23104,-2.17228,-3.90244,-0.609756,2.77439
834.663,2.95139,-12.4364,0,0.859812,9.83874,0.0886157,-11.311,-7.68293,1.76829,-9.62558,-1.2502,-2.13636,-4.5122,-0.670732,3.07927
834.674,3.04802,-12.4301,0,1.04423,9.84593,0.0670605,-11.6463,-7.34756,2.89634,-9.6663,-1.23104,-2.1148,-5.30488,-1.09756,3.10976
834.684,3.16994,-12.4058,0,1.20948,9.84832,-0.0167651,-11.0366,-6.92073,4.14634,-9.63756,-1.17116,-2.05493,-5.39634,-1.18902,3.38415
834.693,3.311,-12.3972,0,1.27655,9.76928,0.00718506,-10.5183,-7.2561,5.60976,-9.63037,-1.16877,-2.09325,-5.94512,-1.34146,3.2622
834.703,3.47557,-12.4015,0,1.35079,9.7118,-0.0407153,-9.72561,-7.80488,7.37805,-9.6184,-1.17835,-2.12917,-6.58537,-1.46341,4.08537
834.714,3.66346,-12.4007,0,1.35798,9.64474,0.0287402,-8.71951,-9.11585,9.90854,-9.60163,-1.19032,-2.11001,-6.64634,-1.25,4.45122
834.724,3.88004,-12.3992,0,1.42264,9.5681,0.0862207,-7.43902,-10.061,12.3171,-9.59924,-1.23823,-2.10762,-6.64634,-0.670732,4.81707
834.734,4.12824,-12.378,0,1.51605,9.55613,0.0766406,-6.18902,-11.9512,14.8476,-9.63037,-1.29571,-2.0693,-6.92073,-0.609756,4.84756
834.743,4.40083,-12.3468,0,1.59748,9.48907,0.153281,-5.18293,-14.2073,16.7378,-9.60163,-1.33163,-2.04056,-6.40244,-0.518293,4.57317
834.754,4.72228,-12.3233,0,1.78668,9.41243,0.105381,-3.84146,-15.5183,19.8476,-9.60882,-1.31008,-2.05972,-6.21951,-0.243902,4.39024
834.764,5.09485,-12.2726,0,1.94476,9.331,0.0119751,-2.37805,-16.6463,23.628,-9.5681,-1.29331,-2.00703,-5.64024,-0.0914634,4.14634
834.774,5.51346,-12.164,0,2.08606,9.22322,0.0646655,-0.640244,-17.2256,27.1037,-9.54655,-1.26457,-1.89446,-5.21341,-0.182927,4.2378
834.783,5.99566,-12.1092,0,2.33993,9.11305,-0.0239502,1.09756,-17.6829,31.0671,-9.52739,-1.25499,-1.93997,-5.45732,-0.579268,4.63415
834.794,6.5343,-12.0585,0,2.51717,8.96216,0,3.78049,-17.3476,35.1829,-9.50104,-1.20709,-1.93039,-4.66463,-0.670732,4.78659
834.803,7.1225,-11.9978,0,2.66805,8.88313,0.0119751,6.43293,-16.2805,39.2378,-9.5202,-1.12566,-1.8753,-3.78049,-1.12805,5.42683
834.814,7.75926,-11.9193,0,2.76385,8.82565,-0.0215552,9.26829,-15.3963,44.0244,-9.52739,-1.09692,-1.80345,-2.46951,-1.34146,6.18902
834.824,8.45015,-11.8464,0,2.89797,8.78733,-0.0550855,12.1037,-14.5732,49.0854,-9.54176,-1.02746,-1.78189,-1.28049,-1.7378,6.89024
834.834,9.18114,-11.7697,0,2.9315,8.73224,-0.117356,14.878,-14.2073,53.9634,-9.54415,-1.02746,-1.72202,-0.213415,-2.40854,7.16463
834.843,9.95233,-11.6795,0,2.99617,8.62926,-0.102986,16.5854,-13.8415,58.3537,-9.50583,-0.917292,-1.62382,0.945122,-3.23171,7.56098
834.854,10.7647,-11.603,0,3.14466,8.67237,-0.0646655,19.9695,-13.5671,62.5305,-9.43159,-0.797541,-1.65017,2.07317,-3.29268,7.62195
834.864,11.6144,-11.5162,0,3.35542,8.80409,-0.177231,22.8659,-12.0732,66.0976,-9.35016,-0.701741,-1.5855,2.46951,-3.29268,7.80488
834.874,12.4773,-11.4323,0,3.47038,9.03641,-0.289797,26.0061,-10.9451,68.8719,-9.37171,-0.61552,-1.59029,3.2622,-3.14024,7.95732
834.883,13.3465,-11.3499,0,3.62127,9.41961,-0.354463,28.4756,-9.72561,71.25,-9.35255,-0.505349,-1.59269,3.65854,-2.77439,7.80488
834.893,14.217,-11.2727,0,3.78892,9.81719,-0.407153,30.8537,-7.2561,72.9878,-9.46033,-0.411943,-1.64298,4.39024,-2.10366,7.71341
834.903,15.0826,-11.205,0,3.86317,10.2627,-0.261057,32.6524,-6.28049,75.2439,-9.59924,-0.342488,-1.71244,4.60366,-1.4939,7.43902
834.913,15.921,-11.1736,0,3.79611,10.5237,-0.186812,35.122,-7.04268,75.8537,-9.77886,-0.311353,-1.85135,5.12195,-1.0061,7.16463
834.924,16.7552,-11.1987,0,3.8967,10.653,-0.172441,37.1951,-6.15854,76.6159,-9.96328,-0.205972,-2.02619,5.60976,-0.335366,7.9878
834.934,17.5816,-11.2217,0,3.96615,10.7512,-0.265847,41.5549,-3.9939,77.1951,-10.0878,-0.160466,-2.0669,6.18902,-0.792683,8.90244
834.943,18.406,-11.2622,0,4.07153,10.6866,-0.390388,45.5183,-2.43902,77.439,-10.1716,-0.0958008,-2.16749,6.70732,-1.37195,10.3659
834.953,19.2767,-11.3307,0,4.5697,10.4638,-0.696951,49.3598,1.58537,78.2622,-10.2339,-0.0431104,-2.32556,7.0122,-2.04268,12.4695
834.964,20.1886,-11.4116,0,5.00559,10.3177,-1.03944,54.6341,7.83537,79.5732,-10.2651,0.0455054,-2.40699,7.19512,-2.22561,14.9695
834.974,21.1273,-11.5187,0,5.32173,10.2722,-1.19032,57.9573,17.8354,81.0976,-10.2004,0.184417,-2.52675,7.62195,-2.43902,17.0427
834.984,22.0893,-11.6587,0,5.50854,10.2531,-1.07776,60.7622,29.2988,83.6281,-10.0471,0.368833,-2.65129,6.98171,-2.53049,19.7866
834.994,23.008,-11.8354,0,5.23312,10.3561,-0.912502,61.5244,43.5366,84.1159,-9.90341,0.56762,-2.81175,6.82927,-2.86585,21.4634
835.003,23.8553,-12.0483,0,4.91458,10.6435,-0.637075,62.8354,55.0915,82.8354,-9.76689,0.694556,-2.98419,7.04268,-3.32317,23.0488
835.013,24.5396,-12.2881,0,3.87754,11.144,0.0862207,61.8902,60.8232,79.3598,-9.70701,0.754431,-3.08958,7.28659,-2.77439,24.2683
835.024,25.0738,-12.6257,0,2.80696,11.2542,0.237107,64.8476,64.2073,76.0061,-9.77886,0.713716,-3.15185,8.01829,-0.823171,24.6646
835.034,25.469,-12.8636,0,2.24174,11.5871,0.359253,62.3171,62.2256,69.1463,-10.0016,0.560435,-3.25483,7.9878,2.16463,24.4512
835.043,25.6629,-13.0601,0,1.25978,10.5716,0.677791,58.2622,55.061,57.8963,-10.1764,0.445474,-3.25962,7.31707,4.60366,24.2683
835.054,25.7622,-13.2279,0,0.922083,9.92257,0.938848,65.3049,39.9695,51.6768,-10.2914,0.392783,-3.19735,6.58537,5.54878,23.872
835.063,25.8,-13.3471,0,0.778381,10.1094,1.38193,67.2561,24.8476,47.439,-10.3106,0.411943,-2.99377,5.88415,4.57317,24.0549
835.074,25.8698,-13.4008,0,1.51844,9.73096,1.4921,64.1159,13.689,41.6768,-10.2579,0.481399,-2.67524,4.60366,2.7439,24.7256
835.083,26.0364,-13.4136,0,2.6441,9.61361,1.29331,61.5854,3.29268,38.4146,-10.2339,0.514929,-2.48124,3.23171,-0.762195,25.3659
835.094,26.3433,-13.4161,0,3.93741,9.44356,0.936453,59.0244,-2.46951,38.2622,-10.0519,0.608335,-2.41178,1.92073,-3.59756,25.9451
835.103,26.7847,-13.4275,0,5.06786,9.24717,0.593965,56.7988,1.40244,40.1829,-9.81479,0.773591,-2.39741,1.15854,-5.2439,26.7683
835.113,27.2882,-13.4373,0,5.56363,9.19448,0.498164,50,14.4207,42.4085,-9.61361,0.814307,-2.34472,0.487805,-6.28049,27.0427
835.124,27.8087,-13.451,0,5.59237,9.02443,0.574805,41.2805,32.3171,43.9329,-9.48428,0.756826,-2.33275,-0.121951,-7.0122,26.5244
835.134,28.2826,-13.4784,0,5.06068,8.73224,0.445474,34.2378,48.9634,43.689,-9.40285,0.632285,-2.37586,-0.579268,-7.80488,24.5732
835.143,28.6818,-13.5082,0,4.63197,8.66758,0.651445,27.6524,63.1098,41.0671,-9.32142,0.510139,-2.37107,-1.09756,-8.35366,22.5305
835.153,28.9881,-13.5349,0,3.82964,8.07122,0.797541,23.3232,68.1402,37.9878,-9.26633,0.469424,-2.34951,-1.03659,-9.26829,19.939
835.163,29.2208,-13.5271,0,3.44164,7.89159,0.895737,21.25,69.939,34.8171,-9.30465,0.493374,-2.21539,-1.58537,-10.7927,18.1707
835.174,29.3907,-13.5106,0,3.14945,7.70238,0.859812,19.0549,67.7744,31.5854,-9.36692,0.543669,-2.19144,-2.07317,-11.8293,16.4939
835.183,29.5036,-13.4972,0,3.01054,7.61377,0.694556,18.3232,60.6402,27.4695,-9.36932,0.617915,-2.20342,-3.23171,-12.2256,15.4268
835.194,29.5909,-13.5109,0,3.13748,7.63053,0.459844,17.622,53.3232,23.5061,-9.3765,0.699346,-2.32077,-4.02439,-12.0427,14.8171
835.204,29.6408,-13.5328,0,3.26202,7.72873,0.112566,16.7073,45.1829,18.7805,-9.38608,0.814307,-2.36149,-5.67073,-11.6159,13.9634
835.214,29.6594,-13.5602,0,3.3674,7.83171,-0.234712,15.7317,35.9146,14.9085,-9.42919,0.852627,-2.39981,-6.67683,-10.9756,13.2622
835.224,29.6522,-13.6111,0,3.47996,7.7886,-0.56283,14.8476,26.128,10.6707,-9.45314,0.926873,-2.51477,-8.10976,-10.5488,12.8354
835.234,29.6226,-13.6683,0,3.60211,7.76944,-0.855022,13.7805,16.6768,6.79878,-9.55852,0.910107,-2.57944,-9.57317,-9.69512,11.7988
835.244,29.5806,-13.7304,0,3.78174,7.66406,-0.787961,12.5,8.44512,3.71951,-9.63277,0.943638,-2.63213,-10.9756,-9.32927,10.7622
835.254,29.4492,-13.7912,0,3.92065,7.48923,-0.536484,11.6768,-0.0304878,1.06707,-9.71659,0.900527,-2.66087,-12.1951,-9.66463,10.0915
835.264,29.3874,-13.858,0,3.96376,7.36229,-0.543669,11.4024,-6.40244,-2.89634,-9.75012,0.874182,-2.70877,-13.75,-9.69512,9.05488
835.274,29.314,-13.9305,0,4.09069,7.3551,-0.570015,10,-8.23171,-6.85976,-9.7142,0.910107,-2.73751,-15.0305,-10.122,8.44512
835.284,29.2149,-13.9869,0,4.32301,7.44612,-0.637075,8.17073,-7.43902,-11.7988,-9.67348,0.955613,-2.66566,-16.0366,-10.6707,7.86585
835.293,29.0892,-14.0236,0,4.60562,7.58982,-0.60115,7.04268,-2.2561,-16.9817,-9.6663,0.960403,-2.58423,-17.3476,-10.9451,7.07317
835.304,28.9453,-14.0481,0,4.92895,7.77663,-0.387993,5.33537,5.03049,-21.372,-9.61361,0.996328,-2.52196,-19.2073,-11.0671,6.4939
835.314,28.7966,-14.0695,0,5.13013,7.73591,-0.342488,4.29878,13.9329,-24.5732,-9.54176,1.01549,-2.49322,-20.9146,-11.25,5.91463
835.323,28.663,-14.0997,0,5.39598,7.75028,-0.193997,3.04878,23.3232,-25.9756,-9.49625,1.03465,-2.52435,-22.8049,-11.3415,5.09146
835.333,28.5866,-14.159,0,5.9636,7.87003,-0.114961,0.0304878,32.0732,-25.122,-9.45314,1.05381,-2.64889,-24.7561,-11.372,4.20732
835.344,28.3897,-14.2256,0,5.77439,8.23887,-0.301772,0.487805,36.4939,-33.2317,-9.35255,1.12566,-2.66326,-26.4024,-10.6402,3.62805
835.354,28.194,-14.3129,0,6.02347,8.54782,-0.0215552,-2.43902,39.3293,-33.811,-9.30226,1.18314,-2.75188,-28.3232,-9.96951,2.95732
835.364,28.0181,-14.4268,0,6.27256,8.67716,-0.160466,-6.12805,45.7012,-33.5976,-9.30465,1.22146,-2.886,-29.939,-9.20732,2.37805
835.374,27.9414,-14.5522,0,6.78988,8.28198,-0.680186,-8.47561,55.3659,-30.9451,-9.31184,1.28613,-2.96024,-30.4573,-8.68902,2.43902
835.383,27.8767,-14.6708,0,7.04854,8.08559,-1.56395,-9.45122,66.5244,-33.4146,-9.41961,1.29571,-2.98659,-30.3354,-9.11585,2.56098
835.393,27.8868,-14.7875,0,7.20422,6.67731,-2.47406,-2.7439,77.6829,-38.3537,-9.50344,1.22864,-3.0273,-30,-10.3659,2.43902
835.403,27.9099,-14.8551,0,6.75395,5.91809,-1.9232,9.96951,85.8841,-40.2744,-9.49865,1.16637,-2.82373,-28.8415,-12.1951,1.95122
835.414,27.7611,-14.8977,0,5.04631,5.9612,-1.41785,19.1768,80.1829,-40.3659,-9.51302,1.00351,-2.72793,-27.9268,-14.0854,1.37195
835.423,27.4394,-14.9247,0,3.7985,6.28214,-1.06818,23.0488,64.3598,-39.7561,-9.41961,0.866997,-2.63931,-27.1951,-15.0305,0.396341
835.433,27.0986,-14.9609,0,3.69312,6.62702,-0.450264,25.4878,41.3415,-38.2317,-9.25675,0.826282,-2.63931,-26.3415,-15.061,-0.548781
835.444,26.8871,-14.954,0,4.29427,6.66055,0.711321,21.9817,13.5976,-33.2317,-9.15137,0.898132,-2.42855,-26.0061,-15.0915,-1.15854
835.453,26.8391,-14.9515,0,5.07744,6.52882,1.33882,18.75,-15.6098,-27.3171,-9.12981,1.03944,-2.44052,-25.7317,-15.1524,-1.46341
835.464,26.8437,-14.9277,0,5.57321,7.13237,1.10889,14.9085,-40.0305,-22.3171,-9.15376,1.17356,-2.3543,-26.25,-15.061,-1.64634
835.474,26.8301,-14.8776,0,5.72649,7.92751,0.443079,10.9451,-53.3232,-19.7561,-9.36692,1.13045,-2.28964,-27.1341,-15,-2.28659
835.483,26.7514,-14.7632,0,5.92288,9.20646,0.313748,10.7317,-60.0915,-20.122,-9.8579,1.05141,-2.10762,-26.9512,-16.0366,-2.68293
835.493,26.5949,-14.5651,0,6.35399,11.4721,1.04662,10.061,-65.2744,-20.5183,-10.5788,0.692161,-1.83698,-24.7866,-17.9573,-3.07927
835.504,26.3437,-14.262,0,6.00671,13.2684,1.82979,3.56707,-64.6951,-21.0671,-11.4338,0.246687,-1.40827,-20.4878,-22.3476,-2.65244
835.514,26.059,-13.9146,0,5.52052,13.0433,1.91123,-6.28049,-62.4085,-22.1037,-12.2098,-0.402363,-1.2023,-13.9329,-27.1341,-0.914634
835.523,25.8875,-13.6245,0,6.26058,11.5536,0.826282,-6.12805,-62.4695,-22.378,-12.6888,-1.09213,-1.49689,-5.7622,-28.4146,2.40854
835.534,25.9502,-13.3988,0,8.27958,10.2674,-0.416733,3.56707,-58.1402,-20.122,-12.5475,-1.71723,-1.7771,2.5,-27.1341,6.03659
835.544,26.2611,-13.1722,0,9.93933,9.55134,-1.45857,16.128,-47.6829,-9.48171,-12.1427,-1.62861,-1.66454,9.63415,-26.128,10.3049
835.554,26.7291,-13.0868,0,10.0471,9.331,-2.32796,25.7317,-35.1524,5.18293,-11.247,-1.51844,-2.21539,15.5488,-26.0976,13.689
835.564,27.1693,-12.9676,0,8.12151,9.48188,-2.73272,28.75,-22.1646,16.6463,-10.3225,-0.682581,-1.85614,22.1951,-23.5366,16.5244
835.574,27.3859,-12.7474,0,5.14929,9.87946,-2.42615,27.8354,-9.11585,21.372,-10.0567,0.541274,-1.32684,26.0366,-21.6768,19.3293
835.583,27.2355,-12.5271,0,2.07888,10.3441,-1.80824,19.2073,2.13415,17.3476,-9.23999,0.737666,-1.18074,26.4634,-20.2134,20.7622
835.593,26.7301,-12.2606,0,0.0694556,9.84593,-1.98308,17.1646,6.46341,4.32927,-9.76689,1.75076,-1.0107,23.4451,-21.9817,20.8841
835.604,25.9271,-11.9575,0,-0.972378,9.12263,-1.98308,18.1098,4.7561,-14.9695,-10.2124,2.31598,-0.843047,19.2988,-22.8963,19.5732
835.613,24.9413,-11.6327,0,-0.931663,8.64602,-1.92081,17.2561,1.52439,-35.122,-10.6818,2.61297,-0.723296,13.628,-23.75,17.8963
835.624,23.9771,-11.3055,0,0.239502,8.33467,-1.94236,18.7805,-0.0609756,-50.8537,-11.0985,2.54112,-0.675395,7.83537,-22.7744,15.0305
835.633,23.1199,-10.9258,0,1.62861,8.79451,-2.05493,22.0732,5.36585,-59.939,-11.2949,2.21779,-0.359253,2.22561,-21.0976,11.4634
835.644,22.3888,-10.5165,0,3.13987,9.79563,-1.6813,19.6037,22.8659,-63.689,-11.2207,1.71723,-0.134121,-4.20732,-19.1159,8.75
835.654,21.7709,-10.0909,0,4.20805,10.6315,-1.12805,15.7317,45.3354,-61.4329,-11.1368,0.984353,0.0287402,-9.26829,-17.2256,6.4939
835.663,21.1921,-9.67134,0,4.19607,11.0315,-0.107776,13.8415,54.0854,-57.1341,-10.9764,0.234712,0.0814307,-11.9207,-15.7012,5.09146
835.674,20.5719,-9.23035,0,3.19017,11.2614,0.385598,10.4573,52.439,-52.3171,-10.8446,-0.409548,0.263452,-12.1341,-14.8171,4.05488
835.683,19.8563,-8.59131,0,1.76992,10.8159,0.153281,7.43902,44.6951,-50,-10.5046,-1.0562,1.25739,-13.3841,-16.4024,4.90854
835.693,19.0479,-8.14347,0,0.735271,10.2195,-0.0862207,6.46341,36.1585,-50.3659,-10.3106,-1.12326,0.476609,-11.4024,-14.3902,6.28049
835.703,18.1799,-7.6276,0,0.146096,9.86748,-0.232317,4.96951,25.3049,-51.4329,-10.1597,-1.07536,0.855022,-9.5122,-14.6951,7.92683
835.714,17.2662,-7.07504,0,-0.205972,9.63277,-0.469424,3.01829,15.3659,-53.628,-9.74294,-0.955613,1.06818,-8.29268,-14.0244,9.11585
835.724,16.3447,-6.5338,0,-0.184417,9.50823,-0.802332,1.55488,9.5122,-56.5244,-9.46991,-0.771196,1.08255,-7.37805,-14.3598,9.69512
835.733,15.4163,-5.99629,0,-0.136516,9.46033,-1.1999,-0.548781,5.42683,-59.6951,-9.28549,-0.603545,1.13524,-5.39634,-14.0244,9.54268
835.743,14.5285,-5.47993,0,0.170046,9.38848,-1.78908,-0.518293,2.9878,-61.25,-9.18011,-0.419128,1.12326,-3.35366,-13.5366,9.05488
835.754,13.722,-4.98817,0,0.684976,9.38608,-1.83938,-0.182927,-2.04268,-61.1585,-9.15856,-0.474214,1.1041,-1.46341,-12.9573,7.37805
835.763,13.0233,-4.5667,0,1.21427,9.34058,-2.04774,1.43293,-6.82927,-58.4146,-9.18969,-0.706531,0.900527,1.0061,-11.6768,5.27439
835.774,12.4159,-4.2046,0,1.55916,9.31423,-1.95913,1.21951,-8.44512,-54.7866,-9.29268,-0.958008,0.735271,3.71951,-10.6098,2.13415
835.783,11.8728,-3.91708,0,1.65975,9.34537,-1.66933,0,-9.96951,-50.6402,-9.33818,-1.18553,0.490979,7.16463,-8.5061,-0.518293
835.793,11.3785,-3.68935,0,1.64777,9.38848,-1.66933,-2.43902,-11.6463,-46.5244,-9.55134,-1.36995,0.296982,11.128,-6.46341,-3.10976
835.804,10.9124,-3.51181,0,1.53281,9.41722,-1.78908,-4.81707,-14.6341,-43.2012,-9.8124,-1.40109,0.112566,15.3354,-4.20732,-4.66463
835.813,10.4738,-3.32035,0,1.44899,9.38369,-2.02379,-6.61585,-18.1402,-40.3963,-10.1309,-1.4442,0.167651,18.628,-2.77439,-5.85366
835.824,10.0446,-3.1664,0,1.346,9.34776,-2.24174,-7.04268,-22.5305,-39.1463,-10.2435,-1.2981,-0.0790356,21.25,-1.21951,-6.64634
835.834,9.59877,-2.95464,0,1.1544,9.49146,-2.38783,-7.62195,-27.2561,-39.1463,-10.3153,-1.24302,-0.0742456,22.8659,0.152439,-7.5
835.843,9.15267,-2.81393,0,1.03944,9.48907,-2.25371,-7.68293,-30.5183,-38.689,-10.2507,-1.09692,-0.0263452,23.75,1.4939,-8.53659
835.854,8.69209,-2.70631,0,0.864602,9.69504,-2.22018,-9.39024,-33.5976,-38.7195,-10.1477,-0.874182,-0.0718506,24.2988,2.31707,-9.02439
835.864,8.21708,-2.62685,0,0.802332,9.87227,-2.213,-10.6707,-34.7561,-40.2134,-10.016,-0.725691,-0.134121,24.2378,3.56707,-9.35976
835.874,7.74337,-2.54121,0,0.847837,9.96328,-2.01421,-10.7012,-37.5305,-41.4939,-9.90101,-0.61073,-0.0862207,24.2683,4.20732,-9.87805
835.883,7.25736,-2.45181,0,0.843047,9.96568,-1.86572,-10.5793,-39.2073,-43.6585,-9.87227,-0.524509,-0.0598755,23.872,3.87195,-9.81707
835.893,6.77933,-2.36881,0,0.993933,10.083,-1.66933,-11.25,-41.5854,-45.4573,-9.7621,-0.426313,-0.0766406,23.2317,3.59756,-10.0915
835.904,6.30006,-2.28446,0,1.09692,10.1046,-1.4921,-12.3476,-42.9573,-47.7134,-9.72617,-0.292192,-0.0526904,21.7378,3.87195,-9.81707
835.914,5.81295,-2.214,0,1.06578,9.94652,-1.18074,-13.5366,-44.2073,-49.3293,-9.72617,-0.229922,-0.0910107,20.1524,4.26829,-8.96341
835.924,5.34533,-2.20478,0,1.23104,9.88904,-1.03704,-16.6768,-42.8354,-50.3354,-9.63516,-0.174836,-0.330513,19.6341,4.5122,-8.23171
835.934,4.92149,-2.19381,0,1.42743,9.79084,-1.05381,-19.0549,-39.878,-49.2683,-9.6184,-0.172441,-0.320933,19.0244,4.63415,-7.0122
835.943,4.51007,-2.19607,0,1.36037,9.68067,-1.0586,-22.1951,-37.561,-48.2622,-9.55373,-0.196392,-0.371228,19.0244,4.96951,-6.21951
835.953,4.09314,-2.22517,0,1.18793,9.55373,-1.20709,-23.7195,-36.6159,-47.8049,-9.42919,-0.225132,-0.476609,19.2988,5.15244,-5.30488
835.964,3.67193,-2.26727,0,1.00591,9.55613,-1.35319,-23.811,-37.378,-46.8902,-9.38848,-0.335303,-0.531694,19.6951,4.90854,-4.78659
835.974,3.22264,-2.33244,0,0.728086,9.64235,-1.45378,-22.9268,-40.9756,-47.1646,-9.34058,-0.392783,-0.62989,20.3049,5.12195,-4.66463
835.984,2.76559,-2.41364,0,0.61552,9.70222,-1.40588,-23.0488,-44.7866,-47.4695,-9.29747,-0.488584,-0.704136,21.4024,5.57927,-4.54268
835.993,2.32124,-2.50977,0,0.713716,9.69264,-1.36037,-22.6524,-47.1951,-48.2927,-9.19209,-0.452659,-0.771196,22.1951,6.43293,-4.2378
836.004,1.90634,-2.61402,0,0.941243,9.78605,-1.24781,-22.4085,-48.2927,-48.811,-9.09868,-0.519719,-0.811912,22.9878,7.22561,-3.2622
836.013,1.50257,-2.76853,0,0.969983,9.77886,-1.1544,-21.311,-49.1159,-48.872,-8.99569,-0.517324,-1.02028,23.689,8.14024,-2.77439
836.023,1.12659,-2.92531,0,1.06099,9.64474,-1.12326,-21.6768,-48.3537,-48.1098,-8.95498,-0.512534,-1.04902,23.9329,8.84146,-1.64634
836.034,0.783265,-3.07814,0,1.27176,9.4268,-1.08255,-21.0671,-47.8049,-48.4146,-8.92145,-0.584385,-1.05381,24.0244,9.45122,-0.579268
836.044,0.404398,-3.23726,0,1.00351,9.57768,-0.910107,-20.6098,-48.2622,-49.2683,-8.8951,-0.656235,-1.09931,25.1829,10.1524,0.152439
836.053,0.0392755,-3.40675,0,1.11129,9.57768,-0.967588,-22.5305,-45.061,-49.939,-8.90229,-0.651445,-1.16637,25.8537,10.6098,0.853659
836.064,-0.317311,-3.60308,0,1.09213,9.49625,-1.08973,-22.1951,-41.5244,-49.6951,-8.95498,-0.546064,-1.30768,26.6463,11.372,1.67683
836.074,-0.61655,-3.78378,0,1.29092,9.17292,-1.16637,-21.7683,-40.4878,-47.5305,-8.91187,-0.58199,-1.26936,27.439,12.0427,2.10366
836.083,-0.960192,-3.95252,0,0.881367,9.21843,-1.16398,-21.4024,-40.3049,-47.4695,-8.8975,-0.55325,-1.24781,27.5,12.4695,2.71341
836.093,-1.31417,-4.16378,0,0.809517,9.35734,-1.10889,-21.9817,-39.3598,-48.1707,-8.87594,-0.550855,-1.4418,27.5915,12.2866,3.2622
836.104,-1.65969,-4.39604,0,0.886157,9.34537,-1.27415,-21.6463,-38.7195,-48.9939,-8.80649,-0.526904,-1.54718,28.5671,13.0183,4.11585
836.114,-2.0203,-4.6464,0,0.737666,9.41243,-1.11129,-21.311,-36.9512,-49.3293,-8.76098,-0.565225,-1.64777,29.5732,13.3841,4.5122
836.124,-2.3859,-4.91258,0,0.684976,9.53218,-0.874182,-22.6524,-35.3049,-49.8171,-8.66518,-0.59636,-1.7316,30.8537,13.628,5.51829
