time,angle1,angle2,intgangle,accX1,accY1,accZ1,gyroX1,gyroY1,gyroZ1,accX2,accY2,accZ2,gyroX2,gyroY2,gyroZ2
663.29,93.7425,-11.4549,0,9.80042,-0.61552,-0.670605,-0.0609756,-3.29268,0.884146,-9.71659,-0.938848,-2.05014,-0.945122,0.0609756,5.82317
663.299,93.7533,-11.5053,0,9.78366,-0.656235,-0.696951,-0.487805,-3.17073,0.731707,-9.70701,-0.917292,-2.06451,-0.640244,-0.243902,6.12805
663.31,93.7861,-11.6085,0,9.6639,-0.740061,-0.708926,-0.182927,-3.71951,0.701219,-9.70462,-0.938848,-2.18905,0.396341,-0.335366,6.79878
663.32,93.8126,-11.7462,0,9.5681,-0.708926,-0.728086,0.121951,-4.66463,0.853659,-9.73096,-0.931663,-2.26808,1.03659,0.182927,7.2561
663.329,93.8529,-11.8235,0,9.43638,-0.735271,-0.764011,0.152439,-5.97561,0.396341,-9.65672,-0.917292,-2.19863,1.64634,0.762195,7.34756
663.339,93.8913,-11.8619,0,9.38848,-0.752036,-0.783171,0.365854,-7.34756,1.28049,-9.64474,-0.898132,-2.12917,1.98171,1.18902,7.04268
663.349,93.9165,-11.8747,0,9.48667,-0.687371,-0.687371,0.609756,-8.53659,1.85976,-9.70222,-0.917292,-2.07648,2.46951,1.37195,6.70732
663.359,93.9353,-11.8562,0,9.616,-0.627495,-0.759221,0.884146,-10.6707,2.37805,-9.80281,-0.905317,-2.0214,2.40854,0.335366,6.34146
663.369,93.9502,-11.7641,0,9.77886,-0.58199,-0.737666,0.548781,-10.4573,2.7439,-9.84593,-0.850232,-1.8777,2.22561,-0.243902,6.34146
663.38,93.9636,-11.7162,0,10.0064,-0.524509,-0.881367,0.579268,-8.75,3.41463,-9.86748,-0.787961,-1.89686,1.95122,-1.43293,6.76829
663.389,93.9686,-11.6644,0,10.1094,-0.445474,-0.866997,-0.0304878,-7.62195,3.56707,-9.86988,-0.689766,-1.84896,1.61585,-2.19512,7.59146
663.399,93.9772,-11.614,0,10.2243,-0.462239,-0.869392,-0.853659,-7.04268,3.78049,-9.84593,-0.742456,-1.82979,1.43293,-2.68293,8.07927
663.409,93.9736,-11.5728,0,10.1693,-0.411943,-0.929268,-1.03659,-5.82317,3.20122,-9.82916,-0.773591,-1.84896,1.64634,-3.17073,8.53659
663.419,93.9566,-11.5448,0,10.0663,-0.450264,-0.895737,-1.4939,-4.84756,1.82927,-9.77886,-0.814307,-1.88728,1.95122,-3.2622,8.62805
663.43,93.9687,-11.5288,0,9.96807,-0.66342,-0.924478,-1.46341,-2.71341,1.64634,-9.74054,-0.881367,-1.92799,2.28659,-2.71341,7.9878
663.439,94.0001,-11.5213,0,9.82677,-0.773591,-0.958008,-1.21951,-0.487805,1.79878,-9.74773,-0.924478,-1.96152,2.53049,-2.22561,7.43902
663.449,94.0218,-11.5072,0,9.75731,-0.720901,-1.03944,-1.28049,0.27439,1.58537,-9.74054,-0.912502,-1.93997,2.95732,-1.58537,6.61585
663.459,94.042,-11.4759,0,9.68785,-0.720901,-1.11368,-1.92073,-0.152439,1.34146,-9.76449,-0.888552,-1.88728,3.29268,-1.4939,6.37195
663.469,94.0757,-11.4368,0,9.67827,-0.790356,-1.05141,-1.76829,-1.15854,1.67683,-9.78126,-0.838257,-1.86333,2.7439,-1.37195,5.91463
663.479,94.1046,-11.4104,0,9.72857,-0.780776,-1.09213,-1.98171,-1.37195,1.40244,-9.77168,-0.764011,-1.89925,2.2561,-1.18902,6.0061
663.489,94.1256,-11.3809,0,9.75491,-0.740061,-1.07057,-2.62195,-1.21951,1.46341,-9.72138,-0.696951,-1.88009,1.82927,-1.09756,6.12805
663.499,94.1478,-11.3488,0,9.82197,-0.775986,-1.08255,-2.2561,-0.0914634,0.884146,-9.7621,-0.699346,-1.88009,0.792683,-0.914634,6.06707
663.51,94.1651,-11.3477,0,9.8579,-0.768801,-1.12326,-1.40244,1.4939,0.396341,-9.69983,-0.754431,-1.94476,0.213415,-1.0061,6.85976
663.519,94.1847,-11.3452,0,9.81479,-0.775986,-1.12087,-1.34146,1.7378,0.152439,-9.68546,-0.778381,-1.93757,-0.0304878,-1.25,6.76829
663.529,94.2219,-11.3516,0,9.70222,-0.840652,-1.14242,-1.15854,1.76829,-0.243902,-9.6663,-0.862207,-1.95913,0.27439,-1.25,6.85976
663.539,94.2618,-11.3807,0,9.62798,-0.819097,-1.16877,-0.701219,0.670732,0.0304878,-9.65432,-0.907712,-2.019,0.426829,-1.06707,6.89024
663.549,94.2998,-11.3897,0,9.56092,-0.826282,-1.14961,-0.792683,-0.396341,-0.182927,-9.66869,-0.926873,-1.96871,0.670732,-0.762195,6.64634
663.56,94.3326,-11.39,0,9.57768,-0.847837,-1.07057,-0.487805,-1.03659,-0.457317,-9.70701,-0.888552,-1.95673,1.25,-0.640244,6.64634
663.57,94.3399,-11.3874,0,9.63516,-0.802332,-0.967588,0.182927,-1.52439,-0.914634,-9.73815,-0.833467,-1.95673,0.823171,-0.335366,6.55488
663.579,94.3365,-11.3614,0,9.70941,-0.764011,-0.969983,0.213415,-1.85976,-0.945122,-9.73815,-0.792751,-1.90404,0.701219,-0.518293,6.18902
663.589,94.3243,-11.323,0,9.78126,-0.718506,-1.0586,0.182927,-1.79878,-0.731707,-9.75731,-0.754431,-1.8753,0.304878,-0.518293,6.15854
663.6,94.309,-11.262,0,9.84353,-0.701741,-1.02507,-0.243902,-1.21951,-0.548781,-9.78126,-0.725691,-1.82979,-0.0304878,-0.396341,6.31098
663.61,94.2929,-11.2165,0,9.87467,-0.704136,-0.991538,-0.0304878,-0.487805,-0.823171,-9.79803,-0.754431,-1.84177,-0.396341,-0.640244,6.31098
663.619,94.275,-11.1724,0,9.84832,-0.687371,-1.00351,-0.0304878,0.548781,-0.670732,-9.81479,-0.790356,-1.82261,-0.884146,-1.0061,6.46341
663.629,94.2542,-11.1652,0,9.79084,-0.670605,-1.00351,-0.0304878,1.15854,-0.762195,-9.78844,-0.816702,-1.91362,-0.884146,-1.06707,6.28049
663.639,94.2474,-11.1504,0,9.74294,-0.720901,-1.02986,-0.243902,1.58537,-0.609756,-9.78605,-0.814307,-1.89207,-0.762195,-0.914634,6.31098
663.649,94.2375,-11.1453,0,9.69743,-0.708926,-0.977168,-0.0914634,1.55488,-0.762195,-9.76928,-0.826282,-1.91123,-1.03659,-1.25,6.06707
663.659,94.2236,-11.1191,0,9.7142,-0.682581,-1.02507,0.0304878,1.25,-0.335366,-9.77886,-0.809517,-1.84896,-0.945122,-1.21951,6.12805
663.67,94.2102,-11.1143,0,9.73575,-0.692161,-0.998723,0.457317,0.792683,-0.762195,-9.77647,-0.802332,-1.90883,-0.945122,-1.03659,5.88415
663.679,94.2055,-11.1124,0,9.77168,-0.725691,-1.03225,0.365854,0.640244,-0.640244,-9.78844,-0.790356,-1.91841,-0.945122,-1.03659,5.79268
663.689,94.1951,-11.0894,0,9.76449,-0.706531,-1.01549,0.335366,0.762195,-0.823171,-9.74773,-0.807122,-1.86093,-0.97561,-0.640244,5.70122
663.699,94.183,-11.0719,0,9.79563,-0.694556,-1.03465,0.304878,0.97561,-0.701219,-9.74533,-0.802332,-1.86093,-1.0061,-1.12805,5.7622
663.709,94.1736,-11.0537,0,9.75252,-0.706531,-1.04183,0.243902,1.12805,-0.823171,-9.74054,-0.819097,-1.86093,-1.25,-0.792683,6.06707
663.72,94.1644,-11.0661,0,9.75012,-0.701741,-0.998723,0.487805,1.06707,-0.731707,-9.7118,-0.835862,-1.92799,-1.0061,-0.731707,5.97561
663.729,94.151,-11.0725,0,9.73336,-0.680186,-0.953218,0.487805,0.945122,-0.701219,-9.68546,-0.823887,-1.90883,-0.823171,-0.548781,6.03659
663.739,94.1514,-11.0925,0,9.71899,-0.723296,-0.996328,0.731707,0.731707,-0.457317,-9.73575,-0.826282,-1.94955,-1.09756,-0.487805,5.91463
663.749,94.1494,-11.1083,0,9.68785,-0.718506,-0.960403,0.609756,0.426829,-0.609756,-9.73815,-0.852627,-1.94715,-0.457317,-0.640244,6.21951
663.759,94.1401,-11.1048,0,9.70701,-0.696951,-0.931663,0.731707,-0.0304878,-0.792683,-9.74054,-0.838257,-1.90404,-0.213415,-0.884146,6.12805
663.77,94.1368,-11.0853,0,9.72617,-0.728086,-0.914897,0.792683,0.0914634,-0.884146,-9.76449,-0.804727,-1.86812,-0.27439,-0.762195,6.09756
663.779,94.131,-11.0867,0,9.74054,-0.711321,-0.919688,0.853659,-0.0304878,-0.762195,-9.77886,-0.790356,-1.92081,-0.152439,-1.03659,6.18902
663.789,94.1192,-11.0768,0,9.73815,-0.675395,-0.912502,0.670732,0.304878,-0.457317,-9.75252,-0.811912,-1.88488,-0.152439,-0.97561,6.52439
663.799,94.1078,-11.0731,0,9.74773,-0.675395,-0.881367,0.0304878,0.548781,-0.457317,-9.77886,-0.807122,-1.90404,-0.121951,-1.37195,6.34146
663.809,94.1056,-11.0667,0,9.75731,-0.708926,-0.902922,0.426829,0.121951,-0.457317,-9.77407,-0.799937,-1.89446,-0.27439,-1.25,6.52439
663.82,94.0885,-11.0662,0,9.76449,-0.651445,-0.890947,0.670732,0.182927,-0.304878,-9.79803,-0.826282,-1.91602,-0.426829,-1.52439,6.58537
663.829,94.0748,-11.0587,0,9.79084,-0.665815,-0.943638,0.27439,-0.0914634,-0.579268,-9.80281,-0.819097,-1.89446,-0.0914634,-1.40244,6.40244
663.839,94.0616,-11.0499,0,9.75012,-0.661025,-0.960403,0.304878,-0.365854,-0.457317,-9.76928,-0.840652,-1.88249,0.243902,-1.40244,6.37195
663.849,94.0471,-11.0607,0,9.7621,-0.656235,-0.905317,0.335366,-0.0914634,-0.548781,-9.7621,-0.855022,-1.93997,0.152439,-1.21951,6.43293
663.859,94.0298,-11.0804,0,9.75731,-0.641865,-0.910107,-0.304878,0.121951,-0.518293,-9.72617,-0.840652,-1.96392,0.548781,-1.37195,6.37195
663.87,94.0184,-11.083,0,9.75491,-0.65863,-0.936453,-0.213415,0.152439,-0.365854,-9.74054,-0.859812,-1.91602,0.670732,-1.15854,6.25
663.88,94.0082,-11.0787,0,9.73815,-0.65863,-0.919688,-0.579268,0.27439,-0.27439,-9.73336,-0.852627,-1.89446,0.945122,-1.37195,6.31098
663.889,94.0057,-11.0544,0,9.7118,-0.687371,-0.936453,-0.457317,0.518293,-0.457317,-9.75252,-0.797541,-1.83938,1.09756,-1.18902,6.25
663.899,93.9955,-11.03,0,9.72857,-0.656235,-0.902922,-0.762195,0.457317,-0.304878,-9.7597,-0.785566,-1.83458,0.640244,-1.25,6.43293
663.909,93.9956,-11.0088,0,9.74294,-0.706531,-0.967588,-0.97561,0.243902,-0.640244,-9.80042,-0.775986,-1.84417,1.03659,-1.37195,6.34146
663.919,93.9976,-10.9849,0,9.76689,-0.696951,-1.0107,-0.914634,0.0609756,-0.243902,-9.76928,-0.735271,-1.83458,0.914634,-1.03659,6.21951
663.93,94.0056,-10.9692,0,9.7597,-0.725691,-0.991538,-1.0061,-0.213415,-0.396341,-9.73336,-0.756826,-1.85375,0.914634,-0.609756,6.40244
663.939,94.0049,-10.9472,0,9.72617,-0.689766,-0.960403,-1.12805,-0.0304878,-0.335366,-9.72617,-0.783171,-1.83698,0.731707,-0.548781,6.21951
663.949,94.0222,-10.961,0,9.74054,-0.735271,-0.989143,-1.09756,0.152439,-0.0609756,-9.69983,-0.773591,-1.90165,0.701219,-0.213415,6.25
663.959,94.0215,-10.9622,0,9.72138,-0.692161,-0.931663,-1.03659,0.182927,-0.335366,-9.72617,-0.826282,-1.88728,0.396341,-0.701219,6.55488
663.97,94.0378,-10.9313,0,9.7142,-0.730481,-1.00112,-0.762195,0.304878,-0.0304878,-9.74294,-0.785566,-1.81063,0.640244,-0.792683,6.58537
663.979,94.0592,-10.9129,0,9.7142,-0.761616,-1.02028,-0.792683,0.27439,-0.213415,-9.78844,-0.754431,-1.83938,0.701219,-1.03659,6.15854
663.989,94.0723,-10.9077,0,9.70941,-0.730481,-1.03944,-0.121951,0.640244,-0.0914634,-9.81,-0.742456,-1.8777,0.518293,-0.97561,6.52439
663.999,94.0755,-10.9245,0,9.73096,-0.711321,-1.06578,0,-0.27439,-0.243902,-9.78605,-0.713716,-1.93518,0.304878,-1.06707,6.55488
664.009,94.0704,-10.9133,0,9.77168,-0.684976,-1.08255,0.0304878,-0.518293,-0.182927,-9.79323,-0.728086,-1.85854,0.762195,-1.09756,6.28049
664.019,94.0664,-10.904,0,9.78126,-0.692161,-1.03944,-0.0304878,-0.518293,-0.304878,-9.76928,-0.744851,-1.85854,0.670732,-1.03659,6.15854
664.03,94.0613,-10.8813,0,9.74054,-0.689766,-1.07297,0.243902,-0.731707,-0.457317,-9.75491,-0.811912,-1.81303,0.182927,-1.21951,6.40244
664.039,94.0607,-10.8531,0,9.76449,-0.713716,-1.00112,0.426829,-0.365854,-0.579268,-9.77647,-0.850232,-1.80824,0.365854,-0.792683,6.4939
664.049,94.06,-10.8151,0,9.74533,-0.704136,-0.996328,0.548781,-0.396341,-0.426829,-9.78366,-0.843047,-1.7771,0.609756,-0.853659,6.21951
664.059,94.0633,-10.7831,0,9.73336,-0.713716,-1.0083,0.731707,0.121951,-0.335366,-9.79563,-0.821492,-1.78189,0.548781,-1.03659,6.15854
664.069,94.0668,-10.757,0,9.75491,-0.723296,-1.03465,0.426829,-0.0304878,-0.457317,-9.7621,-0.783171,-1.78668,0.304878,-1.06707,6.4939
664.079,94.07,-10.7561,0,9.70462,-0.704136,-1.04662,0.731707,-0.152439,-0.152439,-9.75252,-0.732876,-1.85135,0.396341,-1.28049,6.52439
664.09,94.0688,-10.7382,0,9.75731,-0.706531,-1.02507,0.518293,-0.396341,-0.457317,-9.76449,-0.689766,-1.80105,0.0609756,-1.34146,6.25
664.099,94.0749,-10.7313,0,9.7621,-0.732876,-0.948428,0.426829,-0.884146,-0.426829,-9.78605,-0.728086,-1.83458,0.27439,-1.46341,5.91463
664.109,94.0704,-10.7027,0,9.8076,-0.701741,-0.979563,0.731707,-0.152439,-0.548781,-9.7621,-0.725691,-1.77471,-0.213415,-0.945122,5.60976
664.119,94.0581,-10.7076,0,9.81,-0.670605,-0.965193,0.487805,0.396341,-0.609756,-9.69983,-0.723296,-1.84656,-0.213415,-0.914634,5.85366
664.13,94.0634,-10.7276,0,9.8124,-0.732876,-0.998723,0.640244,1.12805,-0.426829,-9.6663,-0.756826,-1.8753,-0.487805,-0.731707,5.94512
664.139,94.0683,-10.7326,0,9.74533,-0.720901,-0.960403,0.457317,1.95122,-0.335366,-9.67588,-0.766406,-1.84417,-0.335366,-0.518293,5.97561
664.149,94.0708,-10.6991,0,9.69983,-0.704136,-1.03225,0.548781,1.55488,-0.213415,-9.70462,-0.811912,-1.76273,-0.121951,-0.670732,6.28049
664.159,94.0738,-10.698,0,9.69264,-0.723296,-0.991538,0.670732,1.03659,-0.579268,-9.77168,-0.809517,-1.84417,0.0609756,-0.792683,6.40244
664.169,94.0865,-10.7227,0,9.66869,-0.756826,-0.953218,0.792683,0.548781,-0.548781,-9.79563,-0.838257,-1.91362,-0.365854,-0.731707,6.52439
664.179,94.0881,-10.7099,0,9.70701,-0.740061,-0.958008,0.335366,0.0914634,-0.884146,-9.77886,-0.797541,-1.82021,-0.457317,-0.762195,6.55488
664.189,94.083,-10.7088,0,9.70222,-0.723296,-0.958008,0.27439,0.609756,-1.12805,-9.73575,-0.773591,-1.83938,-0.884146,-0.792683,6.95122
664.199,94.0742,-10.6963,0,9.73815,-0.711321,-1.01788,-0.121951,0.457317,-1.21951,-9.7118,-0.775986,-1.80584,-1.06707,-0.853659,7.07317
664.209,94.0723,-10.692,0,9.72617,-0.754431,-0.919688,-0.121951,0.27439,-1.34146,-9.73096,-0.761616,-1.8274,-1.12805,-0.914634,7.19512
664.219,94.0554,-10.7043,0,9.71659,-0.677791,-0.981958,-0.213415,-0.0304878,-1.4939,-9.76449,-0.790356,-1.8753,-1.21951,-0.762195,7.28659
664.229,94.0423,-10.75,0,9.76449,-0.682581,-1.00351,0.0304878,0.213415,-1.15854,-9.74294,-0.804727,-1.92081,-0.884146,-0.0609756,7.53049
664.239,94.0231,-10.8152,0,9.76928,-0.661025,-0.972378,0.121951,0.701219,-1.46341,-9.74773,-0.840652,-1.9711,-0.0609756,0.152439,7.53049
664.249,94.0045,-10.8858,0,9.79803,-0.65384,-1.02028,0.304878,1.15854,-1.28049,-9.75252,-0.898132,-1.99505,0.853659,-0.152439,7.83537
664.259,93.9896,-10.9937,0,9.81479,-0.677791,-1.02986,0.396341,1.25,-1.37195,-9.8124,-0.912502,-2.13396,1.18902,-0.426829,7.37805
664.269,93.9684,-11.0207,0,9.82197,-0.661025,-1.06578,0.97561,1.89024,-1.79878,-9.8579,-0.926873,-1.99505,2.31707,-1.0061,7.5
664.279,93.9555,-11.0281,0,9.79323,-0.723296,-1.0562,0.823171,2.22561,-1.98171,-9.87467,-0.857417,-1.94955,2.71341,-1.4939,7.34756
664.289,93.9463,-11.0079,0,9.80521,-0.778381,-1.07057,1.0061,2.83537,-2.34756,-9.88904,-0.797541,-1.84896,2.95732,-2.43902,7.40854
664.299,93.9285,-10.9869,0,9.78126,-0.792751,-1.14242,0.731707,3.17073,-3.32317,-9.90101,-0.814307,-1.84656,3.01829,-2.16463,7.46951
664.309,93.9099,-10.9608,0,9.69983,-0.797541,-1.07057,0.884146,3.20122,-3.56707,-9.88425,-0.809517,-1.82021,2.86585,-2.16463,7.68293
664.319,93.8798,-10.9583,0,9.69743,-0.708926,-0.979563,-0.121951,3.41463,-3.65854,-9.83156,-0.752036,-1.89686,2.65244,-1.7378,7.07317
664.329,93.8428,-10.9183,0,9.68785,-0.708926,-1.03225,-1.52439,4.11585,-4.42073,-9.81958,-0.718506,-1.76273,2.53049,-1.76829,7.16463
664.339,93.8054,-10.8858,0,9.63277,-0.764011,-0.967588,-2.10366,3.47561,-5.2439,-9.80281,-0.670605,-1.7771,2.07317,-1.85976,6.85976
664.349,93.7577,-10.874,0,9.61121,-0.816702,-1.01309,-1.95122,4.57317,-7.0122,-9.84114,-0.62989,-1.85135,1.46341,-1.89024,6.46341
664.359,93.689,-10.8494,0,9.65193,-0.742456,-1.03704,-2.10366,5.39634,-8.32317,-9.78844,-0.60115,-1.78908,1.34146,-2.2561,5.94512
664.369,93.6029,-10.7997,0,9.77886,-0.701741,-1.05141,-2.89634,6.89024,-9.63415,-9.78366,-0.632285,-1.67891,1.12805,-2.71341,5.45732
664.379,93.5002,-10.7584,0,10.1549,-0.584385,-1.32445,-1.67683,9.29878,-9.84756,-9.75012,-0.627495,-1.69567,0.884146,-2.86585,5.51829
664.389,93.4036,-10.7118,0,10.0878,-0.526904,-1.14242,-0.609756,8.04878,-8.81098,-9.74054,-0.684976,-1.66214,1.15854,-3.10976,5.60976
664.4,93.3345,-10.675,0,10.2483,-0.514929,-1.33403,0.701219,11.6159,-5.97561,-9.74773,-0.718506,-1.70525,0.701219,-2.40854,5.94512
664.41,93.2898,-10.6409,0,9.9058,-0.507744,-1.14482,0.884146,8.78049,-3.71951,-9.75252,-0.764011,-1.7316,0.823171,-1.46341,5.73171
664.42,93.2745,-10.6039,0,9.98244,-0.598755,-1.19272,2.5,13.75,-1.92073,-9.74294,-0.847837,-1.72441,1.09756,-1.18902,6.15854
664.429,93.2666,-10.5706,0,9.78605,-0.61073,-1.01549,2.92683,13.3232,-1.64634,-9.77168,-0.893342,-1.75555,1.25,-0.518293,6.12805
664.439,93.2593,-10.5732,0,9.67588,-0.656235,-0.819097,4.60366,13.1402,-2.28659,-9.79084,-0.919688,-1.83458,1.95122,-0.853659,6.21951
664.449,93.2501,-10.5978,0,9.70701,-0.665815,-0.864602,5.33537,12.4695,-2.53049,-9.84593,-0.890947,-1.91841,1.67683,-1.34146,6.89024
664.459,93.2385,-10.6151,0,9.62319,-0.704136,-0.713716,7.40854,11.189,-3.2622,-9.87946,-0.811912,-1.91602,1.70732,-2.07317,7.04268
664.469,93.1976,-10.6258,0,9.83874,-0.507744,-0.850232,7.86585,10.9756,-3.56707,-10.004,-0.771196,-1.9232,1.98171,-2.86585,7.04268
664.479,93.1418,-10.6327,0,9.67109,-0.486189,-0.66342,6.46341,10.2744,-5.03049,-10.1046,-0.728086,-1.93039,1.61585,-4.17683,7.22561
664.489,93.0826,-10.6302,0,9.80042,-0.55804,-0.680186,6.67683,8.35366,-6.28049,-10.1884,-0.64905,-1.90644,0.762195,-5.4878,7.22561
664.499,93.0232,-10.6185,0,9.82916,-0.62989,-0.665815,9.08537,6.64634,-7.2561,-10.2339,-0.62031,-1.87291,0.0304878,-7.22561,6.92073
664.509,92.9542,-10.6143,0,9.63516,-0.529299,-0.55325,8.32317,4.45122,-7.28659,-10.2291,-0.59157,-1.90644,-0.823171,-8.96341,6.82927
664.519,92.8985,-10.6273,0,9.73815,-0.5772,-0.514929,7.0122,2.80488,-6.58537,-10.1932,-0.622705,-1.98068,-1.06707,-10.8537,6.82927
664.529,92.835,-10.6472,0,9.69983,-0.512534,-0.55804,6.34146,2.95732,-6.7378,-10.0878,-0.65863,-1.99505,-0.97561,-12.0122,7.07317
664.539,92.7744,-10.6757,0,9.58008,-0.510139,-0.519719,5.97561,0.823171,-6.61585,-9.96089,-0.670605,-2.01421,-1.03659,-12.7439,7.04268
664.549,92.7128,-10.707,0,9.69264,-0.514929,-0.493374,5.39634,2.46951,-6.82927,-9.84832,-0.725691,-2.00942,-0.823171,-13.628,7.31707
664.559,92.6561,-10.7402,0,9.69025,-0.555645,-0.419128,4.78659,2.07317,-6.95122,-9.81958,-0.742456,-2.019,-0.762195,-14.4512,7.16463
664.57,92.5915,-10.7581,0,9.61121,-0.560435,-0.306563,5.85366,1.15854,-7.9878,-9.78605,-0.823887,-1.94955,-0.487805,-15.4878,7.31707
664.579,92.5182,-10.7453,0,9.73336,-0.498164,-0.368833,6.03659,3.41463,-8.17073,-9.80521,-0.799937,-1.82021,0.182927,-16.4329,7.10366
664.589,92.4518,-10.7362,0,9.79084,-0.519719,-0.366438,5.15244,3.17073,-7.83537,-9.83874,-0.773591,-1.84177,0.27439,-17.4085,6.76829
664.599,92.3995,-10.7179,0,9.78605,-0.543669,-0.282612,3.41463,1.76829,-6.82927,-9.86269,-0.749641,-1.80345,0.609756,-17.9268,6.61585
664.61,92.3495,-10.6853,0,9.82437,-0.469424,-0.328118,2.5,4.48171,-5.79268,-9.86269,-0.708926,-1.73639,0.731707,-18.2927,6.43293
664.619,92.2814,-10.6444,0,9.89143,-0.308958,-0.428708,1.67683,5.67073,-5.79268,-9.87227,-0.687371,-1.69567,1.03659,-18.8415,6.82927
664.629,92.1948,-10.5951,0,9.93933,-0.258662,-0.58678,1.61585,8.53659,-7.22561,-9.83635,-0.637075,-1.64538,1.46341,-19.4512,6.67683
664.639,92.1086,-10.5369,0,9.86748,-0.328118,-0.63468,2.34756,10.5488,-8.20122,-9.85311,-0.704136,-1.59987,1.43293,-19.8476,6.67683
664.649,92.033,-10.4672,0,9.94891,-0.402363,-0.66821,3.9939,10.3963,-8.14024,-9.92257,-0.752036,-1.54958,1.92073,-20.1829,6.34146
664.659,91.9516,-10.3897,0,9.88185,-0.280217,-0.5772,3.90244,9.20732,-7.46951,-10.0256,-0.874182,-1.51844,2.13415,-20.5488,6.12805
664.669,91.8759,-10.2874,0,9.86988,-0.232317,-0.608335,2.43902,8.01829,-6.4939,-10.0639,-0.857417,-1.39869,2.92683,-21.2805,5.42683
664.679,91.8076,-10.1572,0,9.82916,-0.246687,-0.617915,1.61585,5.91463,-6.06707,-10.0806,-0.833467,-1.25739,3.44512,-22.5,5.73171
664.689,91.742,-10.0143,0,9.74533,-0.232317,-0.455054,1.82927,3.71951,-5.79268,-10.1405,-0.831072,-1.18553,3.75,-24.1463,5.91463
664.699,91.6655,-9.87093,0,9.78844,-0.160466,-0.534089,1.31098,4.11585,-6.15854,-10.1429,-0.764011,-1.15919,4.2378,-25.3659,6.28049
664.71,91.5933,-9.70737,0,9.82677,-0.177231,-0.399968,1.79878,1.4939,-6.06707,-10.174,-0.701741,-1.04662,3.81098,-26.7988,6.37195
664.719,91.5315,-9.53917,0,9.81,-0.191602,-0.256267,2.04268,0.396341,-5.33537,-10.1884,-0.62989,-0.998723,3.44512,-28.0183,6.7378
664.729,91.464,-9.36734,0,9.97526,-0.119751,-0.244292,2.34756,1.46341,-5.15244,-10.1884,-0.560435,-0.953218,2.86585,-29.3293,6.89024
664.739,91.3981,-9.19491,0,9.89143,-0.0502954,-0.114961,1.37195,0.579268,-4.26829,-10.2004,-0.519719,-0.922083,2.16463,-30.7622,7.28659
664.749,91.3333,-9.0262,0,9.85072,-0.0431104,-0.174836,0.945122,2.37805,-4.20732,-10.1573,-0.469424,-0.905317,1.25,-32.0427,7.22561
664.759,91.2813,-8.83943,0,9.83635,-0.122146,-0.146096,1.43293,3.07927,-3.9939,-10.1908,-0.471819,-0.797541,0.640244,-33.3537,7.65244
664.769,91.2332,-8.65991,0,9.81479,-0.0910107,-0.143701,1.70732,3.44512,-3.2622,-10.1501,-0.536484,-0.795146,-0.0914634,-35,7.62195
664.779,91.1939,-8.512,0,9.81,-0.102986,-0.112566,1.55488,4.02439,-2.53049,-10.1597,-0.548459,-0.907712,-0.243902,-36.5244,7.89634
664.789,91.1638,-8.37559,0,9.81479,-0.119751,-0.155676,1.18902,2.28659,-1.70732,-10.107,-0.62031,-0.929268,-0.27439,-37.561,7.89634
664.799,91.1372,-8.21029,0,9.8555,-0.112566,-0.189207,0.396341,-0.396341,-0.701219,-10.1046,-0.677791,-0.775986,-0.487805,-38.4146,8.10976
664.809,91.113,-8.05095,0,9.89862,-0.112566,-0.196392,-0.243902,-2.89634,0.121951,-10.0878,-0.747246,-0.773591,-0.853659,-40.122,7.95732
664.82,91.0927,-7.89086,0,9.69264,-0.153281,-0.0239502,-1.85976,-6.46341,-1.43293,-10.0878,-0.795146,-0.742456,-0.853659,-40.6098,8.53659
664.829,91.0936,-7.70917,0,9.70701,-0.158071,-0.0359253,-2.71341,-7.5,0.762195,-10.0447,-0.821492,-0.61552,-0.182927,-41.189,8.29268
664.839,91.065,-7.52657,0,10.0567,0.100591,0.0239502,-2.9878,-7.68293,1.58537,-9.95131,-0.835862,-0.574805,0.27439,-41.9817,8.93293
664.849,91.056,-7.32479,0,10.0806,0.0119751,0.0766406,-7.86585,-7.56098,1.92073,-9.91538,-0.797541,-0.457449,0.97561,-42.5,9.2378
664.859,91.0364,-7.11344,0,9.87227,0.167651,-0.0766406,-5.42683,-2.34756,2.68293,-9.85072,-0.795146,-0.378413,1.46341,-42.8963,9.48171
664.87,91.0325,-6.89721,0,9.20406,-0.397573,-0.0407153,-8.68902,-0.914634,-3.62805,-9.81479,-0.869392,-0.320933,2.0122,-44.3902,9.72561
664.88,91.0801,-6.6594,0,9.09628,-0.919688,-0.158071,-3.01829,3.38415,-5.06098,-10.0208,-0.565225,-0.196392,1.03659,-46.6463,9.84756
664.89,91.1129,-6.48149,0,9.91299,-0.60115,-0.455054,-1.46341,0.518293,-2.34756,-9.77168,-0.900527,-0.407153,3.96341,-44.2683,9.60366
664.9,91.103,-6.27447,0,10.5501,0.189207,-0.780776,-3.68902,-3.17073,3.47561,-9.8076,-0.869392,-0.251477,5.12195,-43.4756,9.39024
664.909,91.0861,-6.04254,0,10.6626,0.392783,-0.840652,-9.69512,-2.37805,4.87805,-9.8124,-0.900527,-0.107776,5.64024,-42.7744,9.26829
664.919,91.1339,-5.82783,0,10.2698,-0.335303,-0.735271,-10.9451,-1.67683,3.20122,-9.77407,-0.883762,-0.141306,6.67683,-41.9512,8.87195
664.929,91.2311,-5.58721,0,9.88664,-0.744851,-0.646655,-7.7439,0.884146,2.28659,-9.77407,-0.876577,0.00718506,7.68293,-41.6768,8.68902
664.94,91.368,-5.30874,0,9.86988,-0.65863,-0.783171,-7.19512,3.32317,0.0914634,-9.74533,-0.814307,0.210762,8.68902,-41.6159,8.96341
664.949,91.3812,-5.00661,0,9.78126,-0.543669,-0.802332,-7.43902,4.08537,-2.80488,-9.78844,-0.759221,0.361648,9.93902,-41.4024,9.63415
664.959,91.3426,-4.69143,0,9.65193,-0.438289,-0.874182,-7.19512,5.73171,-6.43293,-9.78126,-0.711321,0.469424,10.4268,-41.372,9.90854
664.969,91.2741,-4.37424,0,9.46751,-0.498164,-0.852627,-6.15854,6.09756,-10.3963,-9.79803,-0.682581,0.534089,11.0671,-40.061,10.1829
664.979,91.1901,-4.05126,0,9.331,-0.56283,-0.886157,-4.26829,5.60976,-13.0183,-9.7621,-0.684976,0.613125,11.1585,-38.0183,9.81707
664.989,91.1036,-3.6952,0,9.3789,-0.627495,-0.895737,-3.14024,1.95122,-14.2073,-9.69264,-0.622705,0.807122,10.3049,-36.3415,9.63415
664.999,91.0269,-3.32189,0,9.50823,-0.670605,-0.869392,-2.16463,-4.14634,-13.811,-9.67109,-0.517324,0.941243,10.3963,-34.939,9.11585
665.009,90.9429,-2.95428,0,9.66151,-0.548459,-0.819097,-2.77439,-8.32317,-13.1098,-9.60163,-0.440684,0.974773,9.90854,-33.2317,9.05488
665.019,90.8512,-2.61215,0,9.80521,-0.438289,-0.637075,-2.43902,-10.6098,-12.6524,-9.58008,-0.404758,0.926873,9.02439,-32.1646,8.53659
665.03,90.7295,-2.24053,0,9.84593,-0.227527,-0.55325,-2.19512,-12.1037,-13.3841,-9.55852,-0.364043,1.10889,8.75,-31.2805,8.81098
665.039,90.5813,-1.85493,0,9.99442,-0.0598755,-0.543669,-1.40244,-8.44512,-14.3293,-9.55134,-0.320933,1.23104,7.89634,-30.8232,8.96341
665.049,90.4137,-1.46018,0,9.90341,0,-0.538879,-0.335366,-6.37195,-15.9146,-9.64474,-0.347278,1.3484,7.68293,-31.2805,9.11585
665.059,90.2605,-1.06685,0,10.0926,-0.114961,-0.58199,0.97561,0.487805,-16.128,-9.69504,-0.304167,1.41785,6.89024,-30.7622,9.2378
665.069,90.1267,-0.671178,0,10.1453,-0.234712,-0.6251,1.95122,3.78049,-15.8232,-9.72857,-0.352068,1.50168,6.52439,-30.3049,9.08537
665.079,89.9902,-0.308052,0,10.0495,-0.0359253,-0.613125,2.59146,5.67073,-14.0854,-9.71899,-0.373623,1.42743,5.94512,-28.9634,8.78049
665.089,89.8434,0.0517665,0,9.88664,0.100591,-0.65863,3.2622,6.64634,-13.811,-9.69025,-0.373623,1.47294,5.18293,-27.3476,8.23171
665.099,89.7171,0.455606,0,9.92257,0.0886157,-0.759221,3.20122,5.03049,-12.1646,-9.63756,-0.428708,1.71962,4.87805,-26.8598,7.71341
665.109,89.6182,0.85733,0,10.0687,0.00239502,-0.795146,2.56098,0.487805,-10.6402,-9.56571,-0.457449,1.76752,3.78049,-26.5244,7.56098
665.119,89.5329,1.21485,0,9.74294,-0.00479004,-0.565225,2.10366,-4.17683,-9.54268,-9.51302,-0.490979,1.6358,3.71951,-26.0366,7.43902
665.13,89.4728,1.56284,0,9.89383,-0.114961,-0.646655,1.34146,-1.55488,-8.44512,-9.43159,-0.522114,1.64298,3.41463,-24.3598,7.59146
665.139,89.4141,1.92538,0,9.72138,-0.0311353,-0.514929,1.25,-1.79878,-7.43902,-9.36453,-0.505349,1.75315,2.7439,-23.0793,7.89634
665.149,89.3531,2.2884,0,9.50583,0.0263452,-0.452659,1.03659,-1.09756,-7.10366,-9.34537,-0.471819,1.81303,1.92073,-22.8963,8.68902
665.159,89.2873,2.6134,0,9.77647,0.0958008,-0.59636,2.46951,2.0122,-6.89024,-9.39566,-0.433499,1.72202,1.85976,-22.1646,8.84146
665.169,89.2163,2.9525,0,9.81719,0.138911,-0.55804,4.02439,1.82927,-7.04268,-9.40045,-0.390388,1.83938,1.61585,-21.2805,9.02439
665.179,89.1525,3.28275,0,9.87706,0.141306,-0.62989,4.35976,1.85976,-6.43293,-9.39327,-0.342488,1.85854,1.76829,-20.2744,8.78049
665.19,89.1069,3.60457,0,9.89143,0.110171,-0.495769,3.62805,0.823171,-5.09146,-9.39806,-0.261057,1.88009,1.46341,-19.5427,8.59756
665.199,89.0693,3.90451,0,9.8579,0.146096,-0.495769,3.01829,0.487805,-3.93293,-9.37411,-0.285007,1.83698,1.37195,-18.5061,8.10976
665.209,89.0376,4.21408,0,9.84593,0.155676,-0.522114,2.28659,0.121951,-3.29268,-9.36213,-0.325723,1.92799,1.67683,-17.2561,7.62195
665.219,89.0105,4.50919,0,9.80042,0.182021,-0.507744,2.2561,-0.0304878,-2.53049,-9.31184,-0.364043,1.90883,2.04268,-16.5244,7.31707
665.229,88.9757,4.7918,0,9.74054,0.215552,-0.495769,1.89024,1.43293,-2.92683,-9.34776,-0.392783,1.91362,2.04268,-15.4268,6.7378
665.239,88.9366,5.08119,0,9.6663,0.253872,-0.507744,1.89024,2.31707,-2.89634,-9.331,-0.409548,1.98787,2.34756,-14.7866,6.40244
665.249,88.8887,5.37837,0,9.59684,0.313748,-0.481399,1.70732,2.62195,-3.04878,-9.35495,-0.433499,2.07648,2.2561,-14.3293,6.12805
665.259,88.8343,5.68453,0,9.65672,0.354463,-0.62031,1.67683,1.76829,-3.38415,-9.40045,-0.435894,2.17707,1.61585,-14.2073,6.34146
665.269,88.7619,5.98292,0,9.69743,0.387993,-0.61073,1.67683,0.518293,-5.06098,-9.41961,-0.445474,2.20102,0.823171,-13.6585,6.03659
665.279,88.695,6.28642,0,9.83635,0.313748,-0.543669,2.53049,-1.25,-5.60976,-9.48907,-0.371228,2.29203,0.426829,-13.6585,6.21951
665.289,88.6037,6.58848,0,10.0327,0.481399,-0.502954,2.22561,-2.53049,-6.37195,-9.4723,-0.361648,2.33514,0.0914634,-13.2622,6.34146
665.299,88.5439,6.87643,0,9.96568,0.261057,-0.505349,1.7378,-0.365854,-5.88415,-9.5202,-0.325723,2.33754,-0.518293,-13.0488,6.85976
665.31,88.5049,7.16315,0,9.94173,0.203577,-0.507744,2.28659,1.92073,-4.57317,-9.47949,-0.299377,2.37346,-0.914634,-12.1646,6.76829
665.32,88.4743,7.40776,0,9.86988,0.277822,-0.495769,0.945122,4.17683,-2.86585,-9.44356,-0.328118,2.22976,-1.40244,-11.0976,6.95122
665.33,88.4472,7.65075,0,9.79563,0.296982,-0.593965,1.12805,5.2439,-2.2561,-9.36213,-0.378413,2.24653,-1.76829,-10.0305,6.92073
665.34,88.4182,7.883,0,9.67827,0.296982,-0.60594,1.64634,4.20732,-2.46951,-9.34058,-0.414338,2.23695,-1.55488,-9.35976,7.16463
665.349,88.394,8.13146,0,9.66869,0.261057,-0.584385,2.04268,3.01829,-2.56098,-9.32621,-0.459844,2.34472,-1.85976,-8.38415,6.79878
665.359,88.3708,8.35332,0,9.64474,0.265847,-0.522114,2.31707,1.0061,-2.43902,-9.32142,-0.493374,2.27048,-1.37195,-7.5,6.70732
665.369,88.3412,8.5689,0,9.69025,0.320933,-0.526904,1.98171,-0.670732,-2.37805,-9.3286,-0.486189,2.28245,-1.46341,-6.7378,6.40244
665.379,88.3076,8.78139,0,9.76689,0.359253,-0.514929,1.4939,-1.25,-2.34756,-9.34297,-0.443079,2.3064,-1.55488,-5.7622,6.64634
665.389,88.273,8.97889,0,9.86748,0.378413,-0.431104,1.31098,-0.823171,-2.31707,-9.36213,-0.399968,2.27527,-1.61585,-4.90854,6.46341
665.399,88.2416,9.16874,0,9.90341,0.368833,-0.459844,1.61585,0.945122,-2.22561,-9.34297,-0.407153,2.26329,-1.18902,-4.42073,6.34146
665.409,88.2076,9.36653,0,9.9082,0.378413,-0.385598,1.31098,2.07317,-2.46951,-9.41482,-0.409548,2.34233,-1.15854,-4.11585,6.18902
665.419,88.1659,9.56006,0,9.87467,0.423918,-0.474214,2.07317,3.41463,-2.7439,-9.49625,-0.411943,2.37825,-1.25,-3.9939,6.0061
665.429,88.1243,9.73209,0,9.89143,0.440684,-0.510139,1.95122,2.59146,-2.59146,-9.55373,-0.421523,2.33754,-1.40244,-4.08537,6.06707
665.44,88.0864,9.89249,0,9.91778,0.435894,-0.493374,1.55488,1.89024,-2.34756,-9.57529,-0.469424,2.30161,-1.40244,-3.35366,5.73171
665.449,88.0561,10.0535,0,9.92736,0.421523,-0.423918,0.701219,2.04268,-1.70732,-9.55852,-0.488584,2.3064,-1.58537,-2.92683,5.73171
665.46,88.0191,10.1886,0,9.9082,0.471819,-0.399968,0.670732,1.7378,-1.64634,-9.5681,-0.519719,2.22258,-1.79878,-2.7439,5.97561
665.469,87.984,10.3117,0,9.8603,0.469424,-0.423918,0.0609756,0.701219,-1.31098,-9.53218,-0.514929,2.15552,-1.18902,-2.2561,6.06707
665.479,87.9527,10.4451,0,9.87706,0.457449,-0.340093,-0.152439,0.853659,-1.15854,-9.55613,-0.565225,2.213,-0.97561,-2.13415,6.09756
665.489,87.9254,10.5954,0,9.89383,0.433499,-0.263452,-0.884146,0.640244,-1.46341,-9.50823,-0.570015,2.28006,-0.914634,-2.10366,6.25
665.499,87.9108,10.7239,0,9.91299,0.383203,-0.261057,-1.31098,0.914634,-1.03659,-9.54176,-0.60594,2.26569,-0.640244,-2.43902,6.55488
665.509,87.9016,10.846,0,9.93933,0.368833,-0.282612,-1.34146,1.82927,-0.823171,-9.57529,-0.56762,2.26569,-0.0609756,-2.31707,6.52439
665.519,87.8988,10.9602,0,9.98244,0.364043,-0.318538,-1.67683,2.16463,-0.335366,-9.52978,-0.546064,2.23455,0.304878,-2.19512,6.7378
665.529,87.8851,11.0862,0,9.92257,0.407153,-0.311353,-2.13415,1.98171,-0.0609756,-9.56571,-0.517324,2.27048,0.304878,-1.76829,7.04268
665.539,87.8667,11.1897,0,9.92496,0.426313,-0.318538,-2.19512,2.80488,0.0304878,-9.53457,-0.526904,2.1651,0.884146,-1.34146,7.0122
665.549,87.8526,11.3043,0,9.79323,0.411943,-0.337698,-2.80488,2.65244,0.121951,-9.50104,-0.443079,2.20102,1.0061,-1.31098,6.85976
665.559,87.856,11.4113,0,9.73575,0.356858,-0.397573,-2.59146,2.5,0.0609756,-9.55134,-0.416733,2.25371,0.914634,-1.67683,6.89024
665.569,87.8696,11.5083,0,9.78366,0.328118,-0.431104,-2.34756,2.56098,0.0914634,-9.54415,-0.395178,2.28485,0.914634,-2.34756,6.76829
665.579,87.878,11.5904,0,9.82916,0.335303,-0.495769,-1.98171,1.55488,-0.121951,-9.58966,-0.409548,2.25611,1.06707,-2.28659,6.58537
665.589,87.8579,11.6763,0,9.9082,0.431104,-0.488584,-1.92073,0,-0.152439,-9.57768,-0.373623,2.28724,1.15854,-2.40854,6.67683
665.599,87.874,11.753,0,9.83874,0.258662,-0.522114,-1.89024,0.0304878,-0.792683,-9.60163,-0.390388,2.25371,1.15854,-1.98171,7.16463
665.61,87.8912,11.819,0,9.9058,0.282612,-0.55804,-1.09756,0.609756,-0.426829,-9.58726,-0.450264,2.23695,1.12805,-2.2561,7.04268
665.619,87.9092,11.8813,0,9.88425,0.308958,-0.483794,-1.89024,-0.213415,0,-9.60403,-0.426313,2.23455,1.03659,-2.13415,7.10366
665.629,87.958,11.9322,0,9.83395,0.196392,-0.481399,-1.40244,1.0061,-0.152439,-9.53457,-0.390388,2.18186,1.28049,-2.04268,7.16463
665.639,88.0008,11.9784,0,9.83635,0.210762,-0.500559,-0.97561,2.07317,-0.121951,-9.54176,-0.399968,2.16989,1.4939,-1.85976,7.28659
665.65,88.0284,12.0488,0,9.81,0.229922,-0.538879,-0.823171,2.37805,-0.365854,-9.50344,-0.361648,2.24413,1.37195,-1.76829,7.2561
665.659,88.0553,12.1131,0,9.7597,0.220342,-0.56283,-0.335366,1.92073,-0.457317,-9.50583,-0.323328,2.24653,1.37195,-1.95122,7.46951
665.669,88.0815,12.1734,0,9.7142,0.191602,-0.56283,-0.304878,0.945122,-0.731707,-9.50344,-0.330513,2.23455,1.61585,-1.76829,7.10366
665.679,88.1081,12.2251,0,9.73575,0.201182,-0.522114,-0.182927,-0.670732,-0.579268,-9.49146,-0.296982,2.19623,1.43293,-1.40244,6.98171
665.689,88.1227,12.3112,0,9.81719,0.246687,-0.524509,0.365854,-1.4939,-0.518293,-9.48188,-0.294587,2.28006,1.18902,-1.12805,7.22561
665.699,88.1414,12.3899,0,9.82916,0.210762,-0.447869,0.213415,-1.55488,-0.701219,-9.53218,-0.275427,2.29682,0.884146,-1.18902,7.10366
665.709,88.151,12.4598,0,9.87706,0.239502,-0.457449,0.823171,-1.12805,-0.792683,-9.53218,-0.301772,2.2585,0.731707,-0.823171,6.95122
665.719,88.1624,12.5417,0,9.88425,0.256267,-0.387993,0.548781,-0.0609756,-0.457317,-9.52978,-0.299377,2.29682,0.457317,-0.792683,6.85976
665.729,88.1682,12.6136,0,9.84114,0.249082,-0.421523,0.335366,0.945122,-0.853659,-9.52978,-0.313748,2.27766,0.487805,-0.670732,7.16463
665.739,88.1709,12.724,0,9.79084,0.258662,-0.419128,0.701219,1.4939,-0.914634,-9.53936,-0.354463,2.37107,0.121951,-0.579268,6.89024
665.75,88.1578,12.8133,0,9.75731,0.313748,-0.514929,0.792683,1.37195,-1.31098,-9.55134,-0.328118,2.37586,-0.152439,-0.853659,6.82927
665.759,88.1353,12.8935,0,9.75491,0.364043,-0.483794,1.03659,1.0061,-1.40244,-9.5226,-0.335303,2.3567,-0.548781,-0.823171,6.64634
665.769,88.1156,12.9518,0,9.79323,0.356858,-0.476609,1.15854,-0.0304878,-1.34146,-9.54894,-0.349673,2.33754,-0.243902,-1.0061,6.64634
665.779,88.1028,13.0141,0,9.83635,0.352068,-0.476609,0.853659,-0.762195,-0.640244,-9.55852,-0.335303,2.36149,-0.396341,-1.0061,6.64634
665.789,88.0802,13.0716,0,9.8579,0.397573,-0.443079,0.945122,-0.701219,-0.670732,-9.55613,-0.378413,2.36867,-0.304878,-1.15854,6.21951
665.799,88.0615,13.1334,0,9.86748,0.387993,-0.387993,0.792683,-0.518293,-0.335366,-9.54894,-0.364043,2.39262,-0.335366,-1.21951,5.94512
665.809,88.0468,13.1689,0,9.86988,0.371228,-0.380808,0.731707,0.335366,-0.640244,-9.60163,-0.364043,2.35191,-0.304878,-1.4939,5.7622
665.819,88.0339,13.2016,0,9.89143,0.376018,-0.361648,0.487805,1.43293,-0.152439,-9.57529,-0.373623,2.35191,-0.365854,-1.85976,5.70122
665.83,88.0226,13.2157,0,9.89143,0.376018,-0.423918,0.670732,2.13415,0.0304878,-9.60163,-0.383203,2.29922,-0.365854,-1.82927,5.57927
665.839,88.0103,13.2296,0,9.8124,0.380808,-0.407153,0.579268,2.16463,0.121951,-9.59445,-0.376018,2.30161,-0.396341,-2.04268,5.33537
665.849,88.003,13.2492,0,9.79084,0.373623,-0.407153,1.03659,2.07317,0.27439,-9.57529,-0.385598,2.31838,-0.27439,-1.95122,5.64024
665.859,88.004,13.2705,0,9.81958,0.344883,-0.450264,0.853659,1.34146,0.182927,-9.5681,-0.378413,2.32796,-0.335366,-2.10366,5.57927
665.869,88.0195,13.2909,0,9.81479,0.296982,-0.397573,1.21951,0.762195,0.0914634,-9.59205,-0.361648,2.33754,-0.548781,-2.31707,5.67073
665.879,88.0301,13.2932,0,9.8124,0.304167,-0.450264,1.12805,0.0914634,-0.0914634,-9.61361,-0.352068,2.27766,-0.27439,-3.07927,5.36585
665.889,88.0473,13.2722,0,9.8124,0.280217,-0.431104,1.21951,0.0609756,-0.121951,-9.63037,-0.368833,2.18665,-0.121951,-3.01829,5.21341
665.899,88.0635,13.2656,0,9.8603,0.287402,-0.380808,1.40244,0.182927,0.0914634,-9.65193,-0.368833,2.24653,0.152439,-3.10976,5.2439
665.909,88.0857,13.2659,0,9.83635,0.256267,-0.402363,1.67683,0.152439,-0.152439,-9.67827,-0.342488,2.28006,0.121951,-3.32317,5.15244
665.919,88.1067,13.259,0,9.82916,0.249082,-0.423918,1.46341,0.426829,-0.243902,-9.65911,-0.366438,2.24413,-0.0914634,-3.75,5.30488
665.93,88.1277,13.2198,0,9.81958,0.227527,-0.337698,1.67683,0.487805,-0.457317,-9.65193,-0.378413,2.10043,0.213415,-4.11585,5.18293
665.939,88.1499,13.1856,0,9.8076,0.225132,-0.407153,1.43293,0.335366,-0.396341,-9.60163,-0.373623,2.10522,0.487805,-3.9939,5.30488
665.949,88.1593,13.1689,0,9.80521,0.256267,-0.416733,1.18902,0.243902,-0.579268,-9.58247,-0.409548,2.16989,0.426829,-3.96341,5.73171
665.96,88.1685,13.1757,0,9.77407,0.241897,-0.414338,1.03659,-0.304878,-0.762195,-9.58487,-0.371228,2.26808,0.426829,-4.35976,5.54878
665.969,88.1805,13.1806,0,9.78605,0.220342,-0.373623,0.731707,-0.426829,-0.853659,-9.57289,-0.376018,2.2585,0.823171,-4.81707,5.85366
665.979,88.1863,13.177,0,9.76689,0.263452,-0.419128,0.792683,-0.609756,-0.609756,-9.59684,-0.366438,2.22737,0.609756,-4.96951,5.57927
665.989,88.1869,13.1699,0,9.81719,0.282612,-0.373623,0.792683,-0.0609756,-0.640244,-9.58726,-0.366438,2.20821,0.579268,-5.51829,5.39634
665.999,88.1935,13.171,0,9.8603,0.282612,-0.366438,0.792683,0.487805,-0.213415,-9.67109,-0.383203,2.26329,0.945122,-5.4878,5.27439
666.009,88.1931,13.1529,0,9.86509,0.282612,-0.366438,1.06707,0.396341,-0.701219,-9.73575,-0.395178,2.19144,0.609756,-5.94512,4.90854
666.019,88.1768,13.1569,0,9.86509,0.342488,-0.445474,0.731707,0.0304878,-1.06707,-9.75491,-0.399968,2.29203,0.97561,-6.58537,5.06098
666.029,88.158,13.1599,0,9.85311,0.359253,-0.469424,0.823171,0.27439,-1.03659,-9.75491,-0.447869,2.28724,0.914634,-7.22561,4.57317
666.039,88.1393,13.1625,0,9.87946,0.352068,-0.371228,0.579268,0.0304878,-1.31098,-9.78605,-0.443079,2.29203,1.46341,-8.68902,4.54268
666.049,88.1341,13.1788,0,9.8579,0.296982,-0.397573,0.243902,0.121951,-1.0061,-9.68546,-0.450264,2.33035,1.34146,-9.29878,5.03049
666.059,88.1249,13.202,0,9.87227,0.335303,-0.342488,0.243902,0.0914634,-0.640244,-9.6663,-0.435894,2.35909,1.7378,-10.122,5.33537
666.069,88.1123,13.2395,0,9.8603,0.356858,-0.399968,0.0914634,0.640244,-0.365854,-9.57768,-0.464634,2.4046,1.58537,-11.189,5.64024
666.08,88.11,13.2955,0,9.86748,0.328118,-0.380808,0.548781,0.853659,-0.152439,-9.59445,-0.428708,2.49801,1.82927,-12.2561,5.45732
666.089,88.1016,13.317,0,9.87946,0.349673,-0.397573,0.426829,0.670732,-0.121951,-9.62319,-0.435894,2.35909,1.79878,-12.9573,5.33537
666.099,88.0939,13.3343,0,9.83156,0.356858,-0.397573,0.640244,0.243902,0.182927,-9.62798,-0.414338,2.34472,2.07317,-13.2317,5.09146
666.109,88.0884,13.3724,0,9.83395,0.342488,-0.371228,0.182927,-0.0304878,-0.0609756,-9.64474,-0.438289,2.44531,2.16463,-14.2073,5.21341
666.12,88.0723,13.4209,0,9.88425,0.397573,-0.426313,0.640244,0.121951,0.27439,-9.69983,-0.397573,2.51238,2.2561,-15.5793,5.21341
666.13,88.0679,13.4737,0,9.86988,0.376018,-0.426313,0.518293,-0.243902,0.609756,-9.69025,-0.414338,2.53633,2.83537,-17.1646,5.12195
666.139,88.0686,13.5358,0,9.89862,0.383203,-0.387993,0.670732,-0.365854,1.03659,-9.70462,-0.423918,2.59141,3.04878,-18.3232,4.84756
666.149,88.0604,13.6198,0,9.88664,0.423918,-0.443079,0.396341,-0.365854,0.97561,-9.73575,-0.435894,2.71116,3.10976,-19.6341,4.7561
666.159,88.0567,13.6903,0,9.84114,0.423918,-0.452659,0.457317,0.518293,1.28049,-9.72857,-0.426313,2.66087,2.71341,-20.9451,4.66463
666.17,88.0586,13.7518,0,9.80042,0.390388,-0.414338,0.884146,1.28049,1.28049,-9.69504,-0.359253,2.62255,2.10366,-21.2195,4.54268
666.18,88.0643,13.768,0,9.74294,0.349673,-0.457449,1.4939,1.70732,1.0061,-9.7118,-0.313748,2.43094,2.59146,-21.8902,4.81707
666.189,88.0797,13.8035,0,9.74773,0.301772,-0.380808,1.89024,1.89024,1.0061,-9.6663,-0.277822,2.50998,2.86585,-21.8902,4.66463
666.199,88.0908,13.8666,0,9.82197,0.316143,-0.402363,2.34756,1.34146,0.853659,-9.70222,-0.318538,2.65129,2.65244,-23.0488,4.20732
666.209,88.1109,13.9468,0,9.8603,0.280217,-0.438289,2.28659,0.365854,1.15854,-9.75252,-0.361648,2.75427,2.07317,-24.3293,4.02439
666.219,88.1306,14.0115,0,9.86509,0.270637,-0.421523,2.0122,-0.548781,0.853659,-9.77886,-0.376018,2.70398,1.89024,-24.878,3.53659
666.229,88.139,14.0716,0,9.88185,0.296982,-0.397573,1.46341,-1.12805,0,-9.8076,-0.347278,2.70158,2.13415,-26.25,3.68902
666.239,88.1469,14.1391,0,9.87946,0.277822,-0.464634,1.67683,-1.37195,-0.365854,-9.83874,-0.356858,2.75427,2.2561,-27.7134,3.41463
666.249,88.1556,14.2049,0,9.83395,0.222737,-0.431104,2.22561,-0.914634,-1.03659,-9.83635,-0.392783,2.75667,2.65244,-29.4207,3.81098
666.259,88.1668,14.3055,0,9.85072,0.256267,-0.411943,2.59146,-0.457317,-0.457317,-9.82437,-0.407153,2.92671,2.80488,-31.5549,4.17683
666.27,88.1926,14.4004,0,9.82197,0.198787,-0.431104,2.65244,-0.518293,-0.457317,-9.72857,-0.421523,2.88839,3.04878,-33.1707,4.32927
666.279,88.2159,14.494,0,9.76928,0.193997,-0.452659,2.46951,0.243902,-0.579268,-9.65911,-0.376018,2.87881,3.53659,-34.2378,4.81707
666.289,88.2377,14.6006,0,9.74773,0.165256,-0.495769,2.40854,0.121951,-0.884146,-9.59205,-0.383203,2.9339,4.54268,-35.8537,4.87805
666.299,88.2475,14.7404,0,9.80042,0.148491,-0.421523,3.23171,-0.518293,-1.58537,-9.59205,-0.423918,3.10634,4.84756,-37.7134,4.78659
666.309,88.2416,14.8975,0,9.87227,0.217947,-0.514929,2.7439,-0.335366,-1.89024,-9.57768,-0.455054,3.20693,4.66463,-39.7256,4.05488
666.319,88.237,15.0609,0,9.8555,0.222737,-0.474214,1.76829,-0.27439,-1.7378,-9.53697,-0.455054,3.25004,4.63415,-41.5854,2.89634
666.33,88.2532,15.2353,0,9.81479,0.126936,-0.409548,1.25,0.243902,-1.43293,-9.55373,-0.387993,3.33626,4.5122,-43.1707,2.31707
666.339,88.2617,15.3967,0,9.83635,0.126936,-0.455054,1.61585,2.22561,-1.82927,-9.50823,-0.356858,3.29076,4.05488,-44.5122,1.98171
666.349,88.2483,15.5417,0,9.9561,0.215552,-0.507744,1.64634,3.62805,-2.53049,-9.4723,-0.323328,3.23088,3.96341,-45.3963,1.21951
666.359,88.2135,15.776,0,10.0279,0.352068,-0.514929,0.457317,4.20732,-2.9878,-9.40285,-0.229922,3.6524,3.87195,-46.7073,1.58537
666.369,88.1702,15.9836,0,10.0615,0.443079,-0.502954,-2.37805,4.26829,-2.77439,-9.50104,-0.273032,3.6045,3.78049,-48.9024,1.85976
666.379,88.1388,16.1495,0,9.92975,0.366438,-0.397573,-4.48171,3.5061,-2.56098,-9.54176,-0.277822,3.45841,3.38415,-50.3354,1.89024
666.39,88.1185,16.3536,0,9.86509,0.285007,-0.318538,-4.05488,2.46951,-2.56098,-9.58487,-0.361648,3.68833,3.75,-51.8293,1.82927
666.399,88.0967,16.5931,0,9.74773,0.332908,-0.177231,-3.04878,1.46341,-2.04268,-9.66869,-0.366438,3.93262,3.90244,-54.3598,2.43902
666.409,88.0713,16.8274,0,9.75491,0.337698,-0.146096,-1.46341,1.67683,-2.40854,-9.79084,-0.411943,3.99968,4.78659,-58.2622,2.77439
666.419,88.0409,17.0277,0,9.89622,0.397573,-0.148491,-1.06707,1.58537,-2.19512,-9.76689,-0.476609,3.86317,5.91463,-61.6159,2.56098
666.429,87.9977,17.2123,0,9.96807,0.498164,-0.296982,-2.7439,3.75,-2.2561,-9.66869,-0.423918,3.78413,7.40854,-63.689,2.31707
666.439,87.9404,17.4298,0,9.9561,0.61073,-0.452659,-6.67683,7.53049,-2.19512,-9.47709,-0.337698,3.90149,8.62805,-66.5854,2.62195
666.449,87.8951,17.6268,0,9.93933,0.500559,-0.570015,-10.2134,12.2561,-2.77439,-9.35974,-0.340093,3.79371,8.71951,-68.689,2.9878
666.459,87.8482,17.8466,0,10.1261,0.469424,-0.65384,-9.78659,14.5732,-3.62805,-9.2352,-0.368833,3.88712,9.63415,-70.8537,3.41463
666.469,87.7815,18.1649,0,10.289,0.464634,-0.862207,-8.84146,15.9756,-5.91463,-9.11065,-0.308958,4.34936,9.54268,-73.9939,3.59756
666.48,87.7022,18.4836,0,10.2698,0.543669,-0.857417,-8.84146,16.4329,-6.43293,-8.97414,-0.270637,4.34457,9.26829,-76.9817,4.57317
666.489,87.6477,18.8731,0,10.1501,0.347278,-0.574805,-8.78049,10.9146,-6.25,-8.93342,-0.227527,4.73495,7.95732,-79.2988,5.85366
666.499,87.5873,19.2695,0,10.0615,0.55325,-0.383203,-8.9939,8.53659,-4.5122,-8.91426,-0.201182,4.83554,6.06707,-81.9207,7.22561
666.509,87.504,19.5074,0,9.73575,0.840652,-0.186812,-13.1707,8.41463,-2.34756,-8.95019,-0.134121,4.14817,7.56098,-83.1707,8.87195
666.519,87.386,19.6382,0,9.11544,0.958008,0.105381,-16.4634,7.92683,-2.37805,-8.92624,0.0958008,3.68114,12.9268,-80.6707,10.4878
666.529,87.2837,19.8808,0,8.96216,0.878972,0.146096,-17.378,10.7927,-3.62805,-9.01964,0.0766406,4.2775,19.0549,-78.9939,11.5854
666.54,87.1857,20.1873,0,8.90947,0.459844,0.273032,-12.2256,11.0976,-9.5122,-9.10586,-0.146096,4.68466,24.1463,-80.2134,11.5549
666.549,87.0358,20.5413,0,9.84353,0.419128,0.0287402,-4.11585,15.5488,-16.0671,-9.06515,-0.423918,4.96727,27.2256,-82.3781,11.372
666.559,86.8476,20.869,0,10.4902,0.66342,0.0287402,-2.46951,5.64024,-17.8659,-9.12981,-0.919688,4.93614,28.0793,-84.3293,10.5183
666.569,86.6747,21.1892,0,11.3763,0.376018,-0.222737,3.04878,11.128,-20.2134,-9.19687,-1.4418,4.99841,24.939,-86.9207,8.9939
666.58,86.4696,21.5785,0,11.0913,0.852627,0.0550855,-7.13415,-0.579268,-18.75,-9.07233,-1.7771,5.35766,19.6037,-92.0427,7.37805
666.589,86.2867,22.0535,0,11.0985,0.835862,-0.0646655,-16.1585,-2.10366,-17.0732,-8.76817,-1.76273,5.71212,14.939,-99.5732,7.53049
666.599,86.1573,22.5868,0,10.6914,0.138911,0.0694556,-21.9207,-6.4939,-19.2683,-8.45202,-1.45378,5.9157,13.4451,-107.409,9.42073
666.609,86.0215,23.0593,0,10.4686,-0.265847,-0.0526904,-13.628,0.823171,-24.6646,-8.19336,-1.26457,5.52052,15.7622,-110.732,11.6768
666.619,85.7805,23.5695,0,10.38,-0.102986,-0.55325,-5.91463,15.5488,-33.872,-7.96104,-0.943638,5.65704,18.3841,-109.848,13.2012
666.63,85.4282,24.2075,0,9.94412,0.419128,-0.493374,-0.762195,28.3232,-39.6341,-7.63532,-0.641865,6.21508,20.6098,-108.323,13.7805
666.639,85.0375,24.9217,0,9.91778,0.555645,-0.488584,-0.609756,33.3841,-42.6524,-7.27367,-0.373623,6.48332,22.0122,-107.5,13.0793
666.649,84.6682,25.6662,0,9.88185,0.366438,-0.397573,-0.823171,31.311,-43.4756,-7.12997,-0.0239502,6.69408,23.5671,-106.463,11.311
666.659,84.3365,26.4625,0,9.82197,0.184417,-0.433499,-3.23171,26.6768,-42.5305,-6.84736,0.112566,6.90963,24.939,-104.268,8.87195
666.669,84.1232,27.264,0,9.74294,-0.58678,-0.292192,-0.426829,19.5427,-40.3659,-6.67492,0.256267,6.95993,25.3354,-101.738,6.4939
666.679,83.9874,28.1485,0,9.53218,-0.795146,-0.100591,3.65854,5.42683,-35.5793,-6.36836,0.299377,7.3575,24.3902,-96.5854,4.39024
666.69,83.8692,29.1126,0,9.83874,-0.323328,0.0431104,3.20122,-6.92073,-28.1707,-6.2055,0.301772,7.95146,22.2256,-93.8719,2.53049
666.7,83.7473,30.0708,0,10.3489,0.205972,0.136516,-3.84146,-16.372,-22.622,-6.01868,0.387993,7.94428,20.122,-92.439,1.7378
666.709,83.6288,31.0296,0,10.3297,0.364043,0.217947,-5.60976,-25.0305,-20.7317,-5.90851,0.56762,8.08559,19.0244,-89.2378,1.82927
666.719,83.577,31.9561,0,10.8902,0.0455054,-0.0191602,-0.426829,-26.2195,-17.8049,-5.83906,0.730481,8.03529,17.7439,-86.6768,2.34756
666.729,83.5775,32.8425,0,10.4231,-0.364043,0.821492,19.5122,-16.8293,-17.1341,-5.84624,0.821492,8.02571,16.9817,-83.2927,3.5061
666.739,83.539,33.7359,0,10.471,-0.193997,1.71723,44.7561,11.6159,-19.2073,-5.80313,0.845442,8.28916,16.0061,-80.3049,3.84146
666.749,83.3743,34.591,0,10.1477,0.821492,1.98787,55.6402,48.9634,-20.5488,-5.70973,0.845442,8.13828,15.1524,-77.561,3.84146
666.759,82.998,35.5002,0,10.3656,2.90755,2.05493,33.3232,55.3354,-19.939,-5.32892,0.883762,8.26521,14.4512,-72.8049,3.47561
666.769,82.6392,36.4786,0,10.0112,2.78541,1.54479,-1.95122,64.4207,-19.1768,-4.99601,0.936453,8.6053,12.4085,-69.8781,3.20122
666.779,82.3991,37.5007,0,9.75012,1.5879,0.289797,-6.92073,72.1951,-20.6402,-4.64394,0.888552,8.72027,10.5488,-65.8841,3.2622
666.789,82.1853,38.544,0,9.92257,0.898132,0.0263452,-1.79878,68.3537,-26.7683,-4.30385,0.941243,8.65081,8.32317,-60.122,3.41463
666.799,81.9308,39.6171,0,9.54415,0.783171,0.162861,2.5,61.25,-32.3476,-4.06195,0.936453,8.86157,6.31098,-54.4512,3.41463
666.812,81.6329,40.6758,0,9.12023,1.03944,-0.213157,-6.31098,38.0488,-33.5976,-4.0404,0.864602,9.12263,4.20732,-48.4451,3.62805
666.819,81.4088,41.6764,0,9.04599,0.505349,-0.316143,-9.17683,17.0427,-33.4146,-4.01166,0.795146,8.89271,3.5061,-45.2439,3.14024
666.83,81.3151,42.6382,0,9.0388,-0.196392,-0.866997,-0.945122,-6.43293,-29.6341,-4.0404,0.754431,8.97653,3.29268,-39.939,2.56098
666.839,81.2169,43.5745,0,9.0388,0.172441,-0.840652,7.95732,-23.6585,-25.5183,-4.06914,0.675395,9.1825,2.59146,-36.9817,3.5061
666.849,81.0665,44.4423,0,9.06754,0.783171,-0.136516,11.25,-39.0854,-23.2012,-4.2296,0.56283,9.20406,1.7378,-33.8415,3.47561
666.859,80.8358,45.2467,0,9.62319,1.46096,0.227527,7.65244,-47.2561,-24.1463,-4.30864,0.366438,9.07712,1.31098,-29.8476,3.56707
666.869,80.5704,46.0163,0,10.1693,1.99505,0.347278,3.29268,-46.3415,-23.1402,-4.44276,0.217947,9.33579,1.28049,-26.5549,3.07927
666.879,80.2954,46.7206,0,10.4614,2.07648,0.617915,1.95122,-48.4451,-24.3902,-4.57928,0.0646655,9.25915,2.22561,-23.5976,2.83537
666.89,79.9848,47.4138,0,10.6004,2.21539,0.479004,1.12805,-41.5549,-27.4085,-4.55533,0.0838257,9.39087,2.80488,-20.8232,3.14024
666.9,79.6607,48.0925,0,10.3728,2.15312,0.579595,3.53659,-36.0061,-29.5732,-4.58407,0.0407153,9.59205,2.71341,-19.4207,4.11585
666.91,79.3114,48.7407,0,10.3417,2.37107,0.467029,4.45122,-26.7073,-30.3963,-4.63676,0.0526904,9.6639,2.80488,-18.689,5.30488
666.92,78.9736,49.3763,0,10.21,2.25611,0.471819,4.60366,-16.4024,-30.8537,-4.59604,0.150886,9.72378,2.56098,-17.8049,6.61585
666.93,78.6441,50.0013,0,9.97526,2.22258,0.63468,5.70122,-8.47561,-30.4878,-4.53856,0.273032,9.76689,2.71341,-16.9817,7.86585
666.94,78.3318,50.6181,0,10.3106,2.20342,0.344883,8.9939,-4.17683,-30.4268,-4.49785,0.414338,9.86748,2.95732,-16.6463,8.71951
666.95,78.0013,51.2053,0,10.0998,2.59141,0.385598,11.8598,-4.69512,-28.1707,-4.41163,0.455054,9.62319,3.23171,-14.8171,9.72561
666.959,77.6405,51.7606,0,10.0064,2.89318,0.258662,11.311,-9.60366,-28.3841,-4.47629,0.433499,9.67109,4.08537,-13.3537,9.29878
666.969,77.2699,52.3098,0,9.90341,2.76146,-0.0455054,7.2561,-10.2744,-31.25,-4.42121,0.316143,9.73336,3.90244,-11.9207,8.38415
666.979,76.8984,52.8564,0,9.81719,2.95545,-0.0287402,11.0366,-11.4939,-29.6951,-4.36133,0.292192,9.82197,3.38415,-10.9146,7.68293
666.989,76.4951,53.3852,0,9.68306,2.92911,-0.0910107,7.40854,-15.9451,-33.5366,-4.25834,0.311353,9.63756,3.01829,-9.84756,7.19512
667,76.08,53.9201,0,9.60163,3.35303,0.0981958,7.16463,-17.6829,-30.6402,-4.15775,0.292192,9.72378,2.31707,-8.47561,6.70732
667.009,75.6516,54.4473,0,9.88904,3.46799,0.0622705,4.08537,-19.6646,-32.6829,-4.0859,0.378413,9.7142,1.64634,-7.16463,7.10366
667.019,75.2009,54.941,0,9.54655,3.52547,0.440684,5.60976,-25.122,-33.9024,-4.06914,0.416733,9.49625,1.82927,-5.15244,7.5
667.029,74.7023,55.4259,0,9.8076,3.71468,0.387993,5.45732,-27.6829,-38.75,-4.01884,0.459844,9.41003,1.92073,-3.96341,8.07927
667.039,74.1769,55.9313,0,10.2219,4.03321,0.0958008,4.32927,-21.4329,-40.8841,-3.99729,0.486189,9.35255,3.14024,-2.46951,8.59756
667.049,73.615,56.6805,0,9.85072,4.0404,0.397573,1.15854,-21.3415,-44.1159,-3.97813,0.486189,9.22322,3.65854,-0.701219,8.75
667.059,73.0415,57.2719,0,9.83874,3.82006,0.280217,-0.670732,-19.2988,-48.6585,-4.01884,0.431104,9.30226,3.5061,1.03659,8.9939
667.069,72.4404,57.7111,0,9.7597,3.98531,0.174836,-1.4939,-19.1463,-50.6098,-4.07632,0.368833,9.38369,3.14024,1.85976,8.68902
667.079,71.8446,58.0793,0,9.70701,3.83682,0.114961,-1.43293,-9.90854,-52.622,-4.03561,0.383203,9.15856,2.71341,2.83537,8.38415
667.089,71.2753,58.4241,0,9.42919,3.58534,0.244292,0.304878,-9.48171,-52.6524,-3.93262,0.464634,9.01485,2.28659,3.75,8.14024
667.099,70.7263,58.7749,0,9.51781,3.47278,-0.0191602,0.335366,-3.04878,-53.3232,-3.70749,0.58678,8.82565,2.0122,5.42683,8.62805
667.109,70.1839,59.1401,0,9.25915,3.48475,-0.0167651,0.182927,-2.34756,-52.5915,-3.50152,0.752036,8.67716,1.70732,7.83537,9.7561
667.119,69.6468,59.5358,0,9.12981,3.54942,-0.100591,0.27439,-0.0914634,-51.8902,-3.38895,0.874182,8.90947,0.762195,8.9939,11.189
667.129,69.1437,59.915,0,9.24478,3.37698,-0.390388,-0.884146,-3.93293,-51.9207,-3.38416,0.890947,8.89271,-0.213415,10.7317,12.5915
667.14,68.6367,60.2436,0,8.90947,3.45841,-0.337698,1.12805,-7.89634,-51.0061,-3.44404,0.852627,8.64602,0,13.6585,13.5366
667.149,68.1466,60.5285,0,9.01246,3.4153,-0.464634,1.06707,-5.33537,-51.25,-3.58055,0.713716,8.65321,0.365854,16.7073,13.2927
667.159,67.6648,60.7394,0,8.95258,3.55421,-0.579595,0.792683,-8.93293,-49.5732,-3.77934,0.61073,8.46879,0.152439,19.7866,12.378
667.169,67.2197,60.9155,0,8.98611,3.4632,-0.718506,-1.55488,-10.2439,-47.9878,-3.96615,0.550855,8.62207,0,22.1341,10.5183
667.179,66.7924,61.0484,0,8.76817,3.37458,-0.665815,-1.76829,-13.75,-47.1341,-4.16254,0.534089,8.68195,-0.243902,22.8963,8.93293
667.189,66.3726,61.1508,0,8.5119,3.41769,-0.656235,0.762195,-19.6646,-45.5488,-4.24158,0.56762,8.60291,0,24.4817,7.77439
667.199,65.9546,61.256,0,8.39933,3.53744,-0.730481,0.884146,-19.939,-44.2683,-4.18649,0.58678,8.5598,-0.213415,26.311,6.7378
667.21,65.5545,61.3808,0,8.49034,3.38177,-0.811912,-2.62195,-22.6524,-45.5793,-4.12183,0.60594,8.658,-1.18902,27.3476,6.98171
667.219,65.1693,61.4906,0,8.47358,3.48715,-0.883762,-0.670732,-22.1951,-43.5366,-4.08111,0.66342,8.47837,-1.55488,28.4451,7.71341
667.229,64.7799,61.5844,0,8.57896,3.6548,-0.881367,2.10366,-24.939,-43.3232,-4.04998,0.708926,8.30832,-2.56098,31.372,8.84146
667.239,64.3992,61.6919,0,8.72745,3.71707,-0.780776,4.60366,-24.8476,-43.2317,-4.0859,0.737666,8.55262,-4.08537,32.9878,9.87805
667.249,64.0041,61.7672,0,8.54064,4.03082,-0.560435,7.65244,-27.6829,-41.0061,-4.10267,0.797541,8.32509,-4.90854,34.939,10.8841
667.259,63.6181,61.8273,0,8.7035,3.94699,-0.795146,8.65854,-29.5427,-42.6524,-4.14817,0.807122,8.30832,-5.60976,37.2561,11.3415
667.269,63.2655,61.8611,0,9.36213,4.32301,-1.24781,15.7317,-19.6951,-39.2378,-4.28469,0.811912,8.36341,-6.21951,38.8415,11.3415
667.279,62.8849,61.8452,0,9.01006,4.46192,-0.991538,17.8659,-17.378,-39.6341,-4.38289,0.807122,8.1263,-6.52439,40.5488,11.3415
667.289,62.482,61.7986,0,8.83762,4.711,-0.778381,16.7683,-16.8902,-39.1768,-4.50264,0.831072,8.08319,-6.43293,42.439,11.0671
667.299,62.0725,61.7179,0,8.35862,4.32062,-0.483794,17.1341,-15.8841,-42.1646,-4.69184,0.811912,8.11912,-7.16463,43.9634,11.0366
667.309,61.705,61.5934,0,8.59093,4.38289,-0.905317,22.3171,-13.811,-39.3293,-4.85231,0.773591,8.01134,-8.56707,45.3049,11.0671
667.319,61.3526,61.4618,0,8.32748,4.18649,-0.874182,28.7195,-9.96951,-39.2378,-4.98404,0.816702,8.13349,-10.1829,46.4024,10.6707
667.329,60.9699,61.288,0,8.73224,5.02475,-1.14721,33.4146,-11.2805,-36.4634,-5.04152,0.759221,7.85566,-10.7927,47.9268,10.122
667.339,60.5471,61.1007,0,8.71548,5.49417,-1.02267,27.1951,-11.8902,-36.6159,-5.03194,0.692161,7.69041,-11.7683,49.4817,10.0305
667.349,60.1405,60.9276,0,8.71069,5.90612,-0.907712,16.0671,-11.8598,-31.9207,-4.97925,0.570015,7.66167,-12.561,50.2744,10.3354
667.359,59.7507,60.7323,0,8.67716,5.44867,-0.958008,2.62195,-13.9024,-35.1524,-4.98404,0.414338,7.45809,-12.1951,50.7012,10.6707
667.369,59.4082,60.498,0,8.68195,5.0008,-1.24062,7.28659,-15.0915,-35.5793,-5.07265,0.299377,7.26409,-12.2256,52.0427,11.2195
667.379,59.033,60.2309,0,8.38257,4.73016,-1.12566,13.1707,-14.3598,-40.6402,-5.20677,0.150886,7.17069,-11.6768,53.2012,11.7378
667.389,58.6197,59.9205,0,8.11193,4.76609,-1.21427,21.4939,-10.061,-43.2622,-5.39119,0.107776,7.0677,-11.0061,54.7256,11.6768
667.399,58.155,59.6259,0,7.92751,4.86428,-1.37714,24.9085,-4.93902,-47.1037,-5.55166,0.124541,7.30241,-10.9146,55.4573,11.6159
667.409,57.6702,59.2881,0,7.89638,5.09421,-1.3005,27.4085,-0.701219,-47.4695,-5.6259,0.160466,7.04136,-11.372,56.8293,11.311
667.419,57.1651,58.9813,0,7.98021,5.38161,-1.13524,18.5976,-2.83537,-48.1402,-5.63069,0.225132,7.1635,-12.5915,58.5671,10.8232
667.429,56.6786,58.6611,0,8.13349,5.45585,-1.16637,7.77439,-11.7683,-47.561,-5.62111,0.289797,6.98867,-13.3232,59.6037,10.3963
667.439,56.2102,58.2977,0,8.35143,5.23791,-1.60227,0.335366,-6.67683,-50.3049,-5.68099,0.366438,6.72042,-13.4146,61.7683,10.1524
667.449,55.7748,57.9306,0,8.55262,5.36005,-1.35558,-2.83537,-6.55488,-47.9268,-5.72889,0.416733,6.67013,-12.8049,63.6585,9.93902
667.459,55.3783,57.5569,0,8.39454,4.78764,-1.01788,-11.5244,-9.48171,-49.6951,-5.74805,0.481399,6.56954,-12.9573,65.0915,9.69512
667.469,54.9829,57.1509,0,7.72873,4.5697,-0.816702,-9.2378,-11.4024,-48.5671,-5.80792,0.490979,6.36836,-13.811,66.8598,9.81707
667.479,54.619,56.776,0,7.76226,4.36612,-0.998723,-1.0061,-8.9939,-48.689,-5.85343,0.529299,6.50487,-14.878,67.4085,9.78659
667.489,54.2658,56.3706,0,7.74789,4.44995,-1.03225,10.6098,0.609756,-47.2866,-5.97557,0.55325,6.38033,-15.9146,67.9268,9.29878
667.499,53.8682,55.9407,0,7.7431,5.02475,-1.08255,18.75,0.0609756,-46.189,-6.13125,0.536484,6.31806,-16.5549,70.1524,8.9939
667.509,53.3825,55.4779,0,7.51318,5.47741,-1.07057,18.9634,-9.63415,-49.6341,-6.27016,0.500559,6.18634,-16.8598,72.6219,7.86585
667.52,52.9567,55.0123,0,8.32748,5.99952,-1.57113,20.3049,-2.86585,-45.1829,-6.45218,0.502954,6.251,-18.2317,75.061,7.13415
667.529,52.514,54.5145,0,8.1263,6.02587,-1.40588,8.96341,-9.17683,-46.1585,-6.65576,0.510139,6.16718,-20.1829,76.4329,6.7378
667.539,52.0576,54.0206,0,7.91314,6.55756,-1.70525,5.12195,-6.18902,-42.1646,-6.83539,0.546064,6.24621,-21.7378,76.311,6.64634
667.549,51.5013,53.4463,0,6.69887,6.23424,-1.02028,-5.85366,-11.5549,-46.5549,-6.95274,0.498164,5.81271,-22.8963,76.7378,6.92073
667.56,51.0877,52.8809,0,8.09277,5.68099,-1.49928,-14.6037,-9.96951,-49.2073,-7.0701,0.479004,5.83906,-23.7805,77.2561,7.53049
667.569,50.7698,52.3382,0,8.09756,6.3468,-1.74118,-8.71951,-15.0915,-34.1159,-7.18266,0.462239,5.93246,-24.7256,76.4024,8.71951
667.579,50.6484,51.7518,0,8.0784,6.5408,-1.50886,5.64024,-9.90854,-12.8659,-7.28565,0.428708,5.6738,-25.3963,77.1951,9.54268
667.589,50.4504,51.1621,0,8.10235,6.32764,-1.79626,-9.60366,7.13415,-22.9878,-7.43654,0.263452,5.65464,-26.1585,78.0488,10.2744
667.599,50.1768,50.5147,0,7.19703,6.43542,-1.63819,-7.56098,1.4939,-23.3232,-7.53234,0.141306,5.31455,-25.1524,79.3293,10.6402
667.609,49.8519,49.864,0,6.85215,6.32285,-1.3963,-5.36585,-6.89024,-27.2866,-7.58982,0.0455054,5.21396,-24.5427,81.6159,10.8537
667.619,49.4374,49.193,0,6.81144,6.53122,-1.15679,-16.189,-19.5122,-34.8476,-7.72154,-0.00718506,5.07744,-24.2988,82.5,11.189
667.629,49.0098,48.5353,0,7.05812,7.24493,-1.61185,-31.0366,-18.1098,-33.0488,-7.85327,-0.129331,5.099,-24.3598,83.2317,11.25
667.639,48.4235,47.8402,0,5.89414,6.61504,-0.404758,-49.2988,-39.5732,-44.9085,-8.03769,-0.251477,4.905,-23.75,82.9268,11.372
667.649,47.6591,47.11,0,5.89175,6.82581,-0.622705,-71.8598,-47.5305,-62.439,-8.17181,-0.347278,4.68226,-22.2866,83.0183,11.6159
667.659,47.3373,46.366,0,9.62798,11.8098,-2.50519,-68.9329,-36.4939,-15.5488,-8.29874,-0.376018,4.55054,-21.5244,83.8415,11.4329
667.669,47.4558,45.5904,0,12.2673,5.64985,-4.63197,-88.1098,82.0427,-24.5122,-8.49753,-0.433499,4.36612,-20.7317,83.811,11.7073
667.679,47.3629,44.7564,0,8.3658,10.847,-1.27655,-89.3293,14.6951,10.5488,-8.61968,-0.447869,4.00926,-19.9085,84.0549,11.4024
667.689,46.5789,43.9962,0,2.42376,4.49545,4.31582,-88.9329,-91.7683,-41.1585,-8.68674,-0.325723,4.232,-20.2134,83.689,11.6159
667.699,46.4283,43.2065,0,8.21971,5.18282,-0.344883,-65.1219,-110.366,-38.2012,-8.67476,-0.282612,3.94699,-20.2744,83.2317,11.8293
667.71,46.3006,42.4786,0,9.04359,4.33738,-2.88121,-47.4695,-17.5,-49.6646,-8.62207,-0.217947,4.06435,-20.4268,83.3841,12.0732
667.719,46.1516,41.7115,0,7.02459,9.45075,-1.69088,-9.02439,-24.2073,4.60366,-8.49034,-0.244292,3.69552,-20.6402,83.689,12.2866
667.729,47.3985,40.8947,0,14.1067,10.8758,-3.36979,17.4695,3.41463,114.543,-8.41849,-0.320933,3.3171,-19.8476,85.0305,11.8293
667.739,47.9019,40.1118,0,8.56938,5.29539,1.56634,-68.4146,0,29.1463,-8.4616,-0.457449,3.34105,-18.3841,85.3354,11.0366
667.749,48.1093,39.3467,0,7.61616,7.19703,1.70286,-98.3841,-116.341,23.7805,-8.47358,-0.61552,3.28836,-16.7378,84.6037,9.32927
667.759,48.3413,38.5322,0,7.76226,5.76721,-1.42743,-116.524,-125.518,12.8963,-8.43765,-0.713716,2.93869,-14.6341,85.3963,7.22561
667.769,48.2336,37.6994,0,3.13748,1.16637,-0.665815,-113.963,-117.53,-54.3902,-8.47358,-0.802332,2.7423,-13.4146,87.1037,5.7622
667.779,41.9372,36.9285,0,-0.526904,-3.24046,-0.158071,-105.64,-86.25,-195.549,-8.464,-0.799937,2.85965,-13.4146,88.2012,4.20732
667.789,39.7702,36.1857,0,1.64298,7.84129,-0.229922,-24.0549,-77.0427,-159.695,-8.50711,-0.790356,2.86444,-13.75,88.4756,3.41463
667.799,39.4539,35.4146,0,9.92257,8.10954,-8.78733,51.4329,92.0732,-54.6646,-8.59333,-0.752036,2.65129,-13.2622,87.5305,2.59146
667.809,39.2413,34.5847,0,4.0859,10.4567,-3.03449,76.7378,101.921,15.2744,-8.64602,-0.689766,2.29922,-11.4024,87.7134,2.19512
667.819,39.4428,33.8142,0,8.06403,8.5598,-4.68705,44.9085,126.921,12.2866,-8.63405,-0.546064,2.4046,-10.0305,87.8049,2.40854
667.83,39.0037,33.1067,0,4.78285,6.39949,0.766406,-4.20732,9.08537,-39.3598,-8.6556,-0.481399,2.54351,-9.78659,86.3719,2.56098
667.839,37.8114,32.353,0,3.95418,6.37794,1.35079,-58.4146,-60.7012,-106.951,-8.64123,-0.476609,2.23455,-9.84756,85.7927,2.56098
667.849,36.4524,31.6692,0,3.35063,4.19607,-0.359253,-93.6281,-79.6341,-140.305,-8.6077,-0.447869,2.38783,-10.0915,85.061,2.53049
667.859,35.1881,30.9188,0,1.38672,-11.9703,-0.483794,-137.012,82.3171,-408.476,-8.6077,-0.419128,2.00942,-9.05488,84.6951,1.79878
667.869,27.5343,30.19,0,-7.70957,-2.46687,5.2427,-74.0549,-161.89,-489.299,-8.60052,-0.364043,1.97589,-8.9939,85.6098,1.58537
667.879,24.8776,29.5518,0,9.4747,0.64905,-10.4734,110.213,68.7805,-390.579,-8.6077,-0.325723,2.22497,-9.5122,84.939,1.15854
667.889,24.1717,28.8216,0,8.31072,8.25324,-12.6553,449.177,208.933,-113.506,-8.58854,-0.330513,1.75315,-9.5122,85.3963,1.15854
667.899,24.8346,28.1093,0,2.72314,15.3593,-5.11097,544.39,303.933,96.4634,-8.63644,-0.481399,1.71962,-10.2439,86.5244,0.0609756
667.909,25.1123,27.4362,0,11.2901,16.9112,-9.91778,262.165,354.482,10.1829,-8.67237,-0.488584,1.76992,-9.48171,85.5488,-1.0061
667.919,24.1828,26.8087,0,5.07744,19.1314,2.9818,-60.9756,211.372,-73.9329,-8.66758,-0.522114,1.84417,-9.84756,85.0305,-2.07317
667.929,23.9594,26.1607,0,7.65209,18.3674,4.12183,-157.561,-0.457317,-19.6037,-8.77535,-0.689766,1.6837,-9.39024,84.1159,-2.95732
667.94,24.2543,25.5669,0,10.871,13.084,0.198787,-101.28,-122.652,-2.07317,-8.77775,-0.687371,1.79866,-9.78659,83.4146,-3.59756
667.949,24.1426,24.9634,0,6.03784,7.12758,-0.311353,-16.0366,-125.122,-44.0854,-8.76577,-0.740061,1.66214,-9.81707,82.8963,-3.84146
667.959,24.0288,24.3668,0,4.93853,4.7613,-1.79387,48.628,-53.5976,-56.311,-8.73464,-0.790356,1.5879,-9.93902,82.1951,-3.71951
667.969,23.6001,23.7296,0,3.07042,5.23791,-1.54718,84.5427,-2.0122,-56.7073,-8.76817,-0.725691,1.33882,-9.20732,81.6768,-2.92683
667.979,23.0194,23.0766,0,2.82852,6.86892,-1.84896,91.0061,24.6646,-56.7683,-8.78254,-0.720901,1.17835,-8.41463,81.6159,-2.07317
667.989,22.4138,22.4822,0,2.68721,8.38017,-2.32077,73.9329,14.3293,-51.0976,-8.83523,-0.768801,1.31487,-7.40854,80.4268,-1.37195
667.999,21.7805,21.917,0,2.42855,9.54415,-2.85965,51.6768,-17.6829,-48.0183,-8.91905,-0.799937,1.3484,-6.67683,78.3232,-0.0609756
668.01,21.242,21.3364,0,2.98898,10.4064,-3.33387,27.5,-40.2744,-43.2012,-9.11065,-0.955613,1.22146,-5.03049,76.6463,0.701219
668.019,20.7855,20.7808,0,3.35063,11.2398,-3.44643,2.83537,-45.8232,-37.1037,-9.23759,-1.03944,1.24541,-4.26829,75.3354,0.579268
668.029,20.3041,20.2439,0,3.06802,11.5967,-2.85486,-30.6402,-44.4512,-36.9512,-9.36932,-1.19272,1.24781,-2.65244,73.2317,0.121951
668.039,19.9431,19.6765,0,3.32908,10.3848,-2.9315,-45.4878,-22.9573,-31.6768,-9.43877,-1.24541,1.03704,-0.823171,71.9207,-1.18902
668.049,19.6676,19.12,0,3.4632,8.80649,-2.5483,-43.3232,-4.81707,-31.2195,-9.45314,-1.19751,0.989143,0.853659,70.3049,-2.22561
668.059,19.4023,18.5364,0,3.50631,7.89638,-1.81063,-35.7317,10.122,-35.7927,-9.51062,-1.1544,0.785566,2.7439,68.811,-2.86585
668.069,19.2368,17.964,0,4.41163,7.75028,-1.81063,-23.1707,15.7317,-37.8049,-9.5226,-1.03704,0.735271,4.48171,67.3476,-3.41463
668.079,19.014,17.4102,0,4.11943,7.64251,-1.53521,-11.128,10.2744,-41.2805,-9.51302,-0.886157,0.716111,6.18902,65.7622,-3.47561
668.089,18.8324,16.843,0,4.43318,7.66646,-2.01421,7.0122,14.3293,-41.0366,-9.5705,-0.807122,0.570015,7.31707,64.6951,-3.56707
668.1,18.5258,16.2828,0,3.67875,8.11912,-2.28964,20.6707,10.3659,-42.5915,-9.59684,-0.65863,0.505349,7.86585,64.2378,-3.78049
668.109,18.0158,15.7364,0,2.44052,9.63756,-1.7771,17.561,8.93293,-43.2317,-9.70222,-0.60594,0.474214,7.95732,63.3537,-3.87195
668.119,17.513,15.1763,0,2.34472,9.78366,-2.4501,12.1037,8.81098,-42.0427,-9.8124,-0.483794,0.325723,7.2561,62.622,-4.5122
668.13,16.9713,14.5881,0,1.89446,9.58726,-2.76864,9.81707,8.29268,-42.3476,-10.0208,-0.481399,0.110171,6.15854,61.9817,-5.45732
668.139,16.4673,13.982,0,2.03577,9.71659,-2.68242,4.96951,10.1829,-40.9451,-10.2555,-0.483794,-0.0742456,5.60976,61.1585,-6.40244
668.149,16.011,13.3923,0,2.12199,9.69743,-2.17468,-3.17073,7.86585,-38.1402,-10.3177,-0.419128,-0.110171,4.05488,60.2744,-6.58537
668.159,15.6288,12.816,0,2.43813,9.31902,-2.1651,-7.22561,9.08537,-36.25,-10.4327,-0.471819,-0.158071,2.40854,58.8415,-7.0122
668.169,15.2796,12.2342,0,2.46687,8.95019,-2.27048,-5.12195,3.14024,-35.1829,-10.5956,-0.510139,-0.294587,0.945122,57.1646,-7.19512
668.179,14.9617,11.6727,0,2.57704,9.01725,-2.36628,-3.65854,0.0914634,-33.811,-10.6962,-0.519719,-0.313748,-0.426829,53.9329,-7.0122
668.189,14.6369,11.0667,0,2.4501,9.31423,-2.04535,-6.52439,-3.68902,-32.6829,-10.7225,-0.677791,-0.632285,-0.701219,51.2805,-6.15854
668.199,14.3736,10.4727,0,2.65608,9.41482,-1.92799,-10.3354,-0.457317,-29.1463,-10.7512,-0.826282,-0.694556,-0.487805,48.2012,-5.2439
668.21,14.1656,9.8926,0,2.67524,9.27591,-1.59508,-13.2012,-3.14024,-24.7256,-10.6459,-0.950823,-0.735271,0.457317,45.3963,-4.11585
668.219,14.0469,9.30733,0,2.94827,8.67955,-1.6813,-10.0915,-2.13415,-21.4939,-10.4591,-1.22625,-0.855022,1.70732,43.0793,-3.04878
668.229,13.9612,8.71058,0,2.96264,8.47597,-1.68849,-2.04268,-1.46341,-19.3902,-10.2722,-1.30289,-1.00112,2.59146,39.5732,-1.55488
668.239,13.9106,8.07297,0,3.15185,8.76338,-1.9232,2.59146,3.32317,-17.0427,-10.2219,-1.2981,-1.29331,3.62805,36.311,0.0304878
668.249,13.8308,7.45341,0,2.79259,9.09149,-1.73399,0.792683,2.86585,-14.6037,-10.1525,-1.27415,-1.31966,6.21951,33.6585,0.914634
668.259,13.7746,6.83483,0,2.692,9.06994,-1.73878,1.0061,1.03659,-11.25,-10.1237,-1.31726,-1.42504,7.43902,31.2805,1.98171
668.269,13.7344,6.23057,0,2.68482,9.11544,-1.89207,2.46951,0.213415,-9.48171,-10.0878,-1.25978,-1.46815,8.2622,29.0549,2.59146
668.279,13.6706,5.65156,0,2.37586,9.36453,-1.92799,2.62195,-2.34756,-7.53049,-10.1142,-1.08973,-1.46815,9.29878,26.6159,2.80488
668.289,13.6011,5.08841,0,2.14354,9.50344,-1.99026,1.09756,-6.18902,-5.12195,-10.0663,-0.831072,-1.49449,9.48171,25.1524,3.44512
668.299,13.5364,4.57097,0,2.00703,9.38369,-1.99745,-0.0609756,-11.8902,-3.23171,-10.1094,-0.677791,-1.3963,9.26829,23.1402,4.08537
668.309,13.4754,4.03638,0,1.97829,9.38848,-2.13157,-1.34146,-15.9756,-1.70732,-10.1549,-0.55804,-1.57592,8.56707,21.7073,4.84756
668.319,13.4269,3.52753,0,2.07888,9.59924,-2.16031,-3.04878,-16.4634,-1.25,-10.1716,-0.495769,-1.55916,7.71341,19.9085,6.06707
668.329,13.4698,3.03715,0,2.44531,9.44356,-2.08606,-6.52439,-15.8232,-0.396341,-10.2052,-0.488584,-1.57353,6.67683,18.2927,6.31098
668.339,13.5842,2.57505,0,2.52196,9.19448,-1.84896,-7.80488,-17.4695,-0.0609756,-10.21,-0.519719,-1.53521,5.60976,16.3415,6.76829
668.349,13.7283,2.10775,0,2.66326,9.11305,-1.77471,-5.27439,-11.7683,-0.304878,-10.107,-0.55325,-1.62861,4.66463,14.4817,6.89024
668.359,13.8239,1.65801,0,2.6465,9.11784,-1.92081,-2.68293,-9.78659,-0.731707,-9.98244,-0.59636,-1.61424,3.75,12.8354,7.40854
668.369,13.8684,1.21464,0,2.54112,9.32621,-1.87291,-3.84146,-7.83537,-0.823171,-9.95131,-0.682581,-1.66214,2.89634,11.2195,7.9878
668.38,13.9107,0.776229,0,2.54591,9.26394,-1.95434,-5.42683,-6.61585,-1.0061,-9.89383,-0.766406,-1.71004,2.62195,10,8.20122
668.389,13.9645,0.327019,0,2.61297,9.16334,-1.77471,-3.68902,-4.81707,-1.25,-9.85311,-0.835862,-1.82979,2.95732,9.11585,8.20122
668.399,14.0121,-0.1067,0,2.61536,9.18969,-1.74836,-1.85976,-2.10366,-1.34146,-9.82197,-0.852627,-1.83458,2.80488,7.95732,8.5061
668.409,14.0095,-0.537736,0,2.37586,9.31184,-1.86812,-0.426829,-1.7378,-1.25,-9.8603,-0.881367,-1.90644,3.41463,7.10366,9.08537
668.419,13.9742,-0.959052,0,2.21539,9.41243,-2.09804,-1.18902,-1.0061,-1.12805,-9.84353,-0.953218,-1.93278,3.78049,6.03659,9.48171
668.43,13.9206,-1.37104,0,2.15073,9.50104,-2.12678,-3.78049,-2.13415,-0.548781,-9.83395,-0.931663,-1.96152,3.65854,5.67073,9.72561
668.439,13.884,-1.76658,0,2.2106,9.36692,-2.02379,-4.96951,-3.78049,-0.0914634,-9.91778,-0.881367,-1.9711,3.84146,5,10.0915
668.449,13.9297,-2.15617,0,2.4525,9.2831,-2.05014,-3.65854,-4.02439,0.457317,-9.9561,-0.811912,-2.00942,3.93293,4.32927,10.2744
668.46,13.9851,-2.51195,0,2.47406,9.14897,-2.07648,-2.95732,-5.33537,0.823171,-9.99921,-0.761616,-1.9232,3.90244,3.90244,10.4878
668.469,14.0396,-2.86759,0,2.49561,9.11305,-1.95673,-1.34146,-7.31707,1.79878,-10.0136,-0.704136,-1.96392,4.02439,3.38415,9.84756
668.479,14.0974,-3.2431,0,2.53393,9.13939,-1.99026,-0.640244,-7.04268,2.19512,-9.98005,-0.713716,-2.05493,3.59756,2.80488,9.2378
668.489,14.1655,-3.63509,0,2.62494,9.1825,-2.1651,-1.31098,-6.4939,2.59146,-9.90341,-0.752036,-2.03816,3.32317,2.07317,8.71951
668.499,14.2314,-4.04781,0,2.63452,9.2807,-2.08127,-3.04878,-6.0061,2.95732,-9.8579,-0.740061,-1.98068,3.81098,1.46341,8.17073
668.51,14.2937,-4.54759,0,2.62973,9.38129,-2.00942,-3.90244,-4.96951,3.2622,-9.78605,-0.742456,-1.99984,3.29268,0.853659,8.23171
668.519,14.3524,-5.07987,0,2.60818,9.31663,-1.99745,-4.20732,-4.72561,2.9878,-9.77647,-0.809517,-2.03337,3.35366,0.609756,8.07927
668.529,14.4066,-5.62662,0,2.58662,9.2328,-2.00224,-3.71951,-3.5061,2.40854,-9.71659,-0.792751,-2.06211,2.62195,0.518293,8.29268
668.539,14.4594,-6.25864,0,2.5483,9.14179,-1.98068,-2.65244,-3.71951,2.62195,-9.69264,-0.752036,-2.10043,1.82927,0.182927,8.14024
668.549,14.5283,-6.8514,0,2.66566,9.09868,-2.08127,-1.52439,-3.14024,1.7378,-9.7621,-0.725691,-2.10043,1.85976,-0.0304878,8.07927
668.559,14.6157,-7.26192,0,2.7399,9.15856,-2.05014,0.27439,-1.43293,0.884146,-9.75252,-0.656235,-2.07888,1.70732,-0.487805,8.20122
668.569,14.6634,-7.58394,0,2.56746,9.1825,-2.02619,1.85976,-0.792683,0.731707,-9.78126,-0.63947,-2.10043,1.12805,-0.853659,8.07927
668.579,14.6689,-7.93201,0,2.44771,9.30944,-2.03337,2.22561,-0.853659,0.213415,-9.78605,-0.62031,-2.22976,0.701219,-0.823171,8.10976
668.59,14.6888,-8.23157,0,2.49082,9.2807,-2.22018,1.12805,-0.731707,0.335366,-9.87706,-0.641865,-2.22976,-0.213415,-0.884146,8.01829
668.599,14.7167,-8.44447,0,2.52435,9.29028,-2.1148,-0.152439,-0.823171,0.243902,-9.88904,-0.61073,-2.19144,-0.518293,-1.67683,7.89634
668.609,14.8143,-8.62671,0,2.69679,9.12023,-2.01421,-0.792683,-0.97561,0.243902,-9.9058,-0.60594,-2.22976,-0.853659,-2.7439,7.13415
668.62,14.9474,-8.79765,0,2.84528,9.05557,-2.01182,0.548781,0.27439,-0.335366,-9.9082,-0.608335,-2.25371,-0.914634,-3.65854,6.67683
668.629,15.0222,-8.96029,0,2.75906,9.13221,-1.96631,1.79878,0.701219,-0.609756,-9.86509,-0.61552,-2.24413,-1.21951,-3.96341,6.12805
668.639,15.079,-9.12364,0,2.74709,9.20646,-1.96871,1.98171,1.03659,-0.701219,-9.79803,-0.64426,-2.26808,-1.61585,-4.42073,5.79268
668.649,15.1499,-9.26735,0,2.76385,9.19209,-2.17707,1.43293,1.28049,-0.426829,-9.74294,-0.718506,-2.19623,-1.40244,-4.39024,5.57927
668.659,15.1972,-9.39327,0,2.68961,9.20885,-2.16749,0.0304878,2.07317,-0.426829,-9.74773,-0.701741,-2.14594,-2.31707,-4.54268,5.94512
668.67,15.2382,-9.52888,0,2.67524,9.24238,-2.05732,-1.37195,1.37195,-0.365854,-9.73575,-0.718506,-2.2106,-2.37805,-4.72561,5.97561
668.679,15.2713,-9.67482,0,2.6465,9.17053,-1.96152,-1.43293,1.46341,-0.548781,-9.73815,-0.735271,-2.28245,-2.59146,-4.81707,5.97561
668.689,15.3018,-9.7984,0,2.59381,9.137,-1.9232,-0.792683,0.670732,-0.213415,-9.69743,-0.66821,-2.19863,-2.56098,-4.7561,5.82317
668.699,15.3364,-9.90866,0,2.66326,9.11305,-2.0693,-0.27439,1.58537,-0.701219,-9.70941,-0.6251,-2.16749,-2.77439,-5.2439,5.79268
668.709,15.3381,-10.0102,0,2.60818,9.23999,-2.05732,-1.09756,1.21951,-1.21951,-9.65193,-0.63468,-2.13396,-3.5061,-5,5.82317
668.719,15.3219,-10.1061,0,2.52675,9.29028,-2.02858,-1.34146,1.28049,-1.28049,-9.64235,-0.656235,-2.12438,-3.75,-4.90854,5.45732
668.729,15.3093,-10.2015,0,2.58662,9.30465,-2.10283,-1.82927,1.76829,-1.85976,-9.60403,-0.65863,-2.11959,-3.9939,-3.90244,5.4878
668.739,15.3056,-10.3071,0,2.65847,9.2304,-2.03098,-2.04268,2.2561,-2.2561,-9.60163,-0.771196,-2.1651,-4.20732,-3.2622,5.51829
668.749,15.296,-10.4162,0,2.63931,9.11305,-2.03816,-0.792683,2.83537,-2.92683,-9.63995,-0.811912,-2.18905,-3.96341,-2.7439,5.09146
668.759,15.2898,-10.5378,0,2.71116,9.10347,-2.01661,0.670732,3.47561,-3.44512,-9.65432,-0.835862,-2.24413,-3.35366,-2.40854,4.84756
668.77,15.2821,-10.6262,0,2.68961,9.17053,-2.1148,0.670732,3.75,-3.14024,-9.70701,-0.835862,-2.1627,-3.17073,-2.71341,4.72561
668.779,15.2769,-10.6964,0,2.68482,9.17772,-2.09564,-0.213415,3.20122,-2.86585,-9.75012,-0.819097,-2.1172,-2.77439,-2.77439,4.93902
668.789,15.2801,-10.7686,0,2.73511,9.20166,-2.09804,-0.518293,3.20122,-2.65244,-9.75491,-0.811912,-2.13636,-2.77439,-2.68293,4.66463
668.799,15.2606,-10.8352,0,2.5483,9.26873,-1.93039,-0.579268,1.34146,-2.22561,-9.7597,-0.833467,-2.1148,-2.59146,-2.28659,4.35976
668.809,15.2517,-10.9064,0,2.5986,9.1849,-2.14354,-0.365854,1.4939,-2.2561,-9.74533,-0.843047,-2.13875,-2.92683,-2.22561,4.5122
668.82,15.2402,-10.9802,0,2.5962,9.24238,-2.18186,-1.34146,1.4939,-2.2561,-9.70701,-0.843047,-2.14833,-2.62195,-2.16463,4.17683
668.829,15.2387,-11.0405,0,2.62015,9.23999,-2.15312,-2.65244,0.97561,-1.76829,-9.68785,-0.814307,-2.11241,-2.65244,-2.34756,4.2378
668.839,15.2634,-11.1094,0,2.82133,9.09149,-2.14594,-1.40244,1.76829,-2.37805,-9.7142,-0.737666,-2.1627,-2.56098,-2.34756,3.81098
668.849,15.2769,-11.1775,0,2.85965,9.11065,-2.09085,0.457317,2.89634,-3.35366,-9.73575,-0.775986,-2.17228,-2.68293,-2.19512,4.08537
668.859,15.2694,-11.2704,0,2.72793,9.17772,-2.0693,1.40244,3.62805,-3.53659,-9.69743,-0.819097,-2.23216,-2.77439,-1.64634,4.08537
668.869,15.2588,-11.3519,0,2.66805,9.21364,-2.0693,1.40244,3.78049,-3.04878,-9.73096,-0.886157,-2.16989,-2.86585,-1.0061,3.62805
668.88,15.2414,-11.4764,0,2.60818,9.19448,-2.03098,1.03659,2.86585,-3.07927,-9.68067,-0.888552,-2.22737,-2.46951,-0.548781,3.59756
668.889,15.2418,-11.5959,0,2.70637,9.17053,-2.01421,0.823171,2.65244,-2.7439,-9.63516,-0.912502,-2.20102,-2.37805,-0.396341,4.05488
668.9,15.2425,-11.7026,0,2.68961,9.16813,-1.98308,0.914634,2.89634,-2.56098,-9.6184,-0.876577,-2.16031,-2.0122,0.152439,4.17683
668.91,15.2259,-11.7804,0,2.59141,9.22322,-1.92799,1.0061,2.86585,-2.7439,-9.6639,-0.838257,-2.13396,-1.95122,-0.0609756,4.2378
668.919,15.2047,-11.7923,0,2.56986,9.26394,-2.0693,0.823171,2.9878,-2.80488,-9.69264,-0.749641,-2.04774,-1.85976,-0.487805,4.17683
668.929,15.1759,-11.8238,0,2.52435,9.26873,-2.05014,-0.213415,2.7439,-3.01829,-9.70462,-0.747246,-2.10522,-2.46951,-0.762195,4.45122
668.939,15.1507,-11.8099,0,2.56746,9.29268,-2.0693,-0.335366,2.46951,-3.17073,-9.72378,-0.708926,-2.00224,-2.86585,-0.731707,4.45122
668.949,15.1313,-11.8178,0,2.61536,9.24478,-2.11959,-1.06707,2.86585,-3.38415,-9.7118,-0.694556,-2.05014,-2.7439,-0.670732,4.60366
668.959,15.1151,-11.8384,0,2.63213,9.19687,-2.09085,-0.548781,2.59146,-3.47561,-9.7142,-0.720901,-2.07169,-3.10976,-0.213415,4.66463
668.969,15.1011,-11.8494,0,2.61536,9.1849,-2.05253,-0.365854,2.53049,-3.17073,-9.65911,-0.799937,-2.05014,-2.83537,-0.609756,4.57317
668.98,15.0829,-11.8591,0,2.56746,9.2328,-1.92799,-0.518293,1.85976,-2.86585,-9.68306,-0.866997,-2.04774,-2.89634,0.0304878,4.69512
668.989,15.0696,-11.878,0,2.57225,9.23759,-1.98068,-1.0061,1.82927,-2.5,-9.69025,-0.914897,-2.0693,-2.56098,-0.152439,4.78659
668.999,15.0533,-11.9067,0,2.54351,9.2328,-2.00942,-0.823171,2.31707,-2.46951,-9.7142,-0.905317,-2.10283,-2.62195,0.365854,4.78659
669.009,15.0267,-11.9521,0,2.48124,9.34297,-1.91123,-0.579268,1.25,-2.28659,-9.71659,-0.881367,-2.14833,-2.5,0.457317,5.03049
669.02,15.0029,-11.972,0,2.46208,9.26154,-1.95913,-1.03659,1.25,-2.07317,-9.74054,-0.857417,-2.10522,-2.2561,0.426829,5.36585
669.029,14.9748,-12.0016,0,2.43813,9.19927,-1.94476,-0.396341,1.46341,-2.5,-9.72138,-0.843047,-2.13875,-2.0122,0.853659,5.4878
669.039,14.9536,-11.9944,0,2.47406,9.19448,-1.93997,0.335366,1.64634,-2.37805,-9.72617,-0.783171,-2.05253,-1.92073,0.335366,5.51829
669.049,14.9279,-11.9917,0,2.48603,9.24957,-2.0214,0.548781,2.04268,-2.83537,-9.73096,-0.809517,-2.06211,-2.04268,0.213415,5.91463
669.059,14.9018,-11.9739,0,2.48843,9.2352,-2.08367,0.701219,2.43902,-3.01829,-9.73815,-0.819097,-2.03337,-2.13415,0.243902,5.91463
669.069,14.8679,-11.9562,0,2.42855,9.23759,-1.99026,1.40244,2.89634,-3.07927,-9.71659,-0.816702,-2.02379,-1.89024,-0.396341,5.85366
669.079,14.837,-11.9578,0,2.43573,9.20646,-2.04535,0.823171,2.37805,-3.04878,-9.76689,-0.821492,-2.07169,-2.04268,-0.27439,5.60976
669.089,14.8175,-11.9704,0,2.54591,9.22322,-2.09085,1.06707,2.56098,-3.29268,-9.77886,-0.902922,-2.10522,-2.22561,-0.792683,5.51829
669.099,14.7932,-11.9725,0,2.54112,9.21125,-2.01661,1.0061,2.62195,-3.78049,-9.75491,-0.943638,-2.07409,-1.89024,-0.731707,5.21341
669.109,14.7695,-12.0021,0,2.53154,9.2304,-2.05253,1.64634,3.14024,-3.59756,-9.72138,-0.972378,-2.13875,-1.79878,-0.792683,5.4878
669.12,14.7433,-12.0127,0,2.49082,9.25436,-2.11959,1.46341,2.95732,-3.32317,-9.69264,-0.984353,-2.09325,-1.46341,-1.21951,5.60976
669.129,14.7141,-12.0043,0,2.44531,9.2807,-2.13396,1.15854,3.75,-3.01829,-9.72138,-0.974773,-2.04295,-1.15854,-1.43293,6.21951
669.139,14.6745,-11.982,0,2.32556,9.32621,-2.03577,0.457317,1.79878,-2.31707,-9.73815,-0.955613,-1.99745,-0.823171,-1.58537,6.21951
669.149,14.6525,-11.9564,0,2.4046,9.28789,-2.13157,-0.213415,1.37195,-1.82927,-9.76928,-0.941243,-1.98308,-1.34146,-1.85976,6.61585
669.159,14.6182,-11.9489,0,2.33514,9.29268,-2.15073,-1.98171,0.304878,-2.13415,-9.78126,-0.936453,-2.04535,-0.914634,-1.95122,6.25
669.169,14.5913,-11.9319,0,2.36149,9.26154,-1.98547,-2.7439,-0.457317,-1.92073,-9.78605,-0.924478,-2.00703,-1.06707,-2.31707,6.28049
669.179,14.5692,-11.9149,0,2.39741,9.25196,-1.92799,-2.13415,-0.213415,-2.10366,-9.81479,-0.914897,-2.00703,-1.61585,-2.65244,5.85366
669.189,14.5602,-11.8948,0,2.56746,9.31184,-2.14115,-0.670732,1.25,-2.83537,-9.75491,-0.953218,-1.97589,-1.52439,-3.35366,5.70122
669.2,14.5369,-11.8968,0,2.5028,9.36213,-2.23695,-0.731707,2.89634,-3.2622,-9.74533,-1.02028,-2.06451,-1.46341,-3.41463,5.15244
669.213,14.5062,-11.9142,0,2.4022,9.27352,-2.19623,-1.4939,2.34756,-3.10976,-9.7142,-1.02267,-2.12199,-1.31098,-3.14024,5.39634
669.219,14.493,-11.9329,0,2.48603,9.13221,-2.25132,-0.426829,2.13415,-2.9878,-9.6639,-1.03465,-2.1172,-0.945122,-2.83537,5.91463
669.229,14.4824,-11.9474,0,2.47645,9.07712,-2.18665,0.152439,1.55488,-2.86585,-9.67827,-1.07297,-2.10762,-0.487805,-2.9878,6.21951
669.239,14.4805,-11.9406,0,2.5004,9.17532,-2.22018,-0.121951,1.46341,-2.13415,-9.69264,-1.08494,-2.02619,-0.335366,-2.62195,6.55488
669.249,14.4786,-11.9377,0,2.46687,9.25915,-2.23455,-0.27439,0.945122,-1.4939,-9.71659,-1.06578,-2.04535,-0.121951,-3.04878,6.82927
669.259,14.4521,-11.9286,0,2.34712,9.40285,-2.18186,-1.34146,0.304878,-1.34146,-9.69983,-1.04423,-2.01661,0.0609756,-2.65244,6.76829
669.269,14.4315,-11.9177,0,2.36867,9.3789,-2.11959,-2.43902,-0.213415,-1.25,-9.70462,-1.02986,-2.00942,0.121951,-2.62195,6.76829
669.279,14.4255,-11.9189,0,2.4046,9.25915,-2.00942,-2.04268,-0.548781,-1.06707,-9.69264,-0.986748,-2.05253,0.0609756,-2.53049,6.95122
669.289,14.4217,-11.9194,0,2.40699,9.22562,-1.94715,-2.04268,-1.15854,-1.09756,-9.69264,-0.948428,-2.05014,0.182927,-2.71341,6.92073
669.299,14.4139,-11.9169,0,2.39981,9.21364,-1.99505,-2.04268,-1.76829,-1.37195,-9.68067,-0.917292,-2.03577,0.0914634,-3.01829,7.0122
669.309,14.4198,-11.9018,0,2.46448,9.24717,-2.11241,-2.19512,-1.03659,-1.12805,-9.7118,-0.919688,-1.99026,0.304878,-3.01829,7.31707
669.32,14.4201,-11.8907,0,2.46208,9.30465,-2.1172,-2.19512,-0.426829,-1.25,-9.73096,-0.914897,-2.00703,0.609756,-3.23171,7.04268
669.329,14.4169,-11.8914,0,2.41897,9.28789,-2.12678,-2.62195,-0.487805,-0.97561,-9.67588,-0.960403,-2.04295,0.518293,-2.92683,7.04268
669.339,14.416,-11.9029,0,2.42615,9.26633,-2.1651,-2.9878,-1.15854,-1.0061,-9.69264,-0.967588,-2.09085,0.670732,-2.95732,6.98171
669.349,14.4282,-11.9087,0,2.4549,9.20166,-2.09564,-2.83537,-1.15854,-0.823171,-9.70222,-1.0562,-2.07169,0.731707,-3.07927,6.92073
669.359,14.4295,-11.9137,0,2.39981,9.18011,-2.04295,-2.95732,-1.92073,-0.792683,-9.73336,-1.07536,-2.07648,0.853659,-3.10976,6.7378
669.369,14.4253,-11.9027,0,2.38783,9.25915,-2.13396,-2.56098,-1.85976,-0.579268,-9.70701,-1.03704,-2.00463,1.55488,-3.20122,6.89024
669.379,14.4094,-11.8857,0,2.36628,9.3765,-2.16749,-2.86585,-2.04268,-0.548781,-9.69025,-0.996328,-1.97589,1.34146,-2.92683,6.92073
669.389,14.3892,-11.874,0,2.3543,9.38369,-2.04535,-4.20732,-2.62195,-0.914634,-9.69743,-0.962798,-1.99505,1.82927,-3.17073,7.31707
669.399,14.3518,-11.8817,0,2.25371,9.31423,-1.99026,-5.27439,-3.47561,-0.914634,-9.66869,-0.972378,-2.0669,1.64634,-2.89634,7.56098
669.409,14.3314,-11.8804,0,2.3064,9.2304,-1.98547,-5.06098,-3.68902,-0.762195,-9.65432,-0.948428,-2.02858,1.76829,-2.92683,7.86585
669.42,14.3181,-11.88,0,2.34712,9.24957,-2.04295,-5.06098,-3.56707,-1.03659,-9.65911,-0.926873,-2.03337,1.64634,-3.44512,7.83537
669.429,14.2961,-11.8631,0,2.31359,9.27112,-2.06211,-5.45732,-3.71951,-1.28049,-9.73336,-0.907712,-1.97829,1.31098,-3.71951,7.71341
669.439,14.2712,-11.8382,0,2.28245,9.19687,-2.09325,-6.09756,-4.05488,-1.43293,-9.75731,-0.941243,-1.94476,0.945122,-3.96341,7.34756
669.449,14.2521,-11.8067,0,2.3064,9.20406,-2.07648,-5.03049,-3.59756,-1.31098,-9.83395,-1.00112,-1.9256,0.396341,-4.39024,6.82927
669.459,14.2272,-11.782,0,2.32317,9.32381,-2.20102,-4.81707,-4.05488,-1.85976,-9.86988,-1.06818,-1.95673,-0.365854,-4.78659,6.21951
669.469,14.2065,-11.7816,0,2.34233,9.3765,-2.30401,-6.43293,-3.71951,-1.55488,-9.87227,-1.12566,-2.06211,-0.213415,-5.33537,5.4878
669.479,14.2019,-11.7912,0,2.4501,9.29028,-2.33514,-7.65244,-3.9939,-1.95122,-9.80521,-1.16637,-2.09325,-0.0304878,-5.54878,4.93902
669.49,14.2112,-11.8065,0,2.51238,9.1825,-2.3064,-8.07927,-4.81707,-1.95122,-9.7142,-1.24541,-2.10043,0.304878,-5.30488,5.06098
669.5,14.2238,-11.8138,0,2.50998,9.12502,-2.29203,-7.53049,-4.81707,-1.89024,-9.63277,-1.2502,-2.05014,0.914634,-5.2439,5.33537
669.509,14.2519,-11.8414,0,2.51238,9.15856,-2.24892,-8.23171,-5.42683,-1.06707,-9.53936,-1.29092,-2.11959,1.12805,-4.96951,5.85366
669.519,14.2935,-11.8505,0,2.54351,9.15137,-2.20581,-9.14634,-6.52439,-0.823171,-9.57289,-1.31008,-2.05014,1.28049,-4.45122,6.52439
669.529,14.3418,-11.8586,0,2.53393,9.15616,-2.18665,-10.0305,-7.04268,-0.518293,-9.62079,-1.32924,-2.05732,1.0061,-4.20732,5.91463
669.539,14.4139,-11.8847,0,2.62015,9.23999,-2.21779,-10.7927,-7.95732,-0.243902,-9.58487,-1.30768,-2.12678,1.25,-3.81098,5.60976
669.549,14.4618,-11.9163,0,2.58183,9.34297,-2.20821,-12.2866,-8.14024,-0.213415,-9.6184,-1.25739,-2.1627,1.43293,-3.84146,5.30488
669.559,14.5279,-11.9498,0,2.68961,9.34537,-2.18905,-14.0244,-8.44512,-0.365854,-9.57768,-1.24541,-2.1627,1.85976,-3.2622,4.57317
669.569,14.6353,-11.9813,0,2.84768,9.21125,-2.12199,-14.4207,-7.7439,-0.518293,-9.48907,-1.18553,-2.13875,1.52439,-3.20122,4.5122
669.579,14.7327,-12.0155,0,2.90755,9.12742,-2.08127,-13.75,-6.52439,-0.97561,-9.44596,-1.14482,-2.13396,1.37195,-2.5,4.90854
669.589,14.8388,-12.0379,0,3.00096,9.10107,-2.15312,-14.0854,-6.34146,-1.09756,-9.43638,-1.19272,-2.08606,1.12805,-2.0122,5.33537
669.599,15.0139,-12.0648,0,2.99617,9.00288,-2.15791,-14.8171,-6.15854,-0.365854,-9.49625,-1.22386,-2.1148,0.304878,-1.76829,5.45732
669.61,15.2655,-12.0668,0,3.07042,8.95019,-2.18186,-15.1524,-5.30488,0,-9.59445,-1.25739,-2.05732,-0.0304878,-1.18902,5.45732
669.62,15.4863,-12.0752,0,3.25962,8.95019,-2.17707,-15.2744,-4.63415,0.487805,-9.63277,-1.28373,-2.08367,-0.304878,-1.06707,5.45732
669.63,15.6628,-12.0635,0,3.24765,8.88792,-2.11959,-15.5183,-4.84756,1.0061,-9.64714,-1.26218,-2.03098,-0.731707,-1.15854,5.51829
669.64,15.7968,-12.0257,0,3.26441,8.92863,-2.09325,-14.7561,-5.30488,1.98171,-9.65911,-1.23823,-1.96152,-1.21951,-1.03659,5.60976
669.65,15.9304,-11.9916,0,3.3674,8.99569,-2.03816,-14.7256,-5.39634,3.2622,-9.62558,-1.23104,-1.95194,-1.67683,-1.25,5.91463
669.659,16.0693,-11.9652,0,3.365,8.98611,-1.98787,-14.9695,-5.97561,4.60366,-9.62558,-1.15679,-1.9735,-2.34756,-1.06707,6.28049
669.669,16.2223,-11.9171,0,3.34345,8.95977,-1.96392,-15.4573,-7.46951,6.61585,-9.65193,-1.07776,-1.90883,-3.2622,-1.18902,6.21951
669.68,16.4067,-11.8844,0,3.40093,8.83762,-1.96392,-15.1524,-8.62805,8.96341,-9.64953,-1.09452,-1.93997,-3.84146,-1.31098,6.46341
669.69,16.6318,-11.8743,0,3.60211,8.72506,-1.84177,-13.9939,-9.05488,10.6707,-9.64953,-1.06099,-1.99984,-4.08537,-1.4939,6.58537
669.699,16.8988,-11.8542,0,3.79371,8.62686,-1.74836,-12.2866,-7.31707,12.7439,-9.68067,-1.09931,-1.9735,-4.05488,-1.43293,6.31098
669.709,17.2035,-11.8362,0,3.87993,8.56219,-1.7292,-10.9756,-7.7439,15.8232,-9.66869,-1.11368,-1.97829,-4.57317,-1.18902,6.28049
669.72,17.5308,-11.8122,0,3.8009,8.43286,-1.7316,-10.6098,-7.7439,18.9939,-9.68306,-1.17116,-1.95673,-4.39024,-1.34146,6.0061
669.73,17.9262,-11.7617,0,4.04758,8.45202,-1.9232,-6.89024,-11.1585,23.9024,-9.67109,-1.12805,-1.86093,-4.17683,-1.55488,5.54878
669.74,18.3354,-11.717,0,4.1338,8.57656,-1.64538,-7.92683,-8.62805,25.8232,-9.67588,-1.11368,-1.87051,-4.69512,-1.58537,5.57927
669.749,18.784,-11.6846,0,4.25355,8.52627,-1.69088,-6.89024,-6.34146,29.0854,-9.60642,-1.00112,-1.88728,-4.32927,-1.7378,6.09756
669.759,19.2641,-11.6487,0,4.24397,8.39454,-1.62622,-4.48171,-6.61585,32.5915,-9.62319,-0.926873,-1.87291,-4.35976,-1.7378,6.58537
669.769,19.7796,-11.6204,0,4.36133,8.36101,-1.61185,-3.59756,-5.12195,35.7012,-9.64474,-0.869392,-1.89207,-4.35976,-1.89024,7.68293
669.779,20.3188,-11.5646,0,4.33499,8.19815,-1.65735,-2.56098,-4.35976,38.5061,-9.65911,-0.811912,-1.7795,-3.75,-2.34756,8.20122
669.789,20.9195,-11.511,0,4.49785,8.0329,-1.76513,-1.82927,-2.71341,43.0793,-9.69025,-0.708926,-1.76752,-3.04878,-3.04878,9.26829
669.799,21.5971,-11.4517,0,4.71579,7.73352,-1.70286,-1.67683,-1.15854,47.8049,-9.70462,-0.670605,-1.7292,-2.53049,-3.56707,10.122
669.81,22.3652,-11.379,0,5.03912,7.57066,-1.6334,-2.22561,0.518293,53.7805,-9.66151,-0.60115,-1.64777,-1.98171,-4.48171,10.7012
669.819,23.2069,-11.3006,0,5.27623,7.42935,-1.58071,-1.79878,1.21951,59.3293,-9.65911,-0.505349,-1.60706,-1.25,-5.30488,11.4329
669.829,24.1634,-11.2197,0,5.73128,7.24972,-1.70046,-1.12805,5.06098,66.7378,-9.64235,-0.459844,-1.57832,-1.31098,-6.58537,12.1037
669.839,25.1954,-11.1445,0,6.04024,7.3096,-1.54718,2.77439,8.2622,73.8719,-9.69504,-0.462239,-1.59748,-1.03659,-7.13415,12.378
669.849,26.277,-11.0831,0,6.42823,7.52036,-1.80584,11.5549,18.4146,79.0854,-9.79084,-0.538879,-1.66214,-1.52439,-7.65244,12.622
669.859,27.3238,-11.0356,0,6.67492,8.20773,-1.83458,20,24.3598,80.6098,-9.88664,-0.584385,-1.7292,-1.67683,-7.46951,12.1037
669.869,28.3041,-11.0114,0,6.50966,9.27591,-1.8777,25.3659,21.7378,84.2378,-9.97286,-0.63468,-1.84177,-1.82927,-7.62195,12.1341
669.879,29.3063,-11.0155,0,6.50008,9.49146,-2.20102,20.8841,25.5793,89.8171,-10.0495,-0.60594,-1.98068,-1.25,-7.34756,12.5305
669.89,30.3337,-11.0347,0,6.65097,9.40764,-2.40699,17.3171,22.2561,92.6829,-10.0926,-0.500559,-2.05972,-0.640244,-6.98171,13.7805
669.899,31.3083,-11.0692,0,6.47853,9.8555,-1.65256,14.4817,22.2561,93.3537,-10.0591,-0.385598,-2.12678,0.304878,-6.64634,15.0915
669.909,32.315,-11.0986,0,6.54798,9.7118,-1.31247,12.0427,22.8354,97.2561,-10.0663,-0.232317,-2.11001,0.640244,-6.0061,16.6768
669.919,33.3764,-11.125,0,6.60307,8.79691,-1.50407,15.6402,21.4634,98.9634,-10.0543,-0.174836,-2.10043,1.0061,-7.07317,18.0183
669.93,34.4385,-11.171,0,6.35878,8.47358,-1.32205,20.8232,30.2439,101.22,-10.0303,-0.0287402,-2.19144,1.34146,-7.56098,18.2317
669.939,35.5823,-11.212,0,6.51685,8.27,-1.66214,22.1951,36.8902,108.963,-9.99681,0.0694556,-2.16989,1.55488,-8.41463,18.689
669.949,36.767,-11.2608,0,6.39949,8.22929,-1.52323,23.872,36.311,116.22,-9.94652,0.143701,-2.20342,0.914634,-9.32927,18.3537
669.959,37.9642,-11.3324,0,6.94316,8.95258,-1.96152,29.1159,42.8049,120.061,-9.84593,0.251477,-2.29443,0.548781,-9.78659,17.9878
669.969,39.0752,-11.4309,0,6.74438,9.39087,-1.81063,33.1402,37.1037,118.018,-9.7597,0.261057,-2.40939,-0.182927,-9.84756,17.2561
669.979,40.0192,-11.538,0,6.30369,9.87467,-1.94955,35.3659,29.8476,109.634,-9.72617,0.213157,-2.45729,-0.365854,-8.81098,17.5305
669.99,40.7976,-11.6686,0,5.54208,9.45554,-1.88967,38.689,27.622,99.1159,-9.72617,0.229922,-2.58183,-0.701219,-6.98171,17.0122
669.999,41.3877,-11.7781,0,4.93614,9.27352,-1.91123,46.311,27.561,86.2805,-9.78605,0.225132,-2.51956,-1.37195,-5.2439,16.6159
670.009,41.895,-11.878,0,4.99122,9.15137,-1.98787,45.8537,35.5183,77.8354,-9.88185,0.237107,-2.51477,-1.92073,-4.32927,15.9451
670.02,42.2586,-11.9373,0,4.55772,8.92624,-1.82979,51.25,34.7866,67.4085,-9.92496,0.311353,-2.36149,-2.59146,-4.81707,15.7317
670.029,42.6208,-11.9948,0,4.98164,8.8951,-1.86572,50.061,35.3049,63.5061,-10.0064,0.366438,-2.38544,-3.29268,-5.51829,15.6098
670.039,42.9611,-12.0504,0,4.85949,8.8951,-1.55676,43.3232,25.0915,63.2317,-10.1261,0.289797,-2.41657,-4.20732,-5.60976,15.3963
670.049,43.3434,-12.1214,0,5.26186,8.87594,-1.73639,35.9756,26.8598,64.1159,-10.2052,0.225132,-2.51956,-4.66463,-5.94512,15.4878
670.059,43.6851,-12.154,0,5.20438,8.66758,-1.57592,31.4939,21.4329,60.0915,-10.2172,0.167651,-2.3543,-4.81707,-6.67683,15.0305
670.069,44.0073,-12.163,0,5.22833,8.24845,-1.41306,27.4085,20.8841,55.9756,-10.1214,0.134121,-2.22976,-4.81707,-8.62805,15.2439
670.079,44.356,-12.1623,0,5.30736,7.44612,-1.46096,27.0732,20.9756,52.9878,-10.0375,0.179626,-2.16989,-5.45732,-10.6402,15.6098
670.09,44.6845,-12.1655,0,5.2403,7.24493,-1.56634,32.0427,16.5854,50.8232,-9.81719,0.232317,-2.14115,-5.91463,-12.2866,15.3659
670.099,44.9656,-12.1551,0,5.39598,7.57545,-1.52563,34.1768,17.622,47.5,-9.67348,0.325723,-2.05014,-7.43902,-12.9878,14.6951
670.109,45.1867,-12.1503,0,5.39358,7.7407,-1.45138,30.0915,19.3902,43.1707,-9.53936,0.404758,-2.04535,-8.84146,-13.3841,14.8171
670.119,45.3829,-12.1325,0,5.36963,7.49881,-1.52563,25.7012,19.878,39.5732,-9.51062,0.416733,-1.98068,-10.5183,-13.1402,14.2988
670.129,45.569,-12.111,0,5.33371,6.99825,-1.65017,22.9268,17.6524,35.4573,-9.48667,0.438289,-1.95673,-12.2256,-12.9268,13.689
670.139,45.7341,-12.0996,0,5.32173,6.70845,-1.65735,24.7866,12.1951,31.4329,-9.41003,0.498164,-1.98068,-13.811,-12.9573,12.9573
670.149,45.8872,-12.1215,0,5.578,6.59828,-1.61185,25.3049,9.39024,26.8902,-9.43398,0.555645,-2.12917,-14.2378,-13.0488,12.2866
670.159,46.0499,-12.1358,0,5.90851,6.59349,-1.47533,20.9146,7.0122,24.8171,-9.40524,0.519719,-2.09325,-15.3354,-13.0183,11.4329
670.169,46.2115,-12.16,0,6.08335,6.36596,-1.37235,19.5122,7.34756,21.2805,-9.46991,0.524509,-2.15312,-15.6098,-12.8659,11.0061
670.179,46.3665,-12.2022,0,6.21747,6.04503,-1.17595,21.0366,9.54268,16.6463,-9.51062,0.464634,-2.24653,-16.311,-13.0793,10.061
670.19,46.4944,-12.2329,0,6.1552,5.78876,-1.04902,26.5244,15.5793,12.2561,-9.59445,0.416733,-2.22258,-17.2866,-12.9268,9.17683
670.199,46.5601,-12.2592,0,6.0091,5.7241,-1.05381,34.6646,21.25,6.92073,-9.59445,0.395178,-2.20821,-17.7744,-13.2317,8.14024
670.209,46.5196,-12.3031,0,5.82229,6.11448,-0.866997,36.3415,26.7988,3.41463,-9.62558,0.399968,-2.29922,-18.75,-13.4146,7.31707
670.219,46.319,-12.347,0,5.76481,6.09772,-1.4897,37.3171,26.6159,-1.28049,-9.57289,0.364043,-2.29443,-19.7866,-13.5061,6.67683
670.229,46.1789,-12.4032,0,5.60435,6.23663,-1.41546,31.2805,29.0854,-3.62805,-9.57289,0.373623,-2.3567,-20.3659,-12.8963,6.25
670.239,46.0214,-12.4551,0,5.31694,6.03305,-1.8777,28.3232,24.2073,-6.09756,-9.5705,0.443079,-2.34712,-21.0061,-13.2012,5.88415
670.249,45.7102,-12.5194,0,5.06068,6.47613,-1.78668,27.1341,27.7744,-15.3963,-9.49625,0.435894,-2.39262,-21.5854,-12.8659,5.33537
670.259,45.257,-12.5746,0,4.63676,6.36357,-2.0214,29.1768,18.7195,-26.5854,-9.47709,0.469424,-2.35909,-22.0122,-12.6524,4.72561
670.269,44.504,-12.6233,0,5.29539,7.45809,-1.91841,55.1524,0.0914634,-56.6768,-9.43159,0.450264,-2.32796,-22.5915,-12.4695,3.96341
670.279,43.837,-12.6691,0,6.50008,7.77902,-0.0718506,36.0366,4.60366,-58.628,-9.41003,0.455054,-2.31838,-22.9878,-12.4085,3.96341
670.289,43.3881,-12.6984,0,6.61265,6.02587,0.129331,14.939,30.7317,-53.5976,-9.39806,0.486189,-2.25132,-23.75,-12.2256,2.92683
670.299,43.1053,-12.7101,0,5.90612,4.77806,0.134121,17.7439,40.7622,-44.4512,-9.3789,0.524509,-2.17468,-24.939,-12.5305,2.65244
670.309,42.9632,-12.7506,0,5.83187,4.47629,-0.60594,13.0793,41.0671,-33.6585,-9.33579,0.57241,-2.29203,-26.0061,-12.5305,1.82927
670.32,42.7645,-12.7986,0,5.64027,5.09181,-1.39869,13.7195,34.878,-30.3963,-9.31184,0.661025,-2.32556,-27.4085,-12.0427,1.46341
670.329,42.4729,-12.8836,0,5.88696,5.95402,-1.30529,12.3171,28.2622,-33.6585,-9.23999,0.773591,-2.47645,-28.9634,-11.5244,1.31098
670.339,42.0629,-12.9773,0,5.59237,6.23184,-1.66933,18.3841,12.8659,-40.6707,-9.2328,0.898132,-2.52675,-30.6707,-11.2805,1.21951
670.349,41.5678,-13.0747,0,5.55645,6.37554,-2.05253,23.8415,0.945122,-48.5061,-9.2807,0.898132,-2.57225,-31.4939,-11.0671,0.762195
670.359,41.0249,-13.1745,0,5.6738,6.50008,-1.84656,22.0732,-12.7744,-54.4817,-9.30226,0.859812,-2.60578,-31.5854,-10.8841,0.396341
670.369,40.5955,-13.2559,0,6.251,6.2055,-1.84656,7.65244,-15.3354,-52.3476,-9.36932,0.780776,-2.56028,-31.4634,-10.8537,-0.304878
670.379,40.2647,-13.3093,0,6.64857,5.53729,-1.59508,1.7378,-23.3232,-53.3841,-9.41003,0.713716,-2.46208,-30.9451,-11.6768,-1.55488
670.389,40.0404,-13.3309,0,7.15392,4.94811,-1.2023,5.51829,-25.5793,-53.628,-9.44356,0.622705,-2.33993,-30.5488,-12.561,-2.31707
670.4,39.9076,-13.3539,0,7.86764,4.88105,-1.19511,9.7561,-23.7805,-50.5793,-9.48667,0.58199,-2.36149,-29.939,-13.2927,-3.29268
670.409,39.7998,-13.3707,0,8.76098,5.39837,-1.28852,12.7744,-25.5488,-48.6585,-9.48428,0.512534,-2.33754,-28.9024,-13.5976,-4.11585
670.419,39.6848,-13.3856,0,9.49386,6.16957,-1.26457,9.39024,-28.1402,-46.7988,-9.51781,0.471819,-2.33993,-28.3537,-13.5366,-4.39024
670.43,39.6556,-13.4135,0,9.72138,5.99713,-1.30289,4.05488,-28.1098,-41.0366,-9.5226,0.387993,-2.4022,-27.8354,-13.5366,-4.48171
670.439,39.7094,-13.3933,0,10.2148,6.12885,-1.67172,3.35366,-19.3293,-34.0549,-9.69025,0.306563,-2.23216,-26.6159,-13.7195,-3.9939
670.449,39.8067,-13.3253,0,10.186,6.38991,-1.76034,5.67073,-10.3049,-27.1951,-10.1333,0.134121,-2.10762,-24.5732,-14.6951,-3.23171
670.459,39.8885,-13.1512,0,10.083,7.55868,-1.9232,18.5976,-3.71951,-18.872,-10.8231,-0.167651,-1.71723,-21.5244,-17.7134,-2.34756
670.469,39.8654,-12.9249,0,9.49625,9.47949,-2.11001,34.7561,1.21951,-12.8963,-11.7548,-0.744851,-1.55676,-14.9695,-21.7683,-1.15854
670.479,39.7151,-12.6408,0,9.0388,11.5823,-1.96152,41.2195,-5.09146,-11.4634,-12.6792,-1.28852,-1.30529,-6.95122,-25.4268,0.762195
670.489,39.62,-12.3763,0,10.6722,13.46,-1.7316,11.189,-1.46341,-7.04268,-13.1367,-1.78908,-1.40348,2.37805,-27.7744,4.20732
670.499,39.8267,-12.0997,0,13.0936,11.3404,-1.5855,-34.5732,-9.81707,1.7378,-12.9834,-1.6837,-1.25978,9.2378,-30.2439,7.40854
670.509,40.3971,-11.8711,0,14.3031,7.18506,-2.18665,-24.2378,-5.45732,10.2439,-12.2026,-1.76513,-1.38672,16.9817,-32.0427,11.9207
670.519,41.1621,-11.6555,0,14.4659,4.82596,-2.56986,21.6768,14.9695,14.4817,-11.7691,-1.2981,-1.36037,23.5061,-33.5061,16.372
670.53,41.9439,-11.4492,0,13.5702,4.33738,-3.20454,64.8781,53.0183,16.2805,-11.1129,-1.23104,-1.28613,31.7073,-31.311,18.3232
670.539,42.4969,-11.2583,0,10.2004,5.49417,-3.56858,103.11,90.8841,16.128,-10.562,-0.467029,-1.25499,35.4573,-30.0305,19.2073
670.549,42.6202,-11.0521,0,6.02108,7.3575,-3.18059,117.287,100.579,19.1159,-10.3393,0.356858,-1.12087,34.8171,-27.2561,19.4817
670.559,42.1724,-10.826,0,2.08606,8.14067,-2.70637,107.805,97.0122,11.9512,-10.2986,1.06099,-0.984353,30.9146,-23.9939,17.9573
670.569,41.2097,-10.5376,0,-0.239502,7.64969,-2.09804,99.0549,95.1219,-6.25,-10.4447,1.71004,-0.665815,23.2317,-21.0976,15.5488
670.58,39.6997,-10.1907,0,-2.25132,6.6821,-1.2023,96.1585,71.7378,-31.9817,-10.586,2.05972,-0.344883,12.7744,-17.8963,12.2866
670.589,37.7811,-9.78851,0,-3.20214,5.64506,-0.59636,101.098,22.8659,-54.4207,-10.689,2.13396,-0.0215552,2.10366,-16.2195,8.96341
670.599,35.779,-9.37864,0,-3.19975,5.21396,-0.955613,117.409,-36.8902,-62.8354,-10.7297,1.9232,0.0910107,-5.73171,-15.3354,6.31098
670.609,34.398,-8.98134,0,-0.241897,5.68338,-3.13987,139.97,-67.5305,-62.9268,-10.8949,1.09213,0.110171,-10.3963,-15.122,4.2378
670.619,33.6763,-8.5551,0,3.30513,7.45091,-6.43542,151.402,-67.1341,-52.2561,-10.9117,0.0287402,0.325723,-11.4024,-14.6341,2.13415
670.629,33.1722,-8.01158,0,5.92049,9.74533,-9.12502,128.079,-9.08537,-46.5549,-10.7129,-1.1544,0.955613,-9.54268,-14.6646,0.182927
670.639,32.471,-7.5982,0,5.47501,10.7081,-8.74182,85.061,26.372,-59.1159,-10.5141,-1.55676,0.433499,-8.10976,-13.4146,-1.09756
670.65,31.6551,-7.14158,0,4.32062,11.8625,-7.52994,69.7561,17.9268,-57.8354,-10.2267,-1.79866,0.692161,-3.84146,-12.2561,-1.43293
670.659,30.9288,-6.62982,0,3.44643,14.042,-5.75763,49.8171,3.32317,-37.6524,-9.69504,-1.88488,0.972378,-0.823171,-10.8841,-0.823171
670.669,30.3584,-6.1013,0,3.06323,13.5199,-3.53505,-22.378,-21.7073,-21.128,-9.20406,-1.67412,1.07536,2.5,-10.3963,0.152439
670.68,29.9074,-5.5051,0,3.39374,9.83395,-3.02012,-79.1768,-34.6951,-22.9268,-8.77775,-1.38672,1.37474,5.15244,-10.2134,1.7378
670.689,29.7409,-4.88231,0,4.11225,5.92528,-3.63085,-62.2866,-29.8476,-26.8902,-8.61249,-1.1041,1.54479,5.82317,-9.66463,2.92683
670.699,29.6731,-4.27154,0,4.20326,4.18649,-3.51589,-27.3476,-22.561,-38.2927,-8.63165,-0.838257,1.59748,5.64024,-8.81098,3.35366
670.709,29.5199,-3.70846,0,4.00208,4.12662,-3.753,9.93902,-30.0305,-45.122,-8.75859,-0.682581,1.52563,4.96951,-7.80488,2.95732
670.719,29.2183,-3.23046,0,4.25355,5.5301,-4.69903,32.4695,-43.3232,-47.1951,-8.95498,-0.61073,1.29092,4.48171,-5.94512,1.82927
670.73,28.8082,-2.81614,0,4.50503,7.43175,-5.44148,26.25,-47.8963,-45.9451,-9.10826,-0.665815,1.0107,4.69512,-3.68902,0.579268
670.74,28.402,-2.32497,0,4.50743,8.69632,-5.54208,-0.670732,-50.8537,-38.5671,-9.29028,-0.792751,0.759221,5.91463,-1.55488,-0.335366
670.749,28.1147,-1.79402,0,4.6631,8.38496,-5.53489,-24.0854,-49.6037,-30.7012,-9.48667,-1.04423,0.641865,7.46951,0.762195,-1.4939
670.759,27.9278,-1.58934,0,4.77327,7.74549,-5.11337,-31.2195,-47.8963,-26.2805,-9.59445,-1.16637,0.445474,10.3963,2.62195,-2.53049
670.769,27.8291,-1.45808,0,5.20677,7.73591,-4.38768,-35.9146,-41.5244,-22.3476,-9.74294,-1.37953,0.287402,13.5976,4.66463,-3.5061
670.78,27.7597,-1.33107,0,4.71819,7.07489,-3.78413,-35.9146,-35.4268,-19.0549,-9.79563,-1.37714,0.301772,16.7988,6.0061,-4.11585
670.789,27.6966,-1.19012,0,4.61281,6.61265,-3.69552,-22.4085,-34.3902,-21.0061,-9.80521,-1.26697,0.385598,18.9024,6.58537,-4.45122
670.799,27.5878,-1.06786,0,4.44516,6.57672,-3.64282,-11.4939,-34.2073,-24.0854,-9.79323,-1.152,0.330513,20.1829,7.71341,-4.57317
670.809,27.4098,-0.967817,0,4.1817,6.86173,-3.76258,-1.03659,-41.0671,-25.8537,-9.78844,-1.03944,0.256267,20.5183,8.53659,-4.54268
670.82,27.1861,-0.860197,0,4.04998,7.27607,-4.28469,2.62195,-48.75,-26.2805,-9.68785,-0.986748,0.304167,20.8232,9.84756,-4.45122
670.83,26.9283,-0.75191,0,3.86077,7.63772,-4.87865,-0.304878,-53.2012,-25.5488,-9.55373,-0.931663,0.320933,19.4512,10.0915,-4.48171
670.839,26.6468,-0.651231,0,3.6548,7.9347,-5.10618,-4.93902,-54.6341,-24.2378,-9.46991,-0.843047,0.304167,18.3841,10,-4.39024
670.849,26.3599,-0.563868,0,3.64282,8.22929,-5.07026,-8.71951,-55.3049,-23.628,-9.39087,-0.785566,0.263452,16.4939,10.5488,-3.96341
670.859,26.0708,-0.494653,0,3.76497,8.49034,-5.09181,-14.939,-52.0122,-24.5122,-9.4268,-0.744851,0.203577,15.0305,10.7622,-3.68902
670.869,25.7644,-0.46583,0,3.67157,8.67476,-4.88344,-21.9512,-49.6341,-24.878,-9.51062,-0.730481,0.0479004,13.5671,11.189,-2.9878
670.88,25.4581,-0.465014,0,3.77455,8.59812,-4.67268,-29.2378,-48.0183,-27.0427,-9.57768,-0.728086,-0.0646655,12.8659,11.7988,-2.59146
670.89,25.1633,-0.471509,0,3.9446,8.2724,-4.29187,-33.4756,-45,-30.1524,-9.60642,-0.692161,-0.0958008,11.8598,11.6463,-1.70732
670.899,24.8458,-0.490172,0,3.68114,7.92991,-4.05477,-33.7195,-46.5244,-31.8598,-9.58487,-0.673001,-0.148491,11.4939,11.1585,-1.15854
670.909,24.5381,-0.519312,0,3.83682,7.60419,-3.9901,-29.2988,-43.3232,-35.3354,-9.49146,-0.706531,-0.193997,11.0671,11.128,-0.365854
670.919,24.2241,-0.551136,0,3.57816,7.44372,-4.03082,-24.5732,-48.3232,-34.3598,-9.41482,-0.744851,-0.208367,11.6159,11.128,-0.182927
670.93,23.9281,-0.607597,0,3.54942,7.48683,-4.33978,-23.0183,-56.5244,-32.5305,-9.2807,-0.783171,-0.311353,12.4695,11.189,0.121951
670.94,23.6373,-0.694268,0,3.54223,7.48444,-4.45474,-21.4329,-62.0427,-32.5305,-9.20646,-0.785566,-0.440684,13.689,11.25,0.213415
670.949,23.3912,-0.786625,0,3.83203,7.92991,-4.66789,-22.622,-63.2622,-29.5122,-9.1849,-0.804727,-0.476609,15.3049,11.311,0.213415
670.96,23.1805,-0.861932,0,4.05477,8.24605,-4.69903,-31.0671,-60,-27.1951,-9.22083,-0.862207,-0.423918,16.4939,11.311,0.304878
670.969,22.9877,-0.943701,0,4.15775,8.35862,-4.61041,-39.939,-57.378,-26.3415,-9.21364,-0.924478,-0.462239,17.378,11.0366,0.365854
670.979,22.8235,-1.04844,0,4.25834,8.15265,-4.3757,-46.0671,-52.3476,-26.128,-9.19927,-1.00351,-0.56762,18.4146,11.6768,0.548781
670.989,22.6476,-1.15682,0,4.09548,7.77184,-4.21763,-44.8171,-47.9573,-28.0793,-9.11784,-1.02507,-0.593965,19.2378,11.7073,0.792683
670.999,22.4658,-1.27976,0,4.06195,7.83411,-3.98292,-45.7012,-45.6098,-28.2622,-9.09868,-1.06099,-0.66821,19.5427,12.3476,1.58537
671.009,22.2333,-1.41616,0,3.77216,7.86285,-3.5087,-47.9878,-43.0488,-30.1829,-9.04599,-1.1065,-0.737666,20.4878,12.561,1.98171
671.019,22.0035,-1.57286,0,3.81766,7.87482,-3.56379,-48.75,-39.2378,-30.8537,-8.96695,-1.08015,-0.833467,21.189,12.7134,2.83537
671.029,21.7625,-1.7566,0,3.66198,7.68562,-3.54942,-45.5488,-38.5061,-31.6768,-8.95498,-1.01788,-0.965193,22.6524,12.3171,3.65854
671.039,21.4877,-1.94864,0,3.44164,7.79339,-3.47278,-44.1768,-37.5305,-32.2561,-8.93342,-1.10889,-1.02507,23.2927,12.1646,4.29878
671.049,21.2106,-2.15053,0,3.44643,8.0305,-3.49433,-42.5,-36.6159,-31.8293,-8.9909,-1.06099,-1.10171,24.2073,12.2866,5.15244
671.059,20.8786,-2.38423,0,3.06562,8.16462,-3.53265,-40.5793,-35.9756,-32.5915,-8.97893,-1.16398,-1.25978,25.9451,13.2012,5.54878
671.069,20.523,-2.64085,0,2.97222,8.34425,-3.66917,-37.5915,-36.189,-33.689,-8.9909,-1.19032,-1.39151,27.3476,13.4451,5.64024
671.079,20.0907,-2.91821,0,2.58902,8.48316,-3.73384,-36.9817,-39.6951,-36.8598,-8.96935,-1.14003,-1.51365,28.3841,13.3537,6.76829
671.09,19.6582,-3.23861,0,2.70877,8.7993,-4.04519,-36.6159,-37.2561,-38.0488,-8.8472,-1.14242,-1.71004,29.7561,14.0244,7.9878
671.099,19.1847,-3.56048,0,2.38783,8.95977,-3.99489,-39.9695,-42.8354,-38.6585,-8.79212,-1.14482,-1.75555,31.4329,15.122,9.60366
671.109,18.7195,-3.83368,0,2.61057,9.36932,-3.97573,-46.1585,-39.5732,-40.0915,-8.73224,-1.15919,-1.59987,32.8354,15.5793,11.2805
671.119,18.2336,-4.05753,0,2.51477,9.2807,-3.80329,-51.5854,-38.0183,-42.3171,-8.61489,-1.08973,-1.42743,33.75,15.8537,12.9878
671.129,17.7547,-4.27455,0,2.53633,9.11784,-3.55421,-53.7805,-41.5244,-43.3841,-8.53824,-0.905317,-1.42264,33.689,15.7622,15.4878
671.14,17.2771,-4.50798,0,2.55549,8.89271,-3.23328,-53.4146,-45.9146,-45.2134,-8.59093,-0.866997,-1.52802,33.4756,16.9207,18.0488
671.149,16.8071,-4.7709,0,2.55788,8.35622,-3.30752,-50.2134,-48.3841,-47.439,-8.72745,-0.835862,-1.70525,32.7439,18.5366,19.1463
671.159,16.373,-5.04365,0,2.66566,7.87243,-3.26202,-46.4939,-53.5061,-48.1707,-8.87594,-1.00112,-1.81542,32.0427,20.0305,19.0854
671.17,15.9714,-5.24442,0,2.72793,7.5491,-3.19735,-44.3598,-57.8049,-48.1098,-9.31663,-0.878972,-1.64538,30.4268,19.7866,17.378
671.179,15.6901,-5.44492,0,3.33147,7.57784,-3.31471,-43.689,-64.8476,-44.5427,-9.62079,-0.773591,-1.73399,29.6341,18.3232,15.5488
671.189,15.5143,-5.68555,0,3.67635,7.4078,-3.46799,-42.0732,-65.4268,-39.7866,-9.83635,-0.773591,-1.99026,29.8171,16.7378,13.6585
671.199,15.4287,-5.93231,0,3.98531,7.25212,-3.58055,-45.2134,-61.7073,-35.8232,-9.98723,-0.792751,-2.09325,30.9756,16.0061,12.561
671.209,15.3859,-6.1949,0,4.02124,7.40301,-3.55421,-43.4146,-67.2561,-31.0671,-10.1429,-0.914897,-2.24653,32.5305,15.122,12.3171
671.219,15.3815,-6.36668,0,4.12183,7.48204,-3.69791,-38.0793,-62.9573,-27.9268,-10.3728,-1.0083,-1.91602,35,13.5976,12.439
671.229,15.3265,-6.41874,0,3.99968,7.97781,-4.03082,-28.9939,-62.6524,-28.5671,-10.8542,-1.0107,-1.45378,35.1524,10.6707,13.2622
671.239,15.2205,-6.17198,0,3.89191,8.78014,-4.39726,-23.7195,-60.5793,-28.3232,-11.9272,-0.917292,-0.0359253,33.5671,4.96951,13.1098
671.25,15.1256,-5.70637,0,4.39007,9.40285,-5.13732,-21.5549,-53.9939,-29.6951,-13.357,-0.474214,1.2981,26.6768,-3.59756,11.25
671.259,15.088,-5.3305,0,4.98164,9.60163,-5.60674,-19.3598,-48.9024,-28.9329,-14.8779,0.287402,0.972378,17.5,-9.29878,7.77439
671.269,15.1238,-5.10934,0,5.82229,10.0615,-5.384,-21.7683,-35.5183,-26.8902,-15.1365,1.40588,0.0550855,8.78049,-9.2378,4.7561
671.279,15.1164,-4.91791,0,5.2427,10.1693,-4.426,-26.9207,-34.6341,-25.5488,-14.8994,2.14833,-0.0790356,-0.0304878,-5.7622,2.59146
671.289,15.1526,-4.7958,0,4.99122,9.93933,-3.96615,-22.7744,-31.6463,-19.878,-14.2599,1.78668,-0.462239,-6.28049,-4.35976,0.426829
671.299,15.3606,-4.76974,0,5.31934,9.57289,-3.88233,-12.2561,-21.7683,-7.16463,-13.254,0.371228,-0.962798,-8.41463,-3.07927,-4.32927
671.309,15.5992,-4.75907,0,5.11576,10.8518,-3.65001,-8.90244,-16.3415,4.14634,-12.526,-1.09213,-0.989143,-7.89634,-1.34146,-9.96951
671.319,15.9126,-4.70809,0,4.86428,11.2422,-3.59732,-15.8537,-16.311,16.0671,-12.2409,-2.13636,-0.759221,-3.87195,-0.853659,-14.6646
671.33,16.3605,-4.66962,0,4.79722,10.5549,-3.22849,-16.8598,-15.9146,28.2927,-12.0517,-2.74709,-0.809517,2.83537,-0.213415,-15.1524
671.339,16.9367,-4.53429,0,5.0511,10.6986,-2.3567,-19.0549,-14.9695,40.6098,-12.126,-2.90755,-0.285007,8.2622,-1.67683,-12.378
671.349,17.5942,-4.47585,0,4.85949,10.9021,-1.51126,-26.4329,-22.7744,52.622,-11.5823,-2.68003,-0.6251,14.4817,2.13415,-6.64634
671.359,18.3413,-4.33774,0,4.74214,10.8878,-0.656235,-42.2561,-35.0915,64.1159,-11.1392,-2.18905,-0.234712,18.6585,1.79878,0.182927
671.369,19.1713,-4.1007,0,4.44516,10.2124,-0.217947,-56.8902,-47.2866,74.1159,-10.1453,-1.70046,0.105381,21.25,1.7378,6.12805
671.38,20.1012,-3.75876,0,4.35175,9.46512,0.210762,-64.6037,-54.4207,83.6281,-9.48667,-1.1041,0.347278,22.2561,1.85976,10.5488
671.389,21.1305,-3.03244,0,3.96855,8.51669,0.474214,-64.4207,-52.561,95.061,-8.87834,-0.486189,0.59636,23.2012,1.21951,13.628
671.399,22.3327,-0.639126,0,4.05716,7.60179,0.385598,-56.7683,-45.5183,108.476,-8.51429,-0.0910107,0.816702,24.878,-0.0609756,15.3354
671.409,23.6921,0.110879,0,4.05477,6.47613,0.126936,-44.1463,-32.8659,118.872,-8.19097,0.366438,1.14003,25.2134,-2.0122,16.25
671.419,25.1541,0.547411,0,4.39965,6.32046,-0.474214,-33.2012,-15.6402,126.433,-7.97542,0.656235,1.18314,24.0244,-3.53659,16.128
671.429,26.6266,0.931514,0,4.4715,6.59828,-1.0083,-22.7134,0.792683,131.951,-7.87961,0.795146,1.31726,22.622,-4.96951,15.2134
671.439,28.0185,1.31318,0,4.19368,7.03417,-1.11129,-14.0854,8.71951,133.506,-7.83411,0.859812,1.39869,20.1829,-5.57927,12.8049
671.449,29.3727,1.67886,0,4.24397,7.49162,-1.81303,-6.21951,17.2561,135.091,-7.81016,0.866997,1.37953,16.2195,-5.36585,9.60366
671.459,30.6326,2.01623,0,3.87035,7.97302,-1.96871,-1.25,22.7439,135.671,-7.86764,0.900527,1.24062,11.8902,-4.26829,6.46341
671.469,31.8032,2.47264,0,3.48954,8.25803,-2.03816,1.37195,25.8537,135.213,-7.95865,0.912502,1.18074,7.43902,-2.62195,3.44512
671.48,32.8496,3.0336,0,3.68354,8.7514,-2.15791,14.1768,20.7012,125.091,-8.20055,0.931663,0.888552,3.10976,-1.12805,1.09756
671.489,33.7889,3.34977,0,3.69791,9.50104,-1.86812,27.6829,15.7927,119.482,-8.56219,0.984353,0.874182,-0.487805,1.18902,-0.213415
671.499,34.7054,3.40714,0,3.98292,9.65672,-2.32796,34.3598,8.23171,116.738,-9.02922,1.05141,0.684976,-4.72561,2.10366,-0.213415
671.509,35.5896,3.34221,0,4.46192,9.4268,-3.26441,47.2256,5.64024,109.36,-9.49625,0.941243,0.308958,-8.53659,3.96341,0.762195
671.519,36.4208,3.24356,0,4.8571,10.0998,-3.66677,60.5793,7.46951,105.03,-9.92975,0.792751,0.155676,-10.8537,5.30488,2.37805
671.529,37.2136,3.08074,0,4.92416,10.2028,-3.9446,65.2744,10.3963,102.652,-10.2674,0.479004,-0.148491,-12.4695,6.61585,4.29878
671.54,37.9784,2.88915,0,5.14929,10.3345,-4.30385,68.2927,21.0671,99.939,-10.3872,0.249082,-0.311353,-13.628,7.65244,6.18902
671.549,38.6566,2.67468,0,4.58407,9.97526,-3.77695,67.3171,24.4817,96.3415,-10.2651,-0.0143701,-0.445474,-14.1159,7.9878,8.10976
671.559,39.3419,2.46585,0,4.85231,9.00767,-4.10746,69.6646,41.0061,91.0366,-10.1333,-0.174836,-0.452659,-13.2927,7.46951,9.26829
671.569,40.0189,2.26405,0,4.86189,8.74901,-4.06674,79.1463,58.0793,90.061,-9.99442,-0.270637,-0.450264,-12.439,5.97561,10.3049
671.579,40.6645,2.05756,0,4.79004,9.0412,-3.81048,84.939,73.3537,90.5793,-9.88425,-0.318538,-0.493374,-11.4024,4.90854,10.8232
671.589,41.3142,1.85664,0,4.98643,9.26394,-3.82485,86.7683,82.0732,91.5549,-9.82677,-0.282612,-0.488584,-11.0976,4.14634,10.6098
671.599,41.9397,1.62608,0,5.18522,9.44835,-3.91346,85.8537,84.9085,89.4512,-9.76689,-0.143701,-0.579595,-11.2805,2.95732,10.122
671.609,42.542,1.40483,0,5.27383,9.51541,-4.05237,80.2134,85.6707,87.8659,-9.79084,0.00239502,-0.526904,-11.7378,2.37805,9.78659
671.62,43.1057,1.17173,0,4.94811,9.50823,-3.78174,72.5,78.811,88.2317,-9.77168,0.110171,-0.517324,-12.2561,1.82927,10.122
671.629,43.6484,0.841052,0,4.84512,9.4747,-3.59732,65.8537,70.7622,88.0793,-9.74294,0.201182,-0.546064,-13.2927,0.823171,10.122
671.64,44.115,0.433629,0,4.36612,9.30705,-3.21412,61.7988,61.9512,85.3963,-9.70701,0.234712,-0.512534,-15.2134,0.243902,10.3354
671.649,44.5092,0.037077,0,4.05477,9.11305,-2.85247,65.5793,55.9146,81.311,-9.67109,0.277822,-0.637075,-16.7988,-0.457317,10.5793
671.659,44.849,-0.465161,0,3.96855,8.82086,-2.70398,67.5305,53.2012,76.0671,-9.63277,0.318538,-0.665815,-19.2988,0.0304878,10.6402
671.669,45.1153,-0.821146,0,3.72186,8.35862,-2.64889,69.3293,52.1341,69.7256,-9.56571,0.404758,-0.62989,-21.7683,-0.335366,10.5488
671.679,45.34,-1.31156,0,3.63085,7.91314,-2.60818,69.7866,56.0671,64.6951,-9.56092,0.445474,-0.819097,-24.6646,-0.152439,9.87805
671.69,45.4768,-1.88478,0,3.30992,7.82932,-2.44052,69.0549,54.9695,59.7256,-9.5202,0.502954,-0.953218,-26.7073,-0.0609756,9.45122
671.699,45.5342,-2.29241,0,3.11832,7.94667,-2.39981,66.4329,53.2317,54.939,-9.46512,0.486189,-1.06339,-28.6585,0.701219,8.65854
671.709,45.5253,-2.63907,0,3.01293,7.64251,-2.58423,64.1159,49.3902,48.1098,-9.39327,0.471819,-1.23104,-30.3354,1.37195,7.9878
671.719,45.407,-2.95582,0,2.61057,7.45809,-2.72553,60.7317,38.6585,41.4634,-9.32381,0.387993,-1.28852,-32.3476,1.70732,6.82927
671.729,45.1632,-3.25708,0,2.28485,7.56108,-3.03209,57.1646,24.4512,33.4756,-9.34776,0.282612,-1.31726,-33.1098,1.7378,5.4878
671.74,44.8589,-3.56396,0,2.27527,8.09756,-2.91713,43.2317,19.5427,29.0854,-9.3765,0.0742456,-1.37953,-33.9024,1.67683,4.2378
671.749,44.5124,-3.84035,0,2.0214,8.10714,-2.53393,25.2439,15.4573,27.622,-9.35495,0.0479004,-1.47533,-34.6951,2.2561,2.83537
671.759,44.1266,-4.08025,0,2.06211,7.6449,-2.43094,12.2256,11.4634,20.6707,-9.33339,0.0670605,-1.5376,-35.5793,3.38415,1.7378
671.769,43.7235,-4.2964,0,2.11001,7.20422,-2.4501,2.22561,2.07317,15.6098,-9.29986,0.0981958,-1.50886,-36.5244,3.90244,0.853659
671.779,43.3349,-4.5374,0,2.11959,6.56235,-2.31359,-5.39634,-7.43902,13.0488,-9.22322,0.153281,-1.66693,-37.7134,5.09146,-0.0304878
671.79,42.7651,-4.80206,0,1.7316,6.24861,-2.44531,-6.4939,-25.9451,5.67073,-9.18729,0.215552,-1.80824,-38.2012,5.88415,-0.457317
671.799,41.9661,-5.09152,0,1.86812,7.08686,-3.71707,7.7439,-66.4634,-24.3902,-9.16095,0.265847,-1.95673,-39.2073,7.0122,-1.21951
671.809,40.9841,-5.38958,0,4.26313,9.93694,-1.52323,7.13415,-70.9756,-61.9512,-9.0867,0.332908,-2.02619,-39.9695,7.95732,-1.85976
671.819,40.1933,-5.68942,0,5.20917,7.91314,-0.143701,-18.0793,-45.9451,-65.1219,-9.04599,0.433499,-2.07409,-40.3049,8.20122,-2.71341
671.829,39.5184,-6.01145,0,4.40923,5.41274,-0.100591,-16.189,-27.2561,-66.7683,-8.98851,0.462239,-2.20342,-40.7622,8.5061,-3.93293
671.84,39.0447,-6.2841,0,4.94093,4.95769,-0.785566,-15.2744,15.9451,-59.3293,-8.96695,0.517324,-2.04535,-40.8537,8.2622,-4.93902
671.849,38.6362,-6.56793,0,4.3757,4.74932,-1.28134,-17.7744,26.5244,-49.0549,-8.92624,0.534089,-2.12678,-40.5793,7.68293,-6.0061
671.859,38.2865,-6.80854,0,5.66901,4.79243,-3.04407,-2.10366,31.0976,-58.4451,-8.93342,0.438289,-1.99505,-40.1829,7.04268,-7.07317
671.869,37.9028,-7.03289,0,5.70494,4.74693,-3.87754,8.84146,25.7012,-63.5366,-8.95977,0.217947,-1.96631,-39.6037,5.73171,-8.07927
671.879,37.5991,-7.27149,0,6.3947,4.84273,-4.93134,16.0366,22.5915,-61.5244,-8.89989,0.0526904,-2.03337,-38.0488,4.93902,-9.29878
671.89,37.3531,-7.45291,0,8.46879,5.78397,-5.92049,15.7012,14.1159,-61.9817,-8.91905,-0.0670605,-1.83698,-36.25,4.5122,-9.93902
671.899,37.1839,-7.64715,0,10.4016,6.27974,-5.58519,3.32317,14.6951,-61.189,-9.02922,-0.208367,-1.93997,-35.4268,4.35976,-9.78659
671.909,37.2621,-7.85736,0,12.0996,6.11928,-4.16254,-17.9878,14.6341,-45.061,-9.137,-0.306563,-2.07648,-34.8171,4.81707,-9.42073
671.919,37.6109,-8.04175,0,13.5702,5.10379,-3.08239,-28.811,13.1098,-29.9695,-9.32142,-0.325723,-2.05253,-33.811,5.12195,-8.41463
671.93,38.2023,-8.21635,0,14.0827,4.03321,-1.38432,-22.9878,14.2683,-13.9634,-9.56092,-0.220342,-2.08606,-32.4085,4.26829,-7.07317
671.939,38.9517,-8.38676,0,14.4156,3.02491,-0.910107,0.670732,36.1585,-5.06098,-9.81,-0.155676,-2.14594,-31.8293,3.68902,-5.54878
671.949,39.6648,-8.54604,0,12.3607,3.04646,-0.725691,41.0366,52.0427,-3.41463,-10.0208,-0.0335303,-2.18186,-32.9573,3.84146,-4.60366
671.959,40.1422,-8.7133,0,9.49386,4.26313,-1.13763,75.1524,68.3537,-5.03049,-10.0256,0.234712,-2.25611,-35.4573,4.35976,-4.02439
671.969,40.2577,-8.84634,0,6.90724,5.62351,-1.82261,89.0549,85.7927,-10.061,-10.1309,0.5772,-2.15552,-38.3537,4.57317,-3.47561
671.979,39.8996,-8.90416,0,4.22481,6.47134,-2.01661,101.22,89.939,-22.0122,-10.483,0.62031,-1.88967,-39.7256,2.7439,-2.86585
671.99,39.0307,-8.88505,0,2.20821,7.53234,-2.28724,131.768,84.9695,-40.5793,-11.1153,0.167651,-1.66214,-38.689,-0.884146,-2.40854
671.999,37.779,-8.84272,0,1.5855,10.3465,-2.19384,171.829,64.1463,-65.8537,-12.1044,-0.651445,-1.66693,-33.2012,-4.69512,-1.76829
672.009,36.2978,-8.78113,0,2.18905,17.9507,-0.217947,162.896,46.4939,-88.2317,-13.5726,-1.97589,-1.74357,-22.5915,-6.64634,0
672.019,35.2716,-8.6722,0,5.45825,23.5622,0.716111,54.0244,-2.86585,-57.2561,-15.4335,-3.38656,-1.64059,-10.2744,-7.53049,1.4939
672.029,35.2248,-8.60799,0,13.0002,18.7171,-4.72777,16.6463,18.0183,-3.78049,-16.2885,-4.88344,-2.02379,-1.03659,-6.43293,2.22561
672.039,35.5,-8.54181,0,16.6765,10.6602,-8.18857,-8.90244,108.323,-17.1951,-14.9593,-5.25228,-1.82261,8.47561,-1.7378,7.92683
672.049,35.717,-8.4268,0,14.8539,6.11928,-7.41259,-10.2744,152.47,-43.3841,-12.3846,-3.62845,-1.24062,13.4756,-1.12805,16.7683
672.059,36.0485,-8.02357,0,7.72633,3.30273,-4.01645,39.939,128.506,-29.7256,-10.3345,-1.57113,-0.486189,18.0793,-0.27439,28.9024
672.069,35.4231,-7.49488,0,0.866997,3.13748,-2.94827,118.567,81.3415,-21.7683,-9.86269,-0.158071,0.0838257,19.2073,-1.18902,37.378
672.079,33.3919,-7.06501,0,-4.14817,4.51461,-3.12071,164.482,24.6646,-48.0793,-10.8231,0.883762,0.62031,17.2561,-4.87805,39.0854
672.089,31.1434,-6.71454,0,-5.53968,5.85343,-4.45953,188.11,-54.0549,-72.6829,-11.0051,0.222737,0.335303,16.7683,-6.46341,37.1037
672.099,28.9603,-6.28251,0,-5.96839,7.22577,-5.6762,163.537,-153.628,-78.4756,-12.2218,2.03098,0.883762,7.07317,-11.9817,29.0244
672.11,27.1931,-5.89596,0,-4.06435,8.58375,-7.90835,109.451,-212.591,-69.5122,-12.1643,2.42615,0.728086,2.34756,-10.8232,18.0488
672.119,25.9241,-5.46583,0,-1.23583,10.0519,-9.81719,53.0488,-189.695,-59.6951,-11.3572,2.54351,0.974773,-3.62805,-12.1646,9.05488
672.129,24.9707,-4.9547,0,0.232317,11.1943,-9.4268,15.3354,-131.067,-46.7988,-10.2387,1.93757,1.32445,-9.45122,-14.2988,4.08537
672.139,24.3722,-4.41532,0,2.29682,12.387,-7.50599,-18.2012,-52.2561,-31.5549,-9.48667,0.740061,1.43222,-14.1159,-16.3415,0.670732
672.149,23.8534,-3.89042,0,3.25483,11.9607,-4.30864,-49.9085,-0.487805,-34.2683,-8.88313,-0.378413,1.36756,-17.4085,-17.7439,-1.79878
672.159,23.4203,-3.2768,0,3.91825,10.0782,-2.87402,-68.689,37.8049,-38.872,-8.95019,-0.174836,1.81782,-25.0915,-25.061,-2.46951
672.169,23.167,-2.85732,0,4.6152,7.98979,-3.23807,-61.8293,69.2988,-39.2988,-8.23887,-1.88009,1.04423,-17.2256,-18.75,-1.85976
672.179,23.0813,-2.56626,0,5.44148,6.65815,-4.14338,-44.1159,90.6402,-41.5854,-7.77423,-1.84896,0.598755,-14.7256,-17.8963,1.61585
672.189,23.0191,-2.32081,0,5.99713,6.15041,-4.8571,-38.689,80.6707,-49.6037,-7.791,-2.019,0.483794,-10.5488,-15.9146,5.57927
672.199,22.956,-2.16682,0,5.73368,6.29651,-3.8943,-44.4207,26.9512,-45.8232,-7.84129,-2.09325,0.205972,-5.97561,-12.7134,9.2378
672.21,22.984,-2.07233,0,5.64027,5.77679,-3.67157,-46.9512,-21.6768,-40.7317,-8.12391,-2.04295,0.0239502,-0.487805,-10,11.5549
672.219,22.9469,-2.00406,0,4.46192,5.05349,-3.88233,-31.4024,-47.3171,-41.4634,-8.40412,-1.93757,-0.0574805,4.81707,-7.34756,12.1646
672.229,22.7682,-1.93786,0,3.79371,5.41753,-4.22242,0.27439,-38.1098,-42.8354,-8.82325,-1.70286,-0.0646655,9.5122,-4.72561,11.5549
672.239,22.383,-1.89531,0,3.0776,6.75875,-4.17212,18.4451,-25.1829,-42.8049,-9.30226,-1.56874,-0.167651,13.9634,-2.83537,9.48171
672.249,21.9359,-1.89565,0,2.82612,7.9826,-4.50264,22.561,-26.5854,-39.7256,-9.88904,-1.57353,-0.328118,17.7744,-0.243902,6.4939
672.259,21.5786,-1.90035,0,3.09916,8.83044,-5.05828,11.0366,-34.7256,-31.1585,-10.368,-1.57832,-0.359253,20.7317,1.43293,2.77439
672.269,21.3397,-1.89444,0,3.36021,8.9909,-5.07265,-8.78049,-44.3293,-22.1646,-10.6722,-1.53281,-0.325723,22.7134,2.43902,-0.0304878
672.279,21.256,-1.90977,0,3.7051,8.3179,-4.40205,-19.1159,-52.8963,-13.9939,-10.6387,-1.38672,-0.419128,23.9634,3.84146,-1.79878
672.289,21.3015,-1.9214,0,3.93502,7.5491,-3.85838,-17.2256,-56.128,-8.17073,-10.3896,-1.26457,-0.395178,23.9329,4.14634,-2.34756
672.299,21.4301,-1.92298,0,4.05237,6.89287,-3.6524,-6.12805,-54.9695,-5.85366,-10.0351,-1.12326,-0.340093,23.872,3.87195,-1.55488
672.31,21.5786,-1.93136,0,3.98292,6.5384,-4.19368,5.57927,-54.7866,-5.54878,-9.72138,-1.02986,-0.356858,23.3232,3.17073,-0.27439
672.319,21.6883,-1.95288,0,3.75779,6.58151,-4.99362,12.439,-59.7866,-5.67073,-9.54415,-0.900527,-0.397573,22.5,2.71341,0.548781
672.329,21.7392,-2.02218,0,3.50152,7.02699,-5.66422,10.6707,-67.8049,-4.78659,-9.40764,-0.881367,-0.555645,22.3476,2.56098,1.09756
672.34,21.7614,-2.09765,0,3.43446,7.63532,-6.03545,2.86585,-74.8476,-3.07927,-9.4747,-0.922083,-0.59157,22.6829,2.46951,0.823171
672.349,21.8239,-2.1961,0,3.59971,8.09038,-6.13843,-10.5488,-79.6646,-0.426829,-9.60163,-1.01549,-0.677791,22.622,2.10366,-0.335366
672.359,21.9278,-2.30201,0,3.90388,8.17181,-5.9157,-26.5549,-77.9573,1.0061,-9.68785,-1.07536,-0.732876,23.2317,2.10366,-1.7378
672.369,22.0738,-2.39947,0,4.0404,7.80058,-5.41514,-36.4939,-73.75,2.04268,-9.7142,-1.15919,-0.711321,23.4146,1.89024,-2.59146
672.379,22.5847,-2.50323,0,4.27511,7.28086,-4.93614,-35.9451,-66.25,0,-9.70701,-1.15919,-0.732876,24.5427,1.70732,-3.65854
672.389,22.7329,-2.5976,0,4.45953,7.118,-4.54096,-31.8598,-51.7378,-4.69512,-9.68067,-1.23583,-0.694556,25.1524,1.43293,-3.56707
672.399,22.793,-2.72241,0,4.20326,7.00783,-4.12422,-25.6707,-44.6951,-10.6402,-9.54415,-1.2526,-0.768801,25.4573,1.40244,-2.95732
672.409,22.7708,-2.86431,0,3.9446,7.15153,-4.17212,-17.5,-40.1524,-14.6951,-9.4723,-1.30289,-0.862207,25.6707,1.70732,-2.16463
672.419,22.6761,-3.00804,0,3.65001,7.52755,-4.56251,-15.3963,-38.3841,-15.9756,-9.37411,-1.32924,-0.914897,26.4939,2.07317,-0.945122
672.429,22.503,-3.16804,0,3.23567,8.13828,-4.78525,-19.9695,-41.9817,-15.6402,-9.35734,-1.33163,-1.01549,27.7744,2.31707,-0.396341
672.439,22.2851,-3.33272,0,2.85965,8.45442,-4.94332,-27.622,-45.2134,-14.4512,-9.26873,-1.26457,-1.09692,29.4817,2.92683,0.457317
672.449,22.0732,-3.49295,0,2.78062,8.52866,-4.87626,-34.7561,-47.2866,-12.9878,-9.19927,-1.14482,-1.08255,31.0671,2.80488,1.55488
672.459,21.8989,-3.65009,0,2.84049,8.58854,-4.73974,-40.8841,-49.4512,-10.0915,-9.17292,-1.09931,-1.14242,32.6524,3.53659,2.16463
672.469,21.7563,-3.78902,0,2.95545,8.30114,-4.62957,-45.8232,-51.311,-9.84756,-9.14179,-0.958008,-1.12805,33.75,4.7561,3.5061
672.479,21.6455,-3.93699,0,2.99377,8.07601,-4.49306,-45.7317,-50.7622,-8.41463,-9.13939,-0.835862,-1.19511,34.7561,5.57927,4.5122
672.489,21.5521,-4.08067,0,3.23328,8.15265,-4.39965,-46.2805,-47.9573,-9.5122,-9.1849,-0.907712,-1.21188,35.7927,6.58537,5
