time,angle1,angle2,intgangle,accX1,accY1,accZ1,gyroX1,gyroY1,gyroZ1,accX2,accY2,accZ2,gyroX2,gyroY2,gyroZ2
970.74,86.2457,-5.60114,0,9.70941,0.63468,2.19384,-0.243902,0.0304878,-0.0914634,-9.89383,-0.495769,-0.905317,0.792683,0.182927,6.06707
970.75,86.2503,-5.56613,0,9.70462,0.613125,2.18426,-0.243902,0.152439,-0.213415,-9.89862,-0.457449,-0.910107,0.792683,0.0914634,6.28049
970.759,86.2521,-5.55847,0,9.69025,0.62031,2.15073,-0.27439,-0.121951,-0.243902,-9.88425,-0.443079,-0.950823,0.853659,0,6.18902
970.77,86.2552,-5.55546,0,9.68306,0.62031,2.14354,-0.182927,-0.0914634,-0.121951,-9.86988,-0.474214,-0.955613,0.670732,-0.0304878,6.12805
970.779,86.2525,-5.5264,0,9.67827,0.63468,2.17228,-0.0609756,-0.27439,-0.243902,-9.88425,-0.505349,-0.912502,0.731707,-0.0609756,6.25
970.79,86.2631,-5.49518,0,9.70222,0.60115,2.1172,-0.365854,-0.518293,-0.0304878,-9.89143,-0.459844,-0.898132,0.762195,0.243902,6.03659
970.799,86.2638,-5.50619,0,9.69983,0.622705,2.11959,-0.213415,-0.731707,-0.243902,-9.85311,-0.471819,-0.969983,0.762195,0.426829,5.94512
970.809,86.2761,-5.51193,0,9.73336,0.59157,2.09804,-0.182927,-0.548781,-0.0914634,-9.8579,-0.524509,-0.962798,0.762195,0.640244,6.15854
970.82,86.2799,-5.52118,0,9.71659,0.61552,2.13636,-0.518293,-0.396341,-0.121951,-9.86509,-0.471819,-0.974773,0.426829,0.884146,6.09756
970.829,86.2844,-5.53833,0,9.76449,0.617915,2.07648,-0.640244,-0.518293,-0.0609756,-9.87227,-0.467029,-0.996328,0.701219,0.823171,6.09756
970.84,86.2879,-5.57155,0,9.74294,0.608335,2.10762,-0.884146,-0.396341,-0.304878,-9.87946,-0.443079,-1.05381,0.670732,1.21951,5.85366
970.849,86.2939,-5.59633,0,9.76689,0.598755,2.14594,-0.731707,-0.182927,-0.304878,-9.8555,-0.404758,-1.02507,0.884146,0.945122,6.31098
970.859,86.307,-5.62325,0,9.71659,0.55325,2.15312,-0.670732,0.27439,-0.518293,-9.89383,-0.416733,-1.04423,0.670732,1.09756,6.52439
970.87,86.3104,-5.64176,0,9.71899,0.603545,2.15791,-0.914634,0.487805,-0.304878,-9.84593,-0.423918,-1.01309,0.762195,0.762195,6.4939
970.879,86.3199,-5.68398,0,9.6663,0.58678,2.10762,-0.548781,0.640244,-0.152439,-9.86509,-0.421523,-1.07776,0.670732,0.792683,6.4939
970.889,86.3334,-5.71208,0,9.64714,0.56762,2.12678,-0.27439,0.487805,-0.213415,-9.86988,-0.411943,-1.0562,0.426829,0.97561,6.12805
970.899,86.3582,-5.74144,0,9.63277,0.529299,2.17228,-0.457317,0.335366,-0.182927,-9.8579,-0.416733,-1.06818,0.426829,1.15854,6.03659
970.91,86.3749,-5.76376,0,9.66151,0.536484,2.15791,-0.213415,-0.121951,-0.396341,-9.84114,-0.399968,-1.0562,0.457317,1.40244,6.21951
970.919,86.3845,-5.78447,0,9.69264,0.555645,2.16031,-0.0609756,-0.396341,-0.487805,-9.88185,-0.376018,-1.0586,0.396341,1.31098,6.37195
970.929,86.3946,-5.78525,0,9.72378,0.538879,2.14115,0.152439,-0.457317,-0.670732,-9.91778,-0.344883,-1.00591,0.518293,1.43293,6.12805
970.939,86.3963,-5.79385,0,9.71659,0.5772,2.1627,0.0914634,-0.518293,-0.640244,-9.93454,-0.392783,-1.03225,0.27439,1.37195,6.31098
970.949,86.4045,-5.79178,0,9.74773,0.550855,2.11001,0.152439,-0.365854,-0.609756,-9.91778,-0.409548,-0.998723,0.182927,1.37195,6.18902
970.959,86.4056,-5.81733,0,9.69025,0.58199,2.10762,0,-0.335366,-0.548781,-9.91059,-0.426313,-1.07057,0.396341,0.853659,6.28049
970.969,86.408,-5.83443,0,9.72138,0.579595,2.14115,0.0914634,-0.0609756,-0.518293,-9.88425,-0.402363,-1.05141,0.213415,0.945122,6.31098
970.98,86.405,-5.8381,0,9.68067,0.593965,2.07888,0.396341,0.0609756,-0.640244,-9.93694,-0.445474,-1.02507,0.0914634,1.12805,6.28049
970.99,86.4019,-5.8651,0,9.69983,0.598755,2.1172,0.365854,0.0304878,-0.579268,-9.93454,-0.447869,-1.08494,0.0914634,0.823171,5.97561
971,86.4017,-5.85199,0,9.69983,0.58199,2.07648,0.396341,-0.152439,-0.670732,-9.93933,-0.438289,-0.991538,-0.335366,0.487805,5.97561
971.01,86.3977,-5.88311,0,9.74054,0.60594,2.12678,0.0304878,-0.121951,-0.579268,-9.92257,-0.404758,-1.08015,-0.121951,0.335366,5.64024
971.02,86.3948,-5.89672,0,9.72138,0.598755,2.08846,0.304878,0.0914634,-0.609756,-9.92257,-0.431104,-1.04902,-0.213415,0.27439,5.94512
971.03,86.3901,-5.88203,0,9.72857,0.598755,2.10043,0.304878,0.152439,-0.792683,-9.95131,-0.385598,-0.998723,-0.457317,0.243902,5.82317
971.04,86.3818,-5.87094,0,9.72617,0.62989,2.09564,0.365854,0.121951,-0.457317,-9.89622,-0.447869,-0.996328,-0.487805,0.396341,5.79268
971.049,86.3752,-5.86169,0,9.72378,0.608335,2.05253,0.182927,-0.121951,-0.823171,-9.89622,-0.462239,-1.00112,-0.609756,0.121951,6.09756
971.059,86.3746,-5.87278,0,9.67827,0.59636,2.09085,0.426829,-0.0914634,-0.487805,-9.89143,-0.519719,-1.03704,-0.335366,0.304878,5.91463
971.07,86.3715,-5.90896,0,9.74533,0.593965,2.10522,0.304878,-0.0914634,-0.823171,-9.89862,-0.529299,-1.08734,-0.365854,0.243902,6.34146
971.079,86.3589,-5.92987,0,9.72617,0.627495,2.1172,0.182927,-0.121951,-1.09756,-9.88904,-0.507744,-1.0586,-0.0609756,-0.0304878,5.97561
971.089,86.3603,-5.9513,0,9.72617,0.60115,2.10762,0,-0.365854,-0.335366,-9.92257,-0.514929,-1.06818,0.121951,-0.0609756,6.18902
971.099,86.3564,-5.97873,0,9.7142,0.61073,2.12199,0.0914634,0,-0.579268,-9.8603,-0.486189,-1.07297,0.213415,0.0304878,6.46341
971.11,86.354,-5.99647,0,9.72138,0.61073,2.12678,0.0609756,0.365854,-0.457317,-9.87946,-0.476609,-1.06578,0.121951,0.121951,6.12805
971.119,86.3568,-5.99077,0,9.69743,0.593965,2.13636,-0.121951,0.609756,-0.365854,-9.87227,-0.450264,-1.02746,0.121951,-0.0609756,6.28049
971.129,86.3743,-6.00563,0,9.65911,0.55804,2.17468,-0.365854,0.487805,-0.0609756,-9.89862,-0.467029,-1.06339,0.152439,0,6.21951
971.139,86.3757,-6.00846,0,9.72378,0.58199,2.1651,-0.213415,0.335366,-0.640244,-9.87706,-0.481399,-1.04423,-0.0304878,0.243902,6.40244
971.149,86.3785,-6.02148,0,9.74294,0.58199,2.13396,-0.121951,0.579268,-0.548781,-9.86269,-0.452659,-1.06099,0.243902,0.152439,6.40244
971.159,86.3802,-6.01271,0,9.69025,0.589175,2.1148,-0.182927,0.182927,-0.457317,-9.88185,-0.443079,-1.02746,0.487805,0.0609756,6.67683
971.17,86.3832,-6.06618,0,9.69504,0.58199,2.09085,-0.304878,0.304878,-0.487805,-9.88664,-0.426313,-1.13284,0.457317,0.0609756,6.4939
971.179,86.3816,-6.04324,0,9.69025,0.593965,2.14115,0.0304878,0.518293,-0.609756,-9.88185,-0.447869,-1.0083,0.731707,0.182927,6.34146
971.189,86.3794,-6.05056,0,9.67827,0.59157,2.12438,-0.213415,0.365854,-0.701219,-9.87706,-0.416733,-1.0586,0.518293,-0.121951,6.52439
971.199,86.3718,-6.03175,0,9.70222,0.61073,2.12917,-0.27439,0.457317,-0.853659,-9.87946,-0.402363,-1.01549,0.396341,-0.0609756,6.31098
971.209,86.3776,-6.0009,0,9.70941,0.579595,2.11959,-0.304878,0.335366,-0.365854,-9.87467,-0.416733,-0.991538,0.701219,0.0609756,6.55488
971.22,86.3853,-5.99842,0,9.69504,0.550855,2.0693,0.121951,0.213415,-0.670732,-9.91059,-0.407153,-1.03704,0.365854,-0.365854,6.4939
971.23,86.3842,-6.00428,0,9.73096,0.579595,2.1172,0,0.243902,-0.853659,-9.92496,-0.431104,-1.05381,0.548781,-0.152439,6.46341
971.239,86.3802,-5.98476,0,9.70941,0.613125,2.1148,-0.182927,0.213415,-0.426829,-9.93694,-0.397573,-1.00112,0.365854,-0.548781,6.58537
971.249,86.3712,-5.97629,0,9.71659,0.63468,2.15312,0.0304878,0.304878,-0.426829,-9.93215,-0.433499,-1.02267,0.457317,-0.518293,6.34146
971.259,86.3692,-5.96823,0,9.70222,0.59157,2.16989,0,0.243902,-0.731707,-9.87706,-0.409548,-1.01788,0.518293,-0.396341,6.37195
971.27,86.3733,-5.96729,0,9.69743,0.570015,2.13875,0.0304878,0.426829,-0.640244,-9.88904,-0.440684,-1.03225,0.426829,-0.426829,6.31098
971.279,86.3702,-5.9663,0,9.74054,0.603545,2.16989,0.152439,0.670732,-0.640244,-9.91538,-0.411943,-1.03465,0.335366,-0.518293,6.46341
971.289,86.373,-5.98162,0,9.73096,0.584385,2.08367,0.182927,0.213415,-0.518293,-9.89143,-0.419128,-1.06099,0.182927,-0.121951,6.58537
971.299,86.3728,-5.97875,0,9.7118,0.589175,2.09804,0.213415,0.27439,-0.640244,-9.92496,-0.404758,-1.03465,0.152439,-0.213415,6.52439
971.31,86.3722,-5.97748,0,9.7118,0.589175,2.10522,0.304878,0.304878,-0.670732,-9.92257,-0.433499,-1.03704,0.304878,0,6.55488
971.319,86.3697,-5.97723,0,9.72138,0.60594,2.1148,0.335366,0.27439,-0.518293,-9.9082,-0.411943,-1.03704,0.487805,0,6.34146
971.33,86.3602,-5.9853,0,9.68067,0.62031,2.11001,0.213415,-0.121951,-0.853659,-9.89143,-0.378413,-1.05381,0.243902,-0.518293,6.31098
971.339,86.3528,-5.94739,0,9.68785,0.627495,2.14115,0.365854,0.0914634,-0.487805,-9.9058,-0.395178,-0.955613,0.121951,-0.518293,5.91463
971.349,86.344,-5.93171,0,9.70222,0.632285,2.13875,0.548781,0.335366,-0.579268,-9.84832,-0.385598,-0.991538,-0.0914634,-0.609756,6.18902
971.359,86.3401,-5.90779,0,9.70941,0.613125,2.16031,0.243902,-0.121951,-0.579268,-9.88425,-0.354463,-0.972378,0.0914634,-0.640244,6.06707
971.369,86.3478,-5.92775,0,9.7118,0.579595,2.17468,0.0914634,0.152439,-0.335366,-9.86988,-0.395178,-1.0562,-0.396341,-0.121951,6.15854
971.38,86.3454,-5.90828,0,9.7118,0.60594,2.15073,0,0.304878,-0.579268,-9.91059,-0.392783,-0.991538,-0.121951,0.243902,6.09756
971.389,86.3451,-5.91619,0,9.69264,0.59636,2.16031,0.152439,0.396341,-0.579268,-9.89622,-0.423918,-1.03944,-0.243902,0.304878,6.18902
971.399,86.3475,-5.92308,0,9.70222,0.593965,2.17707,0.304878,0.182927,-0.426829,-9.89622,-0.423918,-1.03704,-0.152439,0.0304878,6.28049
971.409,86.341,-5.90957,0,9.73815,0.62031,2.16989,0.304878,0.152439,-0.701219,-9.91299,-0.476609,-1.00351,-0.27439,-0.182927,6.40244
971.42,86.3292,-5.92526,0,9.69504,0.64426,2.1651,0.121951,-0.121951,-0.670732,-9.92257,-0.459844,-1.06099,-0.0609756,-0.426829,6.31098
971.43,86.3261,-5.91794,0,9.72857,0.613125,2.14354,0.365854,-0.0609756,-0.579268,-9.92496,-0.390388,-1.01309,0.213415,-0.670732,6.28049
971.439,86.3288,-5.94887,0,9.69983,0.589175,2.14833,0.121951,-0.304878,-0.548781,-9.87467,-0.385598,-1.09452,0.0609756,-0.609756,6.37195
971.449,86.3303,-5.94908,0,9.68306,0.603545,2.15073,-0.213415,-0.121951,-0.335366,-9.85311,-0.337698,-1.02746,-0.213415,-0.396341,6.18902
971.459,86.3295,-5.96756,0,9.70462,0.61073,2.12199,-0.0609756,-0.365854,-0.396341,-9.81,-0.376018,-1.05141,-0.182927,0.0304878,6.0061
971.469,86.3379,-5.96373,0,9.69983,0.58199,2.10043,0.182927,-0.365854,-0.27439,-9.82677,-0.402363,-1.02028,-0.487805,-0.304878,6.15854
971.48,86.3405,-5.96154,0,9.70941,0.59636,2.09564,-0.335366,-0.0304878,-0.396341,-9.87227,-0.419128,-1.02746,-0.365854,-0.213415,6.12805
971.49,86.3461,-5.95521,0,9.69504,0.58199,2.07648,-0.182927,0.0304878,-0.426829,-9.84353,-0.409548,-1.01788,-0.152439,0,6.21951
971.499,86.345,-5.93457,0,9.7118,0.608335,2.13157,-0.213415,0.0304878,-0.426829,-9.84353,-0.411943,-0.991538,-0.121951,0.121951,5.94512
971.509,86.3406,-5.94415,0,9.75491,0.627495,2.08846,-0.548781,0.335366,-0.335366,-9.87706,-0.419128,-1.04423,-0.579268,0.213415,6.0061
971.52,86.3344,-5.94837,0,9.74773,0.62989,2.12678,-0.213415,-0.152439,-0.487805,-9.86269,-0.404758,-1.03465,-0.213415,0.27439,6.15854
971.529,86.3293,-5.92892,0,9.73336,0.62031,2.13157,-0.304878,0.27439,-0.609756,-9.89862,-0.431104,-0.991538,-0.0304878,0.365854,6.06707
971.54,86.3294,-5.92639,0,9.69025,0.593965,2.11001,-0.396341,0.152439,-0.640244,-9.91538,-0.440684,-1.02507,-0.0914634,0.121951,5.79268
971.549,86.3286,-5.92142,0,9.68785,0.59636,2.10043,-0.27439,0.121951,-0.670732,-9.92017,-0.399968,-1.01788,-0.213415,0.579268,5.88415
971.56,86.3279,-5.92102,0,9.70462,0.59157,2.15552,-0.365854,-0.152439,-0.762195,-9.94173,-0.404758,-1.02986,0,0.457317,5.85366
971.569,86.3179,-5.90096,0,9.69025,0.641865,2.13157,-0.213415,-0.365854,-0.548781,-9.92736,-0.392783,-0.993933,-0.182927,0.0914634,6.0061
971.579,86.3249,-5.91916,0,9.71659,0.57241,2.17468,-0.0914634,-0.396341,-0.548781,-9.96089,-0.385598,-1.06339,-0.0914634,-0.121951,5.91463
971.59,86.3204,-5.90479,0,9.69504,0.61552,2.15073,-0.121951,-0.335366,-0.640244,-9.90341,-0.352068,-0.998723,-0.27439,-0.304878,5.85366
971.599,86.316,-5.92286,0,9.74054,0.61552,2.15312,-0.426829,-0.518293,-0.701219,-9.93215,-0.364043,-1.06578,-0.152439,-0.396341,6.12805
971.609,86.3207,-5.92433,0,9.74054,0.59157,2.05014,-0.0914634,-0.213415,-0.426829,-9.91299,-0.364043,-1.03225,-0.487805,-0.579268,6.0061
971.62,86.3165,-5.92765,0,9.73096,0.61073,2.1172,-0.121951,0.27439,-0.762195,-9.89622,-0.354463,-1.03465,-0.426829,-0.518293,5.91463
971.629,86.3139,-5.93376,0,9.70941,0.60594,2.10043,-0.0914634,0.0304878,-0.701219,-9.88904,-0.390388,-1.03944,-0.518293,-0.365854,5.85366
971.64,86.3156,-5.97093,0,9.69504,0.584385,2.06451,0.0609756,0.0304878,-0.731707,-9.88425,-0.409548,-1.10171,-0.518293,-0.335366,6.03659
971.649,86.3253,-5.98782,0,9.69983,0.550855,2.00942,0.304878,0.0609756,-0.701219,-9.87946,-0.438289,-1.07297,-0.335366,-0.640244,5.7622
971.659,86.3263,-5.98695,0,9.71899,0.593965,2.0693,0.213415,-0.0914634,-0.609756,-9.90101,-0.404758,-1.03704,-0.243902,-0.487805,5.97561
971.669,86.3364,-5.98543,0,9.69504,0.55804,2.06451,0.548781,-0.335366,-0.548781,-9.91538,-0.435894,-1.03704,-0.304878,-0.365854,6.0061
971.679,86.3446,-5.99973,0,9.70701,0.55804,2.08846,0.396341,0,-0.640244,-9.89622,-0.433499,-1.07057,-0.0609756,-0.579268,6.12805
971.69,86.3497,-5.99826,0,9.72617,0.5772,2.05972,0.579268,0.27439,-0.548781,-9.84593,-0.399968,-1.03225,-0.243902,-0.304878,5.79268
971.699,86.3552,-6.00297,0,9.68306,0.57241,2.12438,0.518293,0.426829,-0.548781,-9.89143,-0.402363,-1.04902,-0.304878,-0.335366,5.91463
971.709,86.355,-5.98191,0,9.72378,0.59636,2.13157,0.365854,0.304878,-0.579268,-9.8579,-0.409548,-0.993933,-0.213415,-0.426829,5.64024
971.72,86.3402,-6.0151,0,9.68306,0.656235,2.13157,0.731707,0.640244,-0.579268,-9.87946,-0.452659,-1.09931,-0.548781,-0.27439,5.91463
971.73,86.3314,-6.01821,0,9.69264,0.63468,2.1172,0.0304878,0.426829,-0.548781,-9.83395,-0.431104,-1.04183,-0.304878,-0.182927,5.64024
971.74,86.3355,-6.03747,0,9.71899,0.574805,2.20342,0.121951,0.243902,-0.670732,-9.87946,-0.471819,-1.07536,-0.0914634,0.121951,5.79268
971.749,86.3366,-6.03118,0,9.73815,0.5772,2.16989,0.27439,0.426829,-0.853659,-9.87946,-0.450264,-1.03465,-0.0304878,0,5.94512
971.759,86.3324,-6.01505,0,9.70462,0.61552,2.15312,0.0609756,0.396341,-0.579268,-9.88904,-0.428708,-1.01788,0.396341,0.0304878,6.03659
971.769,86.3285,-6.01608,0,9.72138,0.59636,2.15552,-0.182927,0.457317,-0.945122,-9.89383,-0.419128,-1.04423,0.365854,0.0914634,5.85366
971.779,86.321,-6.01485,0,9.70701,0.627495,2.15073,0.0304878,0.182927,-0.670732,-9.9058,-0.404758,-1.04183,0.243902,-0.182927,5.91463
971.79,86.312,-6.00917,0,9.7142,0.6251,2.14115,-0.152439,0.518293,-0.914634,-9.91538,-0.371228,-1.03465,0.396341,-0.121951,5.60976
971.799,86.3048,-5.94807,0,9.73815,0.62989,2.10762,-0.0304878,0.0609756,-0.701219,-9.91059,-0.402363,-0.936453,0.640244,0.0914634,5.97561
971.809,86.2956,-5.9358,0,9.69504,0.632285,2.1148,0.0304878,0.243902,-0.823171,-9.89143,-0.411943,-1.0083,0.640244,-0.182927,5.85366
971.82,86.2984,-5.92035,0,9.69264,0.584385,2.1148,-0.121951,0.0914634,-0.701219,-9.91778,-0.395178,-0.996328,0.396341,-0.579268,5.94512
971.83,86.2952,-5.90274,0,9.69025,0.61073,2.1172,-0.213415,-0.0304878,-0.701219,-9.89143,-0.383203,-0.984353,0.426829,-0.701219,5.94512
971.839,86.292,-5.89183,0,9.66869,0.603545,2.1148,0.0609756,0.152439,-0.823171,-9.88185,-0.397573,-0.998723,0.487805,-0.487805,6.0061
971.849,86.2801,-5.871,0,9.68306,0.646655,2.1172,0.213415,-0.0304878,-0.823171,-9.85072,-0.385598,-0.969983,0.152439,-0.640244,5.94512
971.859,86.2815,-5.87018,0,9.70941,0.60594,2.13875,0,0.0609756,-0.487805,-9.86509,-0.366438,-1.01309,0.121951,-0.304878,5.97561
971.869,86.2775,-5.84345,0,9.68067,0.622705,2.12438,-0.0609756,-0.182927,-0.579268,-9.8555,-0.364043,-0.967588,0.182927,-0.121951,5.85366
971.879,86.2773,-5.83268,0,9.72857,0.598755,2.14115,-0.0914634,-0.304878,-0.762195,-9.87227,-0.385598,-0.991538,0.304878,0.121951,5.97561
971.889,86.2693,-5.83517,0,9.70701,0.641865,2.13157,0.0609756,-0.548781,-0.579268,-9.88664,-0.392783,-1.01549,0.27439,-0.426829,5.79268
971.9,86.266,-5.83171,0,9.73096,0.627495,2.1172,-0.426829,-0.243902,-0.518293,-9.88185,-0.421523,-1.00351,-0.0914634,-0.27439,5.97561
971.909,86.2599,-5.82102,0,9.71659,0.62989,2.14594,-0.426829,-0.487805,-0.731707,-9.84832,-0.431104,-0.986748,0.152439,-0.213415,6.09756
971.92,86.2604,-5.81012,0,9.67588,0.613125,2.15552,-0.243902,-0.0914634,-0.457317,-9.8555,-0.414338,-0.986748,0.182927,-0.0609756,5.57927
971.93,86.2608,-5.76851,0,9.69025,0.61073,2.14833,-0.0609756,-0.182927,-0.518293,-9.89383,-0.376018,-0.938848,-0.152439,0,5.70122
971.939,86.2663,-5.74709,0,9.7118,0.589175,2.08127,-0.27439,-0.121951,-0.548781,-9.84832,-0.364043,-0.960403,-0.27439,-0.0304878,5.60976
971.95,86.2753,-5.74544,0,9.69983,0.57241,2.15073,-0.457317,-0.365854,-0.548781,-9.83395,-0.344883,-0.986748,-0.121951,0.152439,5.42683
971.959,86.2711,-5.76392,0,9.69264,0.617915,2.09564,-0.762195,-0.27439,-0.731707,-9.86269,-0.366438,-1.03225,-0.243902,0.548781,5.33537
971.969,86.2789,-5.75266,0,9.71659,0.589175,2.11241,-0.304878,-0.487805,-0.365854,-9.87467,-0.380808,-0.972378,-0.731707,0.487805,5.57927
971.979,86.2849,-5.76779,0,9.73815,0.589175,2.06211,-0.579268,-0.396341,-0.487805,-9.89383,-0.371228,-1.03465,-0.731707,0.853659,5.60976
971.99,86.2923,-5.77267,0,9.74054,0.589175,2.12438,-0.0914634,-0.731707,-0.365854,-9.88904,-0.354463,-1.0107,-0.97561,0.884146,5.54878
972,86.2901,-5.77262,0,9.75731,0.60594,2.10522,-0.426829,-0.579268,-0.792683,-9.86269,-0.361648,-0.996328,-1.21951,0.731707,5.94512
972.009,86.286,-5.79551,0,9.74294,0.6251,2.07409,-0.609756,-0.243902,-0.579268,-9.88904,-0.392783,-1.05381,-1.64634,0.701219,5.67073
972.02,86.2892,-5.80198,0,9.78605,0.608335,2.01421,-0.853659,0.0304878,-0.365854,-9.88185,-0.402363,-1.02028,-1.40244,1.12805,6.09756
972.03,86.293,-5.81083,0,9.74773,0.608335,2.02858,-1.12805,0.121951,-0.27439,-9.86509,-0.426313,-1.02746,-1.4939,1.28049,5.67073
972.04,86.3041,-5.81959,0,9.74294,0.589175,2.06211,-1.25,0.487805,-0.121951,-9.8555,-0.493374,-1.02746,-1.31098,1.25,6.06707
972.049,86.3158,-5.80905,0,9.75012,0.56762,2.12438,-1.18902,1.0061,-0.396341,-9.85072,-0.483794,-0.974773,-1.06707,1.03659,5.39634
972.059,86.3176,-5.8057,0,9.73336,0.60594,2.08127,-1.0061,1.09756,-0.365854,-9.82916,-0.524509,-0.989143,-0.670732,1.28049,5.70122
972.069,86.3357,-5.79955,0,9.67588,0.55325,2.09325,-0.792683,1.09756,-0.213415,-9.8603,-0.467029,-0.981958,-0.792683,1.4939,5.7622
972.079,86.3383,-5.79829,0,9.69264,0.589175,2.08127,-0.548781,1.09756,-0.518293,-9.84353,-0.483794,-0.993933,-0.823171,1.82927,5.60976
972.089,86.3606,-5.81276,0,9.69025,0.550855,2.12678,-0.152439,0.609756,0.0609756,-9.88425,-0.493374,-1.0562,-0.97561,2.31707,5.64024
972.099,86.3644,-5.8179,0,9.64714,0.59636,2.12199,0.152439,-0.121951,-0.152439,-9.92496,-0.464634,-1.02746,-1.0061,2.10366,5.12195
972.109,86.3765,-5.85313,0,9.65193,0.5772,2.14354,0.0304878,0.243902,0.0304878,-9.95849,-0.438289,-1.14961,-1.37195,2.40854,5.4878
972.12,86.3902,-5.91543,0,9.69025,0.570015,2.10043,-0.121951,0.0609756,-0.0304878,-9.97286,-0.416733,-1.26218,-1.58537,2.34756,5.4878
972.13,86.4057,-6.00023,0,9.66869,0.56283,2.14115,0.27439,0.335366,0.0914634,-9.96568,-0.354463,-1.37235,-1.98171,2.68293,5.70122
972.139,86.4279,-6.1183,0,9.67827,0.536484,2.08846,0.27439,0.487805,-0.0609756,-9.98244,-0.354463,-1.54958,-2.07317,3.38415,6.31098
972.15,86.4647,-6.18951,0,9.66869,0.486189,2.14354,-0.0304878,0.853659,-0.0609756,-10.0974,-0.328118,-1.38911,-2.7439,3.56707,5.85366
972.159,86.488,-6.25564,0,9.69743,0.483794,2.19144,0.335366,0.762195,-0.487805,-10.1645,-0.340093,-1.38672,-3.59756,3.29268,5.85366
972.169,86.5017,-6.36488,0,9.73575,0.510139,2.17707,0.457317,-0.396341,-0.609756,-10.2219,-0.320933,-1.59269,-4.05488,3.04878,5.67073
972.179,86.5107,-6.54057,0,9.75012,0.514929,2.16749,1.0061,-1.76829,-0.792683,-10.119,-0.354463,-1.88728,-4.39024,3.14024,5.60976
972.189,86.5113,-6.74363,0,9.69025,0.555645,2.07169,0.945122,-2.95732,-0.731707,-10.0878,-0.431104,-2.05732,-3.93293,3.90244,5.21341
972.199,86.5088,-6.92976,0,9.65911,0.55804,2.14354,1.0061,-4.17683,-0.914634,-10.1884,-0.498164,-2.04774,-4.54268,4.48171,4.78659
972.211,86.5078,-7.09581,0,9.64953,0.550855,2.08606,1.09756,-4.45122,-0.914634,-10.3968,-0.541274,-2.03577,-4.90854,5.33537,3.81098
972.22,86.5199,-7.23216,0,9.60642,0.505349,2.09804,0.945122,-4.72561,-0.701219,-10.4926,-0.546064,-1.94476,-4.84756,5.51829,3.10976
972.23,86.5418,-7.34215,0,9.67827,0.443079,2.14833,1.61585,-4.63415,-0.853659,-10.7081,-0.55325,-1.88009,-4.69512,4.08537,2.89634
972.24,86.5702,-7.43254,0,9.72138,0.368833,2.15312,2.34756,-4.63415,-1.15854,-10.5381,-0.589175,-1.7771,-4.54268,4.02439,3.5061
972.249,86.5976,-7.53231,0,9.73096,0.320933,2.16031,3.59756,-5.12195,-1.52439,-10.3656,-0.550855,-1.7316,-3.32317,1.46341,4.66463
972.259,86.6035,-7.69693,0,9.76928,0.361648,2.05253,3.04878,-6.0061,-2.40854,-10.2603,-0.467029,-1.9711,-1.06707,-1.43293,5.45732
972.269,86.5888,-7.83514,0,9.87706,0.421523,1.97589,2.92683,-5.30488,-3.53659,-10.0926,-0.316143,-1.96152,0.97561,-2.9878,6.12805
972.279,86.5583,-7.90559,0,9.93454,0.498164,1.94955,2.28659,-3.65854,-4.2378,-10.0615,-0.253872,-1.70046,1.52439,-4.02439,5.97561
972.289,86.5032,-7.95321,0,9.97047,0.62989,1.93518,1.58537,-1.34146,-5.27439,-9.99921,-0.256267,-1.60227,0.457317,-4.20732,4.7561
972.299,86.4584,-7.97322,0,9.9058,0.58678,1.90165,0.609756,1.37195,-4.78659,-9.89862,-0.217947,-1.47294,-1.21951,-3.9939,4.05488
972.31,86.4376,-8.0493,0,9.76449,0.399968,2.05972,0.884146,3.75,-4.60366,-9.75731,-0.222737,-1.68609,-2.10366,-3.41463,3.56707
972.319,86.4209,-8.13679,0,9.69264,0.380808,2.00224,1.64634,5,-4.45122,-9.6184,-0.256267,-1.66933,-2.2561,-2.16463,3.44512
972.33,86.3999,-8.14979,0,9.74533,0.411943,1.98787,2.53049,4.2378,-4.54268,-9.60882,-0.277822,-1.42264,-2.65244,-2.37805,4.26829
972.339,86.3739,-8.09836,0,9.7597,0.464634,1.91602,3.20122,2.83537,-4.48171,-9.74054,-0.368833,-1.18793,-3.17073,-3.32317,4.26829
972.349,86.3301,-8.00763,0,9.74773,0.59636,1.95194,3.78049,2.28659,-4.72561,-9.93215,-0.349673,-1.02267,-3.10976,-4.29878,3.84146
972.36,86.2771,-7.87191,0,9.69264,0.687371,1.88728,4.66463,1.79878,-4.60366,-10.0184,-0.383203,-0.811912,-2.80488,-5.27439,4.11585
972.369,86.2279,-7.71736,0,9.69264,0.675395,1.8777,5.67073,2.34756,-4.48171,-10.0423,-0.385598,-0.704136,-2.31707,-6.37195,3.84146
972.379,86.1596,-7.54291,0,9.616,0.811912,1.96631,6.0061,1.95122,-4.78659,-10.016,-0.380808,-0.58678,-2.07317,-7.40854,4.11585
972.389,86.1095,-7.44685,0,9.66869,0.680186,2.00224,6.28049,2.7439,-4.72561,-9.89622,-0.495769,-0.893342,-1.61585,-7.9878,4.14634
972.399,86.073,-7.35244,0,9.7597,0.589175,2.05732,6.82927,4.17683,-4.63415,-9.7597,-0.541274,-0.871787,-1.15854,-8.10976,4.32927
972.41,85.975,-7.19306,0,9.62079,1.0562,1.99984,7.56098,5.30488,-5.18293,-9.72138,-0.627495,-0.57241,-0.335366,-7.89634,4.20732
972.419,85.8657,-7.01011,0,9.53457,1.25739,2.06451,6.58537,5.57927,-3.68902,-9.80042,-0.749641,-0.447869,0,-8.35366,3.87195
972.43,85.8187,-6.86375,0,9.60403,0.819097,2.25132,6.28049,5.88415,-3.17073,-9.84353,-0.821492,-0.5772,0.213415,-7.92683,2.95732
972.439,85.7621,-6.71222,0,9.56092,0.907712,2.31359,5.30488,3.65854,-3.01829,-9.79563,-0.816702,-0.526904,0.579268,-7.89634,2.53049
972.449,85.6914,-6.54033,0,9.83635,1.09692,2.1651,5.73171,5.09146,-2.16463,-9.7621,-0.646655,-0.411943,-0.0304878,-8.71951,2.71341
972.459,85.6217,-6.40413,0,9.7142,1.08734,2.4022,2.80488,3.29268,-1.89024,-9.68306,-0.931663,-0.531694,2.22561,-8.01829,2.7439
972.469,85.5755,-6.27705,0,9.82916,0.922083,2.32796,2.65244,4.48171,-2.46951,-9.61361,-0.840652,-0.543669,3.35366,-7.89634,2.92683
972.479,85.5298,-6.13945,0,9.89383,0.962798,2.3064,1.34146,4.26829,-1.89024,-9.62079,-0.878972,-0.479004,4.2378,-6.09756,2.80488
972.49,85.4751,-6.03095,0,9.78366,1.02267,2.33275,1.21951,2.92683,-1.28049,-9.53697,-0.859812,-0.574805,5.18293,-5.7622,3.07927
972.499,85.4056,-5.92255,0,9.63037,1.06339,2.28245,0.914634,3.9939,-0.884146,-9.67588,-0.819097,-0.565225,6.18902,-5.57927,2.9878
972.51,85.3732,-5.84617,0,9.58966,0.886157,2.38783,-0.457317,2.7439,-0.792683,-9.65193,-0.780776,-0.682581,7.22561,-5.06098,3.07927
972.52,85.3565,-5.76932,0,9.60882,0.819097,2.37586,-0.762195,2.92683,-0.823171,-9.65672,-0.65384,-0.670605,8.38415,-4.54268,3.59756
972.529,85.3323,-5.69491,0,9.67827,0.866997,2.34472,-0.914634,2.07317,-0.762195,-9.6663,-0.58678,-0.66821,9.05488,-4.57317,4.08537
972.539,85.313,-5.62302,0,9.63756,0.847837,2.37346,-0.701219,2.56098,-0.152439,-9.72138,-0.541274,-0.66821,9.29878,-4.87805,4.02439
972.549,85.3607,-5.58006,0,9.74533,0.548459,2.34472,-1.03659,2.19512,-0.640244,-9.75252,-0.488584,-0.780776,9.42073,-5,3.96341
972.56,85.3906,-5.53438,0,9.58247,0.529299,2.4549,-0.701219,0,-1.37195,-9.79323,-0.395178,-0.766406,7.9878,-4.42073,4.32927
972.569,85.4038,-5.47844,0,9.68785,0.517324,2.26808,0.152439,1.37195,-2.34756,-9.81958,-0.306563,-0.716111,7.31707,-4.60366,4.57317
972.579,85.3958,-5.43154,0,9.59205,0.61073,2.26808,0.609756,-0.426829,-2.95732,-9.89383,-0.184417,-0.752036,5.7622,-4.14634,5.03049
972.589,85.3867,-5.40836,0,9.67109,0.58678,2.17707,1.06707,0.121951,-3.38415,-9.92736,-0.131726,-0.847837,4.20732,-4.20732,5.64024
972.599,85.3698,-5.37177,0,9.62558,0.637075,2.16031,1.31098,-1.21951,-3.5061,-10.0543,-0.0934058,-0.795146,2.89634,-4.48171,5.94512
972.61,85.3493,-5.31645,0,9.67588,0.677791,2.04295,2.37805,-0.762195,-3.44512,-10.1477,-0.0766406,-0.711321,1.52439,-5.57927,6.61585
972.619,85.3155,-5.25507,0,9.65672,0.771196,2.019,2.5,-0.945122,-3.62805,-10.2004,-0.0526904,-0.677791,-0.0609756,-6.4939,6.31098
972.629,85.2922,-5.20712,0,9.74054,0.756826,2.03098,3.07927,-0.152439,-2.92683,-10.2004,-0.0934058,-0.728086,-1.28049,-7.59146,6.28049
972.639,85.2696,-5.17217,0,9.74054,0.759221,2.06451,3.29268,-0.182927,-2.86585,-10.1597,-0.179626,-0.775986,-2.46951,-8.71951,6.28049
972.649,85.2468,-5.14552,0,9.81719,0.768801,1.99745,3.5061,0.518293,-2.89634,-10.1453,-0.234712,-0.807122,-3.44512,-9.93902,5.64024
972.659,85.2241,-5.11723,0,9.8076,0.778381,1.9735,3.44512,1.09756,-2.80488,-10.107,-0.316143,-0.792751,-4.42073,-10.8841,5.39634
972.669,85.2048,-5.09683,0,9.74773,0.775986,1.96631,3.44512,1.76829,-2.5,-10.1046,-0.359253,-0.823887,-5.2439,-11.9512,5.21341
972.679,85.1853,-5.06624,0,9.72617,0.787961,2.02619,3.53659,2.56098,-2.37805,-10.0854,-0.416733,-0.773591,-5.94512,-12.5305,4.84756
972.689,85.1674,-5.04036,0,9.67827,0.787961,2.03098,3.62805,2.56098,-2.22561,-10.0902,-0.495769,-0.790356,-5.94512,-13.3537,4.66463
972.699,85.1508,-5.00956,0,9.66151,0.775986,2.07409,4.20732,2.43902,-2.28659,-10.0806,-0.519719,-0.764011,-6.06707,-14.4207,4.42073
972.71,85.1389,-4.99585,0,9.69025,0.771196,2.09564,4.96951,2.37805,-1.98171,-10.0567,-0.565225,-0.833467,-6.06707,-15.0305,4.20732
972.72,85.1225,-4.97337,0,9.70701,0.823887,2.03816,5.4878,2.37805,-1.70732,-10.0016,-0.584385,-0.787961,-5.79268,-15.4573,4.11585
972.729,85.1055,-4.9596,0,9.72138,0.835862,2.04295,5.85366,2.62195,-1.64634,-10.0136,-0.622705,-0.823887,-5.85366,-15.7317,4.17683
972.74,85.084,-4.93767,0,9.74054,0.845442,2.07648,5.54878,2.95732,-2.04268,-10.0136,-0.665815,-0.785566,-4.90854,-16.1585,3.9939
972.749,85.079,-4.89656,0,9.77886,0.790356,2.07888,5.73171,3.71951,-1.37195,-10.0758,-0.723296,-0.701741,-4.48171,-17.0427,3.59756
972.759,85.0646,-4.85622,0,9.77647,0.831072,2.15073,5.73171,4.35976,-1.64634,-10.1214,-0.756826,-0.701741,-4.14634,-17.8354,3.38415
972.769,85.0556,-4.80729,0,9.70941,0.795146,2.16989,5.42683,4.45122,-1.61585,-10.1142,-0.737666,-0.656235,-3.75,-18.5366,3.17073
972.779,85.0461,-4.78573,0,9.73575,0.799937,2.17228,5.54878,4.20732,-1.64634,-10.0279,-0.740061,-0.764011,-2.77439,-18.9939,3.2622
972.789,85.0307,-4.73074,0,9.6663,0.835862,2.19863,5.7622,4.14634,-1.61585,-9.99921,-0.718506,-0.61073,-2.65244,-19.8171,3.56707
972.799,85.0153,-4.65205,0,9.64714,0.831072,2.23455,5.82317,3.29268,-1.70732,-10.0136,-0.687371,-0.498164,-2.59146,-21.0671,3.44512
972.81,84.9873,-4.57191,0,9.616,0.895737,2.31119,6.06707,3.5061,-2.0122,-10.0687,-0.684976,-0.481399,-2.92683,-22.0427,3.68902
972.82,84.9703,-4.48232,0,9.55852,0.840652,2.23695,6.28049,3.53659,-1.70732,-10.016,-0.65384,-0.423918,-2.68293,-23.0488,4.08537
972.829,84.9622,-4.37865,0,9.59205,0.783171,2.34472,6.15854,3.23171,-1.79878,-10.0256,-0.656235,-0.347278,-2.31707,-24.1463,3.96341
972.839,84.9524,-4.27509,0,9.65193,0.785566,2.33035,6.09756,2.71341,-1.98171,-10.0184,-0.651445,-0.330513,-2.31707,-25.4268,4.17683
972.849,84.9369,-4.15761,0,9.67348,0.811912,2.36149,6.06707,2.83537,-2.19512,-10.0088,-0.62989,-0.251477,-1.95122,-26.4634,4.57317
972.859,84.9127,-4.03361,0,9.69025,0.898132,2.28724,6.28049,2.77439,-1.89024,-10.0351,-0.579595,-0.203577,-1.61585,-27.4695,4.66463
972.869,84.8796,-3.93342,0,9.68306,0.938848,2.32317,5.79268,2.80488,-2.31707,-10.0136,-0.584385,-0.287402,-1.28049,-28.3537,4.87805
972.879,84.8617,-3.83134,0,9.63277,0.802332,2.34233,6.98171,3.56707,-2.65244,-9.98244,-0.56762,-0.261057,-1.46341,-28.7805,4.93902
972.889,84.8245,-3.72287,0,9.62558,0.977168,2.31119,6.09756,4.08537,-2.19512,-9.97047,-0.598755,-0.215552,-1.28049,-29.5427,5.09146
972.899,84.7964,-3.58976,0,9.56331,0.914897,2.3543,6.03659,3.17073,-2.16463,-9.96328,-0.574805,-0.0886157,-1.55488,-29.939,5.12195
972.91,84.7804,-3.42969,0,9.60882,0.852627,2.33514,5.91463,3.56707,-1.98171,-9.98484,-0.6251,0.0526904,-2.34756,-30.3049,5.15244
972.92,84.7649,-3.27254,0,9.61361,0.850232,2.36149,6.70732,3.56707,-2.0122,-9.99202,-0.6251,0.0670605,-2.40854,-31.1585,5.33537
972.93,84.7498,-3.10792,0,9.65432,0.807122,2.33514,6.70732,3.17073,-2.59146,-10.0303,-0.684976,0.126936,-2.7439,-32.1951,5.57927
972.939,84.7356,-2.94865,0,9.6663,0.747246,2.38065,6.76829,3.14024,-3.2622,-10.0471,-0.749641,0.131726,-2.53049,-32.9573,6.09756
972.949,84.7169,-2.78445,0,9.70222,0.761616,2.4046,7.13415,2.28659,-3.56707,-9.98484,-0.764011,0.179626,-1.70732,-33.75,6.09756
972.959,84.6952,-2.6179,0,9.67348,0.771196,2.33275,7.07317,1.43293,-3.75,-9.95849,-0.759221,0.217947,-0.914634,-33.872,6.15854
972.97,84.6547,-2.45548,0,9.70701,0.900527,2.33275,6.64634,1.70732,-4.14634,-9.92975,-0.747246,0.227527,-0.548781,-34.5427,6.46341
972.979,84.6063,-2.30187,0,9.67827,0.950823,2.28245,6.03659,2.16463,-4.39024,-9.84832,-0.759221,0.215552,0.0609756,-34.2988,6.46341
972.99,84.5609,-2.13434,0,9.72857,0.900527,2.29203,5.88415,3.44512,-4.84756,-9.82916,-0.778381,0.301772,0.548781,-34.3598,6.25
972.999,84.5106,-1.91671,0,9.64953,0.922083,2.36628,6.34146,3.65854,-5.09146,-9.88664,-0.799937,0.550855,0.457317,-34.8171,6.28049
973.01,84.4581,-1.69665,0,9.68067,0.914897,2.34233,6.37195,3.71951,-5.54878,-9.89622,-0.795146,0.598755,1.21951,-35.9451,5.91463
973.02,84.4032,-1.46597,0,9.76928,0.965193,2.41178,6.21951,2.80488,-5.39634,-9.99202,-0.787961,0.689766,1.98171,-36.3415,6.12805
973.03,84.3532,-1.23631,0,9.81719,0.924478,2.42136,5.51829,3.07927,-5.54878,-9.99921,-0.771196,0.725691,2.65244,-36.8902,6.25
973.04,84.2894,-1.01123,0,9.80521,1.03225,2.54351,5.27439,1.98171,-5.7622,-9.96089,-0.716111,0.742456,3.04878,-37.3171,6.7378
973.049,84.2175,-0.775183,0,9.84353,1.0562,2.54351,4.54268,3.04878,-6.4939,-9.91299,-0.675395,0.826282,3.96341,-37.3171,7.07317
973.059,84.143,-0.545817,0,9.68306,1.07297,2.60339,4.11585,0.579268,-6.4939,-9.8603,-0.682581,0.833467,4.42073,-37.439,7.43902
973.07,84.0634,-0.297108,0,9.64714,1.09213,2.47166,3.75,0.335366,-6.89024,-9.76449,-0.718506,0.948428,5.70122,-37.7744,7.62195
973.079,83.9846,-0.0256275,0,9.4723,1.04183,2.42376,2.92683,-0.152439,-7.34756,-9.74294,-0.761616,1.08734,6.0061,-38.4756,7.80488
973.089,83.916,0.240206,0,9.331,0.946033,2.42855,2.10366,-1.03659,-7.46951,-9.7597,-0.747246,1.11129,6.79878,-38.6585,7.7439
973.099,83.8488,0.495366,0,9.45075,0.926873,2.48843,2.89634,-1.21951,-7.83537,-9.74294,-0.732876,1.10889,7.65244,-38.4756,7.77439
973.11,83.7548,0.795605,0,9.51781,1.13045,2.39262,3.10976,-1.79878,-8.32317,-9.73336,-0.704136,1.3484,7.62195,-38.3841,7.53049
973.12,83.6586,1.09568,0,9.51062,1.17116,2.49082,3.75,-3.29268,-8.23171,-9.67348,-0.608335,1.39151,7.31707,-37.8963,7.43902
973.13,83.5638,1.3761,0,9.60642,1.14961,2.41418,3.47561,-2.56098,-8.68902,-9.77647,-0.56283,1.37235,7.22561,-37.6524,7.07317
973.139,83.4858,1.66485,0,9.72138,0.991538,2.39741,3.07927,-2.16463,-9.20732,-9.77407,-0.546064,1.45857,6.85976,-36.4329,6.25
973.149,83.3932,1.9479,0,9.60403,1.06099,2.48603,3.71951,-3.53659,-9.87805,-9.72857,-0.538879,1.47773,6.37195,-35.4878,5.67073
973.159,83.3228,2.23526,0,9.72138,0.941243,2.39262,3.81098,-2.56098,-9.39024,-9.61121,-0.490979,1.52802,6.52439,-34.5427,5.18293
973.169,83.2497,2.54418,0,9.89143,0.958008,2.33035,4.14634,-3.01829,-9.78659,-9.53697,-0.483794,1.65975,6.61585,-33.0793,5.21341
973.179,83.136,2.85807,0,9.70701,1.27655,2.18665,4.02439,-3.90244,-10.0915,-9.47949,-0.498164,1.72441,6.52439,-32.5,5.27439
973.189,83.0301,3.19883,0,9.78605,1.26457,2.06211,3.38415,-2.86585,-9.78659,-9.50104,-0.538879,1.89925,6.12805,-32.0427,5.2439
973.199,82.9362,3.52033,0,9.7621,1.17356,2.05972,2.28659,-1.06707,-9.81707,-9.45314,-0.603545,1.86572,6.0061,-30.9146,5.03049
973.21,82.8439,3.86085,0,9.65911,1.13524,1.9735,2.62195,-0.914634,-10.1524,-9.35495,-0.62031,1.98308,5.70122,-30.4573,4.78659
973.22,82.7706,4.18605,0,9.38848,1.0586,2.11001,2.46951,-0.335366,-8.96341,-9.29747,-0.63468,1.96392,6.52439,-29.4207,4.35976
973.23,82.7008,4.52112,0,9.55373,1.09213,2.09325,2.7439,1.15854,-8.56707,-9.19927,-0.517324,2.04056,6.64634,-28.4146,4.08537
973.239,82.5967,4.88568,0,9.57529,1.37235,2.10283,4.11585,1.43293,-8.87195,-9.15376,-0.490979,2.213,6.28049,-27.561,4.02439
973.25,82.4974,5.2521,0,9.43877,1.36277,2.18426,4.14634,-0.518293,-8.47561,-9.11065,-0.402363,2.27287,6.03659,-26.4024,4.20732
973.259,82.4544,5.60853,0,9.4723,1.04662,2.15791,3.93293,0.243902,-6.82927,-9.137,-0.421523,2.29922,5.27439,-25.9146,4.11585
973.269,82.3761,5.95989,0,9.55613,1.32684,2.1148,4.45122,1.21951,-7.2561,-9.14897,-0.387993,2.34233,4.81707,-24.4512,4.08537
973.28,82.3044,6.31484,0,9.55613,1.31726,2.11001,4.66463,1.70732,-6.85976,-9.16813,-0.378413,2.42376,4.14634,-23.2012,4.11585
973.289,82.2418,6.69057,0,9.38369,1.34121,2.34472,5.15244,-0.27439,-5.4878,-9.18969,-0.368833,2.58183,3.5061,-22.2866,3.90244
973.299,82.2209,7.02003,0,9.66151,1.1544,2.213,4.45122,1.09756,-4.11585,-9.18729,-0.371228,2.44531,2.92683,-21.372,3.9939
973.31,82.1216,7.36469,0,9.65432,1.63819,2.26808,5.60976,-0.243902,-6.34146,-9.17292,-0.332908,2.56507,2.53049,-20.3659,4.11585
973.32,82.0234,7.72502,0,9.54655,1.64059,2.29682,5.54878,0.792683,-6.18902,-9.15856,-0.347278,2.68961,2.34756,-19.7561,4.42073
973.33,81.9382,8.06845,0,9.67827,1.54958,2.27048,5.82317,2.95732,-6.40244,-9.18729,-0.402363,2.68721,2.10366,-18.9634,4.7561
973.339,81.8535,8.38923,0,9.48428,1.57592,2.27287,5.4878,0.0914634,-5.82317,-9.23999,-0.438289,2.66326,2.04268,-18.2012,4.7561
973.349,81.7553,8.72732,0,9.47949,1.71483,2.31838,5.73171,1.34146,-5.70122,-9.24957,-0.493374,2.79978,2.10366,-17.439,5.09146
973.359,81.6654,9.06028,0,9.46991,1.69807,2.42136,6.21951,0.335366,-5.21341,-9.21364,-0.524509,2.82612,1.7378,-16.7378,5.27439
973.369,81.5736,9.39045,0,9.58247,1.74597,2.38783,5.82317,0.457317,-5.27439,-9.20885,-0.488584,2.87163,1.92073,-15.9146,5.51829
973.38,81.4786,9.71947,0,9.50583,1.80345,2.37107,5.39634,-0.27439,-4.90854,-9.20646,-0.502954,2.92432,1.4939,-15.6098,5.82317
973.389,81.4112,10.0526,0,9.49146,1.70765,2.31359,4.2378,1.43293,-3.20122,-9.20406,-0.481399,3.00096,0.762195,-14.9085,5.42683
973.399,81.3247,10.3446,0,9.4268,1.86572,2.4549,4.05488,-0.304878,-3.07927,-9.19687,-0.505349,2.87402,0.548781,-14.2988,5.60976
973.41,81.3394,10.618,0,9.83395,1.35558,2.43813,2.83537,2.86585,-1.0061,-9.15376,-0.459844,2.83091,0.365854,-13.0488,5.85366
973.42,81.231,10.9249,0,9.44117,2.06451,2.48124,3.93293,0,-2.80488,-9.15137,-0.438289,3.0273,0,-12.7439,6.12805
973.43,81.1567,11.2187,0,9.58487,1.85375,2.42615,3.5061,0.457317,-2.65244,-9.19927,-0.464634,3.03928,-0.396341,-12.5,6.09756
973.439,81.0874,11.477,0,9.55613,1.83219,2.33993,2.86585,1.43293,-2.31707,-9.22562,-0.500559,2.94108,-0.640244,-11.8598,5.94512
973.449,81.0134,11.7321,0,9.50823,1.86572,2.27527,1.70732,0.945122,-1.7378,-9.22322,-0.589175,2.97222,-0.182927,-11.6463,5.82317
973.46,80.9448,11.9942,0,9.41243,1.79147,2.36628,1.85976,1.21951,-1.12805,-9.21364,-0.608335,3.04646,-0.213415,-10.7012,5.67073
973.469,80.8907,12.2288,0,9.45075,1.70286,2.36628,2.19512,-0.457317,-0.487805,-9.18969,-0.673001,2.96264,-0.121951,-10.3659,5.54878
973.48,80.8437,12.4587,0,9.52739,1.68609,2.33275,2.10366,-0.701219,0.0914634,-9.15616,-0.720901,2.97222,0.0914634,-9.66463,5.2439
973.49,80.8158,12.6902,0,9.58726,1.6813,2.32556,1.25,-1.15854,0.457317,-9.15376,-0.773591,3.02012,0.518293,-8.93293,5.12195
973.499,80.7831,12.8887,0,9.54655,1.69567,2.2609,1.06707,-1.40244,0.457317,-9.20885,-0.799937,2.9315,1.25,-8.29268,5.03049
973.51,80.7762,13.0917,0,9.61361,1.61185,2.31838,0.670732,-0.518293,0.518293,-9.20646,-0.799937,2.98659,1.43293,-8.10976,5.39634
973.519,80.7866,13.2829,0,9.63756,1.5376,2.33993,0.243902,-0.792683,0.396341,-9.20166,-0.780776,2.96743,1.82927,-6.85976,5.36585
973.53,80.8106,13.4723,0,9.63756,1.48012,2.28245,0.0609756,-0.701219,0.579268,-9.16574,-0.740061,2.9818,1.61585,-6.76829,5.51829
973.539,80.8382,13.634,0,9.62319,1.45857,2.27048,-0.304878,-1.03659,0.609756,-9.19687,-0.680186,2.90037,1.79878,-6.03659,5.94512
973.549,80.8641,13.7934,0,9.60403,1.46575,2.2106,-0.243902,-1.18902,0.0609756,-9.18969,-0.63468,2.91234,1.67683,-5.21341,6.03659
973.56,80.8797,13.9549,0,9.55852,1.4897,2.1651,-0.182927,-1.09756,0.121951,-9.26154,-0.61073,2.97222,1.55488,-5.09146,6.06707
973.57,80.8957,14.0978,0,9.59684,1.4897,2.26808,-0.457317,-0.853659,0.0609756,-9.31663,-0.613125,2.9339,1.76829,-4.7561,5.85366
973.579,80.9162,14.2296,0,9.6184,1.47054,2.28485,-0.731707,-0.304878,-0.0609756,-9.2807,-0.598755,2.88839,1.52439,-4.05488,5.7622
973.589,80.9339,14.3748,0,9.63756,1.47054,2.21779,-0.762195,0.0304878,-0.182927,-9.27831,-0.632285,2.96024,1.67683,-3.68902,5.79268
973.599,80.9519,14.5177,0,9.69264,1.47294,2.1651,-0.731707,0.304878,-0.182927,-9.28789,-0.60115,2.96743,1.7378,-3.32317,5.54878
973.61,80.9761,14.6522,0,9.69743,1.42983,2.19863,-0.670732,0.97561,-0.365854,-9.24717,-0.617915,2.91474,2.04268,-2.77439,5.54878
973.619,81.0185,14.7915,0,9.7118,1.39151,2.20581,-0.487805,1.37195,-0.0609756,-9.22322,-0.59636,2.88121,1.98171,-2.0122,5.73171
973.63,81.043,14.9324,0,9.68067,1.42743,2.19623,-0.121951,1.18902,-0.243902,-9.24717,-0.57241,2.86444,1.98171,-1.55488,5.82317
973.639,81.0682,15.0758,0,9.63516,1.42983,2.213,-0.0914634,1.12805,-0.0914634,-9.26633,-0.570015,2.92432,1.70732,-1.67683,5.85366
973.649,81.0947,15.2195,0,9.57289,1.3963,2.20581,-0.152439,1.46341,-0.304878,-9.33579,-0.555645,2.90276,1.52439,-1.12805,5.85366
973.659,81.1265,15.3636,0,9.53218,1.37235,2.20342,0.0914634,1.21951,-0.27439,-9.35255,-0.584385,2.91953,1.37195,-1.0061,5.85366
973.67,81.1519,15.5139,0,9.55134,1.3963,2.23934,0.0609756,1.43293,-0.213415,-9.41722,-0.548459,2.97461,1.18902,-0.884146,5.82317
973.679,81.1648,15.654,0,9.59684,1.40827,2.28006,-0.0304878,1.21951,-0.640244,-9.39806,-0.550855,2.94108,1.09756,-0.731707,6.18902
973.69,81.1731,15.8126,0,9.59445,1.43462,2.32556,0.0914634,1.0061,-0.518293,-9.35016,-0.524509,2.92192,0.914634,-0.365854,6.25
973.699,81.1759,16.0088,0,9.59445,1.45138,2.31838,0.335366,0.548781,-0.609756,-9.29028,-0.510139,2.93629,0.457317,-0.0914634,6.67683
973.71,81.1657,16.2138,0,9.5705,1.50168,2.33754,0.213415,0.213415,-0.701219,-9.25675,-0.510139,2.96982,0.548781,-0.0914634,6.7378
973.719,81.1517,16.3736,0,9.52978,1.51844,2.34233,0.152439,0.396341,-0.518293,-9.26394,-0.502954,2.94348,0.487805,-0.121951,6.70732
973.729,81.1426,16.5279,0,9.53936,1.50407,2.29922,-0.426829,0.548781,-0.457317,-9.26394,-0.543669,2.96982,0.0914634,0.152439,6.4939
973.74,81.1518,16.5915,0,9.58008,1.44659,2.38304,-0.213415,0.548781,-0.304878,-9.31663,-0.555645,2.90755,0.182927,0.701219,6.21951
973.749,81.1575,16.6412,0,9.63277,1.44899,2.3567,0.121951,0.518293,-0.579268,-9.35255,-0.560435,2.90755,0.304878,0.823171,6.34146
973.759,81.1561,16.6541,0,9.60403,1.47054,2.33275,-0.0609756,0.27439,-0.670732,-9.38129,-0.56283,2.84289,0.396341,1.28049,6.21951
973.77,81.1579,16.6958,0,9.5681,1.45857,2.29443,-0.121951,0.0914634,-0.548781,-9.34776,-0.61073,2.92432,-0.121951,1.40244,6.89024
973.779,81.1556,16.7323,0,9.55852,1.46336,2.26808,-0.27439,-0.121951,-0.762195,-9.34537,-0.58678,2.90995,-0.426829,1.28049,6.64634
973.79,81.158,16.7653,0,9.53936,1.43941,2.27527,-0.518293,-0.152439,-0.762195,-9.30944,-0.5772,2.89318,0,1.25,6.82927
973.799,81.1534,16.8126,0,9.5226,1.47294,2.24413,-0.396341,0.243902,-0.670732,-9.27591,-0.560435,2.92911,-0.182927,1.28049,6.89024
973.81,81.146,16.839,0,9.56571,1.49928,2.27048,-0.701219,0.152439,-0.518293,-9.25915,-0.565225,2.886,-0.487805,1.79878,6.76829
973.819,81.1398,16.8922,0,9.58487,1.49928,2.2585,-0.670732,0.548781,-0.487805,-9.23759,-0.529299,2.9794,-0.670732,1.95122,6.76829
973.83,81.1342,16.9324,0,9.62319,1.50647,2.27048,-0.609756,0.243902,-0.426829,-9.26873,-0.555645,2.96264,-0.792683,2.19512,6.37195
973.84,81.1306,16.9624,0,9.63995,1.50407,2.33035,-0.518293,0.27439,-0.365854,-9.2807,-0.526904,2.94348,-0.731707,2.56098,6.12805
973.85,81.1397,16.9924,0,9.62079,1.47294,2.3064,-0.365854,0.670732,0.0914634,-9.26154,-0.512534,2.94348,-0.853659,2.62195,6.37195
973.859,81.1349,17.0216,0,9.60403,1.50647,2.24413,-0.182927,0.731707,-0.243902,-9.31902,-0.534089,2.96264,-0.426829,2.46951,6.40244
973.87,81.1326,17.0393,0,9.60642,1.49928,2.2585,-0.304878,0.609756,-0.213415,-9.31184,-0.546064,2.92432,-0.457317,2.86585,6.52439
973.879,81.1244,17.0643,0,9.56331,1.51365,2.27287,-0.152439,0.792683,-0.213415,-9.30705,-0.56762,2.95785,-0.609756,3.04878,6.43293
973.89,81.131,17.0709,0,9.57768,1.46815,2.27527,-0.182927,0.823171,-0.152439,-9.35974,-0.548459,2.90276,-0.884146,2.9878,6.40244
973.899,81.1481,17.0844,0,9.58247,1.4418,2.22737,0.121951,0.304878,0.0914634,-9.33579,-0.505349,2.92432,-0.945122,2.92683,6.31098
973.91,81.1456,17.0991,0,9.60882,1.50647,2.2106,-0.0609756,0.152439,0.0609756,-9.34776,-0.505349,2.93869,-0.945122,3.41463,6.06707
973.92,81.1513,17.1062,0,9.58726,1.47294,2.27766,-0.0609756,0.243902,-0.0609756,-9.31423,-0.526904,2.89797,-1.09756,3.35366,6.18902
973.929,81.1604,17.1091,0,9.57289,1.47054,2.24892,-0.0914634,0.27439,0.426829,-9.3286,-0.495769,2.886,-1.09756,3.32317,6.28049
973.939,81.1732,17.1049,0,9.57529,1.45138,2.28006,-0.213415,0.579268,0.27439,-9.31423,-0.546064,2.85247,-1.25,3.53659,6.46341
973.949,81.1821,17.1049,0,9.55613,1.45857,2.3088,-0.152439,0.365854,0.152439,-9.34537,-0.574805,2.87881,-1.52439,3.41463,6.18902
973.959,81.1988,17.0909,0,9.60642,1.43701,2.26808,-0.213415,0.640244,0.182927,-9.31663,-0.593965,2.81175,-1.70732,3.29268,6.31098
973.969,81.2138,17.0777,0,9.616,1.42504,2.2609,-0.213415,1.12805,-0.243902,-9.36453,-0.60594,2.82612,-1.89024,3.47561,6.21951
973.98,81.2237,17.0484,0,9.59205,1.45138,2.27048,-0.182927,1.37195,0.0304878,-9.36213,-0.59157,2.75427,-1.46341,3.65854,6.06707
973.99,81.2407,17.0252,0,9.61121,1.42983,2.25371,-0.426829,1.15854,0.0609756,-9.43159,-0.555645,2.79499,-1.58537,3.71951,6.09756
973.999,81.254,16.9947,0,9.58247,1.43462,2.29203,-0.335366,0.945122,0,-9.41961,-0.57241,2.75427,-1.28049,4.05488,6.0061
974.01,81.2595,16.9621,0,9.57768,1.4418,2.28245,-0.365854,1.21951,-0.304878,-9.38608,-0.555645,2.73032,-1.09756,4.14634,5.82317
974.02,81.2633,16.9279,0,9.57289,1.44659,2.33514,-0.121951,1.28049,-0.304878,-9.41722,-0.548459,2.72793,-1.03659,3.75,5.60976
974.03,81.2699,16.8943,0,9.58966,1.45617,2.22976,-0.182927,1.21951,0.152439,-9.40524,-0.541274,2.72074,-0.97561,3.75,5.42683
974.039,81.2826,16.8678,0,9.58008,1.43222,2.32556,-0.27439,1.25,0.152439,-9.41003,-0.529299,2.74709,-1.18902,3.71951,5.2439
974.049,81.2998,16.8407,0,9.59684,1.41306,2.27527,-0.121951,1.43293,-0.0609756,-9.4268,-0.534089,2.74469,-1.21951,3.71951,5.15244
974.059,81.3211,16.7987,0,9.60642,1.40109,2.32556,0.0914634,1.18902,0.0914634,-9.40524,-0.498164,2.66805,-1.09756,3.9939,5.21341
974.069,81.3361,16.7628,0,9.58008,1.40588,2.31359,0.304878,1.12805,-0.152439,-9.40764,-0.510139,2.68721,-1.09756,4.08537,5.36585
974.08,81.3491,16.7431,0,9.58726,1.41067,2.32077,-0.0609756,1.06707,-0.152439,-9.4268,-0.548459,2.75667,-1.43293,4.11585,5.4878
974.089,81.3663,16.7095,0,9.58008,1.40348,2.33035,0.152439,0.853659,0.0609756,-9.40285,-0.589175,2.68961,-1.58537,3.47561,5.39634
974.099,81.366,16.675,0,9.53697,1.4442,2.3064,0.213415,1.25,-0.152439,-9.41482,-0.55325,2.68482,-1.25,3.2622,5.36585
974.11,81.3615,16.6422,0,9.49865,1.45378,2.36388,0.365854,1.0061,-0.0914634,-9.4268,-0.555645,2.68721,-1.37195,3.44512,5.39634
974.12,81.3507,16.6081,0,9.54176,1.4897,2.37586,0.0304878,1.06707,0.121951,-9.43159,-0.543669,2.68003,-1.34146,3.17073,5.2439
974.13,81.3399,16.5763,0,9.53936,1.48252,2.39262,-0.0304878,0.670732,-0.182927,-9.44835,-0.548459,2.68961,-1.03659,3.01829,5.06098
974.139,81.3371,16.54,0,9.57289,1.47533,2.3543,0.304878,0.27439,0.213415,-9.45554,-0.56283,2.67045,-1.28049,2.77439,5.42683
974.149,81.3316,16.5135,0,9.58008,1.50647,2.38544,0.243902,0.365854,0.548781,-9.46512,-0.529299,2.70877,-1.25,2.53049,5.09146
974.159,81.3228,16.4815,0,9.56331,1.52802,2.39023,0.304878,0.365854,0.670732,-9.46751,-0.546064,2.68961,-1.70732,2.16463,5.09146
974.169,81.3169,16.4243,0,9.55134,1.54718,2.35191,0.182927,0.365854,1.09756,-9.51062,-0.522114,2.62255,-1.09756,1.67683,5.33537
974.18,81.3117,16.3653,0,9.54415,1.54,2.31359,0.152439,0.0304878,1.06707,-9.54415,-0.534089,2.64171,-1.15854,1.15854,5.27439
974.189,81.3126,16.3176,0,9.54655,1.53281,2.36867,0.213415,0.792683,1.37195,-9.51062,-0.534089,2.67284,-1.37195,0.823171,5.27439
974.199,81.3156,16.22,0,9.52499,1.53521,2.3543,-0.0609756,0.152439,1.61585,-9.49625,-0.555645,2.60339,-1.06707,0.213415,5
974.21,81.3223,16.1584,0,9.50823,1.52084,2.37825,0,0.0914634,1.76829,-9.48907,-0.58199,2.6441,-0.884146,-0.27439,5.27439
974.22,81.3287,16.0908,0,9.49625,1.54239,2.35191,-0.121951,-0.182927,2.04268,-9.50583,-0.565225,2.5986,-0.487805,-0.640244,5.4878
974.229,81.3378,16.0492,0,9.50823,1.54,2.33514,-0.701219,-0.640244,2.22561,-9.5226,-0.6251,2.61536,-0.518293,-1.40244,5
974.239,81.3551,16.0163,0,9.51302,1.49449,2.36867,-0.701219,-0.27439,2.40854,-9.6184,-0.665815,2.62973,-0.609756,-2.65244,4.87805
974.249,81.3743,15.9973,0,9.55373,1.4921,2.39262,-0.701219,-0.548781,2.5,-9.69025,-0.61552,2.6944,-0.487805,-3.59756,4.69512
974.259,81.3991,15.986,0,9.58487,1.44899,2.3567,-0.457317,-0.304878,2.46951,-9.66151,-0.555645,2.71356,-0.609756,-5.15244,4.84756
974.269,81.4287,15.9522,0,9.6639,1.40588,2.33993,-0.365854,0.640244,2.2561,-9.63516,-0.56283,2.60099,-0.548781,-5.91463,5.06098
974.279,81.4622,15.9196,0,9.72617,1.39151,2.32077,-0.0304878,0.853659,2.43902,-9.63277,-0.570015,2.5986,-0.457317,-6.7378,5.15244
974.29,81.4891,15.8892,0,9.68306,1.40588,2.31119,0.152439,0.823171,2.07317,-9.68546,-0.598755,2.61536,0,-8.10976,4.87805
974.299,81.5054,15.8624,0,9.65911,1.41785,2.25611,0.518293,1.12805,1.18902,-9.70941,-0.60115,2.63213,0.213415,-9.14634,4.5122
974.31,81.5206,15.8123,0,9.61361,1.40588,2.28485,0.609756,1.37195,0.97561,-9.75491,-0.692161,2.53154,0.670732,-10.122,4.72561
974.32,81.5424,15.7559,0,9.66151,1.38432,2.24892,1.18902,1.58537,1.28049,-9.7118,-0.713716,2.48124,1.0061,-11.4634,5.12195
974.329,81.5655,15.7217,0,9.65911,1.36995,2.2106,1.25,2.13415,1.18902,-9.74294,-0.706531,2.57944,1.31098,-12.7744,5.03049
974.34,81.5854,15.689,0,9.55613,1.36516,2.24174,1.46341,2.10366,1.0061,-9.80281,-0.704136,2.59381,1.58537,-15.0305,5.39634
974.35,81.6113,15.6411,0,9.58008,1.33163,2.29203,1.76829,2.43902,0.914634,-9.85311,-0.725691,2.52914,1.61585,-16.9207,5.03049
974.359,81.6343,15.5928,0,9.57289,1.33882,2.36149,2.62195,2.28659,0.823171,-9.88185,-0.62989,2.52435,1.58537,-18.2927,4.96951
974.369,81.6742,15.5767,0,9.63756,1.27176,2.36149,2.43902,2.56098,0.365854,-9.83395,-0.608335,2.65129,1.52439,-20.0305,4.78659
974.379,81.7141,15.566,0,9.62319,1.20709,2.4046,2.56098,2.62195,-0.579268,-9.8579,-0.589175,2.67763,1.7378,-22.4085,4.69512
974.39,81.7466,15.5601,0,9.64714,1.1999,2.3543,2.46951,2.56098,-0.853659,-9.88664,-0.550855,2.70398,1.79878,-24.3598,4.57317
974.399,81.7681,15.5615,0,9.6184,1.17595,2.34472,2.83537,2.46951,-1.46341,-9.8603,-0.560435,2.72793,1.64634,-26.0366,4.84756
974.41,81.7739,15.5534,0,9.66869,1.26457,2.32317,3.20122,2.46951,-1.55488,-9.85072,-0.546064,2.68003,1.46341,-27.8963,4.66463
974.42,81.7788,15.5654,0,9.63516,1.27176,2.37107,3.2622,2.43902,-1.4939,-9.82677,-0.56283,2.76385,1.70732,-29.9695,4.69512
974.429,81.7833,15.5791,0,9.65911,1.28373,2.39502,3.01829,2.46951,-1.40244,-9.79803,-0.63468,2.76385,1.76829,-31.8293,4.78659
974.439,81.792,15.6115,0,9.62319,1.27415,2.40699,2.71341,2.68293,-1.18902,-9.80042,-0.603545,2.85247,1.98171,-34.0549,4.81707
974.449,81.8048,15.6361,0,9.58487,1.24302,2.4525,2.22561,2.53049,-1.21951,-9.80521,-0.661025,2.82133,1.85976,-36.4024,4.63415
974.46,81.8125,15.6395,0,9.58487,1.28852,2.46927,2.04268,2.10366,-1.0061,-9.77886,-0.65863,2.71835,2.53049,-38.1707,4.5122
974.469,81.8263,15.6311,0,9.62079,1.26457,2.42376,1.55488,1.64634,-0.945122,-9.74533,-0.62989,2.65368,2.95732,-39.3293,4.35976
974.479,81.8358,15.6484,0,9.60403,1.27176,2.4501,1.25,1.18902,-1.06707,-9.74054,-0.58678,2.76864,3.2622,-40.6707,4.29878
974.49,81.8436,15.6782,0,9.57768,1.23583,2.53393,2.16463,0.640244,-1.4939,-9.74054,-0.61552,2.82852,3.5061,-41.9512,3.96341
974.499,81.8318,15.7356,0,9.62798,1.30768,2.57704,2.83537,-0.609756,-2.22561,-9.75252,-0.646655,2.96503,4.35976,-43.872,4.35976
974.51,81.7983,15.7821,0,9.70462,1.45857,2.43813,1.18902,-2.07317,-2.56098,-9.80521,-0.692161,2.93869,5.51829,-45.6402,4.29878
974.52,81.743,15.8044,0,9.94652,1.64777,2.43334,-3.07927,-3.01829,-3.04878,-9.77407,-0.802332,2.82373,7.19512,-46.7683,4.42073
974.53,81.6653,15.853,0,10.2363,1.95913,2.03337,-10.7012,-5.06098,-2.10366,-9.83635,-0.910107,2.96743,9.02439,-49.3598,4.90854
974.539,81.6051,15.9332,0,10.0639,1.79866,2.39262,-17.6829,-11.4329,-1.95122,-9.87227,-0.946033,3.13508,10.6707,-52.5305,5.42683
974.549,81.5838,16.0111,0,9.87467,1.38672,2.51717,-15.9756,-10.9146,-3.04878,-9.82197,-0.936453,3.12071,12.4085,-55.3354,6.64634
974.559,81.5483,16.0888,0,9.4268,1.3005,2.75667,-10.3659,-9.5122,-4.78659,-9.9058,-0.941243,3.15903,13.8415,-57.7134,8.07927
974.569,81.5133,16.1412,0,9.05078,1.22625,3.17101,-6.70732,-8.68902,-5.09146,-10.0064,-0.934058,3.08239,14.6037,-58.7195,9.32927
974.579,81.4773,16.2943,0,9.20885,1.09213,2.86444,-5.60976,-4.35976,-7.19512,-9.97526,-0.878972,3.57337,15.5183,-60.2744,9.48171
974.589,81.3666,16.5458,0,8.87355,1.50407,3.00575,-5.2439,-7.46951,-9.05488,-10.004,-0.756826,4.10746,14.1463,-65.5183,9.5122
974.6,81.2799,16.7454,0,8.86157,1.22625,2.96982,-3.29268,-15.6707,-10.3963,-9.96807,-0.529299,3.87514,13.8415,-68.811,9.20732
974.61,81.2223,16.9024,0,9.42919,1.02986,2.28724,-2.89634,-20.6402,-10.9451,-9.88425,-0.464634,3.66917,13.2317,-69.939,8.2622
974.62,81.1972,17.0491,0,10.5237,0.843047,1.64298,-5.70122,-21.2195,-11.128,-9.74054,-0.428708,3.59492,13.689,-70.5183,7.5
974.63,81.1183,17.3611,0,10.2219,1.27415,1.88249,-7.53049,-22.9878,-11.5244,-9.51062,-0.289797,4.34696,12.8963,-73.7195,7.37805
974.639,81.0597,17.7092,0,10.6986,1.08734,2.09325,-6.09756,-20.7622,-12.2561,-9.25675,-0.258662,4.46911,13.3841,-76.8902,7.7439
974.649,81.0726,17.9815,0,10.9716,0.435894,1.41306,-7.53049,-22.3171,-12.2866,-9.09628,-0.359253,4.0883,14.7256,-77.4695,8.41463
974.66,81.0432,18.3595,0,10.3249,0.60115,1.14003,-6.89024,-17.2561,-14.4207,-8.93582,-0.440684,4.58167,15.9146,-76.8598,9.60366
974.669,81.0095,18.8101,0,9.77168,0.385598,1.80345,-4.35976,-19.0854,-17.1037,-8.78733,-0.584385,4.94332,17.378,-76.5549,10.6098
974.679,80.9721,19.2967,0,9.70222,0.136516,1.81542,0.396341,-17.0427,-20.5183,-8.71308,-0.64905,5.17803,17.439,-76.1281,11.2195
974.689,80.9111,19.8235,0,9.38369,0.172441,1.9735,1.85976,-24.8171,-22.5,-8.67716,-0.711321,5.47022,16.7073,-75.1219,11.6463
974.699,80.8464,20.3572,0,10.7369,0.100591,1.7316,8.41463,-23.7805,-24.0549,-8.62446,-0.718506,5.58758,15.9756,-73.1098,11.8293
974.71,80.7069,20.9671,0,10.5908,0.524509,1.5855,13.0183,-32.9573,-27.1341,-8.61728,-0.656235,6.12406,14.8171,-72.2561,11.6768
974.719,80.5294,21.6034,0,10.4471,0.665815,1.03944,12.4695,-22.9878,-29.6341,-8.52387,-0.419128,6.3492,13.4756,-71.7988,11.9817
974.729,80.3232,22.2465,0,10.5309,0.831072,1.42504,14.2378,-15.7622,-31.1585,-8.37299,-0.251477,6.42344,13.872,-70.2439,12.439
974.74,80.0844,22.9065,0,10.4255,1.02507,1.93997,16.5549,-16.4939,-32.6524,-8.19336,-0.100591,6.53601,13.7195,-67.4085,13.1402
974.749,79.7813,23.5602,0,10.0782,1.36516,2.34951,16.5854,-18.689,-35.4268,-8.1287,-0.00479004,6.60546,13.5366,-63.9939,13.872
974.759,79.4688,24.2484,0,10.8255,1.57113,1.42025,17.1646,-7.68293,-35.8841,-7.9826,0.0431104,6.85215,12.1341,-59.878,14.0549
974.77,79.1072,24.9554,0,9.65911,1.81782,1.96392,17.3171,-15.4573,-36.6463,-7.85087,0.00958008,7.02459,11.4329,-57.0122,13.1098
974.779,78.7463,25.6686,0,9.70222,1.90883,2.15073,15.9451,-10,-36.3415,-7.79579,0.00479004,7.19224,10.1829,-54.6646,12.0122
974.789,78.3723,26.3865,0,9.70222,2.0693,1.94476,15.6707,-9.96951,-36.5549,-7.64011,0.0838257,7.2617,9.05488,-51.0061,10.7927
974.799,77.9844,27.0969,0,9.57529,2.19863,2.12438,14.878,-13.9024,-36.9207,-7.49162,0.146096,7.25691,6.58537,-47.7439,9.72561
974.81,77.5893,27.8295,0,9.56331,2.33035,2.41897,14.3598,-16.1585,-36.8902,-7.34313,0.131726,7.44133,4.87805,-43.6585,8.53659
974.819,77.1915,28.5541,0,9.5202,2.36867,2.18186,14.4817,-19.0854,-37.4085,-7.2593,0.143701,7.49881,3.62805,-40.2134,7.77439
974.829,76.7695,29.2641,0,9.36692,2.52435,2.15073,13.5366,-23.689,-38.4146,-7.15153,0.136516,7.48444,2.89634,-36.2195,7.19512
974.84,76.3512,29.9666,0,9.31423,2.56028,2.10762,11.7683,-28.5671,-38.3232,-7.08686,0.0598755,7.55868,2.10366,-32.0122,7.04268
974.849,75.9472,30.6512,0,9.86988,2.57225,1.68849,9.29878,-28.0183,-39.2683,-7.08447,-0.00958008,7.62814,1.58537,-28.3232,6.55488
974.859,75.5156,31.315,0,9.92975,2.74948,1.78908,8.53659,-31.0061,-41.128,-7.06531,-0.0622705,7.65448,0.762195,-24.6037,6.43293
974.87,75.064,31.9601,0,10.1261,2.88121,1.65256,7.86585,-26.2195,-43.2317,-7.03178,-0.0838257,7.67364,-0.0304878,-21.1585,6.31098
974.879,74.5853,32.603,0,10.2172,3.06562,1.37235,6.64634,-27.0427,-45.2439,-7.00783,-0.0598755,7.81255,-0.579268,-17.6829,6.40244
974.889,74.0873,33.2232,0,10.2651,3.16382,1.37953,5.88415,-21.9207,-47.3171,-7.03657,-0.0670605,7.86764,-1.28049,-14.8476,6.67683
974.899,73.5892,33.8168,0,10.313,3.11832,1.4897,6.52439,-20.6098,-48.9634,-7.08686,-0.0790356,7.91314,-1.7378,-12.2256,6.67683
974.91,73.0628,34.3734,0,10.3034,3.25483,1.49449,8.23171,-19.2073,-51.4329,-7.13237,-0.126936,7.87243,-1.55488,-9.57317,6.58537
974.919,72.4784,34.917,0,9.91059,3.60929,1.07057,6.46341,-16.8598,-53.3537,-7.19464,-0.110171,8.00655,-1.67683,-7.46951,6.55488
974.929,71.8759,35.4358,0,9.83395,3.7506,1.07536,6.34146,-17.6829,-54.6341,-7.31678,-0.136516,8.11672,-1.03659,-5.97561,6.64634
974.94,71.2526,35.9407,0,9.62798,3.83922,1.14242,6.92073,-17.8963,-56.2195,-7.29762,-0.107776,8.12391,-1.12805,-4.45122,6.95122
974.949,70.6162,36.4325,0,9.63756,3.99729,1.14003,8.38415,-21.7073,-57.2256,-7.32157,-0.0550855,8.04966,-0.792683,-2.53049,7.40854
974.959,69.9682,37.0096,0,9.63037,4.06674,0.761616,8.29268,-20.4573,-58.9634,-7.29523,-0.0455054,8.07122,-0.792683,-0.914634,7.83537
974.969,69.2989,37.6297,0,9.67348,4.25116,0.905317,9.2378,-20.7012,-60.7622,-7.35271,-0.0431104,7.99937,-0.823171,0.304878,7.89634
974.979,68.6176,38.0587,0,9.73575,4.34217,0.699346,10.0915,-21.128,-62.7134,-7.30481,-0.0742456,7.96823,-0.945122,1.98171,8.14024
974.99,67.9169,38.4458,0,9.4723,4.39007,0.677791,9.54268,-20.6098,-64.3902,-7.27128,-0.0574805,7.95865,-1.52439,3.29268,8.35366
975,67.2053,38.7915,0,9.35016,4.48348,0.809517,10.6402,-21.3415,-65.3963,-7.27367,-0.0455054,7.84608,-1.85976,5.30488,8.38415
975.01,66.4857,39.1323,0,9.29268,4.56491,0.737666,12.0427,-25.0305,-66.5549,-7.21859,-0.0574805,7.85806,-2.56098,7.46951,8.32317
975.02,65.7453,39.4532,0,9.04359,4.73256,0.490979,10.5793,-24.5732,-67.1646,-7.24014,-0.0502954,7.84129,-2.62195,9.5122,8.44512
975.03,65.0209,39.7242,0,8.95737,4.70621,0.737666,11.1585,-26.2195,-66.8598,-7.25212,-0.0335303,7.60419,-2.7439,12.1646,8.53659
975.039,64.292,39.9665,0,8.92384,4.87147,0.316143,11.2195,-26.2195,-66.9207,-7.22098,-0.0694556,7.4557,-3.01829,15.122,8.29268
975.049,63.5541,40.1858,0,8.55262,5.04631,0.6251,9.84756,-30.2439,-65.4268,-7.23775,-0.0646655,7.38864,-2.65244,17.5305,8.20122
975.059,62.8778,40.3575,0,9.16813,5.02475,0.390388,8.14024,-22.622,-64.3598,-7.28804,-0.0287402,7.19224,-3.29268,19.6646,7.89634
975.069,62.1917,40.5251,0,8.79691,5.06307,0.289797,7.34756,-26.5854,-64.2988,-7.27367,-0.0910107,7.19703,-3.38415,21.6159,7.07317
975.079,61.5278,40.6668,0,8.89031,5.00799,0.490979,8.53659,-26.0061,-64.5122,-7.28565,-0.0742456,7.08926,-3.20122,22.8963,6.82927
975.089,60.8652,40.7703,0,8.87594,4.99362,0.359253,11.0976,-30.4573,-65.7927,-7.24493,-0.126936,6.85215,-3.23171,25.1524,6.52439
975.099,60.162,40.8918,0,8.37778,5.21635,0.58199,9.32927,-30.2439,-66.0976,-7.25451,-0.105381,6.99825,-3.23171,26.4329,6.34146
975.109,59.491,40.9779,0,8.85199,5.30976,0.325723,10.3354,-27.2561,-66.189,-7.22577,-0.117356,6.78749,-3.29268,28.9024,6.67683
975.12,58.8015,41.0479,0,8.47837,5.3864,0.0886157,9.93902,-29.1768,-66.4329,-7.17308,-0.0215552,6.66534,-3.01829,31.0976,7.04268
975.13,58.1193,41.0805,0,8.38975,5.4319,0.134121,10.2439,-27.7439,-66.0976,-7.12039,0.0383203,6.41865,-2.56098,32.7134,7.7439
975.14,57.414,41.114,0,8.10235,5.6259,-0.172441,7.86585,-27.561,-66.0671,-7.13716,0.0526904,6.44739,-2.53049,33.75,8.47561
975.149,56.7286,41.0756,0,8.0808,5.58758,0.162861,6.95122,-27.378,-65.7012,-7.24493,0.0383203,6.14802,-2.34756,34.6341,8.87195
975.159,56.0309,41.0416,0,8.06403,5.81271,-0.146096,6.34146,-25.0915,-66.0671,-7.32876,0.0215552,6.23663,-2.37805,36.4634,7.92683
975.169,55.347,40.9449,0,7.97062,5.74326,0.0143701,7.37805,-29.0244,-66.0976,-7.41259,0.0526904,5.95641,-2.19512,37.439,6.92073
975.18,54.6671,40.812,0,8.03529,5.9133,-0.0981958,7.34756,-29.1159,-65.9146,-7.55629,0.0574805,5.85822,-1.25,39.6037,5.4878
975.189,53.9633,40.6655,0,7.67125,6.06179,-0.280217,6.37195,-27.9268,-65.7317,-7.59461,0.0359253,5.78876,-0.792683,40.8232,4.29878
975.199,53.2865,40.5341,0,7.78142,6.05221,-0.213157,5.30488,-27.5915,-65.3049,-7.58503,0.0646655,5.83187,-1.0061,42.1951,3.59756
975.209,52.6269,40.3991,0,7.67125,5.95641,-0.306563,3.96341,-26.7073,-65.0305,-7.57305,0.0550855,5.77679,-1.70732,42.8963,3.01829
975.219,51.9377,40.2235,0,7.27128,6.04982,-0.107776,3.23171,-29.8171,-65.4573,-7.52036,-0.0359253,5.50136,-1.92073,44.6951,2.86585
975.23,51.2672,40.0609,0,7.33115,5.9636,-0.0934058,3.71951,-34.1463,-66.25,-7.5515,-0.110171,5.55645,-2.19512,46.2195,2.34756
975.239,50.6017,39.8765,0,7.33594,5.87498,-0.280217,3.81098,-36.7988,-67.9878,-7.54671,-0.193997,5.41035,-3.29268,46.9817,1.92073
975.249,49.9067,39.6768,0,7.12758,5.98994,-0.0311353,3.32317,-40.9451,-69.6037,-7.58263,-0.275427,5.32413,-3.56707,48.5671,1.70732
975.259,49.2277,39.4653,0,7.43654,6.0091,-0.486189,1.58537,-37.9573,-71.6463,-7.60898,-0.282612,5.24509,-4.32927,49.3293,1.31098
975.269,48.5479,39.2192,0,7.43893,5.95881,-0.833467,-0.304878,-36.4634,-73.5976,-7.58742,-0.273032,5.02236,-4.48171,50.7012,1.31098
975.279,47.8853,38.9633,0,7.58503,5.75284,-0.570015,-1.89024,-32.439,-76.3415,-7.66646,-0.191602,4.98164,-5.18293,52.4695,1.40244
975.289,47.202,38.6436,0,7.61616,5.98036,-0.514929,-1.43293,-31.189,-77.8354,-7.6928,-0.186812,4.65113,-5.18293,54.1159,1.70732
975.3,46.514,38.3361,0,7.84608,5.98276,-0.704136,-0.884146,-31.6159,-81.3719,-7.75268,-0.138911,4.68705,-5.64024,55.7927,2.07317
975.309,45.8026,38.0565,0,7.73831,6.22705,-0.883762,-0.731707,-28.75,-82.1037,-7.76465,-0.146096,4.76848,-6.64634,56.4329,2.43902
975.319,45.0561,37.723,0,7.32397,6.68689,-0.996328,-0.27439,-24.1463,-79.8476,-7.80776,-0.146096,4.49306,-8.53659,57.622,2.83537
975.33,44.3327,37.3919,0,7.36229,6.75635,-1.01309,-0.0609756,-20.7012,-78.7195,-7.85087,-0.124541,4.46911,-9.63415,58.1707,3.14024
975.339,43.5941,37.034,0,7.03178,6.73958,-1.1544,0.670732,-21.0671,-79.2073,-7.84848,-0.112566,4.28709,-10.3049,59.0854,3.04878
975.349,42.8279,36.7052,0,6.84018,6.77072,-1.20709,-0.762195,-15.3049,-81.6463,-7.85087,-0.0790356,4.35654,-11.4024,59.3598,3.32317
975.359,42.0861,36.3262,0,6.93119,6.56954,-0.910107,0.121951,-13.8415,-83.2622,-7.85327,-0.0910107,4.07632,-11.6768,60.061,3.32317
975.369,41.3525,35.9418,0,6.85455,6.56235,-1.35079,2.68293,-11.6768,-83.3537,-7.82453,-0.117356,3.97334,-12.439,61.128,3.23171
975.379,40.5651,35.5798,0,6.30609,6.77791,-1.04423,1.92073,-7.16463,-83.5671,-7.73591,-0.138911,3.95897,-13.0183,61.25,3.65854
975.389,39.7392,35.1784,0,6.22705,7.19943,-1.04902,2.5,-6.21951,-84.8781,-7.71675,-0.222737,3.72186,-13.8415,61.3415,3.53659
975.399,38.9103,34.8715,0,5.88935,7.26409,-0.958008,3.44512,-7.43902,-83.1402,-7.68562,-0.256267,4.0404,-14.7866,61.189,3.38415
975.409,38.0928,34.521,0,6.00671,7.57784,-1.1544,3.68902,-6.64634,-82.3781,-7.62095,-0.296982,3.76976,-15.6098,60.5793,3.38415
975.419,37.3021,34.1749,0,5.83906,7.30481,-1.14721,6.21951,-5.21341,-81.7988,-7.53713,-0.371228,3.69073,-15.7012,62.378,3.53659
975.43,36.4891,33.7789,0,5.44627,7.68801,-1.01788,5.67073,-1.89024,-78.9024,-7.49162,-0.474214,3.4129,-16.128,64.2378,3.87195
975.439,35.6696,33.3915,0,5.34089,8.10475,-1.05141,5.4878,-2.37805,-77.2866,-7.52036,-0.548459,3.39853,-15.1829,65,4.08537
975.449,34.9507,32.9368,0,5.44867,6.72521,-0.890947,7.34756,2.07317,-80.1829,-7.57545,-0.579595,3.09676,-14.8171,65.9146,4.26829
975.459,34.1466,32.5059,0,5.31694,7.76705,-0.943638,8.23171,3.20122,-80.9146,-7.66406,-0.61073,3.15664,-14.878,66.2195,4.20732
975.469,33.3878,32.1145,0,5.44388,7.64969,-0.773591,7.86585,1.95122,-80.061,-7.73352,-0.60115,3.27399,-14.8476,65.3049,4.90854
975.48,32.5813,31.6861,0,5.05349,7.29523,-0.761616,5.21341,1.46341,-85,-7.70478,-0.58678,3.05365,-15.061,65.7317,5.21341
975.49,31.796,31.2391,0,5.05589,7.85806,-0.744851,8.01829,3.59756,-80.4878,-7.83411,-0.593965,2.96503,-14.9085,66.8598,5.82317
975.5,30.9448,30.7852,0,4.56491,8.39933,-1.08494,8.14024,3.23171,-80.1829,-7.87482,-0.589175,2.8836,-14.4207,67.7439,6.06707
975.509,30.1106,30.2928,0,4.16973,8.98372,-0.56283,7.77439,3.96341,-72.7744,-8.06403,-0.5772,2.72793,-13.628,68.5976,6.06707
975.519,29.3775,29.8037,0,4.71579,8.74422,-1.22146,5.18293,4.45122,-71.189,-8.18618,-0.613125,2.70398,-13.4756,68.1707,5.57927
975.53,28.6014,29.2877,0,4.00208,9.16574,-0.979563,0.853659,6.40244,-67.3781,-8.35383,-0.617915,2.56986,-12.5,65.9451,5.2439
975.539,27.905,28.7471,0,4.39007,6.90245,-0.967588,3.59756,4.7561,-78.9329,-8.25084,-0.706531,2.36149,-11.311,67.6524,5.06098
975.549,27.116,28.2639,0,4.23439,7.49162,-0.780776,4.11585,0.304878,-83.7195,-8.53345,-0.732876,2.58662,-10.0915,64.3902,5.03049
975.559,26.215,27.7497,0,3.40572,8.49274,-0.407153,4.2378,-4.08537,-81.189,-8.28198,-0.718506,2.31359,-9.84756,65.9756,5.2439
975.569,25.4403,27.2581,0,4.04279,9.12263,-0.893342,9.63415,1.09756,-74.3293,-8.4137,-0.704136,2.35909,-9.90854,66.4024,5.51829
975.579,24.6336,26.7499,0,3.4129,9.36932,-0.814307,5.36585,-8.75,-71.25,-8.47837,-0.730481,2.23216,-9.42073,65.6707,5.85366
975.59,23.8542,26.2205,0,3.50152,8.88073,-1.17835,0.182927,-4.48171,-73.1707,-8.49274,-0.689766,2.07169,-8.90244,65.9146,6.4939
975.599,23.0806,25.6886,0,3.30992,9.42201,-0.981958,-5.7622,-11.0976,-69.7561,-8.59573,-0.677791,2.00224,-7.89634,65.7012,7.0122
975.609,22.3784,25.138,0,3.34105,9.58966,-0.718506,-5.21341,-9.57317,-63.75,-8.65081,-0.6251,1.85614,-7.53049,65.4878,7.40854
975.62,21.7377,24.5661,0,3.42009,8.87594,-0.907712,-1.98171,-5.51829,-62.7134,-8.67955,-0.651445,1.69088,-7.10366,66.311,7.56098
975.63,21.1613,24.0526,0,3.82964,8.75859,-0.946033,-1.34146,-6.61585,-62.6524,-8.78972,-0.682581,1.85614,-6.89024,65.7317,7.19512
975.639,20.5253,23.5594,0,3.12071,8.47837,-0.251477,-4.72561,-10.0305,-62.9573,-8.86636,-0.682581,1.87051,-7.34756,63.811,7.07317
975.65,19.8908,23.008,0,3.20454,8.29156,-0.613125,-0.762195,-10.8232,-65.9756,-8.82325,-0.687371,1.54718,-6.46341,62.7439,6.89024
975.659,19.138,22.4387,0,2.07169,9.39087,-0.704136,-3.20122,-17.3171,-61.6159,-8.78014,-0.593965,1.38193,-5.03049,62.9268,7.22561
975.669,18.4655,21.9012,0,2.59381,9.02443,-1.56155,-3.20122,-11.311,-62.2866,-8.83762,-0.548459,1.42743,-3.38415,62.8354,7.59146
975.68,17.8651,21.3881,0,3.24046,8.96216,-1.52802,-4.39024,-12.1037,-64.1463,-8.8951,-0.55325,1.44899,-3.53659,61.8902,7.92683
975.69,17.2133,20.9089,0,2.4501,8.88313,-0.905317,-0.579268,-12.3476,-61.5244,-8.95977,-0.56283,1.51365,-3.59756,61.0976,7.5
975.699,16.6607,20.4743,0,2.96982,9.25675,-1.54,1.37195,-3.65854,-57.561,-8.98611,-0.502954,1.62143,-3.2622,59.4207,7.68293
975.709,16.1111,20.0256,0,2.8381,8.94779,-0.955613,3.93293,-13.689,-57.9878,-8.98372,-0.486189,1.4921,-3.44512,57.8963,7.83537
975.72,15.5952,19.5524,0,2.94827,9.21364,-1.54239,1.82927,-8.04878,-55.9756,-8.95977,-0.490979,1.31726,-3.20122,57.9878,7.92683
975.73,15.0987,19.1293,0,2.7902,9.02443,-1.89446,-3.23171,-2.59146,-53.9024,-9.00767,-0.531694,1.45138,-3.35366,57.622,7.92683
975.74,14.5811,18.6922,0,2.51956,9.02443,-1.12326,-2.16463,-2.92683,-53.8415,-9.03641,-0.543669,1.32924,-3.56707,56.0366,7.71341
975.749,14.1503,18.2349,0,3.09197,9.02922,-1.36277,0.853659,3.93293,-52.7744,-9.01485,-0.546064,1.17356,-3.44512,55.3354,7.59146
975.759,13.6984,17.7663,0,2.77104,8.85918,-1.41785,2.16463,2.65244,-52.6829,-9.02922,-0.56283,1.0562,-3.56707,54.2988,7.80488
975.769,13.2675,17.3302,0,2.7902,8.87115,-1.40109,3.47561,9.39024,-51.6463,-9.06515,-0.617915,1.11608,-3.47561,53.811,7.68293
975.779,12.8398,16.8858,0,2.7902,9.14658,-1.19032,3.93293,11.2805,-51.189,-9.16334,-0.641865,1.02267,-3.71951,52.378,7.59146
975.79,12.3203,16.4549,0,1.87291,9.34297,-1.23344,4.45122,9.32927,-49.939,-9.23759,-0.63468,1.01309,-4.2378,51.5244,7.10366
975.799,11.836,16.0025,0,2.04535,9.44835,-1.36277,2.92683,14.8476,-49.2073,-9.32142,-0.632285,0.862207,-4.72561,50.9756,7.10366
975.81,11.3408,15.5299,0,1.75315,9.65432,-1.36277,2.65244,11.9207,-47.378,-9.4244,-0.598755,0.711321,-4.45122,50.4573,6.85976
975.82,10.8609,15.0501,0,1.73639,9.50583,-1.15919,2.0122,12.0732,-46.9512,-9.50344,-0.55804,0.608335,-4.20732,49.9695,6.64634
975.83,10.3979,14.5738,0,1.6837,9.40285,-1.18074,1.18902,15.7012,-45.7927,-9.57768,-0.502954,0.546064,-3.75,48.9329,7.04268
975.84,9.96491,14.0898,0,1.64777,9.46991,-0.768801,1.4939,11.2805,-43.1098,-9.5705,-0.536484,0.433499,-3.04878,48.628,7.16463
975.85,9.59032,13.5784,0,1.84177,9.41003,-0.452659,3.41463,8.75,-40.4878,-9.59684,-0.59157,0.237107,-2.28659,48.811,7.31707
975.859,9.14699,13.0531,0,1.0586,9.53218,-0.778381,2.56098,9.7561,-38.5976,-9.58247,-0.689766,0.0934058,-1.28049,49.3293,7.13415
975.869,8.67111,12.5669,0,0.661025,9.49625,-0.749641,2.43902,6.82927,-38.0183,-9.55373,-0.704136,0.170046,-0.701219,49.1463,6.89024
975.879,8.19558,12.0983,0,0.531694,9.70701,-1.06339,2.5,5.30488,-37.2256,-9.56092,-0.692161,0.162861,-0.365854,48.9939,6.06707
975.889,7.77803,11.6081,0,0.919688,9.76689,-1.18793,2.22561,-0.182927,-36.8598,-9.57289,-0.701741,-0.00718506,0.457317,47.9573,5.7622
975.899,7.33579,11.1284,0,0.63947,9.89622,-0.960403,1.55488,-3.35366,-36.7988,-9.64235,-0.65863,-0.0455054,0.518293,47.5,5.7622
975.909,6.926,10.6392,0,0.802332,9.7621,-1.37235,0.27439,0.792683,-36.4329,-9.67588,-0.656235,-0.167651,0.670732,47.0732,5.82317
975.919,6.50276,10.1597,0,0.61073,9.50583,-0.838257,-0.914634,-9.81707,-36.5549,-9.73815,-0.59636,-0.210762,0.548781,46.25,6.03659
975.93,6.13606,9.69534,0,0.955613,9.39087,-0.881367,-0.609756,-5.85366,-36.0061,-9.79803,-0.546064,-0.229922,0.304878,45.1524,7.07317
975.939,5.75126,9.24209,0,0.589175,9.44835,-0.761616,-1.4939,-9.20732,-34.0244,-9.84593,-0.505349,-0.263452,-0.0304878,43.9329,8.04878
975.95,5.46909,8.81587,0,1.22864,9.43638,-1.19032,-2.80488,-9.08537,-32.1951,-9.94173,-0.543669,-0.227527,-0.396341,42.439,9.08537
975.959,5.22944,8.39089,0,1.43462,9.17292,-1.19032,-1.64634,-8.87195,-31.4329,-9.93933,-0.541274,-0.296982,-0.457317,41.311,9.81707
975.969,4.99467,7.97159,0,1.32445,9.44596,-1.46815,-3.10976,-4.11585,-29.5732,-10.119,-0.526904,-0.354463,-0.335366,38.6585,9.96951
975.979,4.76543,7.54362,0,1.21427,9.43159,-1.37714,-3.07927,-2.62195,-28.1707,-9.96568,-0.531694,-0.459844,-0.792683,39.1768,10.0915
975.99,4.50889,7.11815,0,0.847837,9.4723,-1.35319,-3.01829,-3.41463,-26.8902,-10.0279,-0.514929,-0.526904,-0.27439,38.9329,9.66463
976,4.2484,6.68005,0,0.677791,9.36932,-1.2981,-1.12805,-3.2622,-25.8232,-10.0447,-0.455054,-0.65863,0.304878,39.0854,9.39024
976.009,3.99099,6.23597,0,0.589175,9.44835,-1.38911,-1.76829,-0.640244,-24.878,-10.0567,-0.349673,-0.764011,1.12805,38.3232,8.84146
976.019,3.71505,5.78934,0,0.237107,9.51062,-0.981958,-0.762195,-6.31098,-22.9268,-10.1549,-0.344883,-0.862207,1.67683,38.2927,8.53659
976.029,3.44926,5.34101,0,0.210762,9.60882,-1.19511,-1.31098,-6.67683,-22.1037,-10.1884,-0.325723,-0.953218,1.37195,37.7744,8.20122
976.039,3.18785,4.91307,0,0.0838257,9.75012,-1.08734,-1.92073,-10.2744,-20.6402,-10.3082,-0.308958,-0.953218,1.67683,36.8598,8.10976
976.049,2.96269,4.53246,0,0.205972,9.89862,-0.958008,-2.95732,-10.0915,-18.9024,-10.471,-0.380808,-0.828677,1.7378,35.0305,7.46951
976.06,2.77287,4.15848,0,0.325723,9.98963,-0.914897,-3.23171,-10.9146,-17.1341,-10.4926,-0.452659,-0.871787,2.68293,32.6829,7.62195
976.069,2.63944,3.77659,0,0.632285,9.88425,-0.977168,-4.7561,-12.0732,-15.4268,-10.4231,-0.517324,-0.972378,4.02439,31.4329,6.79878
976.079,2.53621,3.40666,0,0.701741,9.69264,-0.946033,-4.57317,-10.3659,-13.5976,-10.3465,-0.498164,-0.981958,4.7561,28.9939,6.55488
976.089,2.46222,3.01636,0,0.761616,9.58487,-1.08255,-3.93293,-8.2622,-11.6463,-10.1621,-0.455054,-1.12566,5.45732,25.9451,6.21951
976.099,2.4059,2.62321,0,0.728086,9.5681,-1.06099,-2.71341,-6.18902,-9.60366,-10.0519,-0.493374,-1.19751,6.67683,23.811,5.82317
976.109,2.37132,2.22284,0,0.732876,9.66869,-0.974773,-1.85976,-5.60976,-7.46951,-9.98723,-0.546064,-1.29331,7.37805,21.9817,5.57927
976.119,2.34847,1.81977,0,0.617915,9.81719,-1.1041,-3.10976,-7.04268,-4.87805,-9.89143,-0.538879,-1.36516,8.53659,19.7256,5.39634
976.13,2.32617,1.4245,0,0.452659,9.73815,-0.766406,-2.46951,-8.84146,-2.9878,-9.8603,-0.546064,-1.39869,8.93293,17.8354,5.88415
976.139,2.31828,1.02508,0,0.402363,9.7597,-0.890947,-2.5,-9.60366,-0.945122,-9.85311,-0.543669,-1.48731,9.60366,15.7317,6.18902
976.149,2.31226,0.616747,0,0.380808,9.74294,-0.977168,-2.43902,-11.9817,-0.182927,-9.86269,-0.500559,-1.59987,10,14.6341,6.4939
976.16,2.30563,0.236181,0,0.296982,9.79803,-1.13284,-3.14024,-12.9268,1.18902,-10.004,-0.421523,-1.57113,9.72561,13.75,6.76829
976.169,2.26832,-0.142964,0,0.100591,9.81719,-1.10889,-3.68902,-14.3902,1.37195,-10.0447,-0.419128,-1.64059,9.54268,12.5305,6.89024
976.179,2.22988,-0.506969,0,0.129331,9.77647,-1.02746,-3.81098,-15.0915,1.12805,-10.0735,-0.340093,-1.64538,8.68902,11.7683,6.70732
976.189,2.18564,-0.860353,0,0.229922,9.74294,-1.01788,-3.75,-15.5793,0.213415,-10.0399,-0.251477,-1.65735,7.65244,11.5244,6.76829
976.199,2.17166,-1.19419,0,0.332908,9.71899,-1.07776,-3.81098,-13.7195,-0.243902,-9.96807,-0.124541,-1.62143,6.43293,10.3659,7.10366
976.209,2.16831,-1.53059,0,0.399968,9.6663,-0.893342,-3.53659,-11.189,-1.06707,-9.92496,-0.0287402,-1.68609,5.09146,9.35976,7.16463
976.22,2.16984,-1.8556,0,0.433499,9.62558,-0.819097,-2.77439,-8.47561,-1.25,-9.88425,-0.0335303,-1.68849,4.05488,7.92683,7.68293
976.23,2.17137,-2.17442,0,0.457449,9.60163,-0.974773,-1.82927,-6.76829,-1.55488,-9.93694,-0.0407153,-1.72441,3.53659,5.91463,7.83537
976.239,2.15009,-2.48481,0,0.352068,9.73096,-1.04662,-1.31098,-5.39634,-1.92073,-10.0495,-0.146096,-1.74357,3.29268,4.2378,7.83537
976.249,2.1113,-2.80209,0,0.234712,9.78844,-1.08255,-2.46951,-4.17683,-1.95122,-10.0591,-0.301772,-1.76273,2.10366,2.89634,7.28659
976.259,2.06523,-3.133,0,0.193997,9.78366,-0.948428,-2.56098,-4.05488,-2.34756,-10.0351,-0.376018,-1.80584,2.04268,2.34756,6.7378
976.27,2.03276,-3.52832,0,0.265847,9.78126,-0.862207,-1.85976,-4.66463,-2.0122,-9.99921,-0.397573,-1.90404,2.04268,1.4939,6.18902
976.279,2.01055,-4.07848,0,0.347278,9.76449,-0.962798,-1.79878,-3.59756,-2.28659,-9.94412,-0.383203,-1.90404,2.43902,0.457317,6.4939
976.289,1.98078,-4.74483,0,0.289797,9.75731,-0.874182,-1.7378,-3.20122,-2.28659,-9.86748,-0.342488,-1.96871,3.01829,0.121951,6.79878
976.299,1.94902,-5.23584,0,0.244292,9.83874,-0.831072,-1.40244,-3.29268,-1.7378,-9.84353,-0.359253,-1.88967,3.17073,-0.426829,7.46951
976.309,1.88768,-5.63655,0,0.0574805,9.87467,-0.876577,-1.89024,-4.11585,-1.21951,-9.8579,-0.364043,-1.88009,3.44512,-0.640244,7.7439
976.319,1.83921,-5.9449,0,0.131726,9.77647,-0.857417,-1.58537,-5.82317,-0.97561,-9.87946,-0.325723,-1.90404,3.47561,-1.15854,8.04878
976.33,1.83013,-6.19757,0,0.323328,9.77168,-0.934058,-1.46341,-6.46341,-1.12805,-9.86988,-0.277822,-1.8753,3.93293,-1.55488,8.20122
976.339,1.81772,-6.42327,0,0.289797,9.83156,-0.986748,-2.10366,-7.22561,-0.731707,-9.87946,-0.210762,-1.8753,3.71951,-1.79878,8.10976
976.349,1.80397,-6.62619,0,0.285007,9.86509,-0.998723,-2.31707,-7.46951,-0.823171,-9.84832,-0.253872,-1.87291,3.2622,-2.16463,8.07927
976.36,1.78967,-6.84253,0,0.299377,9.78844,-0.922083,-2.22561,-8.04878,-1.31098,-9.78126,-0.208367,-1.93997,3.20122,-2.16463,7.92683
976.37,1.78071,-7.04958,0,0.316143,9.69983,-0.936453,-2.46951,-8.56707,-1.18902,-9.74054,-0.222737,-1.90883,3.68902,-2.0122,7.59146
976.379,1.79609,-7.25589,0,0.409548,9.73096,-0.914897,-2.0122,-8.2622,-0.853659,-9.74773,-0.249082,-1.95913,3.32317,-2.10366,7.53049
976.389,1.83972,-7.43973,0,0.507744,9.72617,-0.883762,-2.04268,-8.38415,-0.640244,-9.73815,-0.287402,-1.91602,3.2622,-2.16463,7.19512
976.399,1.88622,-7.59985,0,0.505349,9.69983,-0.962798,-1.43293,-7.19512,-0.518293,-9.80042,-0.323328,-1.89207,3.23171,-2.31707,6.70732
976.409,1.9291,-7.76329,0,0.514929,9.69025,-0.936453,-1.15854,-6.46341,-0.640244,-9.81,-0.349673,-1.94476,3.04878,-2.40854,6.89024
976.42,1.97878,-7.91172,0,0.560435,9.72138,-0.974773,-1.37195,-6.28049,-0.670732,-9.81719,-0.301772,-1.94236,2.65244,-2.80488,6.61585
976.429,2.02518,-8.05063,0,0.56762,9.68067,-1.0083,-1.25,-4.84756,-0.792683,-9.8076,-0.325723,-1.93757,2.68293,-3.01829,6.55488
976.439,2.06936,-8.16807,0,0.550855,9.70222,-0.986748,-1.37195,-4.20732,-0.670732,-9.80042,-0.294587,-1.8753,2.28659,-3.14024,6.61585
976.449,2.10839,-8.27648,0,0.565225,9.8076,-0.862207,-1.18902,-2.46951,-0.762195,-9.81719,-0.316143,-1.86812,2.7439,-3.35366,6.55488
976.459,2.10689,-8.40445,0,0.411943,9.8603,-0.852627,-1.37195,-1.58537,-1.09756,-9.8076,-0.323328,-1.96392,2.04268,-3.20122,6.40244
976.47,2.09111,-8.54228,0,0.342488,9.82677,-0.960403,-1.89024,-1.70732,-1.28049,-9.80042,-0.285007,-2.00463,2.16463,-2.71341,6.18902
976.479,2.07127,-8.67318,0,0.335303,9.73096,-0.900527,-1.25,-2.19512,-1.70732,-9.81479,-0.225132,-2.00463,1.52439,-2.71341,6.28049
976.489,2.04563,-8.78816,0,0.311353,9.7142,-0.843047,-1.52439,-2.34756,-2.0122,-9.78844,-0.239502,-1.95913,1.64634,-2.77439,6.76829
976.5,2.03989,-8.89785,0,0.431104,9.7118,-0.910107,-1.21951,-2.31707,-1.92073,-9.77407,-0.217947,-1.9711,1.06707,-3.23171,6.4939
976.509,2.03582,-8.98491,0,0.452659,9.72617,-0.905317,-1.43293,-1.85976,-2.04268,-9.80042,-0.201182,-1.90165,0.640244,-3.2622,6.37195
976.519,2.03077,-9.07764,0,0.431104,9.70941,-0.869392,-1.15854,-1.31098,-1.89024,-9.80521,-0.220342,-1.93997,0.579268,-3.17073,6.52439
976.53,2.02487,-9.16072,0,0.471819,9.73575,-0.857417,-1.21951,-1.61585,-2.40854,-9.79803,-0.227527,-1.91123,0.365854,-3.04878,6.34146
976.539,2.01257,-9.25487,0,0.431104,9.75731,-0.905317,-1.43293,-1.7378,-2.46951,-9.79563,-0.275427,-1.96392,0.884146,-2.80488,6.31098
976.549,1.9915,-9.33952,0,0.376018,9.79563,-0.898132,-1.06707,-1.21951,-2.59146,-9.81,-0.285007,-1.93757,0.548781,-2.59146,6.46341
976.559,1.97144,-9.42095,0,0.385598,9.8124,-0.914897,-1.89024,-1.64634,-2.65244,-9.74054,-0.328118,-1.91602,0.670732,-2.40854,6.37195
976.569,1.94961,-9.49498,0,0.378413,9.7597,-0.835862,-1.79878,-2.0122,-2.80488,-9.74294,-0.366438,-1.8777,0.579268,-1.89024,6.46341
976.58,1.93265,-9.57142,0,0.409548,9.76689,-0.807122,-1.85976,-1.46341,-2.77439,-9.73336,-0.349673,-1.88967,0.213415,-1.76829,6.12805
976.589,1.91568,-9.67189,0,0.421523,9.7597,-0.771196,-0.731707,-1.31098,-2.95732,-9.70222,-0.366438,-1.94236,0.335366,-1.37195,6.12805
976.599,1.90735,-9.76953,0,0.464634,9.77647,-0.917292,-1.4939,-1.15854,-2.71341,-9.7142,-0.325723,-1.96631,0.518293,-1.4939,6.28049
976.609,1.89276,-9.84234,0,0.407153,9.7621,-0.833467,-1.85976,-1.18902,-2.62195,-9.74533,-0.359253,-1.89925,0.579268,-1.31098,6.40244
976.619,1.87585,-9.9231,0,0.390388,9.71899,-0.931663,-1.76829,-1.40244,-2.68293,-9.75012,-0.330513,-1.9256,0.97561,-1.15854,6.21951
976.63,1.8694,-9.96367,0,0.474214,9.76449,-1.0083,-1.64634,-0.945122,-2.7439,-9.79563,-0.320933,-1.83698,0.731707,-1.25,6.09756
976.64,1.86303,-10.0047,0,0.455054,9.74054,-0.857417,-2.04268,-0.396341,-2.56098,-9.77886,-0.289797,-1.84417,0.487805,-1.31098,5.94512
976.649,1.86654,-10.0402,0,0.490979,9.75491,-0.871787,-1.61585,0.182927,-2.19512,-9.78366,-0.308958,-1.83458,0.152439,-1.28049,6.06707
976.659,1.86206,-10.0794,0,0.395178,9.78126,-0.864602,-1.61585,0.518293,-1.70732,-9.8603,-0.308958,-1.85614,0.243902,-0.945122,5.88415
976.669,1.8749,-10.1285,0,0.522114,9.79323,-0.855022,-1.85976,0.335366,-1.85976,-9.84593,-0.328118,-1.88249,-0.0304878,-0.853659,5.18293
976.68,1.87385,-10.1867,0,0.431104,9.76928,-0.886157,-1.76829,0.304878,-1.85976,-9.83395,-0.320933,-1.91123,-0.335366,-0.823171,4.90854
976.689,1.86981,-10.2394,0,0.397573,9.75012,-0.998723,-2.2561,0.609756,-1.70732,-9.8603,-0.292192,-1.91362,-0.487805,-0.823171,4.81707
976.699,1.86049,-10.2909,0,0.399968,9.75012,-0.991538,-2.83537,0.731707,-2.16463,-9.88185,-0.273032,-1.93039,-0.518293,-0.914634,5.03049
976.71,1.86077,-10.3198,0,0.474214,9.67827,-0.981958,-2.46951,0.945122,-2.31707,-9.86509,-0.308958,-1.88728,-0.27439,-1.43293,4.78659
976.719,1.84943,-10.3453,0,0.414338,9.73815,-0.917292,-2.22561,1.67683,-2.53049,-9.8579,-0.340093,-1.88728,-0.487805,-1.76829,4.81707
976.729,1.84668,-10.3697,0,0.474214,9.72378,-0.869392,-1.85976,2.56098,-2.53049,-9.80521,-0.411943,-1.88249,-0.548781,-2.10366,4.81707
976.739,1.8268,-10.4,0,0.352068,9.69264,-0.797541,-1.40244,2.62195,-2.59146,-9.77886,-0.385598,-1.89686,-0.335366,-1.79878,4.42073
976.75,1.78856,-10.4119,0,0.203577,9.78126,-0.869392,-2.13415,1.85976,-2.37805,-9.75252,-0.392783,-1.83458,-0.945122,-2.0122,4.14634
976.759,1.75473,-10.399,0,0.234712,9.8124,-0.960403,-2.07317,1.34146,-2.46951,-9.73336,-0.385598,-1.74597,-1.09756,-1.79878,3.93293
976.769,1.72449,-10.4204,0,0.285007,9.78605,-1.06099,-2.13415,0.457317,-2.89634,-9.69504,-0.361648,-1.84417,-1.12805,-1.34146,3.87195
976.779,1.6927,-10.465,0,0.296982,9.75252,-0.938848,-2.43902,0.701219,-3.29268,-9.7142,-0.368833,-1.92799,-0.945122,-1.46341,3.78049
976.79,1.6665,-10.4864,0,0.352068,9.71899,-0.874182,-2.43902,1.31098,-3.5061,-9.74533,-0.385598,-1.86572,-1.03659,-1.31098,4.32927
976.799,1.64198,-10.5244,0,0.373623,9.71659,-0.866997,-2.34756,2.31707,-3.65854,-9.77407,-0.445474,-1.90883,-0.579268,-0.853659,3.93293
976.809,1.61317,-10.5769,0,0.352068,9.70462,-0.819097,-2.53049,2.53049,-3.87195,-9.76449,-0.476609,-1.92081,-0.762195,-0.335366,3.93293
976.819,1.58857,-10.5888,0,0.397573,9.60882,-0.799937,-2.13415,2.86585,-4.11585,-9.80521,-0.500559,-1.85614,-0.731707,-0.365854,4.02439
976.83,1.54495,-10.5935,0,0.289797,9.73336,-0.888552,-1.79878,3.35366,-4.69512,-9.85072,-0.498164,-1.85135,-0.701219,-0.243902,3.9939
976.839,1.49664,-10.5781,0,0.251477,9.76449,-0.977168,-2.80488,3.17073,-4.78659,-9.86988,-0.531694,-1.80824,-1.31098,-0.640244,3.87195
976.85,1.44837,-10.5464,0,0.241897,9.69743,-0.981958,-2.9878,3.41463,-4.78659,-9.95131,-0.58199,-1.74836,-1.79878,-1.61585,3.71951
976.859,1.40782,-10.5493,0,0.328118,9.83874,-1.1041,-3.38415,4.26829,-5.09146,-9.94891,-0.593965,-1.86572,-2.62195,-2.2561,3.04878
976.869,1.36967,-10.5718,0,0.349673,9.78126,-1.06818,-3.47561,5.36585,-5.21341,-9.90101,-0.56762,-1.93997,-2.40854,-2.83537,2.28659
976.879,1.32108,-10.5883,0,0.292192,9.67109,-0.926873,-2.77439,5.73171,-5.70122,-9.84593,-0.529299,-1.91123,-2.59146,-3.38415,2.2561
976.89,1.26795,-10.6004,0,0.277822,9.72857,-1.01309,-3.01829,5.45732,-6.06707,-9.81719,-0.60115,-1.88967,-2.9878,-3.44512,2.10366
976.899,1.21746,-10.5888,0,0.253872,9.75731,-1.06578,-3.20122,5.21341,-5.60976,-9.78126,-0.675395,-1.78429,-3.20122,-3.59756,2.16463
976.909,1.16171,-10.5981,0,0.208367,9.7597,-0.993933,-3.65854,4.87805,-5.70122,-9.76928,-0.694556,-1.87051,-3.38415,-4.20732,2.13415
976.919,1.10283,-10.5885,0,0.165256,9.78605,-0.955613,-4.57317,4.45122,-5.60976,-9.79084,-0.735271,-1.79387,-4.14634,-4.48171,2.43902
976.93,1.04957,-10.5715,0,0.174836,9.77647,-0.907712,-4.84756,3.90244,-5.27439,-9.78126,-0.744851,-1.75794,-4.72561,-5,2.46951
976.939,0.994406,-10.5338,0,0.170046,9.78844,-1.00351,-4.84756,2.95732,-5.51829,-9.82916,-0.797541,-1.67172,-5.18293,-5.67073,2.31707
976.95,0.952674,-10.5099,0,0.273032,9.82437,-1.19032,-5.64024,3.17073,-5.4878,-9.94173,-0.826282,-1.74597,-5.27439,-5.64024,1.76829
976.959,0.911325,-10.4981,0,0.261057,9.71899,-1.15679,-5.51829,3.01829,-5.42683,-9.89862,-0.814307,-1.78908,-5.60976,-6.15854,1.46341
976.969,0.866964,-10.4893,0,0.263452,9.69025,-1.16637,-5.91463,3.20122,-5.85366,-9.89143,-0.740061,-1.79866,-5.97561,-6.34146,1.52439
976.979,0.819059,-10.4857,0,0.225132,9.75491,-1.1544,-6.0061,2.89634,-5.82317,-9.84832,-0.785566,-1.81303,-6.06707,-6.31098,1.09756
976.99,0.770198,-10.4974,0,0.177231,9.69264,-1.14482,-6.09756,2.46951,-5.45732,-9.79563,-0.823887,-1.87051,-6.61585,-6.21951,1.21951
976.999,0.716379,-10.5226,0,0.143701,9.77647,-1.08973,-6.70732,1.67683,-5.64024,-9.74533,-0.898132,-1.9232,-6.64634,-6.25,1.28049
977.009,0.66067,-10.539,0,0.102986,9.74533,-1.10171,-7.43902,1.06707,-5.45732,-9.73096,-0.979563,-1.88488,-6.70732,-5.82317,0.945122
977.02,0.614893,-10.5417,0,0.146096,9.69504,-1.04423,-7.62195,0.121951,-5.09146,-9.74294,-1.06578,-1.82979,-6.92073,-6.03659,0.823171
977.03,0.566485,-10.5481,0,0.141306,9.68306,-1.06339,-7.71341,-0.914634,-5.39634,-9.79323,-1.12326,-1.85614,-7.34756,-5.97561,0.548781
977.039,0.518268,-10.5609,0,0.138911,9.79803,-1.12566,-8.44512,-1.40244,-5.42683,-9.75252,-1.12326,-1.8777,-7.77439,-5.73171,0.121951
977.049,0.468425,-10.5734,0,0.160466,9.8124,-1.17835,-9.02439,-2.19512,-5.94512,-9.72378,-1.09452,-1.87291,-8.07927,-5.70122,0.182927
977.059,0.416568,-10.5945,0,0.165256,9.80042,-1.16398,-9.17683,-2.7439,-6.31098,-9.6663,-1.07536,-1.90165,-7.7439,-5.36585,0.182927
977.069,0.36364,-10.602,0,0.177231,9.7621,-1.17116,-9.63415,-2.59146,-6.67683,-9.69504,-1.19511,-1.85135,-8.29268,-5.7622,0.121951
977.079,0.318954,-10.5972,0,0.258662,9.7597,-1.08734,-9.60366,-2.07317,-6.92073,-9.63037,-1.19032,-1.78668,-8.04878,-5.97561,0.548781
977.089,0.268124,-10.5995,0,0.205972,9.73815,-1.09931,-9.90854,-1.79878,-7.0122,-9.62319,-1.19511,-1.81542,-8.10976,-5.82317,0.579268
977.1,0.228518,-10.6089,0,0.220342,9.70462,-1.06099,-10.0305,-2.34756,-6.15854,-9.59684,-1.21667,-1.84177,-8.29268,-5.7622,1.12805
977.11,0.204894,-10.6057,0,0.304167,9.68546,-1.07776,-10.2134,-3.2622,-5.64024,-9.61361,-1.1999,-1.79147,-8.2622,-5.42683,1.03659
977.12,0.197284,-10.5858,0,0.407153,9.76928,-1.07536,-10.3049,-4.63415,-5.27439,-9.67348,-1.2023,-1.7292,-8.65854,-5.33537,0.97561
977.13,0.212336,-10.5499,0,0.55804,9.78844,-1.152,-10.4878,-4.81707,-4.81707,-9.62798,-1.17835,-1.64777,-8.93293,-6.0061,0.853659
977.139,0.238225,-10.5349,0,0.617915,9.82677,-1.09452,-11.1585,-5.21341,-4.42073,-9.55373,-1.14482,-1.71962,-8.81098,-5.57927,1.18902
977.15,0.291873,-10.494,0,0.754431,9.82677,-1.07297,-11.0671,-4.84756,-3.47561,-9.59445,-1.10889,-1.61185,-9.48171,-6.06707,1.34146
977.159,0.388795,-10.4609,0,0.886157,9.80281,-1.00591,-10.7317,-5.03049,-2.16463,-9.5226,-1.09692,-1.62622,-9.78659,-5.97561,1.79878
977.169,0.627408,-10.4375,0,1.09931,9.9561,-0.910107,-11.4939,-4.20732,-0.396341,-9.57529,-1.12087,-1.67172,-9.87805,-6.06707,2.07317
977.179,0.80521,-10.3916,0,1.21906,9.96089,-0.780776,-11.9817,-5.91463,1.76829,-9.7118,-1.1065,-1.59269,-10.2439,-6.43293,1.79878
977.189,1.00156,-10.3385,0,1.4418,9.89383,-0.761616,-12.9573,-5.45732,4.48171,-9.86988,-1.10171,-1.57832,-10.0915,-6.61585,1.79878
977.2,1.26019,-10.2656,0,1.70286,9.83635,-0.555645,-13.2012,-4.84756,8.38415,-9.68546,-0.996328,-1.45378,-10.9756,-5.94512,2.04268
977.21,1.56948,-10.2246,0,1.85614,9.69504,-0.479004,-13.1707,-3.68902,12.0122,-9.4723,-0.958008,-1.54718,-11.7988,-4.60366,3.07927
977.219,1.9405,-10.2564,0,2.06451,9.5705,-0.443079,-12.7439,0.0914634,16.2195,-9.40764,-1.09213,-1.76273,-11.4024,-0.762195,4.11585
977.229,2.3655,-10.2958,0,2.21539,9.41482,-0.387993,-12.9878,3.5061,20.3049,-9.48188,-0.912502,-1.82021,-10.7012,-1.21951,4.45122
977.239,2.84007,-10.3057,0,2.31598,9.34537,-0.311353,-13.2622,7.31707,24.8476,-9.70222,-0.900527,-1.80345,-9.72561,-2.68293,4.63415
977.249,3.36958,-10.2721,0,2.4022,9.1825,-0.277822,-13.2012,10.9146,29.9085,-9.81,-0.838257,-1.64298,-8.78049,-3.78049,4.60366
977.259,3.9441,-10.2178,0,2.41657,9.13939,-0.217947,-11.8293,14.2073,35.2744,-9.83635,-0.814307,-1.54958,-8.84146,-4.29878,4.57317
977.269,4.57175,-10.1513,0,2.49561,9.0891,-0.273032,-9.66463,17.5915,40.7622,-9.8603,-0.799937,-1.48731,-8.38415,-5.33537,4.26829
977.28,5.25414,-10.051,0,2.56267,9.06275,-0.232317,-7.53049,19.0244,46.7378,-9.81479,-0.706531,-1.31966,-8.35366,-6.40244,4.20732
977.289,6.0187,-9.94283,0,2.8357,9.0412,-0.308958,-5.88415,19.6341,53.2012,-9.73575,-0.570015,-1.25739,-8.29268,-7.28659,4.93902
977.299,6.84032,-9.8297,0,3.05844,9.16095,-0.366438,-4.81707,20.0915,58.4451,-9.65432,-0.452659,-1.20709,-8.32317,-7.68293,5.97561
977.31,7.70683,-9.7056,0,3.24046,9.33818,-0.368833,-3.84146,21.8598,63.3232,-9.58966,-0.352068,-1.13284,-8.71951,-7.80488,7.07317
977.319,8.60698,-9.61078,0,3.5087,9.62558,-0.538879,-2.5,25.9451,66.7073,-9.54176,-0.285007,-1.23104,-9.78659,-7.43902,8.14024
977.33,9.51008,-9.53911,0,3.67157,10.0064,-0.603545,-1.12805,30.6707,68.5976,-9.60163,-0.193997,-1.32205,-11.0671,-7.28659,8.65854
977.339,10.3948,-9.50109,0,3.76737,10.5644,-0.706531,-1.18902,35.6402,69.6341,-9.68785,-0.201182,-1.46815,-12.2866,-7.53049,9.26829
977.35,11.2516,-9.4793,0,3.67635,10.986,-0.704136,-2.40854,38.628,70.8841,-9.89862,-0.213157,-1.56634,-13.2927,-8.2622,10.0305
977.36,12.1014,-9.49547,0,3.76737,11.2518,-0.61552,-4.42073,41.4634,71.8902,-10.107,-0.261057,-1.76992,-12.4695,-9.14634,10.7927
977.369,12.9406,-9.53407,0,3.76737,11.3021,-0.467029,-5.60976,43.4146,72.7134,-10.2555,-0.251477,-1.90404,-10.7622,-9.63415,12.1646
977.379,13.7906,-9.56515,0,3.88951,11.18,-0.493374,-5.82317,47.2561,73.9939,-10.3297,-0.268242,-1.88967,-9.11585,-9.66463,13.7805
977.389,14.6448,-9.59745,0,3.8943,10.9452,-0.471819,-5.18293,50.9756,75.3354,-10.3082,-0.174836,-1.89686,-7.89634,-9.26829,15.2134
977.399,15.5055,-9.64207,0,3.86556,10.6267,-0.524509,-3.20122,57.7134,76.9207,-10.2914,-0.107776,-1.95673,-6.79878,-8.35366,16.6463
977.41,16.3558,-9.71587,0,3.69552,10.2531,-0.490979,-0.182927,63.4756,77.9573,-10.0854,0.146096,-2.05972,-6.46341,-7.68293,17.2561
977.419,17.1692,-9.79153,0,3.24046,9.97765,-0.356858,3.47561,68.9939,79.6646,-9.96089,0.364043,-2.05493,-6.82927,-6.70732,18.1707
977.43,17.9102,-9.86841,0,2.70637,10.0782,-0.239502,6.03659,76.1281,79.9695,-9.84593,0.589175,-2.05014,-7.31707,-6.67683,18.4756
977.439,18.5639,-9.97759,0,2.1148,10.5477,0.00718506,6.28049,77.561,80.1219,-9.72378,0.783171,-2.18186,-9.11585,-6.18902,18.872
977.449,19.12,-10.0876,0,1.59029,10.6459,0.64905,7.46951,76.5854,77.2866,-9.84114,0.864602,-2.22976,-10.7622,-5.51829,18.2622
977.459,19.5855,-10.1942,0,1.20709,11.3644,-0.0694556,5.88415,74.4207,74.1463,-9.94412,0.790356,-2.25611,-12.7439,-5.03049,17.4695
977.47,20.0429,-10.2846,0,1.54,11.5823,0.105381,-1.70732,69.3598,71.189,-10.1285,0.696951,-2.23695,-14.2988,-4.08537,16.7988
977.479,20.4384,-10.3559,0,1.2023,10.871,1.03704,-2.43902,51.9512,68.3841,-10.2842,0.541274,-2.19623,-15.2134,-3.53659,16.7073
977.489,20.7849,-10.407,0,0.934058,10.1812,1.26457,0.670732,37.1037,66.3719,-10.3728,0.481399,-2.13396,-15.9756,-3.41463,17.439
977.5,21.0897,-10.4603,0,0.874182,9.5202,1.32205,6.79878,21.9512,62.8049,-10.3297,0.414338,-2.14594,-16.7073,-3.53659,18.3537
977.51,21.3813,-10.5109,0,1.07536,9.29268,0.972378,13.0183,14.0549,59.3293,-10.2866,0.325723,-2.13396,-16.6463,-3.5061,19.1159
977.519,21.6932,-10.5505,0,1.51126,9.20406,0.550855,17.8354,12.4695,56.4329,-10.21,0.256267,-2.07888,-16.5244,-3.93293,19.3902
977.53,22.0294,-10.5801,0,2.00224,9.19687,0.273032,19.5427,16.5854,53.5061,-10.0016,0.273032,-1.99984,-16.4329,-4.35976,19.2378
977.539,22.3668,-10.612,0,2.29203,9.34058,0.316143,18.1707,22.2561,51.25,-9.81,0.325723,-1.97829,-16.25,-5,19.1768
977.549,22.6874,-10.6404,0,2.36149,9.30465,0.366438,16.7683,26.5549,49.2988,-9.59205,0.426313,-1.9256,-15.3963,-5.51829,19.1159
977.559,23,-10.6907,0,2.40939,9.17292,0.318538,14.9085,30,48.1707,-9.40764,0.443079,-1.98787,-14.7256,-5.94512,19.0244
977.569,23.2975,-10.7402,0,2.4022,8.87115,0.404758,13.4756,30.0305,46.372,-9.34297,0.364043,-1.98068,-13.4756,-6.70732,18.5366
977.58,23.6007,-10.776,0,2.61297,8.62446,0.323328,13.5061,30.3963,44.0854,-9.32621,0.299377,-1.92799,-11.8293,-7.22561,17.6524
977.589,23.8784,-10.8002,0,2.65847,8.47837,0.383203,14.6341,27.6829,40.9756,-9.36453,0.258662,-1.89207,-10.7622,-7.46951,16.9512
977.599,24.1269,-10.8054,0,2.74709,8.3658,0.380808,14.939,26.1585,36.9817,-9.3765,0.251477,-1.81782,-9.84756,-8.23171,15.7622
977.609,24.3506,-10.8213,0,2.76625,8.15744,0.550855,16.5244,23.0183,33.8415,-9.41722,0.210762,-1.87291,-9.20732,-8.20122,14.878
977.62,24.5545,-10.8176,0,2.82133,8.0808,0.62031,18.0488,20.6402,31.2195,-9.40764,0.258662,-1.78908,-9.20732,-8.01829,13.9634
977.63,24.7332,-10.8073,0,2.82852,8.03769,0.694556,18.9329,17.7744,28.7805,-9.37171,0.347278,-1.75315,-9.81707,-8.07927,13.0183
977.639,24.9261,-10.8028,0,3.22609,8.09038,0.560435,20.6402,18.7195,25.7927,-9.39806,0.471819,-1.78189,-10.3049,-8.29268,12.8354
977.649,25.1119,-10.8107,0,3.53505,8.15025,0.380808,20.3659,18.3841,21.9817,-9.46033,0.529299,-1.84656,-11.128,-8.38415,12.1951
977.659,25.2912,-10.8418,0,3.79371,8.00176,0.55325,22.1951,20.2439,17.7744,-9.54894,0.548459,-1.96631,-11.372,-8.23171,11.7073
977.669,25.4631,-10.8855,0,4.16254,8.18618,-0.0143701,22.5,26.6159,14.1463,-9.63756,0.488584,-2.04535,-11.8902,-7.80488,10.9756
977.68,25.5958,-10.9344,0,4.20326,8.38257,-0.00718506,23.5061,32.439,11.1585,-9.72857,0.423918,-2.09564,-12.622,-7.19512,10.2439
977.689,25.6575,-10.9918,0,3.91586,8.37778,0.285007,24.6646,31.8598,7.40854,-9.8124,0.421523,-2.16031,-13.3232,-7.16463,9.2378
977.699,25.7091,-11.039,0,4.26313,8.58854,-0.129331,22.1037,43.0793,3.65854,-9.83156,0.433499,-2.12917,-13.9634,-7.2561,8.23171
977.709,25.346,-11.0895,0,0.225132,8.30114,2.89558,31.6768,6.61585,12.2561,-9.82437,0.462239,-2.15073,-14.939,-7.46951,7.86585
977.72,25.6533,-11.1442,0,5.99234,8.18857,-2.1148,29.6646,65.7317,9.20732,-9.83395,0.519719,-2.18186,-15.7317,-8.01829,7.19512
977.729,24.8983,-11.1895,0,2.62973,8.13828,0.979563,23.9939,17.1646,-0.548781,-9.77407,0.57241,-2.13636,-16.7683,-8.17073,6.89024
977.739,24.9574,-11.2164,0,4.7589,7.7431,-0.476609,25.5793,47.0732,-7.62195,-9.73096,0.651445,-2.05253,-18.0488,-8.41463,6.70732
977.749,24.8054,-11.2614,0,3.13508,8.16702,0.438289,25.3963,21.9207,-7.40854,-9.62319,0.787961,-2.1148,-19.2073,-8.41463,6.21951
977.759,24.6531,-11.3089,0,3.26202,8.19576,0.737666,24.4512,17.9878,-9.20732,-9.53936,0.862207,-2.1148,-20.7927,-8.14024,5.54878
977.769,24.5659,-11.3701,0,3.77455,7.95386,1.22864,24.8171,3.93293,-10.3963,-9.47949,0.962798,-2.16989,-22.1951,-8.23171,5.36585
977.779,24.7725,-11.4215,0,7.71196,8.62207,-2.40939,13.0793,54.6341,-14.1159,-9.4723,0.941243,-2.13636,-23.2927,-8.35366,4.63415
977.79,24.5154,-11.4613,0,3.21651,8.30114,3.56858,19.1768,-43.7195,-18.9024,-9.5202,0.914897,-2.10522,-24.7561,-8.5061,3.87195
977.799,24.7127,-11.5097,0,6.59828,7.36708,0.117356,35.7317,7.77439,-15.2439,-9.56571,0.850232,-2.16031,-25.5183,-8.71951,3.10976
977.809,24.6233,-11.5526,0,3.59971,7.99218,1.54,34.8476,-30.4878,-8.17073,-9.63756,0.756826,-2.16031,-26.0061,-8.78049,3.10976
977.82,24.8198,-11.5889,0,5.47022,7.58742,-0.105381,34.2988,-8.5061,-4.02439,-9.69025,0.723296,-2.15073,-25.9451,-9.02439,2.62195
977.83,25.181,-11.6067,0,4.36852,7.30241,0.661025,35.6707,-32.3171,1.34146,-9.69743,0.66821,-2.07648,-26.311,-9.32927,2.40854
977.839,25.5167,-11.6154,0,5.27623,7.04375,0.0958008,38.0183,-27.5305,2.83537,-9.65911,0.684976,-2.03098,-26.6463,-9.81707,2.16463
977.85,25.784,-11.6239,0,5.11576,7.08447,-0.0119751,39.4817,-38.5061,5.88415,-9.65432,0.661025,-2.03098,-27.4085,-10,1.79878
977.859,26.071,-11.6212,0,5.34329,7.25451,-0.0407153,40.6402,-43.5976,7.62195,-9.6184,0.778381,-1.97589,-27.7439,-11.0061,1.21951
977.869,26.3845,-11.6396,0,5.68578,7.32876,-0.150886,39.4817,-47.9268,8.01829,-9.59445,0.819097,-2.06451,-28.7195,-11.6463,0.457317
977.879,26.6926,-11.672,0,5.63069,7.30002,0.114961,38.628,-56.8598,8.44512,-9.51541,0.871787,-2.11241,-29.4817,-11.5244,-0.701219
977.889,27.0004,-11.7202,0,5.81511,7.31439,0,38.8415,-59.4817,7.28659,-9.43159,0.938848,-2.16749,-30.8841,-11.189,-1.46341
977.899,27.2881,-11.7877,0,5.79355,7.22577,0.0167651,39.6646,-61.128,4.20732,-9.38369,0.993933,-2.24892,-32.8659,-10.6098,-2.89634
977.909,27.8073,-11.8833,0,6.17676,7.17069,-0.296982,39.6951,-56.7683,-1.06707,-9.29028,0.981958,-2.35909,-34.5122,-9.54268,-3.9939
977.919,27.9993,-12.0052,0,6.25819,7.10602,-0.65863,38.2927,-49.4817,-8.10976,-9.26394,1.08734,-2.48364,-36.4939,-9.08537,-5.09146
977.93,28.1296,-12.1531,0,6.32764,7.03178,-1.08015,36.0366,-37.561,-15.2439,-9.30705,1.18553,-2.62973,-38.5671,-8.38415,-5.7622
977.939,28.2071,-12.2757,0,6.63899,7.07489,-1.55916,34.4817,-23.811,-22.8049,-9.40764,1.22625,-2.57225,-40.3659,-8.53659,-6.18902
977.95,28.1587,-12.3458,0,6.6821,7.58742,-1.78908,33.5671,-9.48171,-31.7988,-9.58726,1.24781,-2.40699,-41.6463,-9.81707,-6.55488
977.959,27.887,-12.3428,0,6.38033,9.17532,-1.94955,31.5549,8.07927,-41.311,-9.92496,1.16637,-2.16989,-41.7683,-12.5,-6.21951
977.969,27.3477,-12.303,0,5.58998,11.1823,-1.74597,29.0549,21.6463,-52.3171,-10.4495,0.778381,-2.11001,-38.4451,-15.8232,-5.2439
977.979,26.6587,-12.1928,0,5.47262,13.2373,-0.613125,22.7439,31.6463,-60.3354,-11.247,0.131726,-1.90644,-31.25,-20.5793,-3.65854
977.989,26.0266,-12.0392,0,6.42105,15.1796,0.890947,12.1951,40.8841,-56.8902,-12.1811,-0.747246,-1.80584,-21.0061,-23.5976,-0.884146
978,25.6814,-11.9075,0,9.01006,16.552,1.80824,4.11585,52.4085,-40.3963,-13.0672,-1.96152,-2.03098,-7.46951,-24.4817,2.22561
978.009,25.8062,-11.7892,0,12.3104,15.5125,0.66342,3.9939,71.7073,-13.2927,-13.7642,-3.04407,-2.19144,5.79268,-25.6402,4.29878
978.019,26.2944,-11.7841,0,12.7846,13.3714,-0.981958,11.9817,98.8415,13.2622,-13.6732,-4.06195,-2.85247,20.8537,-24.878,4.87805
978.03,26.802,-11.8141,0,8.89989,11.6997,-1.97589,15.6707,113.78,29.4207,-12.035,-3.47757,-2.70158,32.6829,-22.4695,6.92073
978.039,26.8426,-11.833,0,1.99984,9.73815,-1.80584,13.5671,108.201,35.1524,-10.1716,-2.14115,-2.23216,41.5244,-17.1341,11.6159
978.05,26.161,-11.8565,0,-2.96503,7.31918,-2.24413,15.5183,80.4268,30.2439,-9.04599,-0.723296,-2.00463,45.3963,-14.1768,17.4695
978.06,24.8417,-11.8382,0,-6.20789,5.92528,-2.51477,21.7073,31.2805,13.3232,-8.59333,0.708926,-1.73878,45.7622,-8.68902,21.7378
978.069,23.1369,-11.6371,0,-7.73591,5.34568,-1.29571,32.4695,-33.628,-10.2744,-8.77775,1.89686,-1.09931,41.4939,-4.02439,24.0854
978.079,21.3469,-10.9654,0,-6.59828,5.64746,-0.993933,38.75,-92.1646,-34.5427,-11.4075,3.89909,1.04662,29.6341,-16.8293,26.9817
978.089,19.9197,-10.5455,0,-2.99856,6.94316,-2.28006,39.939,-126.402,-54.3902,-10.974,2.91234,-0.0766406,26.7378,-6.34146,26.2805
978.099,18.9571,-10.1073,0,0.55804,9.11784,-4.01166,35.3659,-129.268,-64.7256,-12.138,2.66326,0.102986,19.4207,-5.51829,21.311
978.109,18.2913,-9.64411,0,4.03082,12.0014,-5.42711,28.1098,-102.561,-67.1341,-12.7822,2.06211,0.347278,14.8476,-6.31098,13.3232
978.119,17.8411,-9.14103,0,6.76833,13.4361,-4.88105,20,-50.8537,-63.1707,-12.2362,1.31966,0.646655,12.5915,-6.09756,7.77439
978.13,17.5413,-8.55104,0,7.00304,12.229,-2.61297,17.378,-5.64024,-55,-11.3093,0.136516,1.12805,11.25,-5.15244,5.33537
978.14,17.1809,-7.50713,0,4.52419,10.6626,-0.993933,13.628,12.0732,-47.8963,-9.59205,-1.06099,-0.0239502,11.0061,0.0609756,4.11585
978.149,16.6017,-6.76863,0,1.69088,9.52739,-0.162861,10.8537,10.0915,-44.5732,-9.54894,-1.27894,1.6813,8.2622,-3.44512,3.84146
978.16,15.8093,-6.05326,0,-0.0862207,8.95977,-0.232317,9.5122,-2.46951,-45.8537,-8.83523,-1.54479,1.60466,8.78049,-4.2378,4.42073
978.169,15.0667,-5.2422,0,0.234712,8.58375,-1.31487,7.92683,-11.6768,-46.7073,-8.26042,-1.4442,1.56395,9.63415,-3.47561,5.70122
978.179,14.362,-4.42199,0,0.421523,8.51429,-2.25132,7.7439,-22.9573,-46.9512,-8.04966,-1.02507,1.46575,11.8902,-3.35366,7.43902
978.189,13.7425,-3.68679,0,0.948428,8.56459,-3.49673,9.32927,-26.7378,-46.7988,-8.11912,-0.646655,1.3005,15.2744,-3.23171,9.78659
978.199,13.1176,-3.01198,0,0.799937,8.6053,-4.04519,11.0976,-33.9634,-46.5549,-8.34904,-0.332908,1.17356,18.5976,-2.83537,11.7073
978.209,12.4979,-2.29493,0,0.728086,8.62207,-3.93023,13.2012,-33.2012,-46.311,-8.84481,-0.277822,0.981958,22.2866,-1.64634,12.1646
978.22,11.9117,-1.54936,0,0.680186,8.96695,-3.93502,12.8963,-34.9085,-43.1707,-9.49865,-0.404758,0.701741,26.0671,-0.304878,10.9451
978.23,11.3711,-1.36386,0,0.61073,9.16334,-3.5087,10.6707,-38.9939,-38.628,-10.0639,-0.63947,0.385598,29.4207,1.76829,8.01829
978.24,10.9211,-1.27932,0,0.845442,9.27112,-3.05604,8.14024,-43.1402,-33.3537,-10.562,-0.893342,0.141306,32.8659,4.29878,4.14634
978.25,10.5621,-1.22204,0,1.11847,9.24478,-2.6944,6.21951,-46.7988,-28.4146,-10.8902,-1.08015,0.0383203,35.8841,7.10366,-0.0609756
978.259,10.2609,-1.17711,0,1.32205,9.45314,-2.58183,2.59146,-53.8415,-25.4268,-10.9836,-1.14961,-0.00958008,37.9573,7.65244,-3.93293
978.269,9.98481,-1.19901,0,1.35558,9.60642,-2.50759,0.365854,-56.311,-23.628,-10.6818,-1.19272,-0.313748,39.3598,9.60366,-6.58537
978.279,9.70097,-1.22761,0,1.14003,9.64235,-2.49561,-1.18902,-62.8659,-22.3476,-10.2124,-1.14482,-0.332908,40.7927,10.9451,-7.71341
978.289,9.40406,-1.26401,0,0.852627,9.27352,-2.85965,-3.14024,-66.0976,-21.2195,-9.85072,-1.03944,-0.359253,41.4024,11.7683,-7.68293
978.299,9.08352,-1.33266,0,0.622705,9.11305,-3.02251,-3.07927,-75.7317,-21.4939,-9.5705,-0.946033,-0.490979,42.1341,12.2561,-6.37195
978.309,8.80041,-1.4064,0,0.986748,9.20646,-3.71947,-2.71341,-77.0122,-22.8354,-9.53936,-0.838257,-0.522114,43.1098,12.5,-4.7561
978.319,8.52305,-1.49792,0,1.2023,9.21125,-3.94699,-2.19512,-80.8232,-25.5183,-9.63516,-0.706531,-0.61552,44.0244,12.622,-3.2622
978.33,8.26216,-1.57085,0,1.59269,9.2304,-4.0859,-1.92073,-77.1037,-29.2073,-9.78366,-0.579595,-0.560435,44.3902,12.3171,-2.59146
978.34,8.01824,-1.62082,0,1.95194,9.22562,-4.00447,-1.28049,-66.2805,-32.4085,-9.85072,-0.486189,-0.476609,44.3598,12.6829,-2.77439
978.349,7.79043,-1.67729,0,2.24892,9.19209,-3.6548,-1.28049,-57.4695,-34.939,-9.91778,-0.397573,-0.517324,43.9329,12.3171,-2.83537
978.359,7.59818,-1.72627,0,2.62973,9.01964,-3.5566,-1.12805,-45.1524,-36.8902,-9.8555,-0.246687,-0.490979,42.9573,12.561,-3.78049
978.369,7.29259,-1.78571,0,1.81782,9.14179,-3.19256,-2.19512,-44.0549,-38.628,-9.70462,-0.150886,-0.536484,42.378,12.7134,-4.05488
978.379,6.97109,-1.85141,0,1.78668,9.15616,-3.39853,-3.01829,-30.7012,-40.4573,-9.60403,-0.107776,-0.56762,41.6463,12.622,-4.48171
978.389,6.58353,-1.94278,0,1.22625,9.05078,-3.01293,-3.14024,-32.9573,-41.0671,-9.45793,-0.124541,-0.677791,41.5244,12.0427,-4.35976
978.399,6.24201,-2.03994,0,1.4921,9.1849,-3.03449,-3.14024,-28.75,-40.2439,-9.34297,-0.155676,-0.708926,41.4939,11.5549,-4.57317
978.409,5.90281,-2.11975,0,1.18553,9.10586,-2.68721,-4.20732,-32.3171,-37.0122,-9.2831,-0.280217,-0.64905,40.9451,11.2805,-4.60366
978.419,5.55424,-2.21663,0,0.981958,9.13939,-2.60578,-3.32317,-35.1524,-36.0366,-9.19927,-0.364043,-0.725691,40.1524,11.25,-4.42073
978.43,5.22801,-2.32654,0,1.14961,9.3765,-2.73272,-3.59756,-36.4329,-36.2195,-9.12742,-0.423918,-0.787961,40.122,11.6768,-4.5122
978.439,4.91607,-2.4558,0,1.32684,9.39806,-2.89079,-4.45122,-36.0366,-37.561,-9.12502,-0.483794,-0.883762,39.3598,11.8598,-4.54268
978.45,4.60451,-2.61602,0,1.13524,9.21125,-2.62255,-5.70122,-40.6098,-36.0976,-9.07952,-0.502954,-1.02507,39.2378,12.2256,-4.08537
978.459,4.39399,-2.79267,0,1.69088,8.83044,-2.72793,-4.57317,-30.122,-34.2073,-9.03401,-0.457449,-1.11129,39.0854,12.8963,-3.81098
978.469,4.13056,-2.99252,0,1.25739,8.86397,-2.58183,-4.05488,-33.2927,-34.3902,-9.00048,-0.380808,-1.22864,38.7805,13.3841,-2.53049
978.479,3.89386,-3.20643,0,1.40348,8.92384,-2.60818,-3.2622,-26.1585,-33.9634,-8.89031,-0.371228,-1.3005,39.4512,14.5122,-1.34146
978.489,3.66369,-3.41165,0,1.57353,8.95258,-2.46208,-2.83537,-27.7134,-35.8841,-8.82804,-0.344883,-1.29092,38.7805,14.0244,0
978.5,3.44013,-3.65296,0,1.6813,8.95258,-2.67045,-2.92683,-20.7622,-37.0427,-8.77535,-0.376018,-1.45857,38.1098,13.811,1.46341
978.509,3.1792,-3.92262,0,1.44899,8.87115,-2.35191,-3.07927,-23.3841,-38.5366,-8.74901,-0.347278,-1.60466,38.1402,14.0244,2.95732
978.519,2.91079,-4.19532,0,1.33403,8.77775,-2.30401,-2.22561,-23.2622,-38.5366,-8.79212,-0.318538,-1.66693,38.1098,14.8171,4.02439
978.53,2.65744,-4.4955,0,1.4442,8.82804,-2.41418,-1.7378,-20.2744,-38.872,-8.78014,-0.299377,-1.81782,37.378,15.8841,4.87805
978.539,2.3659,-4.79393,0,1.18553,8.91426,-2.19623,-0.182927,-20.9756,-39.7866,-8.76098,-0.282612,-1.85375,36.7378,17.0427,6.37195
978.55,2.05913,-5.10728,0,1.10889,9.10826,-2.36149,-0.304878,-20.7622,-40.6402,-8.7059,-0.229922,-1.94955,35.8537,17.1341,7.10366
978.559,1.73703,-5.41246,0,1.01309,9.19687,-2.65129,-0.0304878,-16.7073,-41.4939,-8.63165,-0.275427,-1.94955,35.5793,17.4695,8.38415
978.569,1.3607,-5.67749,0,0.670605,9.24478,-2.60578,0.884146,-17.9268,-43.3232,-8.53824,-0.263452,-1.81782,34.6646,17.4085,9.39024
978.579,0.990663,-5.89463,0,0.845442,9.35734,-2.58662,1.82927,-17.2561,-45.5183,-8.54782,-0.186812,-1.67412,32.9268,16.0366,11.128
978.589,0.638006,-6.07325,0,1.0562,9.38129,-2.53393,3.14024,-16.9207,-47.0732,-8.658,-0.131726,-1.57832,31.189,14.9695,12.3171
978.599,0.325259,-6.2662,0,1.37474,9.1825,-2.47406,3.75,-15.6707,-47.9878,-8.84002,-0.182021,-1.69807,29.2073,14.6037,13.5061
978.609,-0.0124667,-6.49049,0,1.21667,8.84241,-2.38065,4.84756,-19.8476,-49.7866,-9.17292,-0.399968,-1.9256,27.378,15.061,13.4146
978.62,-0.233413,-6.71357,0,2.03816,8.59812,-2.89318,4.78659,-13.4146,-49.7866,-9.54894,-0.57241,-2.03816,26.0976,15.1829,12.4085
978.63,-0.489743,-6.91274,0,1.56395,8.59333,-2.5507,3.20122,-20.7622,-47.6829,-9.96328,-0.759221,-2.05732,24.4512,15.3963,10.8841
978.639,-0.706803,-7.09155,0,1.64298,8.86636,-2.68721,1.89024,-24.2378,-44.5732,-10.3609,-0.890947,-2.08127,23.0488,14.0854,9.45122
978.649,-0.882297,-7.34498,0,1.6837,9.06515,-2.79499,0.0304878,-25.9756,-40.8232,-10.5572,-0.835862,-2.51956,22.2866,13.811,8.78049
978.66,-1.05211,-7.68856,0,1.42025,9.34297,-2.84049,-1.7378,-23.4146,-36.7683,-10.5477,-0.670605,-3.01533,22.561,13.5976,9.87805
978.669,-1.27039,-8.06334,0,0.684976,9.53697,-2.39262,-2.92683,-38.9634,-32.8049,-10.3896,-0.431104,-3.19256,23.5671,14.4207,11.9512
978.679,-1.49285,-8.46386,0,0.282612,9.72617,-2.36149,-4.26829,-42.7744,-28.689,-10.289,-0.318538,-3.36261,24.6341,15.9756,14.6341
978.689,-1.65817,-8.68217,0,0.411943,9.94652,-2.24413,-5.60976,-54.6037,-24.7561,-10.3728,-0.421523,-2.56746,24.1159,15.061,16.5854
978.699,-1.73245,-8.54689,0,0.943638,9.98484,-2.76864,-5.94512,-60.9146,-21.9817,-11.1225,-0.409548,-1.01788,20.122,7.65244,17.8963
978.71,-1.69487,-8.31524,0,1.90644,10.4231,-3.27639,-4.96951,-68.5061,-20.8537,-12.1883,0.0479004,-0.744851,13.5061,0.121951,17.0122
978.719,-1.5386,-8.06296,0,3.06802,11.0291,-3.64282,-4.29878,-58.3841,-19.2378,-13.2205,0.768801,-0.455054,6.18902,-4.17683,14.6341
978.729,-1.30249,-7.86191,0,3.77934,10.871,-3.58055,-3.20122,-42.561,-18.1707,-13.7594,1.33642,-0.725691,-2.68293,-6.64634,9.63415
978.74,-1.02207,-7.75248,0,3.87275,10.4567,-3.57816,-1.76829,-27.2866,-15.5183,-13.7163,1.57353,-1.23104,-9.78659,-6.0061,3.9939
978.749,-0.661368,-7.62473,0,4.00687,10.3896,-3.70989,-1.21951,-15.1829,-8.32317,-13.2301,1.4897,-1.05381,-16.6768,-5.45732,-1.79878
978.76,-0.137595,-7.50211,0,4.55054,10.495,-3.77934,-4.08537,-8.35366,1.25,-12.6289,0.922083,-1.0083,-21.8293,-7.31707,-7.04268
978.769,0.452035,-7.41748,0,4.64873,10.7512,-3.6524,-10.4573,-0.396341,12.1646,-12.0613,0.0263452,-1.14242,-23.5976,-9.26829,-11.5854
978.779,1.13406,-7.40515,0,4.51461,10.8925,-3.10874,-19.3293,6.06707,24.5732,-11.8027,-0.993933,-1.48012,-22.2256,-8.41463,-15.5488
978.789,1.8721,-7.40742,0,3.98292,11.4099,-2.15312,-30.3659,13.7195,38.3537,-11.8386,-2.01421,-1.55676,-18.2927,-5.88415,-19.1159
978.799,2.67274,-7.39127,0,3.22849,11.9751,-1.11608,-42.378,13.9329,54.7256,-11.4171,-2.6465,-1.40588,-11.9817,-3.2622,-20.3049
978.81,3.55119,-7.29268,0,2.57225,12.0278,-0.0934058,-52.5,7.77439,70.4573,-11.1249,-2.80457,-0.965193,-4.05488,-3.04878,-18.75
978.819,4.50161,-7.06349,0,1.90165,11.9009,0.440684,-58.689,-0.792683,85.7012,-10.8231,-2.76146,-0.292192,3.84146,-5.2439,-14.7256
978.83,5.5282,-6.60579,0,1.49928,11.247,0.479004,-62.9573,-12.0427,98.4451,-10.78,-2.10283,0.838257,10.2439,-9.63415,-8.84146
978.839,6.62561,-6.18607,0,1.18074,10.3896,0.174836,-63.9634,-19.7866,110.03,-9.90341,-1.40348,0.682581,17.4085,-10.0305,-1.55488
978.849,7.77472,-5.66374,0,0.790356,9.74054,-0.65384,-60.0305,-20.1524,121.311,-9.73575,-0.490979,1.18553,21.0061,-12.3476,5.03049
978.859,8.95227,-5.10295,0,0.265847,9.74294,-0.943638,-55.3963,-24.6951,132.835,-9.56331,0.332908,1.41785,22.2256,-13.0183,9.69512
978.87,10.176,-4.29167,0,0.186812,10.1142,-1.13763,-52.8354,-33.9024,140.976,-10.8997,1.72681,2.97701,18.0488,-21.7378,12.2256
978.879,11.4457,-3.82663,0,0.447869,10.7417,-1.74357,-49.9695,-37.9268,145.457,-9.12742,1.14721,1.18314,18.8415,-13.3232,12.4695
978.889,12.6946,-3.28211,0,0.467029,11.1728,-1.67891,-46.2805,-44.8476,145.915,-9.331,1.42983,1.62143,12.1951,-13.3232,10.4268
978.899,13.9199,-2.74146,0,0.773591,11.5823,-1.99745,-42.7744,-48.0488,143.14,-9.20166,1.47533,1.67412,4.05488,-11.9512,7.34756
978.909,15.0557,-2.28838,0,0.795146,11.8769,-2.44292,-35.9451,-49.2073,136.494,-9.0412,1.40109,1.37474,-5.09146,-10.7927,4.54268
978.919,16.0964,-1.8873,0,0.589175,12.0853,-2.51238,-27.2866,-55.6098,131.22,-8.96695,1.09931,1.22625,-13.3232,-10.4268,1.25
978.93,17.1454,-1.63941,0,0.991538,12.3487,-2.0693,-19.5732,-70.9451,130.518,-8.84002,0.967588,0.66821,-19.1463,-9.66463,-0.518293
978.94,18.2376,-1.45921,0,1.6358,11.8242,-2.39981,-11.3415,-77.5305,130.366,-8.85439,1.04902,0.443079,-24.0244,-8.47561,0.548781
978.949,19.2843,-1.41294,0,1.4442,11.2877,-2.44771,-2.28659,-66.9512,129.146,-9.15137,1.13284,-0.0526904,-27.3476,-6.21951,3.78049
978.959,20.328,-1.34341,0,2.00224,10.9883,-2.55549,5.60976,-36.311,124.787,-9.71899,0.950823,0.0502954,-30.2134,-5.15244,7.95732
978.97,21.3638,-1.4333,0,2.57704,10.8255,-2.48603,11.4634,-7.7439,119.848,-10.0016,0.632285,-0.622705,-30.9756,-3.90244,11.7378
978.979,22.3281,-1.53451,0,2.53154,10.5716,-2.16989,14.9085,19.1463,114.512,-10.1118,0.354463,-0.65863,-30.4268,-2.46951,14.0549
978.989,23.294,-1.68131,0,3.1279,10.2267,-2.42136,18.872,47.561,109.421,-9.86509,0.210762,-0.740061,-28.9634,-1.64634,15.6098
979,24.2193,-1.81943,0,3.11353,9.9561,-2.23934,21.7683,70.5793,106.524,-9.62558,-0.0311353,-0.65384,-28.7805,-1.37195,16.4329
979.009,25.1012,-1.9505,0,3.02251,9.55613,-2.3567,24.9695,93.8415,103.598,-9.38369,-0.167651,-0.65384,-28.0183,-1.70732,15.9451
979.019,25.9069,-2.03946,0,2.85965,9.43398,-2.45729,30.2744,113.628,99.0244,-9.16813,-0.162861,-0.598755,-28.2927,-2.62195,14.939
979.03,26.5693,-2.08781,0,2.27287,9.41722,-2.47645,35.061,124.634,92.7744,-9.05078,-0.191602,-0.505349,-28.3537,-4.02439,13.75
979.039,27.0833,-2.12882,0,1.69567,9.39566,-2.60339,38.2317,127.896,85.7927,-8.98851,-0.141306,-0.490979,-29.2683,-5.27439,12.7439
979.049,27.4867,-2.15489,0,1.35558,9.39087,-2.75427,36.4024,126.799,79.6646,-8.99809,0.00239502,-0.443079,-30.8841,-6.98171,11.9207
979.059,27.7557,-2.19964,0,0.826282,9.31184,-2.4501,32.2561,122.713,73.2012,-9.0388,0.129331,-0.524509,-33.2927,-7.71341,11.7073
979.069,27.9444,-2.24636,0,0.555645,9.00048,-2.27527,27.6829,121.707,68.689,-9.06994,0.383203,-0.541274,-35.8841,-7.68293,11.8293
979.08,28.0075,-2.31383,0,0.0622705,8.64602,-1.89925,25.7927,115.335,62.622,-9.18011,0.570015,-0.63947,-38.75,-7.59146,12.4085
979.089,27.9284,-2.40892,0,-0.507744,8.35383,-1.76752,25.1829,106.799,56.189,-9.28549,0.694556,-0.771196,-40.8232,-7.46951,12.5
979.099,27.7511,-2.51775,0,-0.754431,8.01374,-1.65735,25.061,100.488,49.878,-9.39327,0.783171,-0.852627,-43.1707,-7.16463,12.1646
979.109,27.4569,-2.64634,0,-1.10889,7.82453,-1.35558,26.0976,90.3049,43.0793,-9.53697,0.766406,-0.967588,-45.122,-7.04268,11.1585
979.119,27.0646,-2.79099,0,-1.40588,7.81974,-1.07297,26.7988,79.8171,36.7988,-9.57529,0.682581,-1.06099,-46.9512,-6.76829,9.45122
979.13,26.6106,-2.95829,0,-1.42025,7.7431,-0.866997,27.3476,67.3171,30.122,-9.51781,0.579595,-1.17595,-47.9268,-7.16463,7.62195
979.14,26.1309,-3.16106,0,-1.19511,7.61137,-0.677791,27.0122,53.6585,23.5671,-9.40045,0.452659,-1.33403,-49.3598,-6.06707,5.57927
979.15,25.5918,-3.39034,0,-1.11368,7.47965,-0.359253,26.311,39.2683,15.6098,-9.26154,0.364043,-1.45138,-50.3049,-5.4878,3.81098
979.159,25.0443,-3.65974,0,-0.526904,7.22098,-0.416733,24.0549,26.311,6.7378,-9.12981,0.184417,-1.5879,-50.8841,-4.14634,2.83537
979.169,23.9269,-3.98734,0,-0.160466,7.00064,-0.0359253,20.3049,13.5671,-3.44512,-9.15376,0.0407153,-1.68609,-51.5854,-2.68293,1.79878
979.18,23.3791,-4.53315,0,0.390388,7.01741,-0.158071,16.9512,6.40244,-13.5671,-9.07233,0.00239502,-1.76752,-51.7073,-1.28049,1.15854
979.19,22.8207,-5.65262,0,0.876577,7.0701,-0.0838257,13.9939,-0.518293,-23.689,-8.99569,0.0143701,-1.88249,-51.7683,-0.213415,0.701219
979.199,22.182,-6.27079,0,1.02507,7.30241,-0.170046,11.9512,-1.4939,-34.9085,-8.95737,0.0742456,-2.03577,-51.7988,1.12805,0.701219
979.209,21.4955,-6.69824,0,1.31726,7.36229,-0.0167651,9.69512,-3.96341,-45.4878,-8.88552,0.141306,-2.24892,-51.311,2.34756,0.304878
979.219,20.811,-7.05897,0,1.87291,7.7886,0.102986,7.86585,-2.0122,-53.5671,-8.88792,0.213157,-2.39741,-50.6402,3.78049,0.27439
979.23,20.1958,-7.39221,0,3.00096,8.19097,0.105381,4.81707,6.09756,-61.372,-8.82086,0.263452,-2.38783,-49.4207,4.63415,-0.426829
979.239,19.6278,-7.71866,0,4.05477,8.68674,0.471819,2.43902,17.2561,-67.8049,-8.71308,0.299377,-2.38544,-47.5305,4.72561,-1.09756
979.25,19.2546,-8.03905,0,5.91809,8.45202,1.19751,6.4939,27.7744,-69.4512,-8.66518,0.213157,-2.4022,-44.4817,4.78659,-1.52439
979.259,19.1222,-8.34212,0,8.50711,8.43047,0.701741,12.5305,34.1159,-66.5854,-8.69153,0.0215552,-2.40939,-40.8537,5.2439,-1.98171
979.269,19.1414,-8.57862,0,10.4638,8.67237,-0.241897,13.2622,43.2927,-61.7683,-8.7993,-0.165256,-2.22976,-36.8902,5.91463,-2.28659
979.279,19.3421,-8.76755,0,11.4266,8.60052,-1.27894,14.5122,56.0976,-48.689,-8.91187,-0.162861,-2.10283,-32.8354,6.03659,-1.76829
979.29,19.7278,-8.92982,0,11.0363,8.36101,-1.93039,18.872,61.4024,-29.0244,-9.02922,-0.0167651,-2.05253,-28.9024,6.21951,0.27439
979.299,20.2305,-9.08254,0,9.69264,8.29395,-2.65608,25.6402,59.1159,-9.35976,-9.23999,0.0335303,-2.08846,-25.0305,6.34146,2.71341
979.309,20.7281,-9.21889,0,7.3575,8.28437,-3.00096,28.4146,39.3902,7.13415,-9.50823,0.0479004,-2.10522,-22.1341,7.10366,5.67073
979.319,21.1185,-9.34968,0,5.03194,8.21252,-2.85247,28.9634,10.061,17.8659,-9.71659,0.0215552,-2.15073,-20.6402,7.71341,7.77439
979.33,21.3616,-9.4908,0,3.25723,8.35143,-2.18426,28.7805,-21.0976,24.4207,-9.84593,0.0790356,-2.24892,-20.3659,9.39024,8.47561
979.339,21.5609,-9.64428,0,2.58662,8.35143,-1.36756,26.0061,-43.872,28.811,-9.79803,0.299377,-2.31838,-21.8598,10.9451,8.5061
979.349,21.862,-9.78624,0,3.01054,7.73352,-0.510139,24.3598,-55.4573,31.311,-9.70222,0.749641,-2.27048,-24.3902,11.7073,8.04878
979.36,22.2264,-9.83541,0,3.81527,7.47007,0.191602,27.9268,-53.4146,26.5854,-9.82677,1.23104,-1.90644,-26.7378,9.81707,8.41463
979.369,22.4126,-9.76197,0,3.90149,8.39694,-0.0694556,34.7561,-46.7073,13.5061,-10.2674,1.32445,-1.4442,-27.8049,3.75,9.2378
979.38,22.215,-9.59254,0,3.79611,11.35,-1.23583,40.7927,-34.1159,-12.1646,-10.9452,0.866997,-1.06578,-26.9207,-3.71951,9.45122
979.39,21.6583,-9.39011,0,4.3781,15.6874,-0.529299,25.5793,-17.6829,-43.2927,-11.8697,0.227527,-0.941243,-23.0183,-10.7317,10.0915
979.399,21.1095,-9.1978,0,6.80425,16.7364,1.64538,-6.37195,2.16463,-56.9512,-13.0936,-0.737666,-1.0562,-15.3659,-15.7927,12.378
979.409,21.0603,-9.10823,0,11.6302,14.2504,1.27894,-14.6341,23.9024,-41.9817,-14.0061,-1.81782,-1.72202,-5.33537,-14.8171,14.4207
979.42,21.476,-8.82304,0,14.9689,10.974,-2.10283,11.189,64.4512,-24.2988,-14.7916,-2.71116,-0.510139,-0.823171,-13.872,15.3963
979.43,21.842,-8.69758,0,11.2853,10.2172,-5.772,19.6951,138.079,-16.4634,-13.8264,-3.58534,-1.37714,7.5,-6.67683,16.0976
979.439,21.5198,-8.49561,0,1.74597,10.6602,-5.66422,11.4634,183.506,-7.28659,-12.217,-2.63213,-0.819097,10.9146,-1.0061,18.7805
979.449,20.639,-8.13368,0,-3.93741,10.756,-2.99856,2.86585,159.97,1.28049,-11.0913,-1.19751,-0.0838257,12.2256,1.34146,24.2073
979.459,19.4459,-7.5846,0,-7.24254,9.73575,-1.19032,8.14024,87.0427,-2.04268,-10.9955,-0.0455054,0.548459,12.7439,-0.823171,28.2927
979.469,17.8689,-7.07918,0,-9.41961,7.56108,-2.06211,15.7317,0.27439,-16.6463,-11.6757,1.45617,0.799937,12.6524,-0.914634,31.8598
979.479,16.0343,-6.74492,0,-8.81128,6.16718,-3.14466,21.6768,-66.3719,-38.4756,-11.4003,0.893342,0.148491,9.14634,1.58537,29.4512
979.49,14.4143,-6.32884,0,-5.66662,7.5491,-3.6045,31.6159,-95.1219,-57.2866,-11.932,1.20948,0.728086,5.27439,2.07317,23.9939
979.5,13.2383,-5.79036,0,-2.46448,10.2938,-4.15057,38.5671,-93.811,-63.1098,-12.0469,1.4897,1.34361,0.0609756,0.914634,17.1646
979.509,12.3814,-5.03378,0,0.196392,12.0996,-3.72905,30.8841,-87.3476,-62.3171,-11.3045,1.49928,1.79387,-6.09756,0.182927,12.3476
979.519,11.7404,-4.37574,0,2.48603,12.1451,-2.4046,21.2195,-69.6646,-63.75,-10.4782,0.902922,1.83938,-11.9817,-2.04268,8.90244
979.53,11.1906,-3.77714,0,3.54463,11.2183,-1.67412,16.5244,-45.8537,-67.9268,-9.91299,-0.0119751,1.66454,-17.0427,-2.89634,5.67073
979.54,10.5748,-3.26175,0,2.88121,10.3225,-1.66693,13.9939,-25.7927,-71.8293,-9.36692,-0.869392,1.22864,-19.878,-2.86585,2.9878
979.549,9.87735,-2.88893,0,1.88009,9.68067,-1.90404,11.4939,-14.2073,-72.0122,-8.93342,-1.40109,0.684976,-18.7805,-2.89634,1.55488
979.559,9.14353,-2.6777,0,1.25978,9.26873,-2.1651,10.3049,-9.63415,-70.5183,-8.77296,-1.71004,0.294587,-14.6037,-3.81098,2.5
979.569,8.42932,-2.5724,0,1.06099,8.94779,-2.91953,8.2622,-6.31098,-68.0183,-8.77775,-1.98068,-0.0359253,-7.9878,-4.02439,4.84756
979.58,7.78034,-2.50812,0,1.2526,8.56219,-3.48236,8.35366,-2.0122,-66.0061,-8.77535,-2.11241,-0.172441,-0.365854,-3.68902,7.40854
979.589,7.17364,-2.48546,0,1.36995,8.31551,-3.71468,10.061,4.02439,-65.1219,-8.72506,-2.10522,-0.325723,7.37805,-2.19512,9.63415
979.6,6.6114,-2.44925,0,1.55676,8.35622,-3.70989,12.2866,12.3171,-64.2683,-8.65081,-1.98787,-0.347278,14.3293,-0.213415,11.25
979.609,6.06485,-2.45334,0,1.48731,8.42328,-3.70749,15.2744,16.8902,-62.7134,-8.62926,-1.70525,-0.376018,20.3659,1.79878,12.1951
979.62,5.48572,-2.45965,0,0.991538,8.63165,-3.58534,17.1341,18.2927,-60.0915,-8.78014,-1.4897,-0.395178,24.6646,3.65854,12.1341
979.63,4.85999,-2.48151,0,0.373623,8.89989,-3.16382,18.1707,11.311,-57.561,-9.35495,-1.43222,-0.486189,28.4451,4.72561,10.4573
979.639,4.21005,-2.5679,0,-0.126936,9.36692,-2.79978,17.4695,-1.89024,-54.8171,-9.82916,-1.3005,-0.795146,30.7012,7.04268,7.80488
979.649,3.53075,-2.63695,0,-0.675395,9.73096,-2.41418,14.6646,-20.1829,-52.622,-10.1932,-1.29092,-0.761616,32.2256,7.56098,4.78659
979.659,2.82696,-2.69812,0,-1.20469,9.73575,-2.13875,9.60366,-41.7988,-50.2134,-10.0998,-1.07776,-0.730481,32.7134,8.9939,2.13415
979.669,2.16923,-2.78586,0,-1.08015,9.86748,-2.12917,4.81707,-63.5671,-48.5976,-9.93454,-0.926873,-0.845442,32.6829,9.96951,0.731707
979.679,1.64069,-2.92723,0,-0.220342,9.96807,-2.37107,0.335366,-77.8354,-46.9207,-9.66869,-0.737666,-1.06818,33.1098,10.3354,0.457317
979.689,1.20969,-3.05601,0,0.397573,9.5681,-2.49082,-1.64634,-88.5976,-45.4878,-9.59445,-0.63947,-1.02986,33.3232,10.6098,0.365854
979.699,0.895556,-3.18256,0,1.23104,9.19209,-2.77822,-1.34146,-88.5976,-45.1524,-9.4747,-0.443079,-1.02986,33.2012,9.66463,1.43293
979.71,0.649891,-3.31163,0,1.57592,8.85199,-2.81415,-1.31098,-92.8963,-43.8415,-9.36213,-0.356858,-1.04902,33.9024,9.69512,2.13415
979.719,0.520444,-3.40742,0,2.35191,8.73943,-3.24286,0.396341,-87.439,-42.622,-9.3286,-0.251477,-0.929268,33.1402,7.83537,2.71341
979.73,0.381788,-3.48658,0,2.16989,8.79451,-3.35063,0.0304878,-85.7012,-41.372,-9.29986,-0.222737,-0.871787,32.2561,5.57927,2.89634
979.739,0.313595,-3.6027,0,2.64171,8.78493,-3.52547,-1.25,-74.6341,-40.3354,-9.36692,-0.196392,-1.01788,32.0122,3.68902,2.16463
979.75,0.298068,-3.74102,0,3.05125,8.83762,-3.49912,-1.95122,-60.4268,-39.8171,-9.35016,-0.158071,-1.08494,32.1037,2.95732,1.40244
979.759,0.321702,-3.88124,0,3.42727,8.91905,-3.20933,-2.95732,-47.7439,-39.878,-9.37411,-0.229922,-1.10889,31.3415,2.80488,0.609756
979.769,0.380241,-4.04449,0,3.53505,8.65321,-3.11592,-1.92073,-25.5183,-38.7195,-9.30226,-0.308958,-1.19751,30.7622,2.77439,0.0914634
979.78,0.434826,-4.21173,0,3.40811,8.56699,-2.9339,-0.792683,-11.0976,-37.9268,-9.17532,-0.328118,-1.19032,29.6951,2.59146,0.0609756
979.789,0.382577,-4.42895,0,2.42855,8.52627,-2.55549,0.853659,-7.19512,-36.8902,-9.02922,-0.419128,-1.27894,28.9329,2.22561,0.792683
979.799,0.264372,-4.67261,0,1.77471,8.61728,-2.62015,1.4939,0.487805,-35.0305,-8.90229,-0.376018,-1.3963,28.2622,2.46951,1.79878
979.81,0.0670315,-4.89802,0,1.27415,8.93582,-2.41657,2.28659,-1.82927,-36.1585,-8.93103,-0.529299,-1.47294,28.1707,2.9878,2.62195
979.82,-0.133842,-5.13655,0,1.11847,8.8496,-2.48364,1.31098,-0.640244,-35.061,-8.90947,-0.517324,-1.59987,27.9573,3.41463,3.38415
979.829,-0.3606,-5.38215,0,0.799937,8.86636,-2.28485,2.5,-7.65244,-33.9329,-8.90708,-0.469424,-1.67891,28.2927,3.56707,4.11585
979.84,-0.577096,-5.62244,0,0.871787,9.10107,-2.53393,2.34756,-8.65854,-33.9939,-8.94061,-0.486189,-1.76034,28.2317,4.35976,4.66463
979.849,-0.822121,-5.8693,0,0.680186,9.19209,-2.43573,1.76829,-11.0976,-34.8171,-8.95498,-0.447869,-1.84656,28.2012,4.84756,4.96951
979.859,-1.05212,-6.15528,0,0.893342,9.20166,-2.53154,2.04268,-7.83537,-36.4634,-8.86876,-0.304167,-2.04535,28.7195,5.94512,5.88415
979.869,-1.37635,-6.47294,0,0.201182,9.14179,-2.11241,2.07317,-13.0488,-37.8049,-8.82086,-0.201182,-2.21779,29.5122,7.0122,7.19512
979.879,-1.71028,-6.80801,0,0.134121,9.31423,-2.15073,2.10366,-10.9451,-38.5671,-8.71787,-0.213157,-2.31598,29.3293,7.53049,8.9939
979.89,-2.05444,-7.09687,0,0.0431104,9.36932,-2.16749,2.16463,-17.0427,-39.1463,-8.59812,-0.285007,-2.15073,29.8476,7.43902,10.8841
979.899,-2.34684,-7.31168,0,0.426313,9.51062,-2.4022,2.46951,-19.1768,-39.2683,-8.44484,-0.347278,-1.85614,29.6341,5.85366,12.9268
979.91,-2.62774,-7.56576,0,0.457449,9.59205,-2.39981,3.65854,-24.1159,-39.0244,-8.25803,-0.342488,-1.95194,29.4207,4.69512,14.7866
979.919,-2.82209,-7.87712,0,1.27415,9.58966,-2.692,4.20732,-19.2683,-40.6402,-8.09517,-0.541274,-2.2106,29.7256,6.21951,16.372
979.93,-2.97387,-8.19086,0,1.75315,9.11065,-2.57944,6.12805,-17.5305,-43.4756,-7.97542,-0.579595,-2.24892,30.3049,9.45122,16.8293
979.939,-3.10614,-8.50419,0,1.96392,8.82086,-2.36867,7.7439,-15.8232,-45.1829,-8.04727,-0.517324,-2.31359,30.7622,12.7744,17.5305
979.949,-3.18553,-8.84314,0,2.2609,8.40891,-2.31838,8.29268,-15.1829,-45.1524,-8.2724,-0.742456,-2.52675,31.311,15.8841,17.9573
979.959,-3.1714,-9.16173,0,2.73511,8.0784,-2.52914,8.41463,-11.5244,-43.2317,-8.60052,-0.989143,-2.5962,32.1341,18.3841,17.3476
