time,angle1,angle2,intgangle,accX1,accY1,accZ1,gyroX1,gyroY1,gyroZ1,accX2,accY2,accZ2,gyroX2,gyroY2,gyroZ2
935.98,82.6591,-4.44062,0,9.73336,1.22386,1.4442,-0.0914634,0.0914634,-0.609756,-9.89383,-0.385598,-0.799937,-0.27439,0.0304878,5.94512
935.991,82.654,-4.4705,0,9.71899,1.2526,1.47533,-0.121951,0.487805,-0.518293,-9.91778,-0.368833,-0.823887,0.213415,0.152439,5.88415
936,82.6513,-4.47491,0,9.72617,1.21906,1.46336,-0.0914634,0.518293,-0.97561,-9.89143,-0.342488,-0.780776,0.243902,0.0914634,6.0061
936.011,82.6557,-4.46002,0,9.74294,1.20948,1.49449,-0.213415,0.457317,-0.640244,-9.87946,-0.404758,-0.742456,-0.0304878,0.426829,6.09756
936.02,82.6576,-4.45496,0,9.74533,1.21427,1.51605,-0.213415,0.121951,-0.731707,-9.91538,-0.356858,-0.764011,0.0609756,0.182927,6.12805
936.03,82.6568,-4.42903,0,9.75491,1.22386,1.49928,-0.152439,0.0304878,-0.792683,-9.89383,-0.395178,-0.723296,-0.152439,0.213415,5.85366
936.04,82.6532,-4.41733,0,9.73575,1.24781,1.46336,-0.27439,0.182927,-0.548781,-9.9082,-0.368833,-0.744851,-0.182927,0.27439,5.85366
936.051,82.651,-4.40524,0,9.73575,1.23583,1.4921,0,0.243902,-0.670732,-9.90101,-0.414338,-0.742456,-0.182927,0.213415,5.91463
936.06,82.6362,-4.41282,0,9.73336,1.28852,1.47054,-0.0609756,0.121951,-0.823171,-9.87706,-0.399968,-0.773591,0.0304878,0.0914634,5.64024
936.07,82.6298,-4.4248,0,9.71899,1.26218,1.54958,0.0914634,0.121951,-0.518293,-9.93454,-0.380808,-0.787961,-0.396341,0.121951,5.85366
936.08,82.6216,-4.38948,0,9.72617,1.26457,1.48491,0.121951,0.182927,-0.701219,-9.91778,-0.407153,-0.701741,-0.396341,0.213415,5.91463
936.091,82.6164,-4.38643,0,9.74294,1.26936,1.51605,0.243902,0.152439,-0.335366,-9.92975,-0.402363,-0.756826,-0.0609756,0.0914634,5.97561
936.1,82.6133,-4.39506,0,9.72378,1.25978,1.46575,0.27439,0.335366,-0.335366,-9.92736,-0.378413,-0.775986,-0.243902,0.0304878,5.7622
936.11,82.61,-4.37562,0,9.74533,1.25499,1.50886,0.213415,-0.0914634,-0.548781,-9.92975,-0.392783,-0.730481,-0.335366,0.0304878,5.64024
936.121,82.6166,-4.38189,0,9.77168,1.22386,1.46575,-0.0914634,0.243902,-0.426829,-9.91778,-0.411943,-0.771196,-0.182927,-0.27439,5.91463
936.13,82.6206,-4.42326,0,9.73575,1.23104,1.48252,0.121951,0.0304878,-0.396341,-9.88425,-0.399968,-0.835862,-0.243902,-0.27439,5.94512
936.141,82.6292,-4.41904,0,9.74294,1.2023,1.54239,0.0304878,0.121951,-0.548781,-9.89143,-0.443079,-0.756826,-0.0914634,-0.426829,5.70122
936.151,82.6351,-4.43194,0,9.74054,1.21427,1.49689,-0.0609756,0.182927,-0.518293,-9.87467,-0.426313,-0.787961,-0.518293,-0.304878,5.97561
936.161,82.6314,-4.43202,0,9.70701,1.24541,1.5376,0.0914634,0.152439,-0.609756,-9.88425,-0.414338,-0.766406,-0.243902,-0.182927,5.97561
936.17,82.6337,-4.4544,0,9.72857,1.23583,1.53521,0.0914634,0.0304878,-0.365854,-9.92017,-0.443079,-0.807122,-0.121951,0.0609756,5.97561
936.18,82.6354,-4.46497,0,9.70701,1.22386,1.49689,-0.0304878,0.0914634,-0.579268,-9.89862,-0.392783,-0.790356,-0.365854,0.213415,5.70122
936.19,82.6373,-4.46669,0,9.7621,1.24062,1.49449,0.0609756,-0.0914634,-0.365854,-9.90101,-0.397573,-0.775986,0.121951,0.0609756,5.51829
936.201,82.6436,-4.47543,0,9.75731,1.21906,1.46815,0.121951,-0.335366,-0.426829,-9.87946,-0.435894,-0.787961,0.182927,0.27439,5.67073
936.21,82.647,-4.46981,0,9.73815,1.22386,1.44899,0.152439,0,-0.487805,-9.85311,-0.404758,-0.761616,-0.0304878,0.121951,5.79268
936.221,82.651,-4.49668,0,9.74533,1.22146,1.47533,0,-0.0914634,-0.487805,-9.89862,-0.423918,-0.821492,0.182927,0.152439,5.70122
936.23,82.6502,-4.51403,0,9.75491,1.23583,1.45138,-0.0914634,-0.0304878,-0.609756,-9.87467,-0.416733,-0.804727,0.152439,0.0304878,6.03659
936.24,82.649,-4.53438,0,9.76449,1.24781,1.46096,-0.121951,0.121951,-0.426829,-9.9082,-0.416733,-0.816702,-0.0609756,0.0609756,5.79268
936.251,82.6459,-4.52504,0,9.73336,1.24062,1.48252,0,0.0304878,-0.670732,-9.91538,-0.419128,-0.768801,0.182927,0.213415,5.67073
936.26,82.6488,-4.52055,0,9.70941,1.21906,1.47533,-0.0609756,0.335366,-0.548781,-9.9058,-0.433499,-0.775986,0.304878,0.121951,5.79268
936.271,82.6498,-4.51465,0,9.71659,1.22864,1.47054,-0.0609756,0.243902,-0.518293,-9.9082,-0.409548,-0.773591,0.0609756,-0.0304878,5.7622
936.28,82.6465,-4.51696,0,9.7621,1.24781,1.4897,-0.121951,0,-0.609756,-9.92975,-0.407153,-0.787961,0.213415,-0.0304878,6.0061
936.29,82.6507,-4.51811,0,9.73815,1.21667,1.50647,-0.304878,-0.0914634,-0.548781,-9.91538,-0.380808,-0.785566,0.335366,-0.182927,5.82317
936.301,82.6523,-4.52542,0,9.75491,1.22146,1.45617,-0.365854,-0.0609756,-0.670732,-9.89383,-0.416733,-0.795146,0.335366,-0.182927,6.15854
936.31,82.65,-4.50118,0,9.73096,1.24062,1.47294,-0.0914634,0,-0.579268,-9.89862,-0.399968,-0.737666,0.457317,-0.27439,5.97561
936.32,82.6515,-4.50306,0,9.74294,1.23583,1.48731,0,0,-0.396341,-9.90341,-0.414338,-0.783171,0.27439,-0.182927,6.0061
936.331,82.658,-4.51716,0,9.73815,1.19751,1.50647,-0.0914634,-0.304878,-0.670732,-9.9082,-0.390388,-0.804727,0.243902,-0.0914634,5.97561
936.34,82.6652,-4.51116,0,9.73336,1.19751,1.40588,-0.0304878,-0.243902,-0.609756,-9.87946,-0.383203,-0.768801,0.213415,-0.396341,6.0061
936.351,82.6665,-4.49825,0,9.7597,1.22625,1.48012,-0.0914634,-0.0609756,-0.579268,-9.9082,-0.378413,-0.759221,0.426829,-0.121951,5.7622
936.361,82.6622,-4.49306,0,9.7621,1.24781,1.45378,-0.0609756,0.213415,-0.640244,-9.88664,-0.395178,-0.768801,0.0304878,-0.152439,5.73171
936.371,82.6663,-4.50367,0,9.72857,1.20948,1.47054,-0.182927,0.396341,-0.609756,-9.91059,-0.431104,-0.797541,0.152439,-0.121951,5.91463
936.38,82.6622,-4.49143,0,9.74533,1.24062,1.46575,-0.609756,0.121951,-0.731707,-9.89383,-0.419128,-0.759221,0.27439,-0.0304878,5.85366
936.391,82.6591,-4.46948,0,9.73815,1.22864,1.4442,-0.243902,0.0304878,-0.853659,-9.91778,-0.397573,-0.742456,-0.304878,-0.0304878,5.97561
936.401,82.6648,-4.46804,0,9.74533,1.22625,1.47294,-0.243902,-0.0304878,-0.243902,-9.89622,-0.402363,-0.771196,-0.0914634,-0.0304878,5.73171
936.411,82.6597,-4.45411,0,9.7142,1.2526,1.49449,0.0304878,0.0304878,-0.487805,-9.89862,-0.421523,-0.747246,0.213415,-0.27439,6.18902
936.42,82.6649,-4.46832,0,9.73096,1.19032,1.45857,0.213415,-0.0304878,-0.823171,-9.86269,-0.404758,-0.792751,0.0609756,0.152439,6.06707
936.43,82.663,-4.4651,0,9.73096,1.22146,1.46815,0.0609756,-0.0304878,-0.853659,-9.91538,-0.399968,-0.768801,0.27439,-0.304878,5.70122
936.44,82.6639,-4.46626,0,9.74773,1.21188,1.47773,0.0609756,0.121951,-0.823171,-9.91299,-0.385598,-0.775986,0.121951,0,5.7622
936.451,82.6669,-4.46728,0,9.76928,1.21667,1.45857,0.0914634,-0.0609756,-0.640244,-9.91299,-0.404758,-0.775986,0.0914634,0.0914634,5.57927
936.46,82.6586,-4.43944,0,9.73815,1.26697,1.46336,0.365854,0.0304878,-0.518293,-9.88185,-0.399968,-0.720901,-0.0609756,-0.243902,5.88415
936.471,82.6564,-4.44774,0,9.75491,1.24062,1.49689,0.152439,0.0304878,-0.609756,-9.88185,-0.414338,-0.780776,0.121951,-0.0304878,5.85366
936.48,82.6633,-4.44371,0,9.75491,1.20709,1.45857,0.0609756,0.182927,-0.518293,-9.91059,-0.397573,-0.764011,0.0914634,0.0609756,6.06707
936.49,82.6579,-4.44914,0,9.74054,1.24781,1.50647,0.152439,0.396341,-0.701219,-9.90101,-0.378413,-0.778381,-0.0304878,0.0304878,6.15854
936.5,82.6569,-4.43425,0,9.74533,1.23104,1.48012,-0.0914634,0.213415,-0.670732,-9.94412,-0.356858,-0.744851,-0.152439,-0.27439,5.91463
936.511,82.6523,-4.42914,0,9.74054,1.22864,1.41785,0.182927,0.0304878,-1.0061,-9.9082,-0.399968,-0.759221,-0.121951,-0.182927,5.91463
936.521,82.658,-4.43664,0,9.71899,1.20709,1.46575,-0.121951,0.121951,-0.548781,-9.86269,-0.383203,-0.778381,-0.457317,-0.304878,5.51829
936.53,82.6656,-4.45902,0,9.72857,1.19511,1.47773,0.0304878,0.365854,-0.609756,-9.87946,-0.404758,-0.811912,0.0609756,-0.396341,5.94512
936.541,82.6735,-4.43969,0,9.71659,1.19751,1.49689,0.152439,0,-0.518293,-9.89622,-0.421523,-0.737666,-0.0609756,-0.152439,5.88415
936.55,82.6751,-4.46322,0,9.76449,1.21427,1.46575,0.0304878,-0.121951,-0.731707,-9.88904,-0.428708,-0.809517,-0.304878,-0.152439,5.64024
936.56,82.6762,-4.45629,0,9.75491,1.21427,1.4442,0.213415,-0.152439,-0.762195,-9.87706,-0.407153,-0.759221,-0.182927,0.0914634,5.7622
936.571,82.6731,-4.47453,0,9.71899,1.23104,1.45857,0.121951,-0.0304878,-0.731707,-9.88185,-0.433499,-0.799937,-0.182927,-0.0304878,5.82317
936.581,82.6598,-4.46327,0,9.74294,1.27894,1.47054,0.27439,-0.152439,-0.823171,-9.89862,-0.438289,-0.754431,-0.152439,-0.182927,5.97561
936.59,82.6497,-4.44883,0,9.75491,1.27176,1.46096,0.182927,-0.0304878,-0.701219,-9.92496,-0.431104,-0.749641,0.0304878,-0.0914634,5.85366
936.6,82.644,-4.44461,0,9.73815,1.24541,1.50168,0.152439,0.182927,-0.823171,-9.91538,-0.414338,-0.764011,0.0609756,-0.152439,5.79268
936.611,82.6439,-4.45866,0,9.76928,1.22864,1.4418,-0.152439,0.0914634,-0.731707,-9.8603,-0.414338,-0.792751,0.213415,-0.27439,5.97561
936.62,82.6493,-4.45676,0,9.74054,1.21188,1.4921,0.0609756,0.121951,-0.548781,-9.87227,-0.404758,-0.766406,-0.0304878,-0.335366,6.15854
936.63,82.6511,-4.48472,0,9.76449,1.21188,1.46575,-0.182927,0.182927,-0.823171,-9.84353,-0.383203,-0.814307,0.0914634,-0.121951,6.25
936.641,82.6505,-4.48484,0,9.72138,1.23104,1.42743,-0.121951,0.243902,-0.609756,-9.82916,-0.431104,-0.771196,-0.0914634,-0.0914634,5.97561
936.651,82.6623,-4.48207,0,9.73336,1.17835,1.46336,-0.152439,0.335366,-0.609756,-9.8603,-0.411943,-0.768801,0.304878,-0.121951,6.15854
936.66,82.6651,-4.4772,0,9.74054,1.2023,1.46575,-0.0914634,0.121951,-0.823171,-9.87946,-0.402363,-0.766406,0.304878,-0.0609756,6.21951
936.671,82.6689,-4.44077,0,9.7142,1.19032,1.45857,-0.243902,0.0609756,-0.884146,-9.8579,-0.395178,-0.713716,-0.0914634,0.0304878,6.0061
936.681,82.6635,-4.40544,0,9.73336,1.23823,1.45378,-0.457317,0.304878,-0.853659,-9.86509,-0.376018,-0.696951,0.304878,0.365854,6.15854
936.69,82.6571,-4.39021,0,9.70701,1.24541,1.43941,-0.365854,0,-0.762195,-9.87706,-0.373623,-0.735271,-0.0609756,0.0914634,6.03659
936.7,82.6489,-4.35049,0,9.7597,1.26457,1.46575,-0.0914634,0.0914634,-0.701219,-9.90101,-0.387993,-0.689766,-0.0609756,0.152439,6.03659
936.71,82.65,-4.34392,0,9.72138,1.23344,1.47533,0.0609756,0.304878,-0.426829,-9.92975,-0.390388,-0.742456,-0.0609756,0.27439,6.09756
936.721,82.6402,-4.33209,0,9.74533,1.26218,1.48491,0.243902,0.365854,-0.914634,-9.92496,-0.361648,-0.732876,-0.213415,0.121951,5.88415
936.73,82.6371,-4.3437,0,9.74294,1.23104,1.49689,0.213415,0.213415,-0.884146,-9.9537,-0.392783,-0.775986,-0.0609756,0.213415,6.15854
936.74,82.6325,-4.32971,0,9.75012,1.2502,1.4418,0.487805,0.152439,-0.701219,-9.93933,-0.385598,-0.730481,0.0609756,-0.0914634,6.12805
936.75,82.6253,-4.34301,0,9.74773,1.27176,1.47054,0.27439,-0.182927,-0.457317,-9.94891,-0.383203,-0.775986,-0.121951,-0.0304878,6.18902
936.761,82.6218,-4.32536,0,9.7142,1.2526,1.45857,0.243902,0.27439,-0.487805,-9.9082,-0.376018,-0.718506,0.152439,-0.304878,6.06707
936.771,82.6111,-4.33764,0,9.71899,1.27415,1.42504,0.0914634,-0.0304878,-0.762195,-9.90101,-0.366438,-0.771196,0,-0.182927,6.31098
936.78,82.6061,-4.35747,0,9.75012,1.26936,1.51126,0.152439,-0.0609756,-0.396341,-9.9058,-0.395178,-0.785566,-0.0304878,-0.0914634,5.97561
936.79,82.6065,-4.3424,0,9.72857,1.23344,1.47773,0.121951,0.121951,-0.640244,-9.88664,-0.378413,-0.725691,-0.27439,-0.243902,6.0061
936.8,82.605,-4.34514,0,9.72857,1.24302,1.51605,0.0304878,0.121951,-0.609756,-9.87227,-0.416733,-0.754431,-0.548781,-0.121951,5.82317
936.81,82.6068,-4.356,0,9.72378,1.24062,1.46336,-0.0304878,0.0609756,-0.396341,-9.87227,-0.419128,-0.768801,-0.365854,-0.121951,6.15854
936.821,82.6105,-4.36579,0,9.72857,1.22625,1.46575,0.182927,0.152439,-0.518293,-9.88664,-0.419128,-0.768801,-0.0609756,0,5.94512
936.83,82.6056,-4.37736,0,9.72857,1.25739,1.48491,0.121951,0.396341,-0.609756,-9.88185,-0.411943,-0.773591,-0.121951,0.0609756,6.25
936.84,82.6088,-4.37738,0,9.74054,1.23344,1.47294,-0.0609756,0.0914634,-0.457317,-9.88185,-0.421523,-0.756826,-0.182927,-0.396341,6.03659
936.85,82.6163,-4.39381,0,9.74773,1.21188,1.49928,-0.243902,0.213415,-0.518293,-9.88664,-0.385598,-0.783171,0.304878,0,6.03659
936.861,82.6179,-4.37164,0,9.75252,1.22864,1.50168,-0.213415,-0.0609756,-0.640244,-9.88664,-0.383203,-0.720901,0,-0.152439,6.03659
936.87,82.6217,-4.35541,0,9.74533,1.21188,1.4897,0.0914634,0.213415,-0.731707,-9.87227,-0.354463,-0.725691,-0.0609756,-0.213415,5.88415
936.88,82.6206,-4.38648,0,9.74054,1.23583,1.46815,-0.0304878,-0.152439,-0.701219,-9.88904,-0.366438,-0.807122,0.0914634,-0.121951,5.91463
936.891,82.6241,-4.37168,0,9.73815,1.21427,1.46096,0.0914634,0.335366,-0.701219,-9.89862,-0.376018,-0.730481,-0.213415,0.304878,5.97561
936.9,82.6314,-4.38625,0,9.73815,1.21667,1.49928,0.0304878,0.182927,-0.396341,-9.88904,-0.392783,-0.785566,-0.0609756,0.426829,6.18902
936.91,82.6326,-4.38701,0,9.70701,1.21188,1.52563,0.121951,0.0609756,-0.823171,-9.94412,-0.385598,-0.764011,0.121951,0.457317,5.91463
936.921,82.6354,-4.41286,0,9.69264,1.21427,1.47773,-0.213415,0.335366,-0.640244,-9.90101,-0.404758,-0.802332,-0.0609756,0.0304878,6.06707
936.93,82.6395,-4.41333,0,9.72617,1.21188,1.51126,0.365854,0.243902,-0.640244,-9.92017,-0.390388,-0.766406,0.0304878,-0.0609756,6.18902
936.941,82.6364,-4.43389,0,9.76928,1.24302,1.49928,0.121951,0.0609756,-0.731707,-9.90101,-0.411943,-0.797541,0.0609756,0,6.18902
936.95,82.6362,-4.45101,0,9.77647,1.23823,1.50407,0.0304878,0.213415,-0.609756,-9.91059,-0.373623,-0.797541,0.152439,-0.0609756,6.31098
936.961,82.6325,-4.44144,0,9.74054,1.25739,1.52802,-0.182927,-0.0609756,-0.426829,-9.90341,-0.366438,-0.752036,0.121951,-0.365854,6.28049
936.97,82.63,-4.46089,0,9.72138,1.23583,1.48012,0.152439,0.182927,-0.731707,-9.90101,-0.390388,-0.804727,0.0609756,0.213415,6.06707
936.981,82.6316,-4.42683,0,9.73336,1.21906,1.47054,0.121951,0.0914634,-0.731707,-9.89383,-0.380808,-0.716111,0.121951,-0.0304878,5.97561
936.99,82.6323,-4.40247,0,9.74054,1.22146,1.51126,-0.182927,-0.213415,-0.762195,-9.86988,-0.390388,-0.723296,0.0609756,0.0914634,6.0061
937,82.6283,-4.43258,0,9.73815,1.25499,1.4418,-0.0304878,-0.0304878,-0.518293,-9.90341,-0.378413,-0.814307,-0.152439,-0.0914634,6.09756
937.01,82.6317,-4.46472,0,9.74054,1.22146,1.48731,-0.152439,0.121951,-0.579268,-9.88664,-0.397573,-0.819097,-0.0304878,-0.0304878,6.03659
937.021,82.6339,-4.45573,0,9.72378,1.21667,1.44659,-0.0914634,0.27439,-0.701219,-9.92257,-0.409548,-0.759221,-0.0609756,-0.0914634,5.85366
937.031,82.6244,-4.4339,0,9.7118,1.26457,1.48252,-0.121951,-0.121951,-0.792683,-9.89862,-0.404758,-0.728086,0.0304878,-0.365854,6.06707
937.041,82.6299,-4.45478,0,9.72617,1.20948,1.4921,-0.27439,0.0609756,-0.609756,-9.9082,-0.361648,-0.807122,0.0304878,-0.213415,6.03659
937.05,82.629,-4.43853,0,9.75012,1.23583,1.50886,0.335366,0.0609756,-0.670732,-9.9058,-0.397573,-0.742456,-0.0304878,-0.182927,5.85366
937.06,82.6303,-4.40868,0,9.73096,1.21427,1.50647,-0.121951,-0.0304878,-0.823171,-9.87946,-0.385598,-0.718506,0.0914634,-0.0304878,6.12805
937.071,82.6312,-4.41357,0,9.73575,1.23104,1.46336,-0.152439,0,-0.579268,-9.86269,-0.366438,-0.768801,0.0914634,-0.121951,6.12805
937.08,82.6268,-4.43449,0,9.71899,1.23823,1.47054,-0.0304878,0,-0.853659,-9.88185,-0.395178,-0.797541,0.243902,-0.0609756,6.21951
937.09,82.6215,-4.42312,0,9.74773,1.2502,1.43941,-0.243902,-0.0304878,-0.792683,-9.87706,-0.411943,-0.747246,-0.0914634,-0.0609756,6.31098
937.1,82.6144,-4.45762,0,9.77168,1.26697,1.46815,-0.121951,0,-0.701219,-9.86748,-0.421523,-0.819097,-0.304878,-0.0304878,5.94512
937.11,82.6141,-4.44339,0,9.73336,1.24541,1.4442,-0.0609756,-0.213415,-0.457317,-9.92975,-0.395178,-0.747246,-0.0609756,0.213415,6.03659
937.121,82.6166,-4.45802,0,9.73815,1.23104,1.4897,-0.152439,0.27439,-0.518293,-9.91538,-0.383203,-0.797541,0.0304878,0.213415,5.79268
937.131,82.6168,-4.48844,0,9.74533,1.22146,1.40588,-0.335366,0.182927,-0.853659,-9.94891,-0.387993,-0.828677,0.121951,0.0609756,5.97561
937.14,82.6178,-4.49168,0,9.75491,1.24781,1.48012,0.182927,0.0304878,-0.335366,-9.90341,-0.383203,-0.783171,0.243902,-0.121951,6.0061
937.15,82.6193,-4.46485,0,9.71659,1.22146,1.4418,0,0.121951,-0.701219,-9.92257,-0.419128,-0.730481,0.304878,-0.182927,6.31098
937.16,82.6195,-4.45922,0,9.73815,1.22625,1.45617,-0.0914634,0.121951,-0.762195,-9.92257,-0.356858,-0.764011,0.304878,-0.304878,6.25
937.171,82.6177,-4.44778,0,9.72378,1.23344,1.51365,0,0.152439,-0.762195,-9.91299,-0.361648,-0.749641,0.182927,-0.426829,6.18902
937.181,82.6144,-4.43311,0,9.72378,1.24062,1.45857,-0.152439,0.152439,-0.762195,-9.86509,-0.320933,-0.737666,-0.182927,-0.457317,6.15854
937.19,82.6136,-4.42198,0,9.72857,1.24062,1.48012,-0.0304878,0.121951,-0.579268,-9.83395,-0.366438,-0.740061,-0.365854,-0.487805,6.15854
937.2,82.6189,-4.45372,0,9.74773,1.23104,1.49928,0,-0.213415,-0.335366,-9.9082,-0.366438,-0.826282,-0.27439,-0.243902,5.73171
937.21,82.6266,-4.44762,0,9.7142,1.2023,1.45857,-0.0304878,0.243902,-0.579268,-9.94173,-0.402363,-0.764011,-0.152439,-0.0304878,5.51829
937.221,82.6277,-4.42089,0,9.73575,1.23104,1.48252,0.27439,0.243902,-0.579268,-9.91538,-0.371228,-0.723296,-0.335366,0.152439,5.7622
937.231,82.632,-4.41674,0,9.72857,1.21667,1.4442,0.121951,0.457317,-0.579268,-9.89383,-0.395178,-0.756826,-0.335366,0.27439,6.06707
937.24,82.6269,-4.41928,0,9.7142,1.2526,1.49689,0.121951,0.243902,-0.609756,-9.95849,-0.409548,-0.773591,0,-0.0304878,5.91463
937.25,82.6253,-4.40508,0,9.74054,1.23344,1.50647,0.0914634,0.152439,-0.762195,-9.95849,-0.399968,-0.740061,-0.0914634,-0.396341,6.25
937.26,82.6227,-4.40805,0,9.73575,1.23583,1.52084,0.121951,0.213415,-0.792683,-9.91299,-0.383203,-0.771196,-0.0304878,-0.670732,6.06707
937.271,82.6205,-4.4291,0,9.72617,1.23344,1.46815,0.0609756,0.0304878,-0.792683,-9.88664,-0.349673,-0.807122,0.121951,-0.487805,6.18902
937.28,82.6223,-4.43837,0,9.74294,1.22625,1.46575,-0.121951,0.152439,-0.640244,-9.84593,-0.397573,-0.783171,0.121951,-0.579268,6.09756
937.291,82.6239,-4.43045,0,9.75012,1.22386,1.47054,-0.548781,0.27439,-0.701219,-9.84832,-0.383203,-0.749641,0,-0.335366,5.82317
937.3,82.6278,-4.4502,0,9.71899,1.19511,1.49449,-0.27439,0.609756,-0.914634,-9.83395,-0.373623,-0.797541,-0.0914634,-0.243902,5.73171
937.31,82.6311,-4.44111,0,9.75491,1.20709,1.47054,0.27439,0.609756,-0.823171,-9.85311,-0.361648,-0.752036,0,0.0609756,6.18902
937.321,82.63,-4.4269,0,9.72857,1.22146,1.47533,-0.365854,0.548781,-0.884146,-9.8579,-0.354463,-0.742456,-0.426829,0.0609756,5.97561
937.331,82.6279,-4.43315,0,9.75731,1.23344,1.51605,-0.304878,0.121951,-0.823171,-9.83874,-0.359253,-0.773591,-0.182927,0.396341,6.15854
937.341,82.6254,-4.40726,0,9.74054,1.24062,1.46336,-0.0304878,0.304878,-0.701219,-9.88904,-0.387993,-0.708926,0.152439,0.579268,6.21951
937.351,82.6226,-4.40035,0,9.74294,1.23583,1.50407,-0.0304878,0.243902,-0.823171,-9.91299,-0.344883,-0.747246,-0.121951,0.670732,6.0061
937.361,82.6159,-4.37991,0,9.7597,1.24781,1.50407,0.243902,0.304878,-1.0061,-9.94173,-0.380808,-0.713716,-0.0914634,0.762195,5.97561
937.371,82.6245,-4.36552,0,9.73575,1.20469,1.50168,0,-0.0914634,-0.518293,-9.9561,-0.371228,-0.730481,0,0.487805,5.82317
937.381,82.6187,-4.36051,0,9.73096,1.24781,1.50407,0.152439,-0.121951,-0.853659,-9.92017,-0.376018,-0.747246,-0.243902,0.304878,5.85366
937.39,82.6111,-4.34663,0,9.73336,1.27415,1.49449,0.182927,0.243902,-0.457317,-9.9537,-0.383203,-0.730481,-0.152439,0.335366,5.88415
937.4,82.5989,-4.36803,0,9.73575,1.28852,1.49449,-0.0304878,0.27439,-0.670732,-9.92975,-0.368833,-0.792751,-0.0609756,0.121951,6.12805
937.41,82.595,-4.3644,0,9.72378,1.25978,1.52084,0,0.0609756,-0.487805,-9.93933,-0.404758,-0.752036,0.0609756,0.243902,5.91463
937.421,82.5821,-4.35246,0,9.72857,1.28852,1.51605,0.121951,0.152439,-0.823171,-9.88425,-0.378413,-0.732876,-0.243902,-0.213415,6.03659
937.43,82.5807,-4.35299,0,9.74773,1.26218,1.50407,-0.0914634,0.182927,-0.335366,-9.92975,-0.354463,-0.756826,-0.213415,-0.121951,6.03659
937.441,82.5807,-4.34751,0,9.75731,1.24781,1.50168,0.0609756,0.0609756,-0.548781,-9.88185,-0.380808,-0.742456,-0.213415,-0.213415,5.60976
937.45,82.579,-4.32448,0,9.75252,1.24302,1.49928,-0.0914634,0.304878,-0.762195,-9.89383,-0.368833,-0.713716,-0.152439,0.0609756,6.03659
937.461,82.5842,-4.33611,0,9.74773,1.22864,1.52323,-0.0304878,-0.0914634,-0.487805,-9.89622,-0.364043,-0.768801,-0.121951,0.152439,5.82317
937.471,82.586,-4.34924,0,9.69743,1.23104,1.48012,-0.0609756,-0.152439,-0.579268,-9.86269,-0.397573,-0.771196,-0.152439,0.213415,5.79268
937.48,82.5898,-4.36216,0,9.69743,1.23104,1.51844,-0.121951,-0.0304878,-0.426829,-9.86269,-0.383203,-0.771196,-0.27439,0.0609756,5.82317
937.49,82.586,-4.36055,0,9.70462,1.25739,1.50886,-0.213415,-0.0304878,-0.518293,-9.90101,-0.380808,-0.752036,-0.121951,0.243902,5.85366
937.5,82.5866,-4.38801,0,9.73575,1.25499,1.50407,-0.0914634,-0.152439,-0.27439,-9.86509,-0.404758,-0.802332,0.213415,0.243902,5.94512
937.51,82.5906,-4.37706,0,9.74294,1.24781,1.49689,0.0609756,0.0914634,-0.182927,-9.91059,-0.385598,-0.740061,0.335366,0.213415,5.91463
937.521,82.5935,-4.40552,0,9.76449,1.24302,1.48252,-0.121951,-0.182927,-0.396341,-9.9082,-0.359253,-0.819097,0,0.487805,5.73171
937.53,82.5943,-4.40492,0,9.7621,1.23583,1.46815,-0.27439,-0.152439,-0.670732,-9.9058,-0.390388,-0.761616,0.152439,0.396341,5.79268
937.541,82.5982,-4.44315,0,9.73575,1.24302,1.47773,-0.27439,-0.0914634,-0.243902,-9.88425,-0.364043,-0.823887,0.426829,0.0304878,5.88415
937.55,82.6095,-4.45783,0,9.77647,1.20709,1.48012,-0.396341,0.121951,-0.426829,-9.89143,-0.371228,-0.797541,0.0304878,0.365854,6.03659
937.56,82.6152,-4.48907,0,9.69025,1.21906,1.46336,-0.304878,0.0609756,-0.426829,-9.91538,-0.395178,-0.831072,-0.0609756,0.213415,5.82317
937.571,82.6215,-4.48232,0,9.73336,1.21427,1.51126,-0.27439,0,-0.518293,-9.92496,-0.376018,-0.766406,-0.27439,0.213415,6.12805
937.58,82.6186,-4.46081,0,9.73575,1.24302,1.47294,-0.27439,-0.0914634,-0.701219,-9.92017,-0.399968,-0.735271,0.152439,0.304878,5.94512
937.591,82.6169,-4.47029,0,9.76449,1.2526,1.48252,-0.182927,-0.0609756,-0.487805,-9.91538,-0.368833,-0.790356,0.335366,-0.121951,5.97561
937.6,82.619,-4.46558,0,9.73815,1.22864,1.50407,-0.27439,0.0304878,-0.579268,-9.93694,-0.359253,-0.768801,0.0914634,-0.0609756,6.12805
937.61,82.6134,-4.44834,0,9.75012,1.26697,1.43701,-0.152439,-0.152439,-0.487805,-9.90101,-0.364043,-0.744851,-0.0609756,-0.0304878,5.94512
937.621,82.6135,-4.45453,0,9.7597,1.22386,1.48252,-0.213415,0.0609756,-0.853659,-9.90101,-0.366438,-0.780776,-0.182927,0.0914634,5.85366
937.63,82.6113,-4.44826,0,9.73815,1.24781,1.48012,0.152439,0.121951,-0.579268,-9.88904,-0.364043,-0.759221,0,0.152439,5.73171
937.641,82.6107,-4.46082,0,9.77168,1.23823,1.52563,-0.121951,0.0609756,-0.701219,-9.89383,-0.376018,-0.790356,0.152439,-0.0304878,6.12805
937.651,82.6142,-4.47418,0,9.75731,1.22386,1.48491,-0.0914634,0.457317,-0.609756,-9.88904,-0.359253,-0.795146,-0.27439,-0.152439,5.94512
937.66,82.6186,-4.45691,0,9.72138,1.20948,1.48491,0.182927,0.182927,-0.701219,-9.91778,-0.416733,-0.747246,0.0609756,-0.0304878,5.94512
937.671,82.6174,-4.44474,0,9.74294,1.24781,1.46575,0.0609756,0.304878,-0.487805,-9.94412,-0.380808,-0.754431,0.0304878,-0.0304878,5.91463
937.681,82.6176,-4.44165,0,9.72617,1.22864,1.4897,0.0914634,0.304878,-0.701219,-9.90101,-0.349673,-0.764011,0,0.152439,5.73171
937.69,82.6176,-4.45082,0,9.73575,1.24781,1.49449,0.0609756,0.152439,-0.365854,-9.88664,-0.368833,-0.783171,0.213415,0.0609756,5.64024
937.7,82.6174,-4.42777,0,9.74773,1.23104,1.46096,0.182927,0.27439,-0.731707,-9.90101,-0.352068,-0.730481,-0.243902,0.121951,5.88415
937.71,82.6166,-4.44459,0,9.74773,1.24062,1.48731,0.0304878,0.304878,-0.609756,-9.89622,-0.404758,-0.795146,-0.213415,-0.0914634,5.88415
937.721,82.617,-4.45556,0,9.74533,1.23344,1.50168,0.152439,0.335366,-0.640244,-9.90341,-0.392783,-0.787961,-0.121951,-0.0304878,5.94512
937.731,82.6144,-4.44552,0,9.76449,1.24062,1.5376,0.213415,0,-0.792683,-9.92496,-0.407153,-0.756826,-0.152439,0,5.91463
937.741,82.6154,-4.45164,0,9.73815,1.2502,1.51126,0,0,-0.243902,-9.9082,-0.378413,-0.783171,0.121951,-0.396341,6.03659
937.751,82.6164,-4.48785,0,9.74773,1.23823,1.48252,0.121951,0.243902,-0.518293,-9.87467,-0.371228,-0.831072,-0.243902,-0.121951,5.97561
937.761,82.6219,-4.47746,0,9.73336,1.22146,1.48252,0.121951,0.243902,-0.457317,-9.9058,-0.376018,-0.759221,-0.243902,0.121951,5.73171
937.771,82.6179,-4.48182,0,9.73815,1.2526,1.49928,0.0304878,0.152439,-0.609756,-9.91059,-0.368833,-0.783171,-0.213415,0,5.85366
937.781,82.6162,-4.46094,0,9.70701,1.23823,1.51126,-0.27439,-0.0914634,-0.640244,-9.92975,-0.376018,-0.740061,0.121951,-0.182927,5.82317
937.79,82.6182,-4.49506,0,9.76689,1.22864,1.50647,-0.121951,-0.243902,-0.640244,-9.88185,-0.380808,-0.831072,0.243902,-0.152439,5.85366
937.8,82.6165,-4.47628,0,9.73336,1.2502,1.50168,-0.27439,-0.335366,-0.457317,-9.91778,-0.392783,-0.747246,0.304878,-0.0914634,5.91463
937.81,82.6194,-4.48398,0,9.74294,1.23104,1.49689,-0.0609756,-0.243902,-0.487805,-9.92975,-0.366438,-0.790356,0,-0.0304878,5.88415
937.821,82.6178,-4.4692,0,9.72617,1.23823,1.46815,-0.0609756,-0.182927,-0.670732,-9.88904,-0.361648,-0.749641,-0.335366,-0.152439,5.7622
937.831,82.6186,-4.47033,0,9.7621,1.24781,1.46815,-0.243902,-0.182927,-0.365854,-9.86988,-0.371228,-0.773591,-0.121951,-0.182927,5.60976
937.84,82.6266,-4.45691,0,9.76928,1.21427,1.47533,-0.182927,0.121951,-0.457317,-9.91538,-0.392783,-0.749641,-0.0914634,-0.27439,5.60976
937.85,82.628,-4.45482,0,9.74294,1.22146,1.46096,-0.335366,-0.0914634,-0.731707,-9.91299,-0.383203,-0.768801,0,0.152439,5.54878
937.861,82.6334,-4.43518,0,9.7621,1.22625,1.50647,-0.121951,-0.0609756,-0.396341,-9.94412,-0.364043,-0.740061,0,0.0914634,5.64024
937.87,82.6323,-4.47215,0,9.74294,1.24062,1.42983,0.0914634,-0.213415,-0.579268,-9.91778,-0.376018,-0.833467,0,0.0914634,5.42683
937.88,82.6359,-4.47415,0,9.73575,1.22625,1.46336,0.152439,-0.182927,-0.457317,-9.93694,-0.390388,-0.780776,-0.0304878,-0.0914634,5.67073
937.89,82.6296,-4.49001,0,9.75012,1.25978,1.48012,-0.0304878,-0.182927,-0.670732,-9.94412,-0.438289,-0.809517,-0.27439,-0.27439,5.73171
937.9,82.6278,-4.47857,0,9.74773,1.2502,1.48252,0.0609756,0.121951,-0.457317,-9.93215,-0.385598,-0.754431,-0.213415,-0.579268,5.94512
937.91,82.6219,-4.51142,0,9.75491,1.26218,1.49689,0.0609756,-0.0609756,-0.609756,-9.88904,-0.378413,-0.852627,0,-0.701219,5.85366
937.921,82.6302,-4.50889,0,9.75252,1.20709,1.48012,0.0609756,0.121951,-0.518293,-9.86988,-0.402363,-0.773591,-0.0304878,-0.640244,5.91463
937.931,82.6314,-4.51641,0,9.74533,1.22386,1.40827,-0.0304878,0.152439,-0.701219,-9.86269,-0.342488,-0.792751,-0.27439,-0.365854,6.09756
937.941,82.6346,-4.52092,0,9.7597,1.21188,1.42983,-0.0304878,0.304878,-0.762195,-9.83395,-0.383203,-0.785566,-0.243902,-0.335366,5.60976
937.95,82.6377,-4.52073,0,9.73575,1.20948,1.49449,-0.304878,0.640244,-0.762195,-9.84832,-0.397573,-0.778381,0.121951,0.0304878,5.88415
937.961,82.637,-4.54675,0,9.73815,1.21906,1.51605,-0.243902,0.609756,-0.884146,-9.85311,-0.366438,-0.821492,-0.304878,-0.0609756,5.45732
937.971,82.6394,-4.51885,0,9.72617,1.20709,1.48012,-0.27439,0.396341,-0.823171,-9.85311,-0.366438,-0.732876,-0.0914634,0.243902,5.70122
937.98,82.6433,-4.49283,0,9.74294,1.21188,1.45857,-0.0609756,0.396341,-0.670732,-9.87946,-0.330513,-0.735271,-0.304878,0.152439,5.91463
937.99,82.6397,-4.45728,0,9.73336,1.24062,1.44899,-0.0304878,0.335366,-0.731707,-9.89862,-0.337698,-0.713716,-0.243902,0.182927,5.67073
938,82.6377,-4.43814,0,9.75012,1.23583,1.49689,0.182927,0.27439,-0.731707,-9.92017,-0.364043,-0.740061,-0.0914634,0.0914634,5.73171
938.01,82.6294,-4.43511,0,9.75252,1.26457,1.48731,0.0914634,0.182927,-0.762195,-9.92017,-0.380808,-0.764011,-0.457317,0.243902,5.60976
938.021,82.6253,-4.42858,0,9.73336,1.24541,1.46096,0.335366,0.213415,-0.731707,-9.92975,-0.352068,-0.759221,-0.121951,-0.0304878,5.42683
938.03,82.6167,-4.42561,0,9.7142,1.26218,1.56155,0.121951,0.213415,-0.792683,-9.97047,-0.356858,-0.766406,-0.0914634,0.182927,5.60976
938.04,82.6085,-4.4184,0,9.74054,1.27655,1.4921,0.182927,0.335366,-0.487805,-9.97526,-0.390388,-0.759221,-0.213415,0.0609756,5.79268
938.051,82.607,-4.41263,0,9.72138,1.24541,1.4442,0.152439,0.182927,-0.548781,-9.94173,-0.371228,-0.756826,-0.304878,-0.335366,5.64024
938.061,82.5939,-4.41512,0,9.72378,1.28852,1.46336,0.182927,0.304878,-0.762195,-9.92017,-0.378413,-0.771196,-0.243902,-0.457317,5.82317
938.07,82.5908,-4.39948,0,9.74054,1.26218,1.51365,0.182927,0.0914634,-0.426829,-9.92496,-0.378413,-0.730481,-0.121951,-0.640244,5.54878
938.08,82.5896,-4.40173,0,9.7142,1.24781,1.46096,0.27439,-0.152439,-0.518293,-9.89143,-0.376018,-0.766406,-0.152439,-0.548781,5.67073
938.09,82.59,-4.40675,0,9.7118,1.23583,1.50407,-0.121951,-0.457317,-0.609756,-9.90341,-0.364043,-0.771196,-0.0609756,-0.121951,5.60976
938.1,82.5854,-4.39078,0,9.73096,1.25739,1.52323,0.0304878,0.121951,-0.670732,-9.86748,-0.376018,-0.730481,-0.487805,-0.304878,5.54878
938.11,82.5878,-4.39547,0,9.72138,1.23104,1.47773,-0.0609756,0.0609756,-0.579268,-9.84832,-0.371228,-0.764011,-0.396341,-0.0914634,5.7622
938.121,82.5969,-4.40544,0,9.75012,1.20709,1.46096,0.0304878,0.0304878,-0.548781,-9.85311,-0.340093,-0.775986,-0.213415,-0.27439,5.36585
938.13,82.6003,-4.45877,0,9.72857,1.22386,1.4442,0.121951,0.0609756,-0.609756,-9.83395,-0.373623,-0.850232,-0.213415,-0.182927,5.67073
938.141,82.6036,-4.47917,0,9.72378,1.20469,1.43941,0.0609756,0,-0.884146,-9.87467,-0.373623,-0.807122,-0.0304878,-0.213415,5.79268
938.151,82.6044,-4.48939,0,9.73815,1.24302,1.43941,0.243902,0.121951,-0.457317,-9.8579,-0.433499,-0.790356,-0.152439,0.213415,5.85366
938.16,82.6053,-4.48548,0,9.70941,1.24062,1.43701,0.0609756,-0.0914634,-0.426829,-9.88664,-0.421523,-0.768801,0.0304878,0.243902,5.88415
938.171,82.6045,-4.48932,0,9.71899,1.23104,1.51126,0.27439,-0.152439,-0.762195,-9.8603,-0.378413,-0.780776,0.121951,0.396341,5.73171
938.18,82.619,-4.46142,0,9.74773,1.19751,1.46815,0.27439,0,-0.335366,-9.91538,-0.371228,-0.725691,0.182927,0.243902,5.45732
938.19,82.6264,-4.42428,0,9.75252,1.20709,1.48252,0.548781,-0.0304878,-0.579268,-9.89862,-0.402363,-0.704136,0.213415,0.213415,5.60976
938.201,82.6286,-4.42559,0,9.74533,1.20948,1.49689,0.243902,-0.213415,-0.853659,-9.9058,-0.380808,-0.768801,0.0304878,0.457317,5.4878
938.211,82.6221,-4.41499,0,9.71899,1.25499,1.43462,0.335366,0.27439,-0.731707,-9.89622,-0.361648,-0.744851,-0.0914634,0.335366,5.64024
938.221,82.626,-4.45404,0,9.75012,1.22864,1.42504,0.243902,0.304878,-0.457317,-9.90341,-0.371228,-0.845442,-0.0609756,0.426829,5.85366
938.23,82.6253,-4.43143,0,9.76449,1.24062,1.4897,0.121951,0.335366,-0.609756,-9.92017,-0.392783,-0.730481,-0.0609756,0.213415,5.79268
938.24,82.6208,-4.43374,0,9.76689,1.26218,1.50407,0.304878,0.518293,-0.518293,-9.92975,-0.402363,-0.773591,-0.304878,0.152439,5.70122
938.251,82.6266,-4.42997,0,9.73815,1.22864,1.47054,0.396341,0.335366,-0.304878,-9.91299,-0.395178,-0.761616,0.0914634,0.182927,5.7622
938.26,82.6301,-4.4484,0,9.76449,1.24062,1.46815,0.365854,0.213415,-0.27439,-9.90341,-0.387993,-0.799937,0.0304878,0.152439,5.64024
938.271,82.6315,-4.48434,0,9.74773,1.24062,1.47533,0.487805,0.579268,-0.396341,-9.91299,-0.421523,-0.833467,-0.121951,0.0914634,5.54878
938.28,82.6296,-4.49802,0,9.75252,1.24781,1.51605,0.609756,0.365854,-0.518293,-9.89622,-0.397573,-0.802332,-0.0304878,0.304878,5.27439
938.29,82.6261,-4.49871,0,9.74773,1.25499,1.48731,0.640244,0.548781,-0.518293,-9.94173,-0.404758,-0.783171,-0.0304878,0.640244,5.54878
938.3,82.629,-4.51318,0,9.75012,1.23823,1.43701,0.640244,0.701219,-0.335366,-9.99921,-0.397573,-0.811912,-0.213415,0,5.39634
938.311,82.6266,-4.4729,0,9.76449,1.26936,1.38911,0.853659,0.731707,-0.0609756,-10.0184,-0.397573,-0.716111,-0.0304878,0.0914634,5.4878
938.321,82.6319,-4.45875,0,9.74533,1.24062,1.3963,1.31098,1.06707,-0.0914634,-9.98244,-0.392783,-0.749641,-0.121951,-0.487805,5.27439
938.33,82.6419,-4.47242,0,9.75731,1.22386,1.46575,1.09756,1.12805,-0.121951,-9.91299,-0.352068,-0.804727,0.182927,-0.609756,5.39634
938.341,82.6502,-4.51073,0,9.75252,1.21906,1.45138,0.884146,1.18902,-0.27439,-9.89143,-0.371228,-0.862207,-0.335366,-0.640244,5.30488
938.35,82.6631,-4.51046,0,9.72617,1.18074,1.4418,0.884146,1.25,-0.518293,-9.92975,-0.361648,-0.783171,-0.27439,-0.457317,5.54878
938.36,82.6747,-4.50726,0,9.7597,1.1999,1.48252,1.28049,0.823171,-0.335366,-9.96089,-0.352068,-0.778381,-0.731707,-0.762195,5.33537
938.37,82.673,-4.53106,0,9.74773,1.25739,1.4418,1.61585,1.31098,-0.0304878,-9.97286,-0.373623,-0.843047,-0.548781,-0.609756,5.64024
938.381,82.6732,-4.5476,0,9.72138,1.23583,1.49928,1.64634,1.46341,-0.365854,-9.94173,-0.395178,-0.826282,-0.792683,-0.579268,5.57927
938.39,82.6778,-4.52966,0,9.73096,1.23583,1.47054,1.85976,1.34146,-0.0304878,-9.96568,-0.385598,-0.754431,-0.579268,-0.426829,5.33537
938.4,82.6857,-4.55052,0,9.69743,1.21667,1.5376,1.64634,1.15854,-0.121951,-10.0279,-0.416733,-0.843047,-0.518293,-0.487805,5.18293
938.411,82.6927,-4.5671,0,9.67827,1.20469,1.57592,1.82927,1.28049,-0.335366,-9.97286,-0.450264,-0.835862,-0.548781,-0.731707,5.12195
938.421,82.7066,-4.57198,0,9.67588,1.17835,1.52563,1.79878,0.670732,-0.335366,-9.94412,-0.438289,-0.809517,-0.365854,-1.15854,5.54878
938.43,82.7145,-4.60253,0,9.67827,1.20948,1.52323,1.58537,0.152439,-0.121951,-9.95131,-0.455054,-0.893342,-0.152439,-1.40244,5.15244
938.44,82.7182,-4.67279,0,9.72857,1.1999,1.57113,1.28049,0.304878,-0.640244,-9.9058,-0.431104,-0.996328,-0.152439,-1.09756,5.33537
938.451,82.7129,-4.69978,0,9.73575,1.24541,1.56395,1.06707,0,-0.518293,-9.91778,-0.423918,-0.888552,0.0609756,-1.12805,5.51829
938.46,82.7021,-4.75668,0,9.69264,1.26936,1.56634,0.731707,-0.0914634,-0.243902,-9.99442,-0.392783,-0.965193,-0.0609756,-0.701219,5.18293
938.47,82.6985,-4.83215,0,9.64714,1.23823,1.64059,0.213415,-0.304878,-0.304878,-10.0399,-0.337698,-0.984353,-0.579268,-0.152439,5.12195
938.481,82.6974,-4.86352,0,9.63277,1.23104,1.67412,-0.365854,-0.487805,-0.213415,-10.0375,-0.304167,-0.910107,-0.97561,-0.152439,4.48171
938.49,82.7071,-4.88119,0,9.65193,1.19032,1.59029,-0.884146,-0.609756,-0.335366,-10.0782,-0.237107,-0.898132,-1.67683,-0.396341,4.08537
938.5,82.7201,-4.89124,0,9.69743,1.17835,1.62143,-1.03659,-1.12805,-0.365854,-9.99921,-0.229922,-0.878972,-2.59146,-0.640244,3.84146
938.51,82.7209,-4.86755,0,9.73336,1.20469,1.62861,-1.09756,-0.945122,-0.762195,-9.97047,-0.282612,-0.780776,-3.07927,-1.34146,3.93293
938.521,82.7285,-4.85923,0,9.7142,1.14003,1.61903,-1.55488,-1.28049,-1.12805,-9.94173,-0.320933,-0.819097,-3.29268,-1.85976,4.48171
938.53,82.7266,-4.83941,0,9.70222,1.13763,1.61903,-1.70732,-1.58537,-1.76829,-9.93694,-0.376018,-0.771196,-3.32317,-2.37805,4.42073
938.545,82.6993,-4.82489,0,9.70462,1.27894,1.52563,-1.89024,-1.43293,-2.22561,-9.94652,-0.426313,-0.785566,-3.04878,-2.9878,4.81707
938.551,82.6795,-4.82256,0,9.6639,1.23104,1.53042,-2.16463,-1.58537,-2.13415,-9.9561,-0.414338,-0.833467,-2.68293,-2.77439,4.42073
938.56,82.6565,-4.82416,0,9.70222,1.27176,1.5879,-2.13415,-2.13415,-1.98171,-9.93933,-0.450264,-0.847837,-2.28659,-3.10976,3.96341
938.571,82.6416,-4.82423,0,9.75491,1.23104,1.47773,-2.43902,-2.07317,-1.92073,-9.92496,-0.428708,-0.840652,-2.13415,-3.17073,3.96341
938.58,82.6272,-4.81208,0,9.74533,1.25739,1.53281,-2.28659,-2.13415,-1.4939,-9.92975,-0.421523,-0.790356,-2.43902,-3.38415,3.75
938.591,82.6078,-4.78838,0,9.72138,1.30768,1.47294,-2.19512,-1.70732,-1.03659,-9.89862,-0.407153,-0.735271,-2.22561,-4.35976,3.47561
938.6,82.594,-4.73586,0,9.71659,1.28134,1.47773,-2.16463,-1.79878,-1.0061,-9.98005,-0.390388,-0.61073,-2.34756,-4.93902,3.56707
938.611,82.5913,-4.70851,0,9.69983,1.22864,1.4921,-1.7378,-1.89024,-0.945122,-10.0136,-0.342488,-0.713716,-2.71341,-5.57927,3.14024
938.621,82.5898,-4.68064,0,9.74773,1.22864,1.39869,-1.98171,-2.16463,-0.945122,-10.0112,-0.330513,-0.706531,-3.01829,-5.85366,3.2622
938.63,82.5943,-4.65321,0,9.74054,1.18553,1.35798,-1.76829,-2.2561,-1.09756,-10.0184,-0.328118,-0.704136,-3.44512,-6.03659,2.89634
938.64,82.587,-4.61817,0,9.75012,1.23344,1.39869,-1.52439,-2.19512,-1.34146,-10.0184,-0.356858,-0.665815,-3.59756,-6.34146,3.01829
938.651,82.587,-4.57919,0,9.77886,1.19751,1.35798,-1.55488,-2.37805,-1.31098,-10.0495,-0.395178,-0.64426,-3.93293,-6.46341,3.07927
938.66,82.5818,-4.53272,0,9.85072,1.20948,1.31487,-1.15854,-2.0122,-1.64634,-9.99442,-0.414338,-0.60115,-3.84146,-7.07317,3.35366
938.671,82.5665,-4.49195,0,9.80042,1.26936,1.31247,-0.945122,-1.64634,-1.67683,-10.0232,-0.464634,-0.62031,-3.81098,-7.5,3.04878
938.68,82.5576,-4.4363,0,9.79084,1.22864,1.39151,-0.701219,-1.06707,-1.67683,-9.98963,-0.534089,-0.546064,-3.62805,-8.44512,3.32317
938.691,82.5474,-4.39718,0,9.80281,1.23104,1.29331,-0.365854,-0.121951,-1.79878,-10.004,-0.56283,-0.61073,-3.14024,-9.08537,3.53659
938.7,82.539,-4.37007,0,9.83635,1.24541,1.33403,0,-0.0304878,-1.52439,-9.94891,-0.589175,-0.65384,-2.86585,-9.57317,3.44512
938.71,82.5328,-4.34542,0,9.83874,1.25739,1.29331,0.426829,0.457317,-1.18902,-9.92975,-0.598755,-0.65863,-2.46951,-9.54268,3.32317
938.721,82.5239,-4.30781,0,9.83156,1.27176,1.32684,0.670732,0.152439,-1.21951,-9.98963,-0.63468,-0.60115,-1.82927,-9.69512,3.17073
938.73,82.5186,-4.25149,0,9.85311,1.26218,1.35798,1.09756,0.579268,-1.09756,-10.0447,-0.63947,-0.514929,-2.0122,-9.84756,2.46951
938.74,82.513,-4.19569,0,9.79803,1.27176,1.32445,1.64634,0.670732,-0.884146,-10.0902,-0.627495,-0.510139,-1.67683,-10.4878,2.19512
938.75,82.5219,-4.1399,0,9.80042,1.21906,1.38193,2.0122,1.15854,-0.640244,-10.0351,-0.555645,-0.498164,-1.18902,-11.128,1.95122
938.76,82.5145,-4.08629,0,9.77647,1.27894,1.34121,2.43902,1.40244,-0.853659,-10.0327,-0.517324,-0.498164,-1.03659,-11.4024,2.13415
938.77,82.5139,-4.02802,0,9.77647,1.2526,1.32684,2.46951,2.0122,-0.762195,-9.99442,-0.500559,-0.467029,-0.640244,-12.2561,2.19512
938.781,82.5127,-3.98753,0,9.75491,1.2526,1.37474,2.95732,1.7378,-0.762195,-9.96807,-0.543669,-0.534089,-0.426829,-12.378,2.34756
938.79,82.5112,-3.93896,0,9.74533,1.24781,1.42264,3.2622,1.82927,-0.853659,-9.95849,-0.538879,-0.490979,-0.762195,-12.4695,2.53049
938.801,82.5208,-3.88838,0,9.77886,1.20948,1.36995,3.38415,1.70732,-0.701219,-10.0184,-0.55325,-0.476609,-0.396341,-12.5305,2.56098
938.81,82.5266,-3.84303,0,9.84114,1.2502,1.36277,3.71951,1.64634,-0.426829,-10.1166,-0.584385,-0.495769,-0.0914634,-12.5915,2.53049
938.821,82.5247,-3.79464,0,9.83874,1.28373,1.38193,4.11585,1.7378,-0.365854,-10.1621,-0.570015,-0.476609,-0.0304878,-12.9573,2.46951
938.83,82.5171,-3.74506,0,9.78844,1.2981,1.49449,4.08537,1.79878,-0.457317,-10.2004,-0.534089,-0.464634,0,-13.2317,1.95122
938.84,82.5137,-3.67969,0,9.75012,1.26218,1.42743,4.66463,2.0122,-0.762195,-10.2004,-0.531694,-0.385598,-0.0609756,-14.2378,1.92073
938.851,82.5103,-3.61305,0,9.71659,1.25499,1.4921,4.20732,2.19512,-0.823171,-10.1932,-0.546064,-0.368833,-0.243902,-15.2744,1.89024
938.86,82.5024,-3.5536,0,9.69743,1.26218,1.50407,4.2378,2.28659,-1.06707,-10.1357,-0.529299,-0.387993,-0.27439,-16.25,2.46951
938.871,82.4934,-3.50302,0,9.66869,1.26697,1.55676,4.45122,2.04268,-1.03659,-10.0495,-0.555645,-0.414338,-0.518293,-17.0732,2.31707
938.88,82.4822,-3.46104,0,9.59924,1.26936,1.51365,4.05488,1.61585,-1.06707,-10.0327,-0.56762,-0.443079,0,-17.3476,2.59146
938.89,82.464,-3.41488,0,9.62079,1.31008,1.61185,3.96341,0.853659,-1.06707,-10.0184,-0.58678,-0.416733,0.0304878,-17.5,2.89634
938.901,82.451,-3.34915,0,9.62558,1.28134,1.5879,3.78049,0.518293,-1.18902,-10.0351,-0.646655,-0.323328,-0.27439,-18.2622,2.92683
938.91,82.4357,-3.30072,0,9.60163,1.3005,1.6358,3.47561,0.335366,-1.0061,-9.96089,-0.63947,-0.385598,0.152439,-18.2927,2.68293
938.921,82.4307,-3.26878,0,9.54176,1.21188,1.71483,2.71341,-0.121951,-1.4939,-9.91778,-0.711321,-0.447869,0.579268,-18.5061,3.04878
938.931,82.4617,-3.22038,0,9.63995,1.06818,1.76513,2.22561,-0.853659,-1.06707,-9.93933,-0.768801,-0.371228,0.823171,-18.6585,2.95732
938.941,82.4896,-3.1801,0,9.76689,0.974773,1.69807,1.7378,-1.15854,-1.89024,-9.91538,-0.752036,-0.397573,1.31098,-18.7805,2.92683
938.95,82.5,-3.12846,0,9.88185,1.01309,1.6813,1.7378,-0.487805,-2.68293,-9.89383,-0.749641,-0.340093,1.43293,-18.7195,2.7439
938.961,82.4913,-3.06941,0,9.87467,1.08015,1.62861,1.52439,-0.182927,-3.56707,-9.91299,-0.687371,-0.299377,1.61585,-18.7195,2.86585
938.971,82.4662,-2.99932,0,9.82197,1.12087,1.57592,0.731707,0.213415,-4.63415,-9.93215,-0.617915,-0.241897,1.70732,-19.2988,2.92683
938.981,82.4372,-2.92334,0,9.82437,1.08734,1.54479,0.640244,0.548781,-5.45732,-9.90341,-0.56283,-0.203577,1.64634,-19.6341,3.29268
938.99,82.4039,-2.84156,0,9.67827,1.05141,1.56395,0.182927,0.884146,-6.18902,-9.87467,-0.555645,-0.165256,1.61585,-20.3049,3.65854
939.001,82.3602,-2.74527,0,9.67348,1.06578,1.49689,0.579268,1.18902,-7.13415,-9.90341,-0.529299,-0.0886157,1.25,-20.7317,3.93293
939.01,82.3043,-2.63902,0,9.63516,1.13524,1.46575,0.457317,1.0061,-7.59146,-9.94891,-0.55325,-0.0287402,1.40244,-20.8841,4.2378
939.021,82.2485,-2.51833,0,9.69983,1.16877,1.42264,0.853659,0.792683,-7.37805,-9.98484,-0.531694,0.0526904,1.03659,-21.4939,4.29878
939.03,82.1925,-2.38935,0,9.74054,1.19751,1.40109,1.28049,0.0914634,-7.22561,-9.98723,-0.538879,0.110171,0.579268,-21.5549,4.08537
939.041,82.1342,-2.26058,0,9.77407,1.24781,1.42264,1.58537,-0.121951,-7.04268,-10.0112,-0.57241,0.131726,0.579268,-21.9207,3.96341
939.051,82.0775,-2.11627,0,9.81479,1.23823,1.40588,2.31707,-0.670732,-7.16463,-10.0184,-0.560435,0.222737,-0.0304878,-22.2561,3.81098
939.061,82.0092,-1.96863,0,9.80521,1.32924,1.40348,2.62195,-0.670732,-7.37805,-10.0639,-0.60594,0.263452,-0.243902,-22.6829,3.87195
939.071,81.9323,-1.81285,0,9.76449,1.37953,1.40588,2.9878,-0.457317,-7.7439,-10.0878,-0.62031,0.325723,-0.121951,-23.4146,3.96341
939.081,81.8555,-1.65859,0,9.75252,1.36516,1.34361,3.10976,0.121951,-8.04878,-10.1285,-0.61552,0.347278,-0.243902,-24.0244,4.35976
939.09,81.7789,-1.49456,0,9.70462,1.41306,1.32445,3.9939,0.792683,-7.53049,-10.1693,-0.675395,0.419128,0.0609756,-24.939,4.39024
939.1,81.6953,-1.31052,0,9.64953,1.46815,1.36756,4.14634,0.609756,-7.65244,-10.2028,-0.682581,0.538879,-0.396341,-26.1585,4.39024
939.111,81.612,-1.14058,0,9.70701,1.50407,1.35319,4.66463,1.15854,-7.46951,-10.1621,-0.66342,0.505349,-0.27439,-27.0732,4.32927
939.121,81.5306,-0.974265,0,9.73336,1.54,1.38193,5.15244,0.518293,-7.07317,-10.1333,-0.62031,0.517324,-0.213415,-27.6524,3.96341
939.13,81.4484,-0.807348,0,9.77886,1.59748,1.33882,5,0.884146,-6.7378,-10.1693,-0.699346,0.550855,-0.518293,-28.3232,3.59756
939.14,81.3672,-0.624163,0,9.84593,1.64538,1.39151,4.87805,1.25,-6.37195,-10.2124,-0.701741,0.656235,-0.792683,-28.6585,3.04878
939.151,81.2875,-0.433775,0,9.87227,1.67172,1.35079,4.87805,1.76829,-6.12805,-10.2148,-0.730481,0.720901,-0.792683,-29.6341,2.92683
939.161,81.2106,-0.241795,0,9.8579,1.67172,1.37474,4.45122,2.56098,-5.97561,-10.1214,-0.725691,0.754431,-0.945122,-30.5793,3.38415
939.171,81.1438,-0.0539706,0,9.83635,1.5855,1.35798,4.93902,3.14024,-6.06707,-10.0878,-0.732876,0.766406,-1.06707,-31.6463,3.29268
939.18,81.0839,0.14059,0,9.84353,1.56155,1.4418,5.36585,3.96341,-5.79268,-10.0279,-0.766406,0.823887,-0.762195,-32.8049,3.96341
939.19,81.018,0.338936,0,9.81479,1.61424,1.46815,5.33537,4.45122,-5.85366,-10.0567,-0.838257,0.876577,-0.518293,-33.9024,3.96341
939.201,80.9488,0.545356,0,9.80521,1.64298,1.36995,4.72561,4.45122,-5.97561,-9.94652,-0.804727,0.936453,-0.152439,-34.9695,4.2378
939.211,80.8857,0.757712,0,9.72857,1.60227,1.41785,4.5122,4.14634,-5.82317,-9.85072,-0.807122,0.989143,1.21951,-35.122,4.84756
939.22,80.8297,0.944982,0,9.67827,1.53281,1.46575,4.42073,3.9939,-5.94512,-9.81719,-0.775986,0.912502,1.92073,-35.6402,4.78659
939.23,80.7748,1.12393,0,9.616,1.48491,1.61664,5.33537,3.2622,-6.40244,-9.73096,-0.835862,0.900527,2.92683,-35.7012,5.18293
939.24,80.719,1.30096,0,9.58008,1.49449,1.66214,6.12805,2.68293,-6.43293,-9.69504,-0.893342,0.919688,4.11585,-35.4573,5.18293
939.251,80.6579,1.47783,0,9.62319,1.56634,1.67412,7.04268,1.95122,-6.31098,-9.65911,-0.998723,0.946033,5.4878,-35.0305,5.12195
939.261,80.5914,1.69299,0,9.73815,1.61664,1.73639,8.01829,1.52439,-6.61585,-9.64953,-1.09931,1.14003,7.0122,-35,5.33537
939.271,80.5234,1.93744,0,9.80042,1.64059,1.6813,8.23171,1.25,-6.7378,-9.63037,-1.16637,1.3005,8.93293,-35.4268,5.7622
939.281,80.4525,2.22449,0,9.88904,1.6358,1.74118,7.86585,2.16463,-7.40854,-9.59684,-1.19032,1.52084,10.7927,-36.5854,6.58537
939.29,80.3844,2.54596,0,9.86748,1.55437,1.78908,6.4939,2.37805,-8.17073,-9.47709,-1.07057,1.69807,12.1646,-37.2256,7.71341
939.301,80.3152,2.90467,0,9.84832,1.53521,1.74357,5.03049,3.44512,-8.59756,-9.40524,-0.838257,1.89925,12.1646,-37.9268,8.56707
939.31,80.2484,3.26738,0,9.64235,1.48491,1.64538,1.85976,3.41463,-8.71951,-9.35974,-0.593965,1.96871,10.1524,-37.5305,8.32317
939.32,80.1984,3.6565,0,9.36932,1.36037,1.67172,-1.98171,4.32927,-8.14024,-9.34058,-0.287402,2.14115,6.43293,-36.9512,6.79878
939.33,80.1626,3.98871,0,9.2328,1.25499,1.79147,-4.93902,4.32927,-7.86585,-9.137,-0.124541,1.92081,1.82927,-35.061,4.32927
939.341,80.1269,4.32156,0,9.14418,1.22625,1.9735,-5.88415,2.68293,-8.14024,-8.98132,-0.0191602,1.94715,-2.92683,-32.6524,3.14024
939.35,80.0697,4.63317,0,9.2831,1.33882,1.8753,-5.33537,1.06707,-9.2378,-8.89031,-0.0742456,1.89686,-6.09756,-29.5732,2.95732
939.36,79.9904,4.92992,0,9.29028,1.47054,1.80105,-3.41463,-2.13415,-10,-8.93103,-0.277822,1.89686,-6.98171,-27.4695,4.78659
939.37,79.8978,5.23893,0,9.50344,1.58311,1.48491,-1.21951,-2.71341,-10.5793,-9.09628,-0.541274,2.03337,-6.03659,-26.7683,7.89634
939.381,79.788,5.45786,0,9.48907,1.71483,1.39151,0.27439,-4.93902,-10.9146,-9.1346,-1.07297,1.71483,-2.77439,-27.2866,10.3049
939.39,79.6942,5.76418,0,9.61361,1.70286,1.19272,0.731707,-2.16463,-9.90854,-9.32142,-1.05141,2.16031,-0.396341,-29.2988,11.7988
939.4,79.5833,6.07808,0,9.77647,1.89925,1.1999,1.98171,-2.95732,-9.90854,-9.35734,-1.25739,2.25371,1.98171,-30.1524,11.6463
939.41,79.4885,6.37212,0,9.96568,1.95673,1.09692,2.59146,0.731707,-8.2622,-9.45314,-1.20948,2.24413,3.78049,-30.0305,9.81707
939.421,79.4133,6.67762,0,9.90101,1.86812,1.24781,2.89634,0.0304878,-7.31707,-9.41243,-1.03704,2.33754,4.90854,-28.2317,8.10976
939.431,79.3228,7.02521,0,9.89143,1.93997,1.29571,4.02439,1.40244,-8.20122,-9.44117,-0.814307,2.58662,5.36585,-27.0122,6.82927
939.44,79.253,7.36804,0,9.77647,1.81063,1.33642,4.69512,1.43293,-7.5,-9.39327,-0.661025,2.61536,5.03049,-25.0305,6.79878
939.451,79.2037,7.70133,0,9.67109,1.70525,1.42983,5.33537,0.945122,-6.55488,-9.39327,-0.548459,2.63452,4.7561,-23.689,6.46341
939.461,79.118,8.05564,0,9.64474,1.93518,1.50168,5.97561,0.487805,-7.62195,-9.40045,-0.490979,2.7902,4.39024,-23.5976,6.64634
939.47,79.0292,8.42325,0,9.6184,1.98787,1.47054,6.4939,-0.182927,-7.43902,-9.24238,-0.486189,2.86444,3.68902,-24.0854,7.92683
939.481,78.9657,8.75653,0,9.79323,1.94715,1.36756,5.60976,1.64634,-5.91463,-9.2807,-0.59636,2.7878,3.20122,-24.2073,8.84146
939.491,78.8529,9.07823,0,9.79084,2.26329,1.39869,5.94512,1.55488,-7.46951,-9.19927,-0.718506,2.77104,2.59146,-23.5671,8.68902
939.5,78.7544,9.3995,0,9.77647,2.21779,1.34361,4.72561,4.69512,-6.70732,-9.12263,-0.759221,2.80217,2.56098,-23.4451,8.84146
939.51,78.6873,9.71219,0,9.57768,2.01182,1.55437,4.08537,4.45122,-5.57927,-9.09868,-0.814307,2.81415,2.77439,-22.0427,8.93293
939.521,78.6079,10.0103,0,9.60882,2.12438,1.52323,4.45122,5.51829,-5.73171,-9.0867,-0.811912,2.80217,2.59146,-20.7622,8.71951
939.531,78.5176,10.3109,0,9.57289,2.213,1.52802,3.9939,5.82317,-5.88415,-9.00048,-0.759221,2.8381,3.17073,-19.6646,8.44512
939.541,78.4482,10.6245,0,9.51062,2.12917,1.57832,3.17073,6.06707,-4.72561,-8.98372,-0.718506,2.94348,3.56707,-18.2012,8.53659
939.551,78.3883,10.9324,0,9.46512,2.12678,1.67412,3.38415,5.60976,-3.75,-9.00288,-0.684976,2.9794,3.84146,-17.9268,8.68902
939.56,78.3263,11.2301,0,9.40285,2.14115,1.67651,3.68902,4.45122,-3.71951,-8.99569,-0.62031,2.98659,4.57317,-17.0122,8.84146
939.571,78.2682,11.5117,0,9.44835,2.14833,1.67412,3.59756,4.2378,-3.47561,-8.98611,-0.61552,2.96503,5,-15.9451,8.62805
939.58,78.2186,11.7957,0,9.46512,2.11241,1.79147,3.35366,3.53659,-3.20122,-8.91187,-0.574805,3.00096,4.90854,-14.9695,8.62805
939.591,78.1672,12.0904,0,9.48428,2.14354,1.76992,3.07927,4.05488,-3.14024,-8.90229,-0.60594,3.09437,4.69512,-13.9939,8.2622
939.6,78.1237,12.3594,0,9.46033,2.13875,1.76273,2.53049,2.92683,-2.22561,-8.95977,-0.63468,3.05365,4.96951,-13.0793,8.04878
939.61,78.0732,12.6313,0,9.5202,2.22018,1.78668,1.92073,3.35366,-1.98171,-9.00527,-0.589175,3.13029,4.90854,-11.6159,7.86585
939.62,78.0152,12.9022,0,9.52739,2.27766,1.76513,1.4939,2.92683,-2.28659,-9.03641,-0.56762,3.18538,4.29878,-10.7927,7.59146
939.631,77.9676,13.1519,0,9.50104,2.2106,1.73878,1.43293,2.65244,-2.07317,-9.0867,-0.593965,3.15664,4.60366,-10.3963,7.5
939.641,77.9253,13.4051,0,9.50344,2.18665,1.74836,1.09756,2.86585,-1.95122,-9.11305,-0.622705,3.22609,4.57317,-10.0305,7.59146
939.651,77.8876,13.6509,0,9.47949,2.16749,1.72681,0.792683,1.82927,-1.61585,-9.15856,-0.62989,3.25483,4.54268,-9.84756,7.77439
939.66,77.8497,13.8932,0,9.46991,2.17468,1.76513,0.457317,1.12805,-1.4939,-9.17292,-0.58199,3.28836,4.45122,-9.42073,8.17073
939.671,77.8212,14.1247,0,9.50583,2.14594,1.76513,0.518293,1.12805,-0.884146,-9.16813,-0.55325,3.28118,4.60366,-9.05488,8.23171
939.681,77.7936,14.3404,0,9.54655,2.15791,1.77471,0.0914634,0.609756,-0.670732,-9.17772,-0.55804,3.25483,4.93902,-8.44512,8.53659
939.69,77.7641,14.5332,0,9.5681,2.17468,1.75555,-0.121951,-0.0609756,-0.396341,-9.137,-0.522114,3.1758,5.09146,-7.68293,8.56707
939.7,77.748,14.7238,0,9.58008,2.12917,1.71483,0,-0.213415,-0.182927,-9.15616,-0.526904,3.20693,5.06098,-7.40854,8.29268
939.71,77.7432,14.8886,0,9.55134,2.09325,1.71004,0.213415,-0.304878,0.0914634,-9.24238,-0.459844,3.15424,5.03049,-7.19512,7.77439
939.72,77.7428,15.0597,0,9.58966,2.09325,1.62622,-0.27439,-0.182927,0.243902,-9.2328,-0.435894,3.20933,4.7561,-6.95122,7.68293
939.731,77.7525,15.2308,0,9.55373,2.05493,1.61424,0.213415,-0.518293,0.487805,-9.23999,-0.416733,3.24286,4.72561,-7.16463,7.5
939.741,77.7593,15.3966,0,9.5681,2.05972,1.64298,0.121951,-0.121951,0.213415,-9.27591,-0.423918,3.26202,4.66463,-7.28659,7.5
939.751,77.7718,15.5548,0,9.57289,2.04774,1.55676,0.426829,-0.0304878,0.609756,-9.33579,-0.419128,3.27878,4.78659,-7.53049,7.53049
939.761,77.7901,15.7118,0,9.67827,2.03816,1.61185,0.792683,0.365854,0.548781,-9.31184,-0.435894,3.29315,4.39024,-7.46951,7.19512
939.771,77.807,15.8627,0,9.70701,2.04535,1.58071,0.762195,0.243902,0.487805,-9.28789,-0.383203,3.28597,4.54268,-7.43902,7.34756
939.781,77.8307,15.999,0,9.7118,2.01421,1.55676,1.4939,0.548781,0.27439,-9.25915,-0.421523,3.23567,4.42073,-7.92683,7.80488
939.79,77.8457,16.1429,0,9.72378,2.04535,1.54479,1.82927,1.18902,0.152439,-9.31423,-0.423918,3.31471,4.39024,-8.07927,7.46951
939.8,77.8688,16.2602,0,9.69264,1.99745,1.49689,1.85976,1.64634,-0.152439,-9.35016,-0.443079,3.23088,4.35976,-8.38415,7.31707
939.81,77.8786,16.3811,0,9.64714,1.99745,1.54718,1.79878,2.40854,-0.670732,-9.38369,-0.404758,3.28118,4.05488,-8.17073,6.85976
939.82,77.8925,16.48,0,9.60642,1.99745,1.4921,1.95122,3.10976,-0.335366,-9.40764,-0.399968,3.20933,3.96341,-8.23171,6.46341
939.831,77.9163,16.5795,0,9.62319,1.95913,1.55676,1.7378,3.35366,-0.335366,-9.4244,-0.349673,3.23567,3.68902,-8.53659,6.09756
939.841,77.9363,16.6743,0,9.6184,1.9711,1.60706,2.04268,3.5061,-0.304878,-9.42201,-0.294587,3.23088,3.14024,-9.11585,6.18902
939.851,77.9619,16.7638,0,9.57529,1.96392,1.71004,1.95122,3.32317,0.121951,-9.4244,-0.304167,3.2237,2.89634,-10.2439,6.18902
939.861,77.9907,16.8555,0,9.59445,1.94715,1.6334,2.10366,2.95732,0.365854,-9.41003,-0.318538,3.24525,2.40854,-10.6098,6.18902
939.871,78.0187,16.9492,0,9.60882,1.94476,1.65017,1.89024,2.9878,0.609756,-9.39087,-0.318538,3.26441,2.28659,-10.8841,5.91463
939.88,78.0478,17.0334,0,9.59445,1.93278,1.65735,1.85976,2.56098,0.701219,-9.36692,-0.318538,3.22849,1.61585,-11.6463,6.28049
939.89,78.0851,17.1386,0,9.55373,1.89686,1.70765,1.85976,2.68293,0.27439,-9.34776,-0.330513,3.33387,1.64634,-12.3476,6.25
939.9,78.1388,17.2182,0,9.58247,1.83938,1.72441,1.55488,2.71341,0.213415,-9.331,-0.376018,3.22849,1.52439,-12.9268,6.31098
939.91,78.1893,17.2929,0,9.57529,1.85135,1.73399,1.98171,2.80488,-0.0304878,-9.27831,-0.356858,3.20214,1.46341,-12.7744,6.34146
939.92,78.2357,17.3583,0,9.5705,1.80345,1.66933,1.67683,2.2561,-0.426829,-9.25196,-0.378413,3.16382,1.25,-12.9878,6.37195
939.931,78.2621,17.4514,0,9.58966,1.84417,1.75794,1.61585,2.19512,-0.701219,-9.30705,-0.397573,3.32189,1.12805,-13.7195,5.94512
939.941,78.2834,17.519,0,9.5705,1.80584,1.73639,1.4939,1.89024,-1.18902,-9.27352,-0.426313,3.20933,1.37195,-13.689,5.7622
939.95,78.2962,17.5925,0,9.55613,1.80824,1.78668,1.7378,1.61585,-1.55488,-9.22801,-0.467029,3.23328,1.52439,-13.689,5.70122
939.961,78.2957,17.6736,0,9.55373,1.83458,1.7316,1.82927,1.06707,-2.13415,-9.24957,-0.476609,3.28836,1.76829,-13.872,5.82317
939.971,78.2892,17.7684,0,9.53697,1.86093,1.75076,1.98171,0.457317,-2.28659,-9.20646,-0.457449,3.35063,2.5,-13.9939,5.91463
939.981,78.2819,17.8749,0,9.55613,1.85135,1.74836,1.67683,0.487805,-2.5,-9.22322,-0.457449,3.42727,2.43902,-14.6037,6.28049
939.99,78.2711,17.9788,0,9.55373,1.86333,1.73639,1.52439,0.121951,-2.68293,-9.27352,-0.404758,3.45362,2.04268,-14.7561,6.09756
940,78.2574,18.0814,0,9.5226,1.87051,1.75555,1.15854,0,-2.80488,-9.25196,-0.402363,3.45841,1.67683,-15.061,6.12805
940.01,78.2355,18.1924,0,9.54415,1.89207,1.67172,1.28049,-0.518293,-3.38415,-9.1825,-0.349673,3.48954,1.85976,-15.4573,5.91463
940.021,78.2114,18.3108,0,9.54894,1.9232,1.72202,1.92073,-0.640244,-3.29268,-9.19687,-0.387993,3.54942,1.34146,-15.9756,5.97561
940.03,78.1804,18.4257,0,9.58487,1.98787,1.7316,1.89024,-1.28049,-3.32317,-9.17772,-0.392783,3.54702,1.34146,-16.1585,6.03659
940.041,78.1515,18.5334,0,9.61361,1.96871,1.72681,2.16463,-1.46341,-3.47561,-9.16574,-0.426313,3.53026,1.64634,-16.2805,5.73171
940.051,78.1198,18.6753,0,9.63277,2.00703,1.73639,1.95122,-2.07317,-3.41463,-9.17772,-0.440684,3.71468,1.34146,-16.372,6.06707
940.061,78.0886,18.8151,0,9.65193,2.00942,1.73399,1.67683,-2.89634,-3.44512,-9.22083,-0.495769,3.74821,1.61585,-17.3476,5.97561
940.071,78.0555,18.9475,0,9.63037,1.99266,1.67412,2.04268,-3.07927,-3.84146,-9.20406,-0.488584,3.73144,1.79878,-17.9268,5.64024
940.081,78.0233,19.0792,0,9.70222,2.04774,1.68849,1.89024,-3.01829,-3.35366,-9.13939,-0.543669,3.72665,2.22561,-18.2622,5.7622
940.09,77.9851,19.2188,0,9.69025,2.09085,1.75315,2.40854,-2.53049,-3.47561,-9.10107,-0.536484,3.77216,2.89634,-18.6585,6.21951
940.1,77.9366,19.3565,0,9.67588,2.12678,1.61903,2.71341,-2.59146,-4.14634,-9.03162,-0.519719,3.76018,2.95732,-18.5061,6.15854
940.11,77.8843,19.5131,0,9.68546,2.19863,1.50407,2.22561,-1.95122,-3.81098,-9.05078,-0.464634,3.88233,2.95732,-18.9329,5.91463
940.12,77.8352,19.6731,0,9.55852,2.16031,1.57113,1.21951,-1.52439,-3.68902,-9.0412,-0.438289,3.92304,2.89634,-19.6341,5.73171
940.13,77.8389,19.8299,0,9.50583,1.8777,1.59029,0.579268,-0.884146,-2.13415,-9.06754,-0.397573,3.94939,2.56098,-19.7256,5.42683
940.141,77.7725,19.9826,0,9.40764,2.29682,1.62861,0.304878,-2.0122,-3.38415,-8.95258,-0.376018,3.90867,2.43902,-20.0305,5.42683
940.151,77.7234,20.1322,0,9.59445,2.22497,1.60706,0.884146,-1.18902,-3.20122,-8.88313,-0.340093,3.89191,2.0122,-20.3659,5.33537
940.16,77.6786,20.2752,0,9.58966,2.22737,1.56634,0.701219,-1.03659,-2.77439,-8.89031,-0.397573,3.89191,2.40854,-20.4573,5.70122
940.17,77.6349,20.4121,0,9.56331,2.26569,1.54479,1.40244,-1.09756,-1.85976,-8.87834,-0.433499,3.88472,2.22561,-20.7012,5.33537
940.18,77.5855,20.5671,0,9.41482,2.25611,1.57113,1.4939,-1.37195,-0.853659,-8.90708,-0.423918,4.00687,2.34756,-20.9756,5.30488
940.19,77.5259,20.7436,0,9.51541,2.33754,1.55437,1.55488,0.0304878,-0.670732,-8.97174,-0.457449,4.16733,2.2561,-22.0122,4.90854
940.201,77.4852,20.8969,0,9.44356,2.23455,1.67891,1.85976,-1.67683,-0.548781,-9.0388,-0.462239,4.11943,2.46951,-23.2012,4.54268
940.21,77.4742,21.0487,0,9.68067,2.18186,1.51126,1.28049,2.2561,-0.304878,-8.99809,-0.462239,4.12183,3.01829,-23.7805,3.96341
940.22,77.4676,21.2145,0,9.59924,2.15312,1.65256,1.4939,-0.0304878,-0.0609756,-8.93103,-0.443079,4.18649,2.68293,-24.4207,4.05488
940.23,77.4751,21.3788,0,9.71899,2.13396,1.60706,1.61585,1.21951,0,-8.88073,-0.490979,4.18649,3.07927,-24.939,3.84146
940.24,77.4773,21.5303,0,9.72138,2.15073,1.62861,2.13415,1.55488,-0.0304878,-8.83762,-0.471819,4.1362,2.9878,-24.9695,4.20732
940.251,77.4561,21.6752,0,9.60403,2.20342,1.67412,1.58537,0.884146,-0.0304878,-8.77775,-0.450264,4.10506,3.53659,-25.4268,4.42073
940.26,77.4427,21.8258,0,9.616,2.23455,1.55676,1.18902,2.56098,0.670732,-8.82086,-0.433499,4.17931,3.20122,-25.5183,4.42073
940.271,77.4336,21.9877,0,9.48667,2.24892,1.62382,0.945122,1.55488,1.40244,-8.8496,-0.392783,4.27511,3.07927,-26.5854,4.48171
940.28,77.4291,22.141,0,9.4268,2.24174,1.62382,0.457317,2.62195,1.76829,-8.95977,-0.344883,4.31582,2.80488,-27.9878,4.45122
940.29,77.4359,22.31,0,9.49865,2.24892,1.52802,0.0914634,3.5061,2.46951,-9.05317,-0.356858,4.46671,2.2561,-29.7256,3.78049
940.3,77.4637,22.4579,0,9.51062,2.10283,1.61903,0.0914634,3.38415,2.62195,-9.09628,-0.371228,4.41402,1.34146,-32.2256,3.44512
940.311,77.5026,22.615,0,9.57529,2.01182,1.55437,0.0914634,3.41463,2.37805,-9.10347,-0.364043,4.49066,1.25,-34.2988,3.17073
940.32,77.5388,22.7724,0,9.59684,2.019,1.6837,0,1.61585,2.19512,-9.12023,-0.399968,4.52898,1.64634,-36.25,3.29268
940.33,77.586,22.9376,0,9.69743,1.93518,1.5855,-0.121951,1.40244,1.7378,-9.0867,-0.445474,4.58167,1.82927,-37.9878,3.5061
940.34,77.6369,23.1153,0,9.74054,1.91841,1.5879,0.0304878,0.945122,0.823171,-9.08191,-0.414338,4.67268,1.61585,-39.7866,3.5061
940.351,77.7129,23.2888,0,9.73815,1.81303,1.62382,0.121951,0.945122,-0.304878,-9.0412,-0.399968,4.6655,1.85976,-41.128,3.81098
940.36,77.7766,23.4777,0,9.75012,1.69328,1.47054,0.152439,1.06707,-1.12805,-8.943,-0.361648,4.72537,1.37195,-41.9817,3.9939
940.371,77.826,23.6844,0,9.616,1.62382,1.51365,-1.03659,0.0914634,-1.89024,-8.85918,-0.304167,4.8068,0.426829,-43.0793,3.87195
940.38,77.8669,23.8481,0,9.61361,1.50886,1.3963,-1.64634,0.853659,-3.07927,-8.81846,-0.285007,4.61041,-1.28049,-43.5976,3.2622
940.39,77.8983,24.0165,0,9.58247,1.52323,1.35798,-1.85976,1.55488,-3.5061,-8.76817,-0.213157,4.63915,-2.86585,-44.0244,2.95732
940.4,77.9204,24.1416,0,9.60163,1.59029,1.27176,-2.86585,1.61585,-3.56707,-8.71787,-0.263452,4.43318,-4.63415,-44.9085,2.34756
940.41,77.9343,24.2823,0,9.63995,1.64059,1.28613,-3.47561,1.58537,-3.75,-8.74422,-0.366438,4.54575,-5.85366,-45.6707,1.82927
940.42,77.944,24.4363,0,9.60642,1.62622,1.36995,-3.17073,1.40244,-4.17683,-8.8017,-0.55804,4.66789,-5.73171,-46.9207,1.18902
940.43,77.924,24.5822,0,9.65193,1.76273,1.53281,-2.07317,0.762195,-5.54878,-8.84481,-0.704136,4.67987,-4.54268,-47.8049,0.701219
940.44,77.9065,24.7274,0,9.86269,1.78668,1.66214,0.27439,-2.59146,-5.4878,-8.87115,-0.819097,4.71819,-2.9878,-49.1768,1.28049
940.451,77.8697,24.9087,0,10.1309,1.93039,1.65017,3.71951,-3.10976,-6.43293,-8.81607,-0.898132,4.89781,-0.365854,-50.5183,2.19512
940.461,77.8312,25.1055,0,10.0136,1.92081,1.58071,5.60976,-5.15244,-6.52439,-8.75859,-0.986748,4.97925,2.22561,-52.6524,3.35366
940.47,77.7522,25.3116,0,9.86748,2.06451,1.70765,7.31707,-2.59146,-8.78049,-8.70111,-0.950823,5.03194,4.93902,-54.4512,4.11585
940.48,77.6776,25.5604,0,9.62798,1.99984,1.47533,4.63415,-1.34146,-8.65854,-8.6053,-0.850232,5.23551,7.28659,-56.311,4.48171
940.49,77.6064,25.7911,0,9.57529,1.89207,1.44899,2.04268,-0.518293,-9.60366,-8.55501,-0.720901,5.16127,8.96341,-57.2866,4.54268
940.5,77.55,26.0403,0,9.59684,1.73639,1.46575,3.2622,-3.62805,-10.122,-8.45202,-0.536484,5.2403,9.96951,-57.2256,4.39024
940.51,77.4655,26.3379,0,9.48188,1.90644,1.45857,4.81707,-8.35366,-10.8232,-8.33706,-0.352068,5.47022,10.2744,-57.8963,4.20732
940.521,77.3912,26.6612,0,9.6639,1.85854,1.6813,5.64024,-10.6402,-10.9451,-8.33946,-0.234712,5.66901,9.57317,-59.2073,4.17683
940.531,77.2802,27.0046,0,9.40285,2.04295,2.02858,8.59756,-14.939,-12.0427,-8.21492,-0.182021,5.76002,9.11585,-60.2439,4.2378
940.541,77.1907,27.3789,0,9.86988,1.9232,1.52084,7.5,-15.9451,-12.5915,-8.17899,-0.239502,5.97557,7.86585,-61.372,3.75
940.551,77.0697,27.7645,0,9.74773,2.13636,1.78908,6.58537,-21.0976,-13.2622,-8.11433,-0.287402,6.07137,6.52439,-63.1098,3.17073
940.561,76.9416,28.1632,0,9.87706,2.13396,1.43941,3.10976,-14.5732,-14.5732,-8.06164,-0.356858,6.18873,5.4878,-64.6951,3.23171
940.57,76.8195,28.5801,0,9.54894,1.96631,1.70046,0.579268,-16.0976,-15.3659,-8.01134,-0.467029,6.34201,5.7622,-65.5793,3.23171
940.58,76.7042,29.0281,0,9.70941,1.86572,1.67412,1.64634,-16.128,-16.4634,-7.89638,-0.617915,6.52403,6.4939,-66.4634,3.62805
940.59,76.5699,29.5231,0,9.92496,2.019,1.54,1.92073,-14.0854,-17.378,-7.7407,-0.584385,6.77551,7.07317,-66.8598,4.14634
940.6,76.4136,30.0233,0,9.86269,1.98308,1.70286,3.87195,-17.2866,-20.1524,-7.63772,-0.534089,6.83539,7.92683,-66.189,4.69512
940.611,76.2467,30.5673,0,9.95131,1.99266,1.60706,5.33537,-18.5976,-21.6463,-7.53234,-0.495769,7.13237,8.47561,-65.3049,5.39634
940.62,76.0609,31.1355,0,9.58008,2.10043,1.69807,6.58537,-23.4451,-21.7988,-7.41259,-0.493374,7.3096,8.59756,-64.2988,5.42683
940.63,75.8724,31.7287,0,9.67588,2.15312,1.37953,8.20122,-21.2195,-22.0732,-7.32876,-0.404758,7.53713,8.35366,-62.8659,5.33537
940.641,75.6682,32.3143,0,9.73575,2.34712,1.4442,7.22561,-18.9634,-22.0122,-7.19224,-0.344883,7.5036,7.59146,-61.0061,4.60366
940.651,75.4784,32.9481,0,10.0998,2.26329,1.33882,7.19512,-15.6402,-22.8354,-7.05573,-0.251477,7.84369,6.18902,-58.9634,4.14634
940.661,75.2771,33.5657,0,10.1237,2.2609,1.10889,10.4878,-16.8598,-24.4817,-7.0222,-0.191602,7.87243,4.66463,-55.9756,3.93293
940.67,75.0611,34.2239,0,10.2363,2.31359,1.01788,10.8537,-15,-26.0976,-6.88089,-0.234712,8.17899,2.04268,-52.8659,3.75
940.68,74.8325,34.8869,0,9.8076,2.27766,1.39869,10.1829,-18.5976,-27.1341,-6.83539,-0.301772,8.35622,-0.27439,-50.3354,4.29878
940.69,74.6045,35.5406,0,9.76689,2.28724,1.33882,10.8537,-18.872,-27.3171,-6.75156,-0.349673,8.38496,-0.731707,-47.622,5.42683
940.7,74.3632,36.2038,0,9.65432,2.3567,1.40109,8.96341,-19.8476,-28.0488,-6.55996,-0.337698,8.4161,0.152439,-45.0305,6.4939
940.711,74.1109,36.8848,0,9.90341,2.54351,1.17116,8.9939,-21.5244,-28.2622,-6.31806,-0.296982,8.44244,1.09756,-42.4085,7.53049
940.72,73.8461,37.5667,0,10.1693,2.72074,1.12805,7.80488,-17.6829,-28.872,-6.08574,-0.237107,8.34904,2.13415,-38.9634,8.17073
940.73,73.567,38.2756,0,10.2411,2.86923,1.40588,7.86585,-18.2927,-29.5122,-5.87738,-0.201182,8.48555,3.2622,-35.5488,8.14024
940.74,73.266,38.9855,0,10.1788,2.97461,1.31966,8.17073,-17.0122,-31.0061,-5.72649,-0.275427,8.50471,4.05488,-31.6463,7.56098
940.751,72.9139,39.6823,0,10.0735,3.2716,1.17356,7.68293,-17.5,-33.3537,-5.75044,-0.390388,8.66997,4.45122,-27.4085,6.82927
940.76,72.5337,40.3758,0,10.0399,3.39135,1.35319,7.28659,-16.8598,-35.5793,-5.71452,-0.548459,8.82565,4.11585,-23.7805,5.7622
940.771,72.1162,41.0277,0,10.2459,3.64043,1.2023,7.04268,-17.1341,-38.3232,-5.82229,-0.64426,8.87594,3.5061,-20.4268,4.54268
940.781,71.6446,41.6684,0,10.0447,3.91586,1.07297,6.40244,-16.9207,-41.1585,-5.84864,-0.704136,9.04838,3.14024,-17.5305,4.72561
940.791,71.1467,42.284,0,10.0208,4.02603,0.965193,5.54878,-14.9695,-43.5976,-5.86061,-0.526904,9.07233,2.40854,-14.9695,5.27439
940.8,70.6229,42.8764,0,9.98723,4.12422,1.15679,4.32927,-15.0305,-46.128,-5.89175,-0.378413,9.1346,1.85976,-13.3537,7.13415
940.81,70.0703,43.4403,0,10.1022,4.20805,0.907712,4.81707,-12.1951,-49.7866,-5.96599,-0.244292,9.20646,1.06707,-12.1341,9.72561
940.82,69.4865,43.9808,0,10.0423,4.35654,1.04423,4.87805,-13.2622,-52.378,-6.00192,-0.148491,9.25436,1.18902,-10.8841,11.7073
940.831,68.8703,44.5038,0,9.87227,4.43558,1.1041,5.39634,-13.9024,-55.3659,-6.04024,-0.0886157,9.35016,1.09756,-10.4268,13.689
940.84,68.2318,44.9878,0,9.7597,4.52659,0.922083,5.45732,-14.0854,-57.5,-6.09532,-0.134121,9.27112,1.03659,-9.87805,14.7256
940.851,67.5742,45.4461,0,9.45075,4.57449,0.912502,5.2439,-15.7317,-58.811,-6.09293,-0.210762,9.21125,2.04268,-8.87195,15.5183
940.86,66.8968,45.8952,0,9.36453,4.70142,0.728086,5,-15.7012,-60.4878,-6.05461,-0.296982,9.2328,1.82927,-7.62195,15.4573
940.871,66.215,46.3271,0,9.40285,4.74453,0.756826,6.12805,-18.689,-62.0732,-5.98755,-0.380808,9.13221,2.16463,-5.67073,14.8171
940.88,65.5165,46.7498,0,9.47709,4.9529,0.440684,6.06707,-18.5976,-63.5061,-5.89893,-0.459844,8.97653,2.5,-3.29268,14.5122
940.89,64.8139,47.2465,0,9.41722,4.96727,0.273032,4.54268,-17.3476,-64.9085,-5.81032,-0.457449,8.89989,2.7439,-1.28049,14.1159
940.9,64.1101,47.8146,0,9.34297,5.00559,0.409548,4.26829,-19.7256,-65.7012,-5.64506,-0.397573,8.81128,2.62195,0.884146,14.2073
940.91,63.397,48.2133,0,9.12981,5.0032,0.263452,4.32927,-19.7256,-66.9817,-5.59956,-0.356858,8.73703,2.07317,2.95732,13.75
940.92,62.6959,48.5758,0,9.03162,4.97925,0.316143,5.33537,-17.9878,-66.9207,-5.54208,-0.325723,8.63884,1.7378,5.03049,13.6585
940.931,61.983,48.9156,0,8.78493,5.11097,0.189207,4.5122,-18.872,-66.8598,-5.50615,-0.253872,8.53824,1.0061,7.07317,13.75
940.94,61.2823,49.2279,0,8.87594,5.1469,0.0215552,4.35976,-17.6524,-67.2256,-5.56363,-0.158071,8.51669,0.853659,9.20732,13.811
940.951,60.5754,49.4837,0,8.48555,5.1445,0.359253,4.72561,-17.8659,-67.0122,-5.61872,-0.148491,8.25084,0.792683,11.6768,13.2927
940.961,59.8755,49.7251,0,8.68913,5.29539,0.0359253,5.33537,-19.0854,-67.4695,-5.66901,-0.0790356,8.29395,0.579268,13.75,13.4756
940.971,59.157,49.9269,0,8.37059,5.4343,0.00718506,5.4878,-21.189,-67.4695,-5.73128,-0.124541,8.15504,0.945122,15.8232,12.7134
940.98,58.4461,50.0969,0,8.33467,5.45585,0.0311353,5.30488,-18.628,-67.7134,-5.74805,-0.150886,8.00176,0.640244,17.8659,12.439
940.991,57.7334,50.2269,0,8.04248,5.46304,-0.110171,5.88415,-22.9573,-67.3476,-5.7696,-0.189207,7.791,0.853659,20,11.3415
941,57.0281,50.3722,0,7.92033,5.38879,-0.213157,5.70122,-23.2012,-67.9573,-5.68578,-0.220342,7.82692,0.426829,21.7073,10.7927
941.01,56.331,50.5072,0,7.92751,5.54687,-0.323328,6.89024,-24.4817,-67.0427,-5.6738,-0.263452,7.77902,0.182927,22.9878,11.128
941.021,55.6584,50.6025,0,7.91314,5.54926,-0.258662,6.4939,-27.1646,-65.8232,-5.61393,-0.268242,7.46049,-0.27439,25.3354,10.3963
941.03,54.9948,50.6779,0,8.00895,5.70494,-0.58199,4.17683,-20.9146,-65.4268,-5.56842,-0.227527,7.29523,-0.243902,28.0183,10.1524
941.04,54.3319,50.7709,0,7.81495,5.66901,-0.193997,3.90244,-21.5854,-65.7012,-5.52291,-0.220342,7.37666,-0.426829,30.6402,10.1524
941.051,53.723,50.8594,0,7.95625,5.5301,-0.443079,4.14634,-19.939,-63.9024,-5.53489,-0.129331,7.38864,-1.37195,31.7378,9.84756
941.061,53.1277,50.8998,0,7.86524,5.49178,-0.445474,4.60366,-21.4024,-63.5061,-5.578,-0.146096,7.15153,-2.2561,33.9024,9.54268
941.071,52.5326,50.9009,0,7.84369,5.61872,-0.759221,2.9878,-16.9817,-63.2927,-5.66183,-0.143701,7.0198,-2.5,37.2256,8.59756
941.081,51.9284,50.8816,0,7.5515,5.58758,-0.256267,3.87195,-19.4512,-63.628,-5.78158,-0.177231,7.04136,-2.31707,39.5427,7.65244
941.091,51.3082,50.7969,0,7.51318,5.8654,-0.490979,3.20122,-18.3232,-63.4756,-5.89414,-0.261057,6.76833,-2.40854,41.8293,6.55488
941.1,50.6839,50.7319,0,7.48923,6.02587,-0.488584,2.68293,-17.622,-63.4451,-5.97318,-0.282612,6.96232,-2.59146,43.872,5.54878
941.11,50.0614,50.6302,0,7.3551,6.02826,-0.541274,2.53049,-19.1463,-63.4756,-6.10011,-0.354463,6.86652,-2.37805,44.1159,5.2439
941.12,49.4552,50.4851,0,7.54192,6.04742,-0.62989,2.95732,-19.1463,-64.3293,-6.13365,-0.385598,6.62223,-2.13415,46.25,4.7561
941.13,48.7951,50.3301,0,6.99346,6.26058,-0.457449,1.25,-19.9085,-64.7256,-6.23424,-0.397573,6.64139,-1.67683,48.3537,4.87805
941.14,48.1709,50.1775,0,7.34313,6.43063,-0.550855,0.152439,-21.128,-63.689,-6.26537,-0.347278,6.65336,-1.67683,49.5732,5.42683
941.151,47.611,49.9752,0,7.73112,6.29172,-0.718506,1.15854,-13.2927,-62.622,-6.32764,-0.323328,6.39949,-1.43293,51.311,5.39634
941.16,46.9781,49.7779,0,6.91921,6.5863,-0.328118,1.09756,-23.2012,-62.1341,-6.41386,-0.330513,6.47134,-1.18902,52.9573,5.42683
941.171,46.3622,49.5498,0,7.15153,6.90484,-0.744851,-0.396341,-16.0061,-60.8537,-6.50487,-0.342488,6.34441,-1.12805,53.9634,5.21341
941.181,45.7317,49.2799,0,6.78988,6.94077,-0.59636,-2.10366,-18.2012,-60.2744,-6.55996,-0.282612,6.11928,-1.09756,55.3049,4.78659
941.19,45.1158,49.0022,0,6.74917,6.96951,-0.687371,-1.09756,-16.2195,-59.4817,-6.59109,-0.273032,6.04982,-0.792683,56.8902,4.35976
941.201,44.4883,48.7236,0,6.57433,7.04854,-0.464634,-2.9878,-16.1585,-59.7256,-6.73958,-0.275427,6.12167,-0.792683,57.1037,4.35976
941.21,43.8878,48.4088,0,6.65097,6.85455,-0.241897,-3.23171,-22.561,-60.5488,-6.80425,-0.225132,5.92767,-0.426829,58.3537,3.81098
941.22,43.2958,48.1013,0,6.74917,6.90245,-0.759221,-4.02439,-17.2256,-61.372,-6.88089,-0.275427,5.96839,-1.67683,59.1159,3.5061
941.23,42.7154,47.7922,0,6.62941,6.76354,-0.366438,-2.86585,-22.0122,-61.5244,-6.96711,-0.251477,5.96839,-2.65244,58.4146,3.29268
941.24,42.1128,47.455,0,6.34441,6.78988,-0.677791,-2.40854,-19.6341,-62.1951,-7.07249,-0.208367,5.84385,-3.93293,58.75,3.17073
941.251,41.5242,47.1111,0,6.50487,6.90484,-0.749641,-3.07927,-17.0122,-62.4695,-7.13237,-0.162861,5.78876,-3.81098,59.2073,2.86585
941.26,40.9496,46.6951,0,6.41147,6.62462,-0.66342,-0.762195,-15.0915,-63.811,-7.18506,-0.165256,5.39598,-3.41463,60.4573,2.65244
941.271,40.345,46.2827,0,6.31327,6.81862,-0.833467,1.4939,-21.3415,-65.4573,-7.24733,-0.222737,5.37921,-3.65854,61.4024,2.95732
941.281,39.7456,45.9201,0,6.5887,7.03178,-1.05141,1.43293,-14.7256,-66.8598,-7.22817,-0.229922,5.5325,-3.84146,61.189,3.14024
941.29,39.1267,45.5213,0,6.25819,7.13716,-1.15679,-0.396341,-14.3598,-66.2195,-7.2617,-0.239502,5.30497,-4.02439,60.6402,3.53659
941.3,38.5195,45.126,0,6.50966,7.42456,-1.20709,-0.579268,-14.1463,-66.2805,-7.23535,-0.285007,5.22593,-4.57317,60.7927,3.20122
941.31,37.9018,44.7461,0,6.42823,7.61377,-1.16398,-0.97561,-9.81707,-66.4024,-7.24733,-0.292192,5.23312,-5.57927,60.5183,3.23171
941.321,37.2953,44.3221,0,6.13125,7.37906,-1.13284,-0.97561,-6.76829,-65.6098,-7.3096,-0.304167,4.99362,-5.64024,60.6098,3.07927
941.33,36.6958,43.8708,0,5.98515,7.33834,-1.0562,-1.18902,-4.20732,-65.061,-7.36947,-0.282612,4.82836,-5.36585,61.9207,3.14024
941.34,36.0779,43.4652,0,5.80074,7.38624,-0.993933,0.884146,-2.46951,-66.0061,-7.43175,-0.241897,5.0008,-5.79268,62.3171,2.83537
941.351,35.4527,43.0507,0,5.7241,7.5036,-0.792751,1.92073,2.10366,-66.3719,-7.57545,-0.282612,4.97685,-6.95122,61.7378,2.34756
941.36,34.813,42.6047,0,5.52052,7.60419,-0.723296,2.92683,1.03659,-66.3415,-7.6952,-0.294587,4.82596,-7.16463,61.8598,2.22561
941.371,34.196,42.1502,0,5.61393,7.62095,-1.24062,3.32317,2.86585,-66.1585,-7.68801,-0.239502,4.69903,-7.62195,61.9817,2.28659
941.381,33.5813,41.6689,0,5.65464,7.76226,-1.20709,3.47561,5.09146,-66.5549,-7.6928,-0.174836,4.49545,-7.2561,61.7073,2.7439
941.39,32.9562,41.1462,0,5.37682,7.83411,-0.850232,3.59756,4.29878,-65.5793,-7.64251,-0.172441,4.19847,-6.76829,62.8659,3.84146
941.4,32.3327,40.6627,0,5.37682,7.87243,-0.852627,4.20732,8.75,-66.4329,-7.65927,-0.153281,4.28948,-7.31707,63.628,4.26829
941.41,31.7162,40.2205,0,5.20677,7.68083,-0.708926,4.35976,7.71341,-66.5854,-7.71436,-0.237107,4.41881,-7.77439,62.439,4.66463
941.42,31.1087,39.7197,0,5.12055,7.72154,-0.775986,6.85976,5.88415,-65.7317,-7.83171,-0.383203,4.14338,-7.56098,61.6159,4.81707
941.431,30.4861,39.2031,0,5.03433,8.01613,-0.689766,6.12805,7.53049,-65.6098,-7.87961,-0.407153,4.01166,-7.37805,62.2866,4.57317
941.441,29.8987,38.6759,0,5.07984,8.05206,-1.46336,10.8537,11.311,-63.5366,-7.97302,-0.457449,3.92304,-6.31098,62.561,4.69512
941.45,29.2429,38.1554,0,4.6655,8.64842,-0.462239,8.9939,11.372,-63.75,-8.06403,-0.481399,3.90628,-5.64024,63.5366,4.66463
941.461,28.5865,37.607,0,4.5697,8.49034,-0.761616,8.90244,5,-65.0305,-8.07122,-0.483794,3.70031,-5.45732,64.7866,5.09146
941.47,27.916,37.1073,0,4.49785,8.49034,-0.795146,7.13415,12.6829,-67.0427,-8.32748,-0.514929,3.93741,-5.7622,64.0854,5.36585
941.48,27.2547,36.5054,0,4.41163,8.58615,-0.546064,6.12805,12.5915,-66.0061,-8.45921,-0.548459,3.45601,-5.94512,64.0549,5.03049
941.491,26.6446,35.8786,0,4.74693,8.7514,-0.529299,5.73171,10.5488,-64.7561,-8.4616,-0.378413,3.24765,-5.30488,64.6951,5.39634
941.501,26.0515,35.2778,0,4.62718,8.61968,-0.402363,6.46341,12.5305,-63.75,-8.49753,-0.311353,3.26681,-5.09146,64.6037,6.12805
941.51,25.4131,34.6731,0,4.05237,8.76338,-0.287402,5.67073,13.0183,-62.622,-8.49753,-0.292192,3.14706,-4.39024,63.75,6.03659
941.52,24.7905,34.0704,0,3.95897,8.67955,-0.368833,1.67683,12.7439,-61.7073,-8.44963,-0.277822,3.03688,-4.5122,63.9024,6.67683
941.531,24.2037,33.5147,0,4.08351,8.4161,-0.196392,4.11585,9.66463,-62.1037,-8.45921,-0.299377,3.13748,-4.60366,62.8354,7.2561
941.54,23.5704,32.8556,0,3.63085,8.77535,-0.150886,2.53049,7.22561,-61.0976,-8.43526,-0.426313,2.60818,-3.17073,62.6524,7.43902
941.551,22.9377,32.2196,0,3.39135,9.19448,-0.383203,0.853659,4.69512,-57.7744,-8.46639,-0.476609,2.60578,-2.16463,63.3232,7.22561
941.561,22.3352,31.6007,0,3.38177,8.80888,-0.117356,1.12805,-2.62195,-57.5305,-8.50471,-0.574805,2.58423,-0.182927,63.0183,6.98171
941.571,21.782,30.9797,0,3.58534,8.66039,-0.673001,1.95122,-0.27439,-56.7683,-8.57656,-0.61552,2.49801,0.792683,64.2378,6.43293
941.58,21.1666,30.3723,0,2.62734,10.095,0.205972,-0.945122,-10.9451,-48.1098,-8.64842,-0.526904,2.47406,0.701219,65.2744,5.70122
941.591,20.7434,29.7795,0,3.99729,7.23296,-0.622705,4.69512,1.67683,-59.0244,-8.81128,-0.474214,2.48124,1.21951,65.9146,4.7561
941.6,20.1681,29.2026,0,3.27878,8.82804,-0.342488,1.18902,-5.12195,-57.9573,-8.98851,-0.390388,2.49801,2.19512,64.6341,4.42073
941.61,19.5597,28.5407,0,3.00575,9.1849,-0.543669,-1.15854,-8.32317,-57.8963,-9.04838,-0.356858,2.05732,4.20732,64.939,3.84146
941.62,19.0137,27.9534,0,3.43206,9.06036,-1.12087,-0.701219,-7.16463,-58.1402,-9.16095,-0.256267,2.28964,5.18293,65.061,3.2622
941.631,18.4109,27.3624,0,2.84049,9.65672,-0.387993,-4.29878,-12.5915,-56.1585,-9.17532,-0.158071,2.17707,5.85366,64.3293,3.10976
941.64,17.8393,26.7449,0,2.88121,9.4723,-0.632285,-1.03659,-7.40854,-55.2744,-9.19209,-0.138911,1.96871,6.12805,64.6951,3.23171
941.651,17.2635,26.2097,0,2.49801,9.4747,-0.486189,-0.457317,-14.3598,-52.5,-9.34776,-0.141306,2.25132,6.03659,63.1098,3.44512
941.66,16.7169,25.6323,0,2.55549,9.331,-0.526904,1.64634,-14.2073,-51.7988,-9.21843,-0.0862207,1.94955,6.03659,63.1098,3.56707
941.67,16.184,25.0352,0,2.53872,9.14418,-0.522114,1.98171,-18.0488,-51.9207,-9.2831,-0.100591,1.78189,5.39634,63.0183,4.11585
941.681,15.6295,24.539,0,2.31838,9.49625,-0.950823,-1.34146,-17.5,-51.5549,-9.36453,-0.138911,2.12917,5.27439,61.4634,4.17683
941.69,15.097,24.0288,0,2.41657,9.44117,-0.457449,-2.7439,-21.4329,-51.7378,-9.30944,-0.0886157,1.9711,3.90244,60.1524,4.39024
941.701,14.5737,23.4243,0,2.35909,9.35016,-0.60594,1.95122,-19.9695,-51.4939,-9.36692,-0.0814307,1.49449,2.83537,61.0366,4.02439
941.71,14.0514,22.8393,0,2.23455,9.59684,-1.11608,-0.487805,-23.3841,-50.3049,-9.38848,-0.0981958,1.48012,2.86585,62.0122,3.44512
941.72,13.506,22.2826,0,1.99505,9.49386,-0.792751,0,-25.3963,-51.189,-9.41003,-0.114961,1.50407,3.56707,60.9756,3.38415
941.73,12.9849,21.7686,0,2.05732,9.50104,-0.996328,-1.0061,-19.2378,-50.5488,-9.43398,-0.136516,1.59508,3.90244,59.2683,3.56707
941.741,12.4874,21.238,0,2.07648,9.47709,-0.835862,0.518293,-21.0366,-49.4817,-9.36213,-0.189207,1.42504,4.11585,57.3476,3.2622
941.75,12.0585,20.6853,0,2.52914,9.08431,-0.926873,0.0914634,-16.3415,-50.0305,-9.31423,-0.227527,1.23583,4.57317,56.128,3.5061
941.76,11.6227,20.1641,0,2.24653,8.92863,-0.850232,0.518293,-14.7561,-48.689,-9.22083,-0.251477,1.26218,5.42683,54.5427,3.90244
941.771,11.2193,19.6823,0,2.18426,9.10586,-0.735271,-0.457317,-14.939,-44.9695,-9.26873,-0.292192,1.34361,6.18902,51.0366,3.93293
941.78,10.8522,19.2078,0,2.19384,8.96695,-0.950823,-2.10366,-10.122,-42.622,-9.22322,-0.318538,1.28613,7.31707,48.0488,3.75
941.79,10.4857,18.7023,0,1.93039,8.77056,-0.490979,1.92073,-12.561,-40.5793,-9.2352,-0.416733,1.08015,7.80488,46.311,2.7439
941.8,10.1323,18.2688,0,1.75076,9.18969,-1.15919,-0.792683,-10.8841,-36.6768,-9.17532,-0.402363,1.28613,8.07927,44.878,1.85976
941.811,9.75613,17.8532,0,1.32684,9.15137,-0.823887,0.0609756,-19.6646,-34.5427,-9.21364,-0.335303,1.29331,8.20122,43.8415,0.457317
941.82,9.4172,17.4632,0,1.53521,9.43398,-0.950823,1.46341,-19.5122,-33.5366,-9.1825,-0.249082,1.32684,8.35366,43.9329,-0.0304878
941.83,9.05353,17.0881,0,1.26697,9.71899,-1.02746,-0.0609756,-23.628,-33.0488,-9.2304,-0.253872,1.33163,7.68293,44.0854,-0.548781
941.84,8.73621,16.6309,0,1.65256,9.58247,-1.26457,0.853659,-19.4207,-33.872,-9.22801,-0.280217,0.931663,7.2561,45.0915,-0.762195
941.85,8.45317,16.2042,0,1.93278,9.26873,-1.0107,2.83537,-16.9207,-35.0915,-9.29986,-0.337698,0.991538,6.82927,46.1585,-0.792683
941.861,8.17925,15.7859,0,2.00942,9.41961,-0.960403,4.08537,-15.7927,-35.2744,-9.40045,-0.234712,0.965193,6.15854,45.061,0.213415
941.87,7.92241,15.3207,0,2.08846,9.33818,-1.12566,3.56707,-8.5061,-35.2439,-9.45554,-0.205972,0.704136,5.88415,44.4512,1.21951
941.88,7.66496,14.8591,0,1.95194,9.24957,-0.866997,2.68293,-7.0122,-34.4207,-9.52978,-0.215552,0.646655,5.64024,43.9024,3.07927
941.89,7.43951,14.4295,0,2.02379,9.46991,-0.680186,5.18293,-1.95122,-31.9817,-9.63756,-0.361648,0.711321,5.70122,42.561,4.39024
941.9,7.18963,13.9882,0,1.52323,9.72857,-0.804727,3.59756,-1.0061,-28.4756,-9.58487,-0.459844,0.584385,6.46341,41.311,5.54878
941.91,6.9609,13.57,0,1.47294,9.72138,-0.699346,0.426829,2.07317,-26.25,-9.67109,-0.498164,0.613125,6.76829,40.2439,6.09756
941.921,6.74364,13.1106,0,1.36516,9.63516,-0.584385,1.06707,-2.77439,-24.4207,-9.63995,-0.589175,0.366438,7.40854,41.7378,6.21951
941.93,6.50659,12.6881,0,1.03704,9.6639,-0.5772,-1.03659,-3.38415,-22.9268,-9.63037,-0.63468,0.445474,7.56098,41.9817,5.88415
941.94,6.26283,12.2798,0,0.886157,9.60882,-0.63468,0.213415,-4.57317,-22.3476,-9.60882,-0.64426,0.433499,7.53049,41.7988,5.45732
941.95,5.99821,11.8792,0,0.670605,9.70701,-0.833467,-0.335366,-6.25,-22.2866,-9.61361,-0.6251,0.397573,7.10366,40.9451,5.30488
941.961,5.73174,11.4416,0,0.641865,9.65193,-1.03465,-0.945122,-5.7622,-22.7134,-9.59924,-0.519719,0.172441,6.92073,40.5183,5.21341
941.971,5.46931,11.0517,0,0.66342,9.64714,-1.08494,0.182927,-7.92683,-23.1098,-9.72138,-0.452659,0.304167,6.61585,40.122,5.85366
941.981,5.20046,10.6346,0,0.728086,9.66869,-1.27415,0.945122,-4.32927,-25.061,-9.73336,-0.371228,0.122146,5.85366,40.2439,6.55488
941.99,4.91994,10.1817,0,0.704136,9.58487,-1.14482,1.28049,-1.4939,-26.5854,-9.78126,-0.263452,-0.102986,5.03049,39.9695,6.89024
942,4.65446,9.74876,0,0.886157,9.58008,-1.18074,1.06707,1.79878,-27.8354,-9.86269,-0.122146,-0.0958008,3.78049,39.4817,7.77439
942.01,4.37711,9.35738,0,0.749641,9.75012,-1.22625,0.182927,2.65244,-27.7744,-9.93694,-0.0886157,0.00958008,2.22561,38.3841,9.05488
942.021,4.10447,8.97948,0,0.754431,9.70701,-1.13763,0.396341,3.5061,-27.9573,-10.0256,-0.0766406,0,0.304878,37.5,9.69512
942.03,3.8377,8.56806,0,0.831072,9.63756,-1.06578,1.61585,8.32317,-28.9024,-10.0639,-0.0814307,-0.215552,-1.12805,36.9207,10.5488
942.04,3.54314,8.15231,0,0.641865,9.79323,-0.747246,2.28659,10.9756,-29.878,-10.0375,-0.0910107,-0.306563,-2.10366,36.6463,10.8537
942.05,3.21079,7.73849,0,0.340093,9.81719,-0.737666,0.97561,12.3476,-30.7317,-9.98244,-0.0838257,-0.368833,-3.44512,36.7073,11.1585
942.06,2.91078,7.32404,0,0.550855,9.77886,-0.790356,0.640244,12.8659,-30.6402,-9.95131,-0.0981958,-0.443079,-3.9939,35.9451,11.4939
942.07,2.60157,6.93867,0,0.467029,9.67827,-0.924478,0.823171,11.0366,-31.25,-9.99681,-0.155676,-0.390388,-4.87805,34.6037,12.0732
942.081,2.2812,6.55648,0,0.361648,9.63516,-0.912502,1.40244,13.3537,-31.7683,-9.96568,-0.244292,-0.443079,-5.39634,33.7195,12.1341
942.091,1.95932,6.16834,0,0.287402,9.63277,-1.00351,1.21951,17.1341,-31.6768,-9.91538,-0.287402,-0.534089,-6.15854,32.6829,12.0732
942.101,1.65386,5.78608,0,0.347278,9.59205,-0.766406,2.04268,19.0854,-31.4024,-9.89383,-0.316143,-0.574805,-6.67683,32.2561,11.2805
942.11,1.36262,5.4172,0,0.426313,9.50344,-1.00112,2.31707,21.2195,-31.5854,-9.87467,-0.316143,-0.58199,-6.4939,31.5549,11.7073
942.121,1.05808,5.04974,0,0.232317,9.38369,-1.1041,3.04878,22.378,-31.189,-9.89383,-0.364043,-0.641865,-6.55488,30.3659,11.4939
942.131,0.771023,4.69357,0,0.249082,9.35734,-1.31247,3.68902,25,-30.2439,-9.96089,-0.387993,-0.661025,-6.18902,29.8476,10.9756
942.14,0.460785,4.3536,0,-0.0215552,9.46033,-1.23344,3.87195,22.378,-29.8171,-10.0088,-0.364043,-0.656235,-6.31098,28.3232,10.5793
942.151,0.135405,4.02051,0,-0.232317,9.6639,-1.25739,3.17073,22.5,-29.4512,-10.0567,-0.349673,-0.689766,-6.64634,27.0732,10.2744
942.16,-0.174923,3.67892,0,-0.256267,9.76928,-1.25978,3.87195,21.8598,-28.3232,-10.1237,-0.282612,-0.792751,-6.25,25.9146,9.63415
942.171,-0.480086,3.33932,0,-0.383203,9.78844,-1.2981,2.95732,21.3415,-26.9207,-10.1597,-0.265847,-0.847837,-6.28049,25.5183,9.66463
942.18,-0.773635,2.995,0,-0.507744,9.69743,-1.13524,2.92683,17.9268,-24.8171,-10.2531,-0.249082,-0.938848,-6.55488,25,9.14634
942.19,-1.0454,2.67025,0,-0.522114,9.64714,-1.23583,3.07927,15.0305,-22.9878,-10.3561,-0.311353,-0.922083,-6.25,23.7805,8.65854
942.2,-1.28746,2.34986,0,-0.486189,9.64714,-1.2981,2.43902,10.8841,-20.9451,-10.4135,-0.435894,-0.967588,-6.21951,22.622,7.83537
942.21,-1.4917,2.02708,0,-0.435894,9.72617,-1.31726,1.64634,8.56707,-18.2317,-10.4183,-0.455054,-1.03944,-5.97561,20.9451,6.67683
942.22,-1.67191,1.71765,0,-0.479004,9.76449,-1.22625,1.31098,6.46341,-15.7012,-10.2842,-0.505349,-1.02507,-5.30488,19.1463,5.54878
942.231,-1.80901,1.42714,0,-0.328118,9.76689,-1.33882,1.09756,5.21341,-13.4756,-10.2148,-0.467029,-0.989143,-4.96951,17.6829,5.12195
942.24,-1.93301,1.17061,0,-0.435894,9.87946,-1.25739,0.853659,4.35976,-11.189,-10.1573,-0.498164,-0.883762,-4.69512,15.7622,4.42073
942.251,-2.04116,0.910494,0,-0.390388,9.75731,-1.24541,1.21951,4.2378,-10.3049,-10.0735,-0.483794,-0.938848,-5.03049,14.8476,3.84146
942.26,-2.15018,0.629568,0,-0.505349,9.75491,-1.25739,0.518293,3.56707,-9.2378,-10.0136,-0.479004,-1.07297,-5.60976,13.6585,3.71951
942.271,-2.2457,0.341344,0,-0.395178,9.54894,-1.24062,0.579268,2.95732,-9.29878,-10.0136,-0.395178,-1.15679,-5.54878,11.9207,3.56707
942.281,-2.33223,0.0610225,0,-0.433499,9.72138,-1.40827,0.396341,3.29268,-8.20122,-10.0112,-0.253872,-1.17356,-5.39634,10.3354,3.47561
942.291,-2.41906,-0.215618,0,-0.474214,9.68067,-1.2023,-0.152439,3.44512,-7.89634,-10.0639,-0.177231,-1.21427,-5.85366,8.78049,3.65854
942.301,-2.49423,-0.49238,0,-0.476609,9.74294,-1.23823,-0.304878,5.39634,-6.89024,-10.0639,-0.191602,-1.26457,-6.12805,7.7439,3.68902
942.31,-2.56303,-0.759669,0,-0.493374,9.73815,-1.23583,-0.823171,6.52439,-6.18902,-10.1285,-0.208367,-1.27894,-6.85976,6.52439,3.71951
942.32,-2.62926,-1.04904,0,-0.500559,9.73096,-1.18793,-1.03659,7.89634,-5.97561,-10.1046,-0.253872,-1.42025,-7.40854,5.51829,3.2622
942.331,-2.71112,-1.3366,0,-0.632285,9.77647,-1.13763,-0.335366,8.17073,-6.15854,-10.0854,-0.270637,-1.44659,-8.20122,4.32927,2.68293
942.34,-2.80912,-1.61957,0,-0.787961,9.7597,-1.23104,-0.518293,7.62195,-6.09756,-10.0351,-0.294587,-1.40827,-8.68902,2.9878,2.92683
942.351,-2.91768,-1.92476,0,-0.857417,9.67827,-1.22386,-0.945122,6.43293,-6.46341,-10.0064,-0.296982,-1.47773,-8.87195,2.37805,3.20122
942.36,-3.02489,-2.27445,0,-0.843047,9.69025,-1.2981,-1.31098,6.21951,-6.7378,-9.97526,-0.352068,-1.51605,-9.20732,1.55488,3.29268
942.37,-3.12954,-2.67107,0,-0.819097,9.68785,-1.22386,-1.12805,7.34756,-6.98171,-9.92257,-0.376018,-1.56155,-8.84146,1.12805,3.35366
942.38,-3.21576,-3.12016,0,-0.682581,9.71659,-1.13524,-0.945122,7.28659,-6.98171,-9.88425,-0.364043,-1.54718,-8.90244,0.670732,3.62805
942.391,-3.30578,-3.58505,0,-0.696951,9.65193,-1.07297,-1.58537,7.31707,-7.31707,-9.86509,-0.402363,-1.61185,-8.41463,0.579268,3.56707
942.4,-3.3924,-4.11133,0,-0.694556,9.59684,-1.08494,-1.64634,5.91463,-7.13415,-9.86748,-0.407153,-1.57353,-8.20122,0.121951,3.38415
942.41,-3.47033,-4.44796,0,-0.66342,9.62798,-1.12805,-1.7378,4.7561,-6.82927,-9.87706,-0.440684,-1.53521,-8.01829,-0.701219,3.38415
942.42,-3.53898,-4.68423,0,-0.603545,9.63037,-1.24781,-1.82927,3.65854,-6.76829,-9.89143,-0.361648,-1.52563,-8.04878,-1.43293,2.83537
942.43,-3.60394,-4.90075,0,-0.593965,9.62798,-1.26697,-2.37805,4.35976,-6.64634,-9.8603,-0.330513,-1.53281,-8.2622,-1.64634,2.92683
942.441,-3.66333,-5.09021,0,-0.61552,9.69983,-1.26697,-2.10366,4.87805,-6.0061,-9.84114,-0.344883,-1.52563,-8.04878,-2.0122,3.04878
942.45,-3.71819,-5.24669,0,-0.58678,9.69264,-1.14482,-2.43902,5.18293,-6.0061,-9.82916,-0.349673,-1.48252,-8.56707,-2.53049,2.95732
942.461,-3.76413,-5.40023,0,-0.55804,9.72138,-1.12087,-2.13415,4.48171,-5.57927,-9.85072,-0.402363,-1.51605,-8.5061,-2.71341,2.86585
942.471,-3.81382,-5.53584,0,-0.608335,9.73336,-1.26457,-2.80488,4.32927,-5.45732,-9.91299,-0.426313,-1.50407,-8.78049,-3.17073,2.9878
942.48,-3.86314,-5.66594,0,-0.613125,9.68306,-1.28373,-3.14024,3.75,-5.42683,-9.94173,-0.443079,-1.52323,-9.14634,-3.62805,2.65244
942.49,-3.92137,-5.80301,0,-0.692161,9.65911,-1.32684,-3.59756,3.10976,-5.45732,-9.89862,-0.426313,-1.57353,-9.5122,-3.84146,2.37805
942.501,-3.98552,-5.94878,0,-0.759221,9.69025,-1.25499,-3.75,3.84146,-5.39634,-9.87227,-0.486189,-1.6334,-9.20732,-3.96341,2.62195
942.51,-4.05378,-6.09442,0,-0.843047,9.73096,-1.13284,-4.35976,2.71341,-4.96951,-9.88904,-0.548459,-1.65735,-9.48171,-3.75,2.62195
942.52,-4.12088,-6.2202,0,-0.833467,9.68546,-1.1544,-4.81707,2.07317,-5.06098,-9.9058,-0.565225,-1.60706,-9.54268,-4.14634,2.04268
942.53,-4.18445,-6.33621,0,-0.804727,9.59205,-1.08255,-5.27439,0.426829,-5.09146,-9.89622,-0.55804,-1.59269,-9.5122,-4.96951,1.67683
942.541,-4.23634,-6.45722,0,-0.752036,9.55134,-1.13284,-5.88415,-0.579268,-4.63415,-9.94173,-0.603545,-1.64538,-9.69512,-5.36585,1.21951
942.55,-4.28948,-6.56297,0,-0.730481,9.53218,-1.22864,-6.12805,-1.40244,-5.12195,-10.0064,-0.60594,-1.61185,-9.84756,-6.18902,1.09756
942.56,-4.34257,-6.65023,0,-0.759221,9.63277,-1.43941,-6.4939,-1.40244,-4.96951,-10.0543,-0.61073,-1.55676,-10.1829,-7.43902,0.579268
942.57,-4.40298,-6.73577,0,-0.759221,9.65911,-1.47533,-6.18902,-1.76829,-5.85366,-10.0591,-0.687371,-1.56634,-10.3963,-8.29268,-0.365854
942.581,-4.46461,-6.85408,0,-0.771196,9.70941,-1.44899,-6.67683,-1.31098,-6.0061,-9.87946,-0.778381,-1.70046,-10.1524,-8.78049,-0.518293
942.591,-4.5177,-6.97353,0,-0.673001,9.73815,-1.47773,-7.37805,-0.335366,-6.46341,-9.68785,-0.787961,-1.69328,-10.4878,-8.9939,-0.0914634
942.6,-4.57366,-7.09454,0,-0.747246,9.76928,-1.31008,-7.43902,-2.13415,-6.0061,-9.50823,-0.795146,-1.68849,-11.0061,-8.44512,1.03659
942.61,-4.61586,-7.23921,0,-0.670605,9.73815,-1.31247,-7.31707,-2.71341,-5.60976,-9.4747,-0.823887,-1.80345,-11.0976,-7.16463,1.70732
942.62,-4.64349,-7.37907,0,-0.579595,9.72617,-1.38672,-7.37805,-4.48171,-5.30488,-9.51062,-0.898132,-1.81063,-11.189,-5.88415,1.98171
942.63,-4.65162,-7.52924,0,-0.450264,9.75731,-1.36756,-6.98171,-6.34146,-4.96951,-9.61361,-0.993933,-1.89446,-10.3659,-5,1.76829
942.641,-4.62124,-7.65403,0,-0.155676,9.72138,-1.37714,-6.92073,-8.41463,-4.66463,-9.63516,-0.936453,-1.81303,-10.2744,-4.81707,1.34146
942.651,-4.54646,-7.77199,0,0.124541,9.73336,-1.48731,-7.07317,-8.47561,-3.78049,-9.65911,-0.967588,-1.80584,-10.061,-4.42073,1.76829
942.66,-4.42845,-7.8542,0,0.354463,9.72617,-1.36277,-7.68293,-6.31098,-2.92683,-9.70222,-1.03704,-1.6813,-10.2439,-4.54268,1.76829
942.67,-4.24467,-7.93941,0,0.522114,9.80521,-1.34361,-8.59756,-4.63415,-1.67683,-9.72378,-1.09213,-1.71244,-10.122,-4.5122,1.98171
942.68,-3.85502,-8.01577,0,0.60115,9.82916,-1.26697,-9.08537,-2.13415,-0.152439,-9.71659,-1.0586,-1.68849,-10.7012,-4.63415,2.13415
942.69,-3.61451,-8.09243,0,0.680186,9.86509,-1.25739,-9.29878,-1.21951,1.31098,-9.67348,-0.981958,-1.69567,-10.7317,-4.69512,2.59146
942.7,-3.40817,-8.1645,0,0.790356,9.87227,-1.22146,-9.63415,0.0609756,3.38415,-9.62319,-0.922083,-1.67651,-11.25,-4.2378,3.04878
942.711,-3.17238,-8.23563,0,0.931663,9.87706,-1.23823,-10.4573,1.37195,6.03659,-9.57768,-0.886157,-1.67172,-11.6768,-3.81098,3.44512
942.72,-2.91272,-8.31244,0,1.0083,9.89622,-1.11368,-11.0976,1.34146,8.14024,-9.59205,-0.845442,-1.70525,-12.7439,-3.5061,4.29878
942.73,-2.62517,-8.40704,0,1.06099,9.73336,-1.01549,-11.372,1.18902,10.7012,-9.60403,-0.866997,-1.78189,-13.7805,-3.04878,4.05488
942.74,-2.32843,-8.51486,0,0.946033,9.81719,-0.886157,-11.2805,1.52439,13.689,-9.64714,-0.888552,-1.8274,-14.0854,-2.34756,4.08537
942.751,-1.99991,-8.63918,0,0.974773,9.7118,-0.857417,-11.311,2.19512,17.0732,-9.64714,-0.809517,-1.90404,-14.1768,-2.28659,3.53659
942.76,-1.63746,-8.76252,0,0.974773,9.59684,-0.823887,-10.5183,0.548781,21.0671,-9.63995,-0.783171,-1.93518,-13.8415,-2.5,3.81098
942.771,-1.2183,-8.85797,0,1.12087,9.48188,-0.775986,-10.1524,-0.0304878,25.6707,-9.70941,-0.780776,-1.89207,-13.4451,-3.20122,4.29878
942.78,-0.710502,-8.93716,0,1.50407,9.3765,-0.785566,-9.78659,-0.121951,30.7317,-9.70701,-0.804727,-1.85614,-13.2012,-4.17683,4.54268
942.79,-0.0977835,-8.98493,0,1.95673,9.31423,-0.670605,-9.78659,1.37195,36.8598,-9.80281,-0.845442,-1.75794,-12.2256,-5.85366,4.87805
942.8,0.62038,-9.02706,0,2.4022,9.32381,-0.641865,-10.9146,4.32927,43.5976,-9.81958,-0.833467,-1.74597,-11.4634,-7.04268,5
942.81,1.43811,-9.02158,0,2.77583,9.20406,-0.490979,-12.0122,6.06707,50.4573,-9.8124,-0.888552,-1.54239,-10.1829,-8.9939,5.27439
942.821,2.32462,-8.99329,0,2.94108,9.19448,-0.488584,-12.4695,8.78049,57.1951,-9.82916,-0.910107,-1.4442,-8.81098,-10.3963,5.67073
942.83,3.25029,-8.96326,0,2.98898,9.24957,-0.536484,-13.5366,11.4024,62.6524,-9.90341,-0.912502,-1.4442,-7.2561,-12.4695,5.91463
942.84,4.1886,-8.92655,0,2.90995,9.35974,-0.608335,-14.1463,15.7317,67.1341,-9.56331,-0.833467,-1.36037,-6.52439,-12.0732,6.52439
942.851,5.12195,-8.90426,0,2.71116,9.59445,-0.514929,-15.7012,18.4451,71.5854,-9.44596,-0.692161,-1.39869,-6.06707,-11.9207,7.43902
942.861,6.05227,-8.88941,0,2.53393,9.91538,-0.352068,-17.8659,20.7012,76.1281,-9.32621,-0.526904,-1.40827,-5.09146,-11.6463,8.2622
942.871,7.00779,-8.88836,0,2.60099,10.3968,-0.138911,-20.2439,19.7561,81.189,-9.44117,-0.493374,-1.48252,-4.26829,-12.4085,8.41463
942.88,8.00002,-8.90238,0,2.76625,10.7608,0.0359253,-21.311,17.1341,86.1281,-9.65193,-0.445474,-1.58311,-2.71341,-14.5732,9.32927
942.891,9.06259,-8.94538,0,3.30034,11.1273,-0.00718506,-20.9451,15.9756,91.0366,-9.84832,-0.431104,-1.74836,-0.426829,-15.8841,9.90854
942.9,10.1557,-8.98382,0,3.47757,11.3596,0.0981958,-19.4817,14.8476,95.3049,-10.1166,-0.536484,-1.78429,2.53049,-17.4695,10.2744
942.911,11.2725,-9.0191,0,3.52547,11.5584,0.117356,-20.7317,14.6037,100.061,-10.3609,-0.622705,-1.82021,6.34146,-18.0488,10.9451
942.92,12.4006,-9.0497,0,3.46799,11.7308,0.162861,-23.3537,14.1159,104.512,-10.4207,-0.593965,-1.81542,9.54268,-18.3232,12.1341
942.93,13.5196,-9.09537,0,3.25723,11.6446,0.280217,-24.5122,12.0732,107.591,-10.3585,-0.471819,-1.88009,12.561,-17.0732,13.4451
942.941,14.6465,-9.16668,0,3.20933,11.1512,0.0694556,-20.5488,14.4817,109.817,-10.2363,-0.273032,-1.98547,15.2134,-16.311,15.2744
942.951,15.7628,-9.2659,0,3.14227,10.8446,-0.414338,-14.7866,18.0488,110.823,-10.0878,-0.0335303,-2.09804,16.4329,-15.4573,16.9817
942.961,16.8301,-9.38977,0,2.85007,10.6339,-0.811912,-8.93293,23.1707,110.457,-9.96807,0.328118,-2.20342,16.5549,-14.2988,18.3537
942.971,17.8327,-9.53811,0,2.60578,10.5932,-0.984353,-4.54268,29.5427,108.445,-9.86269,0.60115,-2.31359,15.9146,-13.3232,19.1768
942.98,18.7076,-9.71182,0,1.99505,10.95,-0.584385,-3.53659,29.4512,104.604,-9.86748,0.847837,-2.45729,14.5427,-11.9512,19.5427
942.99,19.4735,-9.88988,0,1.4442,11.5919,0.155676,-4.66463,23.0793,101.829,-10.0064,1.0107,-2.54351,13.0793,-10.8841,19.3902
943,20.1361,-10.0541,0,0.725691,12.011,0.766406,-6.12805,5.7622,100.305,-10.1549,1.10171,-2.5483,11.311,-10.2439,19.5427
943.01,20.7451,-10.2028,0,0.502954,11.6135,0.716111,-5.45732,-8.29268,98.1707,-10.3034,1.13763,-2.54112,9.72561,-9.02439,19.6646
943.02,21.3211,-10.325,0,0.718506,10.6411,0.802332,-1.21951,-15.3049,93.2317,-10.4231,1.09692,-2.46927,8.71951,-8.17073,20.7317
943.031,21.8874,-10.4263,0,1.18793,9.81958,0.60594,4.08537,-16.25,87.2256,-10.4519,0.974773,-2.39741,7.19512,-7.62195,22.2561
943.04,22.476,-10.4905,0,2.00224,9.24717,0.325723,7.62195,-6.15854,79.7866,-10.4207,0.778381,-2.23216,6.31098,-8.38415,23.4451
943.05,23.0146,-10.5437,0,2.42376,9.137,0.447869,10.9146,-0.182927,70.5183,-10.2579,0.6251,-2.15791,6.12805,-9.32927,24.2378
943.061,23.5136,-10.5852,0,2.96982,9.22562,0.0335303,12.0427,11.189,61.4634,-10.0567,0.531694,-2.07169,6.03659,-9.84756,24.5122
943.07,23.989,-10.6203,0,3.3674,9.07233,-0.117356,10.5488,22.9573,54.939,-9.84353,0.512534,-2.00703,6.79878,-10.5793,24.6341
943.08,24.4576,-10.6432,0,3.53744,8.50711,-0.0574805,9.78659,34.878,50.7012,-9.63995,0.526904,-1.91841,6.82927,-11.5854,24.8171
943.091,24.9016,-10.6678,0,3.53505,8.01613,0.134121,10.9146,42.5915,46.6463,-9.40045,0.541274,-1.88249,7.62195,-12.1951,24.2378
943.1,25.2707,-10.7044,0,3.25004,7.68562,0.196392,12.9878,45.8232,41.7073,-9.19687,0.613125,-1.89686,7.31707,-12.378,23.1402
943.11,25.5529,-10.7364,0,3.01054,7.50599,0.174836,13.75,50.122,35.7622,-8.9933,0.706531,-1.84177,6.7378,-12.2866,21.4329
943.121,25.7374,-10.7703,0,2.70637,7.40301,0.332908,15.061,51.6463,30,-8.90708,0.871787,-1.83698,5.70122,-12.0732,20
943.13,25.8447,-10.8009,0,2.4501,7.29523,0.524509,16.2195,50.9146,25.5793,-8.85439,0.929268,-1.81782,4.14634,-12.1341,18.628
943.141,25.9091,-10.8329,0,2.41657,7.18985,0.613125,18.4756,48.2012,21.4024,-8.8951,0.972378,-1.83698,1.85976,-11.9512,17.3171
943.15,25.9558,-10.8708,0,2.55549,7.11321,0.673001,21.0061,45.1524,17.3171,-8.943,1.06578,-1.8753,0.0304878,-10.6707,15.8841
943.161,25.9978,-10.9267,0,2.79738,7.10842,0.56762,21.7378,42.3476,13.4146,-9.06275,1.10889,-1.98068,-2.53049,-9.26829,14.6951
943.171,26.0408,-10.9886,0,3.09197,7.04375,0.385598,23.2927,39.7561,9.08537,-9.18729,1.17116,-2.04056,-4.66463,-7.37805,13.3537
943.18,26.0543,-11.0523,0,3.32908,7.22577,-0.0407153,23.9634,37.0732,4.45122,-9.31663,1.22625,-2.08606,-6.31098,-6.18902,12.2866
943.19,25.8901,-11.1005,0,3.4632,7.37427,-0.167651,24.4817,33.689,0.243902,-9.50823,1.20709,-2.0693,-7.80488,-4.96951,11.4329
943.2,25.8245,-11.1427,0,3.50391,7.64011,-0.0119751,24.3598,30.9451,-3.56707,-9.6663,1.15919,-2.08127,-9.42073,-3.96341,10.3354
943.21,25.726,-11.1924,0,3.53744,7.77663,-0.0335303,24.5427,29.6341,-7.2561,-9.77886,1.11608,-2.14115,-10.9146,-3.32317,9.20732
943.221,25.5771,-11.2522,0,3.51349,7.95146,0.0981958,24.3902,29.0549,-11.3415,-9.79563,1.1041,-2.19623,-12.3171,-3.2622,8.10976
943.23,25.3555,-11.32,0,3.23328,8.0329,0.198787,24.5732,23.6585,-15.1524,-9.76928,1.1041,-2.22497,-13.5671,-2.77439,7.40854
943.24,25.1365,-11.3897,0,3.63564,8.16223,0.342488,23.3537,22.2866,-19.6037,-9.78844,1.0562,-2.24653,-14.2988,-2.65244,6.70732
943.251,24.9108,-11.4425,0,3.78413,7.8844,0.498164,23.9024,18.0183,-24.0549,-9.68546,1.02267,-2.15791,-15.6098,-2.40854,6.18902
943.26,24.7186,-11.4749,0,4.1841,7.5994,0.761616,27.1341,13.75,-27.622,-9.66151,1.00351,-2.08127,-17.0427,-2.34756,5.70122
943.271,24.5383,-11.5239,0,4.34696,7.31199,1.01549,30.8232,4.29878,-30.6707,-9.54176,0.998723,-2.12199,-18.2927,-2.40854,4.96951
943.28,24.4089,-11.5408,0,4.92895,7.33834,0.898132,35.2134,-1.98171,-32.2866,-9.50823,1.06818,-2.00224,-19.7561,-2.31707,4.45122
943.291,24.3216,-11.5489,0,5.3361,7.19703,0.735271,38.0183,-7.2561,-33.689,-9.44835,1.12566,-1.96152,-21.1585,-2.56098,3.87195
943.3,24.2743,-11.5349,0,5.5804,6.88808,0.603545,41.9207,-9.2378,-34.8171,-9.44835,1.13763,-1.8777,-22.1951,-3.23171,3.32317
943.31,24.2169,-11.5116,0,5.75044,7.2114,0.522114,44.878,-9.78659,-35.0305,-9.44835,1.14003,-1.83458,-22.9268,-3.9939,2.40854
943.32,24.1487,-11.4705,0,5.98515,7.64251,0.682581,45.8537,-7.53049,-35.2134,-9.46512,1.14482,-1.75794,-23.75,-4.48171,1.55488
943.331,24.1113,-11.4487,0,6.16478,7.61856,1.03465,44.8171,-3.44512,-34.0854,-9.39087,1.20709,-1.81782,-24.5732,-4.7561,0.579268
943.34,24.0844,-11.4483,0,6.19113,7.94907,0.969983,45.6707,-0.609756,-30.9146,-9.33339,1.25739,-1.89207,-26.128,-4.32927,0.0304878
943.351,24.0798,-11.4741,0,6.04742,8.11672,0.546064,43.0488,-1.55488,-26.189,-9.31902,1.25499,-1.98787,-28.7195,-2.95732,-0.914634
943.36,24.1089,-11.5778,0,5.97318,8.11193,0.0814307,39.1768,-3.01829,-22.1037,-9.34537,1.22386,-2.24413,-30.3963,-2.0122,-1.98171
943.371,24.1711,-11.7289,0,5.77918,7.88919,-0.162861,35.7622,-4.87805,-18.3841,-9.34537,1.34361,-2.32556,-31.9512,-1.28049,-3.14024
943.38,24.2336,-11.9754,0,5.61872,7.88201,-0.0790356,35.8537,-6.58537,-16.7073,-9.42919,1.50168,-2.47166,-33.5671,-0.518293,-3.59756
943.391,24.2612,-12.0306,0,5.5325,8.32509,-0.407153,36.3415,-7.86585,-16.311,-9.63756,1.61424,-2.18905,-35.5488,-0.823171,-4.08537
943.401,24.1698,-11.9416,0,5.1469,9.54894,-0.752036,34.5427,-8.20122,-17.622,-10.2028,1.43222,-1.78668,-37.1951,-2.77439,-5
943.41,23.8559,-11.709,0,4.20326,11.5991,-1.13763,31.5244,-5.91463,-23.3537,-10.9883,0.960403,-1.17595,-35.4878,-7.53049,-6.21951
943.42,23.3394,-11.4002,0,3.14227,14.2695,-0.179626,25.5183,-5.06098,-29.3598,-11.9392,0.285007,-0.831072,-30.6402,-14.6646,-7.19512
943.43,22.8708,-11.0578,0,3.44883,15.8287,1.35558,13.5976,-8.71951,-25.2744,-13.0433,-0.701741,-0.651445,-21.6768,-21.25,-7.62195
943.44,22.8346,-10.7346,0,6.55277,15.6275,2.10762,5.51829,-13.9634,-3.44512,-13.7666,-1.53521,-0.725691,-11.5549,-24.4207,-7.07317
943.451,23.3385,-10.6995,0,10.7728,14.2384,0.177231,7.34756,-0.0304878,22.2866,-13.4289,-3.46559,-2.3567,0.121951,-21.189,-6.64634
943.46,24.1254,-10.4563,0,11.6111,12.5068,-1.72441,10.6098,31.7683,40.4268,-13.6995,-3.30992,-1.12326,7.13415,-26.0061,-6.34146
943.471,24.7726,-10.3732,0,7.26409,11.1273,-2.47645,6.21951,55.5488,47.6524,-11.9032,-2.96264,-1.76992,16.4939,-20.5488,-5.57927
943.48,24.8299,-10.3784,0,0.919688,9.82437,-2.29443,-4.60366,56.4024,45.4878,-9.99202,-1.80105,-1.86572,22.1646,-14.5427,-1.7378
943.491,24.1354,-10.4203,0,-4.038,7.97062,-1.02507,-2.77439,27.4695,34.6341,-8.81846,-0.443079,-1.79147,24.3902,-9.2378,2.43902
943.5,22.8686,-10.5468,0,-7.118,6.80904,-0.213157,4.11585,-19.9695,14.4207,-7.75507,-0.632285,-1.72441,23.5671,-3.17073,7.62195
943.51,21.2556,-10.4382,0,-7.90596,6.03305,0.170046,12.2866,-76.4939,-10.4573,-9.19927,1.83698,-1.47773,19.0854,-1.06707,9.35976
943.521,19.7514,-10.1924,0,-4.70142,6.12885,-0.680186,18.4451,-122.835,-33.5976,-10.0423,2.06451,-1.14242,17.9878,-0.731707,10.2134
943.53,18.9429,-9.9126,0,0.378413,7.39103,-2.88121,23.0793,-134.36,-48.1707,-11.1464,2.13875,-0.646655,13.5976,-2.77439,9.2378
943.54,18.5055,-9.60029,0,3.9901,9.46512,-5.14929,24.939,-116.006,-52.622,-12.2649,1.94476,-0.440684,11.0366,-5.36585,6.70732
943.55,18.2438,-9.26604,0,6.97669,11.7931,-5.93486,25.3963,-74.1159,-51.4024,-12.4325,1.29571,-0.258662,10.2439,-5.03049,3.04878
943.56,18.0534,-8.86861,0,7.65448,12.138,-4.68226,21.9817,-22.9878,-47.9878,-11.8098,0.64426,0.150886,9.14634,-5.4878,0.518293
943.57,17.8636,-8.43548,0,6.3013,10.8878,-2.89318,20.8537,12.5,-43.872,-10.9428,-0.0526904,0.385598,8.87195,-5.73171,-0.27439
943.581,17.5323,-7.82078,0,3.83682,9.69743,-1.87051,17.9878,24.7866,-41.4024,-9.91778,-0.936453,1.21667,8.53659,-5.94512,-0.0914634
943.59,17.0124,-7.32258,0,1.92799,8.84241,-1.14721,21.8293,25.6402,-42.378,-9.39806,-0.871787,0.768801,6.40244,-6.52439,0.396341
943.601,16.3919,-6.7309,0,1.3484,8.63405,-1.26218,23.9939,18.2012,-46.7073,-9.06515,-0.64426,1.1999,5.03049,-7.16463,2.10366
943.61,15.7786,-6.10632,0,1.68609,8.68195,-1.42983,23.9024,11.0976,-51.5549,-8.81607,-0.498164,1.38911,2.59146,-7.28659,3.47561
943.62,15.2116,-5.49447,0,2.34233,8.97174,-1.85854,21.7378,10.6402,-55.5183,-8.79451,-0.222737,1.43701,-0.304878,-8.01829,5.06098
943.63,14.6318,-4.94774,0,2.46687,9.0891,-2.16749,19.7866,13.7195,-59.1159,-8.93103,0.0119751,1.29571,-2.65244,-8.20122,6.0061
943.641,14.0054,-4.44736,0,2.10762,9.0891,-2.33035,17.622,19.6037,-60.7012,-9.08431,0.0886157,1.21667,-4.2378,-7.68293,6.89024
943.65,13.3286,-3.99353,0,1.45857,9.10107,-2.31119,17.7439,18.9634,-59.0549,-9.2304,0.0814307,1.12326,-5.51829,-6.82927,6.64634
943.66,12.6409,-3.60737,0,0.974773,9.18729,-2.35191,16.9817,13.4451,-55.3354,-9.28549,-0.138911,0.890947,-5.70122,-4.78659,5.73171
943.67,11.9815,-3.27094,0,0.62031,9.12263,-2.31119,16.128,4.14634,-49.4207,-9.35495,-0.457449,0.64905,-3.71951,-3.23171,3.9939
943.681,11.3686,-2.76054,0,0.440684,9.04838,-2.32077,15.3354,-6.95122,-43.7805,-9.35734,-0.814307,0.399968,-1.7378,-0.853659,2.16463
943.69,10.8203,-2.53558,0,0.467029,8.99569,-2.32556,13.5366,-17.9573,-38.811,-9.41003,-1.18553,0.126936,2.37805,1.4939,-0.487805
943.7,10.3533,-2.44555,0,0.665815,9.00527,-2.33275,12.9268,-26.0366,-34.2073,-9.46272,-1.47533,-0.0550855,7.07317,4.08537,-3.41463
943.71,9.96058,-2.39555,0,0.888552,9.01725,-2.42376,11.6159,-32.378,-30.4268,-9.5226,-1.6334,-0.191602,11.0976,6.76829,-6.12805
943.72,9.63689,-2.31096,0,1.22386,8.94779,-2.55549,10.7622,-39.2378,-28.5976,-9.70462,-1.64298,-0.0383203,14.5427,7.28659,-8.23171
943.731,9.35941,-2.26812,0,1.58071,9.10347,-2.94587,9.93902,-41.2195,-28.75,-9.80281,-1.3939,-0.203577,15.9146,8.07927,-9.42073
943.741,9.10839,-2.28768,0,1.98547,9.24478,-3.14945,9.63415,-37.1951,-31.25,-9.95131,-1.21188,-0.471819,16.189,9.60366,-9.7561
943.75,8.7684,-2.29109,0,1.36516,9.35495,-2.79499,9.87805,-40.3963,-33.0488,-10.0495,-1.00351,-0.407153,15.2134,10.8537,-9.42073
943.76,8.43101,-2.34748,0,1.59748,9.38369,-3.1734,8.56707,-36.7988,-36.25,-10.107,-0.708926,-0.646655,13.5671,10.9451,-8.68902
943.771,8.05676,-2.43394,0,1.5376,9.54176,-3.07281,7.34756,-37.7744,-39.6646,-10.0519,-0.471819,-0.785566,11.6159,12.561,-6.85976
943.781,7.64125,-2.48971,0,1.42264,9.62798,-2.85965,7.28659,-34.9695,-43.1098,-10.0806,-0.344883,-0.665815,9.81707,12.8354,-5.03049
943.791,7.19305,-2.54484,0,1.36995,9.69504,-2.86684,6.61585,-33.1098,-46.5549,-10.1118,-0.311353,-0.675395,7.62195,12.2256,-3.62805
943.801,6.73544,-2.61511,0,1.40827,9.68306,-2.94587,5.85366,-31.1585,-48.9024,-10.1237,-0.428708,-0.754431,5.85366,11.5854,-2.34756
943.81,6.22916,-2.69134,0,1.1041,9.52978,-2.7878,5.06098,-28.3537,-51.4024,-10.0088,-0.55804,-0.785566,5.15244,10.5488,-1.52439
943.82,5.68293,-2.76672,0,0.886157,9.39327,-2.88839,4.84756,-23.5671,-54.0244,-9.9082,-0.665815,-0.787961,4.69512,9.66463,-1.64634
943.831,5.13129,-2.84275,0,0.905317,9.35255,-3.02012,4.20732,-23.7805,-55.9756,-9.79084,-0.799937,-0.795146,5.67073,8.68902,-1.52439
943.841,4.49373,-2.95241,0,0.172441,9.2352,-2.64889,4.63415,-27.378,-56.7683,-9.64953,-0.845442,-0.941243,6.92073,7.71341,-1.55488
943.85,3.92299,-3.07173,0,0.6251,9.25675,-3.00096,4.54268,-21.5854,-56.9512,-9.41722,-0.823887,-0.977168,7.95732,7.46951,-1.43293
943.861,3.34176,-3.18725,0,0.373623,9.10826,-2.76385,5.39634,-25.3354,-56.0976,-9.35734,-0.855022,-0.974773,9.45122,7.28659,-1.18902
943.871,2.75201,-3.29005,0,0.141306,9.21125,-2.82373,6.09756,-24.3293,-55.1524,-9.34297,-0.929268,-0.938848,11.0671,6.28049,-1.18902
943.88,2.18601,-3.39815,0,0.170046,9.33579,-2.79259,5.45732,-25.5183,-54.2683,-9.29028,-0.924478,-0.969983,12.2866,5.54878,-1.31098
943.891,1.62246,-3.51272,0,0.0694556,9.45793,-2.66805,5.30488,-25.9451,-53.9024,-9.24238,-0.900527,-1.00112,13.4756,4.63415,-1.21951
943.9,1.09359,-3.66274,0,0.0622705,9.35495,-2.5483,2.86585,-28.2622,-51.4329,-9.21364,-0.991538,-1.14003,14.2683,3.90244,-1.4939
943.91,0.608564,-3.8205,0,0.251477,9.3765,-2.42615,3.10976,-26.8293,-50.3963,-9.09389,-1.02028,-1.17595,15.3659,3.93293,-1.37195
943.92,0.156672,-4.0036,0,0.500559,9.34297,-2.5004,2.83537,-26.7378,-51.128,-8.99809,-1.03465,-1.28373,16.4634,3.9939,-1.03659
943.931,-0.309718,-4.21285,0,0.385598,9.26633,-2.50519,3.2622,-27.2866,-52.1341,-8.84481,-0.969983,-1.41546,17.439,4.87805,-0.243902
943.94,-0.761523,-4.43628,0,0.500559,9.21603,-2.49801,3.53659,-24.0549,-53.0793,-8.79212,-0.943638,-1.50647,18.7195,5.4878,0.945122
943.95,-1.24198,-4.65268,0,0.229922,9.09389,-2.33275,3.78049,-24.6341,-53.5366,-8.81367,-0.943638,-1.52563,20,6.18902,2.28659
943.96,-1.71646,-4.90544,0,0.249082,9.02443,-2.33993,3.81098,-24.7866,-54.1768,-8.71548,-0.943638,-1.68849,21.372,6.67683,2.77439
943.971,-2.20376,-5.18097,0,0.0263452,9.08431,-2.23695,3.2622,-26.4939,-53.5671,-8.69632,-0.969983,-1.81782,23.3232,7.40854,3.90244
943.981,-2.62245,-5.47793,0,0.570015,9.24478,-2.53633,2.83537,-23.1707,-54.4207,-8.64842,-0.993933,-1.93757,25.3659,7.95732,4.57317
943.991,-3.02323,-5.78772,0,0.716111,9.1346,-2.36388,2.10366,-21.6159,-55.3963,-8.54303,-1.03704,-2.01182,27.9878,9.11585,5.39634
944,-3.44438,-6.10332,0,0.450264,8.98372,-2.20581,2.80488,-20.9146,-55,-8.44484,-1.0562,-2.05972,30.6402,9.48171,6.67683
944.01,-3.82831,-6.38011,0,0.680186,8.96456,-2.40939,2.92683,-16.25,-55.061,-8.40652,-1.11847,-1.94715,32.7134,10.1524,7.40854
944.02,-4.25371,-6.66373,0,0.227527,9.09149,-2.20821,2.86585,-19.2988,-54.1463,-8.38736,-1.13284,-2.01182,34.939,10.7317,8.65854
944.03,-4.66032,-6.87795,0,0.316143,9.15856,-2.35191,2.9878,-16.1585,-54.2073,-8.28916,-1.0107,-1.76513,36.2195,10.1829,9.48171
944.04,-5.00637,-7.01767,0,0.608335,9.21364,-2.29922,4.87805,-14.3902,-52.5305,-8.1766,-0.881367,-1.49449,37.7134,9.08537,11.2195
944.051,-5.30474,-7.16548,0,0.723296,9.2831,-2.28006,7.34756,-17.9878,-49.7561,-8.12391,-0.716111,-1.53521,38.0488,9.26829,13.0183
944.06,-5.61102,-7.40223,0,0.536484,9.10107,-1.96152,10,-23.1402,-48.9634,-8.17899,-0.579595,-1.90165,38.9024,10.9756,13.811
944.071,-5.85062,-7.75348,0,0.943638,8.98132,-2.33514,11.0061,-27.1341,-48.1402,-8.49034,-0.613125,-2.46687,40.2744,14.2988,14.1768
944.08,-6.05194,-8.08489,0,0.895737,9.02204,-2.10043,9.84756,-43.3232,-44.0549,-9.00527,-0.814307,-2.58902,41.7683,16.6768,12.9268
944.091,-6.10889,-8.31884,0,1.71244,8.99809,-2.53633,8.04878,-42.6829,-40.1524,-9.65193,-1.02028,-2.39023,42.7439,16.8902,10.8232
944.1,-6.09029,-8.4809,0,1.95194,9.0891,-2.5986,4.35976,-57.2866,-35.3049,-10.2052,-1.11368,-2.23216,43.2317,14.8171,9.11585
944.11,-5.92496,-8.64622,0,2.82373,9.20406,-3.10874,0.792683,-54.3293,-30.3659,-10.5285,-1.11608,-2.35191,43.5671,12.8049,8.5061
944.12,-5.81474,-8.82369,0,1.97829,9.27112,-2.70158,-1.70732,-53.1402,-25.4268,-10.8734,-1.31008,-2.52435,42.9573,11.6768,8.81098
944.13,-5.67919,-8.84354,0,1.89207,9.41722,-2.87163,-3.20122,-48.2317,-21.2195,-11.1344,-1.33163,-1.81782,41.0671,10.6098,9.05488
944.141,-5.53543,-8.6786,0,1.7316,9.62079,-2.82373,-3.2622,-48.8415,-17.7439,-11.4721,-0.850232,-0.934058,36.4634,5.73171,10.9451
944.151,-5.31368,-8.21856,0,2.20581,10.1764,-3.28118,-2.04268,-44.6341,-13.628,-12.229,-0.146096,0.455054,29.0549,-0.853659,12.6524
944.16,-5.04181,-7.67738,0,2.46448,10.8686,-3.54942,0.701219,-43.4451,-9.17683,-13.5031,0.64905,1.27655,18.7805,-9.48171,13.1707
944.17,-4.69323,-7.28589,0,2.89797,11.5129,-3.87514,2.68293,-32.5915,-3.68902,-14.5881,1.18314,0.546064,7.65244,-13.1402,10.4573
944.18,-4.30215,-7.10925,0,2.90755,11.8721,-4.08351,1.92073,-23.872,1.21951,-14.5114,1.78668,-0.728086,-2.95732,-9.5122,7.10366
944.191,-3.87173,-7.10998,0,2.94827,11.7955,-3.81048,0.609756,-13.9939,6.4939,-13.2037,2.18905,-1.65496,-9.5122,-3.35366,5.45732
944.2,-3.36122,-7.16359,0,3.01533,11.6733,-3.30513,-2.65244,-6.95122,14.6341,-12.205,1.50407,-1.79626,-12.4085,0.731707,3.65854
944.21,-2.74178,-7.20567,0,3.20693,11.9919,-2.84289,-8.75,-7.31707,25.7927,-11.8482,-0.328118,-1.70286,-12.0122,1.79878,0.731707
944.22,-1.99896,-7.23373,0,3.44883,12.4349,-2.0693,-19.0549,-9.35976,38.5671,-12.1332,-1.68849,-1.6813,-7.92683,1.92073,-3.9939
944.23,-1.19437,-7.18116,0,2.89318,12.593,-1.33403,-31.6463,-10.6402,51.6159,-12.5475,-2.6441,-1.2981,-1.67683,2.31707,-7.80488
944.24,-0.375711,-7.04647,0,1.9735,12.4685,-0.759221,-42.5915,-9.60366,62.7439,-12.9738,-3.34105,-0.864602,3.96341,1.4939,-10.2134
944.25,0.454804,-6.81431,0,0.972378,12.5092,-0.201182,-51.372,-11.4939,74.9085,-13.0409,-3.3195,-0.325723,9.20732,0.152439,-10.6707
944.26,1.37598,-6.75875,0,0.589175,12.5739,0.493374,-60.6098,-19.2378,89.4512,-12.0446,-3.42009,-1.15919,16.7988,0.609756,-8.07927
944.27,2.39568,-6.32387,0,0.505349,11.7428,0.675395,-66.6768,-28.3232,101.829,-11.1344,-1.35798,0.773591,18.1098,-3.07927,-0.884146
944.281,3.48612,-5.85949,0,0.443079,10.6147,0.217947,-66.4024,-30.4268,111.28,-10.119,-0.711321,0.871787,22.7744,-3.5061,6.82927
944.291,4.61055,-5.31955,0,0.208367,10.1429,-0.598755,-61.5854,-30.9451,119.451,-9.68546,-0.143701,1.31008,24.3902,-6.55488,12.7439
944.301,5.74972,-4.71123,0,-0.277822,10.4806,-0.804727,-57.7134,-32.3171,128.75,-9.03162,0.0431104,1.59029,23.3232,-11.0671,18.4146
944.311,6.93147,-4.09039,0,-0.299377,11.0506,-1.14961,-55.1829,-41.8598,135.488,-9.45075,0.65863,1.82261,23.75,-9.96951,19.4512
944.32,8.12763,-3.49227,0,-0.215552,11.2374,-1.33642,-52.622,-52.7744,138.445,-8.61489,0.696951,1.66693,19.5732,-8.23171,19.2988
944.33,9.35832,-2.91935,0,0.450264,11.3476,-1.69088,-49.7866,-56.6768,137.53,-8.49274,0.960403,1.63101,13.689,-7.13415,17.3476
944.34,10.526,-2.38006,0,0.517324,11.4195,-1.99984,-46.0976,-55.5183,132.957,-8.42568,1.1544,1.51844,5.67073,-5.21341,15.3354
944.35,11.6122,-1.88273,0,0.361648,11.3692,-1.9711,-39.0549,-55.2439,128.598,-8.52866,1.35558,1.38911,-1.85976,-4.29878,13.4451
944.361,12.6616,-1.46535,0,0.308958,11.4314,-1.69088,-31.372,-64.3902,127.622,-8.66758,1.31966,0.958008,-8.96341,-2.92683,11.5854
944.37,13.7956,-0.193,0,1.13284,11.1847,-1.56395,-23.4451,-77.5305,129.756,-8.71787,1.3005,0.63947,-13.1402,-0.0609756,10.6402
944.38,14.9422,-0.0445485,0,1.42743,10.7129,-1.98787,-14.3902,-75.1829,129.665,-8.78972,1.29331,0.359253,-16.7683,2.31707,11.2805
944.391,16.0702,-0.0462012,0,1.64777,10.5093,-2.16989,-6.55488,-53.5976,127.409,-9.05796,1.19032,-0.00958008,-18.9634,4.96951,13.3232
944.401,17.1755,-0.142436,0,1.83458,10.2698,-2.10522,1.31098,-27.7439,124.909,-9.29268,0.910107,-0.395178,-19.6341,7.40854,15.7012
944.41,18.2175,-0.205713,0,1.71723,10.0615,-1.99505,6.89024,-3.81098,121.616,-9.53457,0.59157,-0.282612,-19.4512,8.41463,17.561
944.42,19.2637,-0.337468,0,2.24174,9.66869,-1.93757,9.90854,23.0793,117.287,-9.51302,0.335303,-0.579595,-18.689,9.17683,18.811
944.43,20.2613,-0.461284,0,2.23216,9.56331,-1.84417,11.0061,41.8293,114.299,-9.46512,0.136516,-0.565225,-18.1402,9.26829,18.7195
944.44,21.2171,-0.5699,0,2.20581,9.30705,-1.64777,12.622,61.0366,111.677,-9.29507,0.0143701,-0.512534,-17.7134,9.57317,17.6524
944.451,22.1439,-0.659132,0,2.42615,9.13221,-1.88488,14.3293,79.3293,107.5,-9.07712,0,-0.440684,-17.2866,8.44512,16.128
944.461,22.982,-0.732415,0,2.18905,9.19448,-1.95913,16.5549,92.8659,103.384,-9.07952,0.126936,-0.390388,-17.7744,6.03659,14.1768
944.471,23.7175,-0.837935,0,1.96392,9.4244,-2.01421,18.9024,103.811,97.9268,-8.79691,0.308958,-0.512534,-19.0244,6.06707,12.6829
944.48,24.3182,-0.908192,0,1.29571,9.29507,-1.85614,22.8354,104.634,93.5061,-8.8975,0.440684,-0.385598,-19.939,4.29878,11.4024
944.491,24.7941,-0.991575,0,0.730481,9.36453,-2.07648,24.0244,101.89,89.0854,-9.04359,0.613125,-0.376018,-22.1646,2.28659,10.5488
944.5,25.1854,-1.10922,0,0.332908,9.22322,-1.97589,21.311,100.549,86.311,-9.06036,0.804727,-0.376018,-24.6646,1.25,10.4268
944.51,25.4633,-1.25556,0,-0.129331,8.85439,-1.70525,18.0488,95.1829,81.4634,-9.08191,0.859812,-0.373623,-27.2866,0.670732,10.1829
944.521,25.5982,-1.57937,0,-0.716111,8.78733,-1.36995,18.4451,84.2378,75.2439,-9.08431,0.869392,-0.536484,-29.7866,0.27439,9.63415
944.53,25.6314,-2.0473,0,-1.04902,8.61968,-1.35558,17.5,80.5793,69.7866,-9.05078,0.785566,-0.716111,-31.3415,-0.243902,8.90244
944.541,25.5325,-2.44674,0,-1.60227,8.28916,-0.917292,17.9878,70.3659,64.5427,-9.07712,0.708926,-0.840652,-32.4085,-0.579268,7.86585
944.551,25.328,-2.72074,0,-1.88967,8.05924,-0.704136,20.5488,62.8049,58.1707,-9.11544,0.593965,-1.02507,-32.7744,-1.58537,6.4939
944.561,25.1083,-2.97129,0,-1.50886,7.86764,-0.787961,24.0244,55.7317,51.4329,-9.12502,0.507744,-1.21667,-32.4085,-2.46951,5.85366
944.571,24.8278,-3.25002,0,-1.39151,7.51557,-0.63947,26.8293,38.7805,44.0244,-9.21364,0.356858,-1.40348,-31.6463,-2.59146,5.27439
944.581,24.3874,-3.51076,0,-1.97589,7.26888,-0.55804,28.3537,28.2622,36.7683,-9.29028,0.191602,-1.43222,-31.2195,-2.71341,4.81707
944.591,24.0745,-3.8312,0,-0.641865,7.03896,-1.48012,31.6768,20.4573,28.4756,-9.38848,0.0814307,-1.61185,-30.8232,-2.16463,3.96341
944.601,23.6154,-4.24809,0,-1.08015,6.83539,-0.546064,32.0732,-1.52439,20.6098,-9.41961,0.0502954,-1.71004,-30.6098,-1.37195,2.5
944.61,23.1739,-4.93832,0,-0.555645,6.75635,-1.08494,29.9085,-6.95122,12.7439,-9.37171,0.172441,-1.83698,-29.8171,-0.487805,1.46341
944.621,18.35,-5.63173,0,-0.399968,6.63181,-0.646655,30.4878,-18.9329,1.7378,-9.16813,0.292192,-1.84656,-29.939,0.579268,0.548781
944.631,17.8821,-6.52947,0,-0.0886157,6.52164,-0.531694,31.6768,-23.6585,-8.07927,-9.12023,0.469424,-1.93278,-30.9146,-0.182927,0.243902
944.64,17.4237,-7.2245,0,0.428708,6.64618,-0.570015,31.3415,-27.5,-17.8049,-8.99809,0.608335,-2.1172,-31.9512,-0.731707,-0.27439
944.65,16.9607,-7.69713,0,1.06818,7.04136,-0.299377,32.8049,-27.5915,-29.2988,-8.92145,0.754431,-2.05493,-32.1037,-1.21951,-0.365854
944.661,16.5399,-8.05862,0,1.93518,7.21619,0.146096,34.8171,-27.7744,-38.9634,-8.84002,0.790356,-1.9711,-32.2866,-1.52439,-1.43293
944.671,16.2776,-8.36371,0,3.79371,7.67604,0.457449,40.061,-26.1585,-46.6768,-8.73224,0.725691,-1.84177,-32.7134,-1.52439,-2.40854
944.681,16.1741,-8.81801,0,6.35159,8.20294,0.146096,41.6159,-15.8232,-54.3902,-8.61728,0.665815,-1.83938,-32.9573,-0.884146,-3.87195
944.691,16.2021,-9.39657,0,8.80649,8.57896,-0.148491,36.3415,2.77439,-57.5,-8.52387,0.60115,-1.68849,-33.0183,-0.0914634,-4.90854
944.701,16.4101,-9.57737,0,10.8207,8.28677,-0.699346,29.9695,21.5549,-52.9573,-8.57417,0.60594,-1.65017,-33.1707,1.0061,-5.18293
944.711,16.7921,-9.64079,0,12.617,8.37059,-2.2609,23.5671,44.3293,-42.7134,-8.64842,0.744851,-1.56874,-33.4146,1.43293,-4.14634
944.721,17.2741,-9.70776,0,12.581,8.67955,-3.74102,25.9451,63.3841,-29.6037,-8.97414,0.811912,-1.70525,-33.8415,2.0122,-2.86585
944.731,17.7403,-9.74726,0,11.2518,9.38848,-4.79004,24.0244,77.3781,-19.5427,-9.41243,0.843047,-1.76034,-34.5732,3.10976,-0.945122
944.741,18.1522,-9.81217,0,9.11065,8.96935,-3.72665,25.1829,81.8598,-14.5122,-9.79803,0.883762,-1.95913,-35.8232,3.71951,-0.0914634
944.75,18.4362,-9.91333,0,7.01262,8.90468,-2.74469,26.0976,79.4207,-11.9817,-10.0806,0.840652,-2.20102,-38.1402,4.69512,-0.213415
944.76,18.5889,-9.96178,0,5.48699,9.11544,-1.64059,20.122,75.1219,-10.1524,-10.2627,0.974773,-2.01421,-40.4268,5,0.213415
944.771,18.6264,-9.98627,0,4.44037,9.4244,-0.838257,12.8963,69.3293,-9.72561,-10.4567,1.03944,-1.94715,-42.1341,3.56707,0.640244
944.781,18.4466,-9.87962,0,3.19017,10.8039,-1.37714,11.8293,63.7805,-13.9024,-11.1776,0.819097,-1.48731,-40,-1.34146,1.82927
944.791,17.8916,-9.66178,0,0.907712,15.2299,-0.797541,5.57927,57.1951,-25.9451,-12.5882,0.273032,-0.974773,-33.3537,-9.93902,3.59756
944.801,17.0932,-9.4521,0,-0.450264,18.4129,1.5855,-0.243902,55.061,-42.1037,-14.7485,-1.21427,-1.14721,-21.5854,-16.372,4.45122
944.811,16.6032,-9.35029,0,1.67412,16.1808,2.95306,-6.82927,30.0305,-27.1646,-16.2263,-3.16143,-1.97589,-9.48171,-12.439,4.66463
944.821,16.7464,-9.24879,0,6.31327,13.2421,1.44659,-8.32317,17.1341,-3.53659,-16.7124,-4.48348,-1.99984,-3.75,-7.37805,3.68902
944.831,17.1301,-9.19872,0,6.49769,10.2603,-1.16398,0.152439,41.7988,7.31707,-14.9377,-4.82357,-2.09085,8.2622,3.38415,3.96341
944.84,17.1417,-9.0385,0,2.15791,8.53345,-3.23807,10.9451,71.1281,7.19512,-12.0422,-3.14466,-1.07776,14.1159,7.77439,8.81098
944.85,16.274,-8.75048,0,-3.12311,9.03641,-2.97701,12.8659,48.0793,1.98171,-10.4399,-1.22864,-0.320933,17.378,5.70122,15.3354
944.86,15.1304,-8.29351,0,-7.41019,9.46272,-1.48252,6.31098,-18.7195,-5.73171,-10.2243,-0.220342,0.232317,19.7561,2.16463,19.4512
944.871,13.6594,-7.89439,0,-8.71308,8.16223,-0.883762,13.3537,-81.9512,-23.5671,-11.0123,0.529299,0.335303,19.3293,-6.40244,21.4939
944.88,12.1439,-7.542,0,-6.71324,7.88919,-3.11592,23.3841,-118.872,-44.3293,-11.1297,-0.294587,0.186812,22.439,-5.82317,18.2012
944.891,10.9784,-6.99152,0,-2.85007,9.17772,-5.77439,27.7439,-117.835,-58.9329,-13.1918,1.08494,1.46096,16.8293,-7.86585,13.4756
944.9,10.1755,-6.46465,0,0.58199,10.8542,-5.53968,29.1768,-93.8719,-65.7927,-12.5164,1.16398,1.37714,10.7012,-6.55488,7.0122
944.91,9.63366,-5.83587,0,3.39135,11.75,-4.13859,24.6341,-67.6829,-67.3781,-11.5488,1.09931,1.90644,3.17073,-7.62195,2.13415
944.92,9.28564,-5.15087,0,5.51813,11.1608,-3.20933,18.2927,-33.6585,-69.5427,-10.38,0.56283,2.09564,-3.5061,-9.45122,-0.701219
944.931,8.97019,-4.47041,0,5.41035,9.75731,-2.78301,15.5183,-1.43293,-72.439,-9.33339,0.126936,1.98068,-9.78659,-9.90854,-1.55488
944.94,8.47951,-3.85396,0,3.5087,9.02443,-2.33275,15.122,18.4146,-75.1219,-8.49274,-0.153281,1.65735,-14.1463,-10.1829,-0.27439
944.951,7.77528,-3.3515,0,1.59029,9.12742,-2.14115,14.5122,26.1585,-74.7256,-7.98739,-0.486189,1.23344,-15.6707,-9.96951,2.31707
944.961,6.95135,-3.02385,0,0.402363,9.24478,-2.20102,14.2378,23.0793,-73.2927,-7.791,-0.771196,0.66342,-13.3537,-9.57317,6.15854
944.971,6.1724,-2.78369,0,0.399968,9.22322,-2.53154,11.0366,20.0915,-70.3659,-7.9826,-1.1544,0.416733,-9.2378,-9.17683,8.96341
944.981,5.46078,-2.6336,0,0.59157,8.73224,-2.1627,10.9146,20,-67.9268,-8.32988,-1.40109,0.138911,-4.54268,-7.7439,10.7012
944.99,4.83119,-2.54897,0,0.969983,8.58854,-2.34472,11.8293,20.4573,-66.25,-8.76817,-1.61185,-0.0862207,0.731707,-5.54878,10.9756
945,4.23914,-2.47793,0,1.09213,8.50471,-2.5483,12.8049,19.0244,-65.4878,-9.21843,-1.69088,-0.146096,5.60976,-3.62805,10.5183
945.01,3.63006,-2.51685,0,0.761616,8.58854,-2.65368,15.0305,15.0305,-63.8415,-9.4268,-1.6334,-0.469424,9.93902,-0.396341,8.90244
945.021,2.9757,-2.52197,0,0.179626,8.84241,-2.62255,17.5915,4.20732,-61.7378,-9.64953,-1.50168,-0.440684,13.1098,2.46951,6.61585
945.03,2.2696,-2.52465,0,-0.479004,8.9933,-2.47645,17.5305,-12.3171,-59.7561,-9.62319,-1.31008,-0.431104,14.6646,4.7561,4.78659
945.041,1.56043,-2.53621,0,-0.809517,9.19927,-2.29682,16.5549,-29.1768,-57.4695,-9.54894,-1.09692,-0.464634,14.8171,5.7622,3.90244
945.05,0.883434,-2.54705,0,-0.814307,9.60403,-2.28006,13.3232,-47.7439,-56.0061,-9.46991,-1.03225,-0.459844,14.9695,5.4878,3.41463
945.06,0.282861,-2.56113,0,-0.452659,9.8603,-2.26808,8.59756,-63.5671,-54.1159,-9.45554,-1.04902,-0.474214,14.5122,5.82317,2.92683
945.071,-0.219696,-2.59455,0,0.0958008,9.69264,-2.33514,4.26829,-71.6159,-51.8598,-9.39806,-1.02507,-0.55325,13.9024,5.67073,3.38415
945.08,-0.604817,-2.64684,0,0.792751,9.35255,-2.52196,2.46951,-76.0061,-49.6341,-9.41003,-0.960403,-0.637075,13.8415,5.51829,3.29268
945.091,-0.902957,-2.72756,0,1.2502,9.01246,-2.81654,3.23171,-77.9268,-47.7744,-9.37171,-0.979563,-0.756826,14.3902,4.84756,3.65854
945.101,-1.15,-2.79641,0,1.50886,8.93342,-3.20454,4.20732,-78.0183,-46.6159,-9.31184,-0.972378,-0.716111,14.7561,4.72561,3.81098
945.11,-1.32777,-2.8947,0,1.93518,8.92384,-3.36979,4.63415,-74.9085,-45.4573,-9.15616,-0.898132,-0.828677,15.7317,4.60366,3.62805
945.12,-1.50548,-2.99463,0,1.85614,8.91426,-3.23088,5.60976,-66.2195,-44.8476,-9.10107,-0.938848,-0.843047,16.6463,4.45122,3.65854
945.13,-1.65801,-3.10363,0,1.95673,9.02683,-3.50631,4.81707,-58.0183,-43.5976,-9.07952,-0.965193,-0.893342,17.8354,4.54268,3.47561
945.141,-1.80234,-3.22045,0,2.01182,8.98372,-3.50391,2.68293,-48.8415,-43.872,-9.07233,-0.948428,-0.936453,18.5976,4.32927,3.2622
945.15,-1.94699,-3.3747,0,2.04774,9.01964,-3.48954,0.884146,-37.6829,-44.5427,-9.00527,-0.941243,-1.1041,19.0854,5,2.68293
945.161,-2.1209,-3.50198,0,1.71244,8.81846,-3.18538,0.487805,-27.8354,-44.1463,-8.9909,-0.931663,-1.02028,19.8476,4.93902,2.13415
945.17,-2.31153,-3.63921,0,1.54718,8.71308,-3.11353,1.06707,-18.628,-44.3293,-9.00527,-0.792751,-1.07297,19.7561,4.48171,2.0122
945.18,-2.52139,-3.75582,0,1.48012,8.91666,-3.02012,1.79878,-13.0183,-45.3659,-9.00288,-0.783171,-1.02746,19.1768,5.54878,2.13415
945.19,-2.75844,-3.85948,0,1.44899,9.29986,-2.92911,0.97561,-6.92073,-47.4085,-9.06275,-0.699346,-1.00351,17.5915,5.97561,2.77439
