time,angle1,angle2,intgangle,accX1,accY1,accZ1,gyroX1,gyroY1,gyroZ1,accX2,accY2,accZ2,gyroX2,gyroY2,gyroZ2
786.603,91.3633,-2.70245,0,9.52978,-0.246687,-2.13875,-0.27439,0.579268,-0.670732,-9.88904,-0.670605,-0.438289,-0.0914634,-0.304878,5.73171
786.613,91.3676,-2.71367,0,9.52978,-0.265847,-2.09804,-0.0914634,0.487805,-0.609756,-9.87227,-0.62989,-0.488584,-0.213415,-0.396341,5.82317
786.623,91.3615,-2.72844,0,9.56331,-0.229922,-2.1148,0.0304878,0.243902,-0.670732,-9.86509,-0.680186,-0.493374,-0.518293,0.182927,5.91463
786.633,91.3581,-2.71715,0,9.53218,-0.229922,-2.10283,-0.213415,0.213415,-0.457317,-9.89383,-0.696951,-0.452659,-0.609756,0.0609756,5.97561
786.643,91.3639,-2.7041,0,9.53457,-0.275427,-2.13875,-0.213415,-0.0304878,-0.670732,-9.92975,-0.708926,-0.447869,-0.0609756,-0.152439,5.79268
786.653,91.3612,-2.72831,0,9.51302,-0.234712,-2.12678,-0.0304878,0.152439,-0.518293,-9.87467,-0.66342,-0.507744,-0.152439,-0.121951,5.64024
786.663,91.3646,-2.73602,0,9.51541,-0.258662,-2.15073,-0.213415,0.213415,-0.548781,-9.85072,-0.680186,-0.483794,0,-0.27439,5.73171
786.673,91.3682,-2.74124,0,9.52739,-0.273032,-2.11241,0.243902,0.0609756,-0.762195,-9.84832,-0.677791,-0.479004,-0.121951,0.0609756,5.97561
786.683,91.3719,-2.76809,0,9.52739,-0.261057,-2.11001,-0.121951,0.27439,-0.548781,-9.83874,-0.706531,-0.512534,-0.182927,0,5.94512
786.693,91.3798,-2.79865,0,9.53218,-0.280217,-2.1651,0.182927,0.304878,-0.579268,-9.8579,-0.699346,-0.529299,-0.243902,-0.152439,5.82317
786.703,91.3808,-2.804,0,9.51541,-0.258662,-2.08606,-0.213415,0.213415,-0.670732,-9.86748,-0.694556,-0.490979,0.0304878,-0.0304878,5.79268
786.713,91.3818,-2.79251,0,9.55613,-0.251477,-2.12199,-0.0304878,0.335366,-0.487805,-9.8579,-0.670605,-0.462239,-0.0304878,0.213415,5.82317
786.723,91.3835,-2.79047,0,9.52739,-0.251477,-2.1172,-0.0304878,0.487805,-0.457317,-9.88904,-0.696951,-0.479004,0,0.0304878,5.94512
786.733,91.3898,-2.79908,0,9.55613,-0.273032,-2.10762,-0.152439,0.426829,-0.518293,-9.87706,-0.656235,-0.495769,-0.0914634,0.0914634,5.7622
786.743,91.3879,-2.76427,0,9.56092,-0.249082,-2.09804,0.0609756,0.426829,-0.640244,-9.90101,-0.665815,-0.423918,0.243902,-0.121951,5.88415
786.753,91.3872,-2.76028,0,9.55134,-0.261057,-2.08846,-0.0914634,0.365854,-0.792683,-9.86748,-0.66342,-0.469424,0.0304878,0.152439,5.91463
786.763,91.3831,-2.75616,0,9.53218,-0.249082,-2.13157,-0.0914634,0.182927,-0.853659,-9.91059,-0.673001,-0.469424,0.335366,0.335366,5.94512
786.773,91.3768,-2.74899,0,9.5681,-0.225132,-2.09804,0,0.0304878,-0.487805,-9.87946,-0.687371,-0.462239,0.27439,0.243902,5.73171
786.783,91.3713,-2.72305,0,9.56331,-0.227527,-2.05014,-0.121951,0.152439,-0.518293,-9.90101,-0.66342,-0.428708,0.121951,0.182927,5.94512
786.793,91.3635,-2.72518,0,9.55373,-0.217947,-2.09564,0.0914634,0.0304878,-0.518293,-9.89383,-0.677791,-0.474214,0.304878,0.182927,5.85366
786.803,91.3526,-2.71376,0,9.54894,-0.205972,-2.13157,0.152439,-0.152439,-0.548781,-9.92496,-0.64426,-0.450264,-0.0304878,0.27439,5.51829
786.813,91.3439,-2.66756,0,9.53697,-0.217947,-2.09085,0.0914634,0,-0.731707,-9.95131,-0.65863,-0.390388,0.121951,0.0914634,5.91463
786.823,91.3343,-2.65087,0,9.54894,-0.205972,-2.10762,0.213415,-0.304878,-0.487805,-9.89862,-0.62989,-0.426313,0.121951,-0.487805,5.91463
786.833,91.3374,-2.64275,0,9.57529,-0.239502,-2.10522,0.27439,-0.27439,-0.213415,-9.90101,-0.617915,-0.443079,-0.0609756,-0.304878,5.57927
786.843,91.3364,-2.62805,0,9.54176,-0.229922,-2.12199,0.121951,-0.0914634,-0.335366,-9.89622,-0.651445,-0.431104,-0.182927,-0.152439,5.54878
786.853,91.3433,-2.60367,0,9.55134,-0.253872,-2.11241,0.304878,-0.121951,-0.27439,-9.88664,-0.646655,-0.414338,-0.213415,-0.0304878,5.73171
786.863,91.3403,-2.62425,0,9.54894,-0.229922,-2.11001,0.0609756,-0.335366,-0.487805,-9.84353,-0.696951,-0.481399,-0.27439,-0.0914634,5.64024
786.873,91.3535,-2.65802,0,9.53936,-0.270637,-2.1172,0.365854,-0.213415,-0.213415,-9.88185,-0.718506,-0.507744,-0.304878,0.0304878,5.57927
786.883,91.3507,-2.67896,0,9.54415,-0.229922,-2.12917,0.304878,-0.0304878,-0.426829,-9.88664,-0.684976,-0.495769,-0.0304878,-0.152439,5.64024
786.893,91.3562,-2.69815,0,9.53457,-0.265847,-2.16749,-0.182927,-0.243902,-0.548781,-9.87946,-0.706531,-0.493374,0.426829,-0.0304878,5.79268
786.903,91.3584,-2.69145,0,9.5226,-0.241897,-2.12199,0.121951,0.0304878,-0.304878,-9.88664,-0.706531,-0.455054,0.213415,-0.0304878,5.4878
786.913,91.3684,-2.73865,0,9.54176,-0.270637,-2.10283,0.0609756,0.213415,-0.335366,-9.85072,-0.677791,-0.548459,0.182927,-0.243902,5.79268
786.923,91.3712,-2.72738,0,9.53697,-0.263452,-2.11001,-0.213415,0.0304878,-0.640244,-9.88425,-0.651445,-0.452659,0.396341,0.182927,5.54878
786.933,91.3752,-2.74511,0,9.50823,-0.258662,-2.12438,-0.0609756,0,-0.487805,-9.8555,-0.665815,-0.498164,0.0914634,0.0609756,5.4878
786.943,91.3824,-2.7463,0,9.53697,-0.270637,-2.12199,0.0914634,0.396341,-0.457317,-9.85072,-0.641865,-0.474214,0.0304878,0.121951,5.82317
786.953,91.3884,-2.73758,0,9.5226,-0.268242,-2.07888,0.0304878,-0.0609756,-0.487805,-9.87227,-0.65384,-0.457449,-0.121951,0.243902,5.57927
786.963,91.3916,-2.76295,0,9.5226,-0.265847,-2.09564,0.243902,0.0609756,-0.609756,-9.88185,-0.641865,-0.522114,-0.152439,0.365854,5.7622
786.973,91.3955,-2.74932,0,9.51541,-0.258662,-2.09085,0,0.304878,-0.426829,-9.87946,-0.651445,-0.447869,0,0.487805,5.7622
786.983,91.3973,-2.76701,0,9.53697,-0.249082,-2.17228,0.182927,0.152439,-0.335366,-9.89622,-0.711321,-0.510139,-0.426829,0.365854,5.70122
786.993,91.3949,-2.76046,0,9.54415,-0.249082,-2.10283,0.27439,0,-0.670732,-9.9058,-0.66342,-0.467029,-0.0609756,0.152439,5.73171
787.003,91.386,-2.76549,0,9.54894,-0.222737,-2.14833,0.213415,-0.152439,-0.670732,-9.88664,-0.711321,-0.486189,-0.182927,0.335366,5.88415
787.013,91.3873,-2.7302,0,9.53697,-0.263452,-2.05732,0.0304878,0.457317,-0.701219,-9.8555,-0.692161,-0.416733,-0.152439,0.121951,5.85366
787.023,91.3928,-2.7326,0,9.54415,-0.277822,-2.16749,0.0609756,0.335366,-0.640244,-9.90101,-0.692161,-0.476609,-0.365854,0.365854,5.82317
787.033,91.3845,-2.7256,0,9.57529,-0.229922,-2.09325,0.243902,0.365854,-0.792683,-9.87227,-0.699346,-0.457449,0.0304878,0.335366,5.97561
787.043,91.3784,-2.73016,0,9.54894,-0.234712,-2.04295,0.152439,0.0304878,-0.731707,-9.91778,-0.684976,-0.481399,0.152439,0.457317,5.88415
787.053,91.3738,-2.74529,0,9.54176,-0.227527,-2.12438,-0.182927,0.0304878,-0.426829,-9.91059,-0.689766,-0.498164,0.0609756,-0.0609756,5.67073
787.063,91.369,-2.73174,0,9.55613,-0.237107,-2.14115,-0.121951,0.0609756,-0.701219,-9.91778,-0.684976,-0.450264,-0.0609756,-0.243902,5.79268
787.073,91.3741,-2.7186,0,9.54655,-0.261057,-2.1172,0.0609756,0.213415,-0.426829,-9.87706,-0.627495,-0.447869,0.0609756,-0.213415,5.97561
787.083,91.3731,-2.71737,0,9.5705,-0.241897,-2.1148,-0.121951,0.579268,-0.457317,-9.87706,-0.64905,-0.467029,-0.27439,-0.0609756,5.67073
787.093,91.3667,-2.74159,0,9.54894,-0.217947,-2.15312,0.27439,0.792683,-0.335366,-9.91299,-0.670605,-0.517324,0,0.304878,5.4878
787.103,91.3665,-2.74944,0,9.52739,-0.229922,-2.14833,0.0914634,1.09756,-0.121951,-9.87946,-0.66342,-0.486189,0.365854,0.0914634,6.18902
787.113,91.366,-2.76935,0,9.54655,-0.229922,-2.17468,0.0609756,1.64634,-0.121951,-9.87467,-0.759221,-0.514929,0.304878,0.457317,5.60976
787.123,91.3659,-2.79631,0,9.55613,-0.229922,-2.19144,-0.121951,2.2561,-0.0914634,-9.88664,-0.716111,-0.536484,0.548781,0.548781,5.7622
787.133,91.3777,-2.79298,0,9.53697,-0.270637,-2.15552,-0.152439,2.16463,-0.213415,-9.91538,-0.740061,-0.476609,0.548781,0.518293,5.60976
787.143,91.3904,-2.78658,0,9.55852,-0.292192,-2.09564,0.213415,2.0122,-0.457317,-9.94652,-0.732876,-0.474214,0.884146,-0.0609756,5.51829
787.153,91.4071,-2.76803,0,9.54894,-0.294587,-2.09804,0.27439,1.76829,-0.27439,-9.88904,-0.677791,-0.447869,0.640244,-0.213415,5.45732
787.163,91.414,-2.75387,0,9.51781,-0.268242,-2.05493,0.365854,1.61585,-0.365854,-9.86748,-0.641865,-0.450264,0.27439,-0.335366,5.57927
787.173,91.4218,-2.75719,0,9.45075,-0.277822,-2.06211,0.548781,1.64634,-0.518293,-9.83874,-0.651445,-0.479004,0.457317,-0.152439,5.70122
787.183,91.4194,-2.73403,0,9.46751,-0.249082,-2.08846,1.03659,1.37195,-0.640244,-9.86988,-0.622705,-0.438289,0,-0.0304878,5.60976
787.193,91.4237,-2.7213,0,9.51062,-0.273032,-2.07169,0.97561,0.792683,-0.579268,-9.87467,-0.622705,-0.450264,-0.182927,0.0914634,5.51829
787.203,91.4236,-2.6765,0,9.55852,-0.268242,-2.08846,0.701219,0.640244,-0.762195,-9.86748,-0.6251,-0.397573,-0.396341,-0.0304878,5.42683
787.213,91.4262,-2.67931,0,9.58487,-0.287402,-2.12438,0.97561,0.304878,-0.853659,-9.88185,-0.680186,-0.467029,-0.304878,0.304878,5.67073
787.223,91.4274,-2.68968,0,9.58726,-0.287402,-2.05253,0.97561,0.243902,-0.945122,-9.9082,-0.656235,-0.483794,-0.670732,0.335366,5.51829
787.233,91.4165,-2.67706,0,9.58487,-0.237107,-2.06211,0.884146,0.152439,-1.09756,-9.90341,-0.66342,-0.443079,-0.731707,-0.152439,5.36585
787.243,91.4034,-2.69088,0,9.5681,-0.222737,-2.05253,0.457317,0.243902,-1.06707,-9.91059,-0.63947,-0.486189,-0.518293,0.0304878,5.64024
787.253,91.3959,-2.71003,0,9.57529,-0.225132,-2.01182,0.548781,0.579268,-0.518293,-9.83395,-0.665815,-0.493374,-0.27439,-0.0914634,5.54878
787.263,91.3926,-2.70813,0,9.54655,-0.246687,-1.98547,-0.27439,0.914634,-0.701219,-9.87946,-0.680186,-0.464634,-0.304878,0,5.7622
787.273,91.3923,-2.71383,0,9.55134,-0.253872,-2.05732,0,0.609756,-0.609756,-9.86748,-0.718506,-0.476609,-0.426829,0.182927,5.7622
787.283,91.395,-2.72774,0,9.56092,-0.261057,-2.04295,0.0304878,1.0061,-0.518293,-9.85072,-0.687371,-0.490979,-0.487805,0.182927,5.82317
787.293,91.3974,-2.74451,0,9.53457,-0.265847,-2.06451,-0.152439,0.640244,-0.640244,-9.89143,-0.656235,-0.500559,-0.304878,0.152439,5.57927
787.303,91.395,-2.77158,0,9.5202,-0.246687,-2.03337,-0.27439,0.457317,-0.640244,-9.86269,-0.682581,-0.526904,-0.518293,0.426829,5.60976
787.313,91.3974,-2.78123,0,9.51781,-0.258662,-2.09564,-0.27439,0.579268,-0.518293,-9.8555,-0.670605,-0.495769,-0.396341,0.396341,5.54878
787.323,91.3961,-2.75301,0,9.54894,-0.246687,-2.04535,-0.304878,0.121951,-0.518293,-9.89383,-0.692161,-0.426313,-0.396341,0.304878,5.88415
787.333,91.3977,-2.76022,0,9.55134,-0.270637,-2.07409,-0.243902,-0.0914634,-0.762195,-9.86988,-0.696951,-0.488584,-0.27439,0.396341,5.70122
787.343,91.3942,-2.73823,0,9.5705,-0.251477,-2.04774,-0.335366,-0.121951,-0.792683,-9.88425,-0.680186,-0.435894,-0.335366,0.243902,5.85366
787.353,91.3944,-2.75037,0,9.59684,-0.268242,-2.04056,-0.518293,0.0609756,-0.792683,-9.86509,-0.706531,-0.493374,-0.640244,0.213415,6.06707
787.363,91.3802,-2.74265,0,9.58008,-0.205972,-2.07648,-0.579268,0.365854,-0.853659,-9.86988,-0.704136,-0.459844,-0.396341,0.243902,5.91463
787.373,91.3706,-2.75128,0,9.58008,-0.217947,-2.12199,-0.640244,1.21951,-0.670732,-9.88425,-0.677791,-0.490979,0.121951,0.457317,5.88415
787.383,91.3583,-2.76639,0,9.5681,-0.198787,-2.15312,-0.823171,1.25,-0.426829,-9.86269,-0.692161,-0.507744,-0.213415,0.670732,6.03659
787.393,91.348,-2.75884,0,9.616,-0.201182,-2.09804,-0.670732,1.40244,-0.213415,-9.9082,-0.718506,-0.462239,-0.609756,0.487805,5.88415
787.403,91.3486,-2.74398,0,9.57529,-0.237107,-2.10283,-0.487805,1.37195,-0.304878,-9.9058,-0.684976,-0.447869,-0.335366,0.335366,5.82317
787.413,91.3514,-2.77036,0,9.58008,-0.241897,-2.07409,-0.518293,1.40244,-0.243902,-9.91299,-0.673001,-0.519719,-0.487805,-0.0609756,5.97561
787.423,91.35,-2.76062,0,9.54894,-0.234712,-2.03816,-0.182927,0.853659,-0.426829,-9.89383,-0.670605,-0.459844,-0.152439,0.304878,5.82317
787.433,91.3476,-2.7655,0,9.48907,-0.220342,-1.95194,0.0609756,0.792683,-0.121951,-9.88664,-0.680186,-0.486189,-0.27439,0.396341,6.03659
787.443,91.3406,-2.77043,0,9.41482,-0.217947,-1.96631,0,0.701219,-0.640244,-9.89143,-0.665815,-0.486189,-0.121951,0.121951,5.94512
787.453,91.3349,-2.75519,0,9.4747,-0.215552,-1.9735,0.548781,0.213415,-0.396341,-9.91299,-0.716111,-0.452659,-0.304878,-0.152439,6.12805
787.463,91.3374,-2.76064,0,9.51302,-0.244292,-2.05732,0.518293,-0.213415,-0.426829,-9.89383,-0.699346,-0.486189,0,0.27439,6.15854
787.473,91.3456,-2.74741,0,9.5705,-0.265847,-2.05253,0.731707,-0.670732,-0.396341,-9.88185,-0.692161,-0.455054,0,0.0304878,6.03659
787.483,91.3508,-2.78755,0,9.59205,-0.253872,-2.019,0.640244,-0.914634,-0.335366,-9.88664,-0.677791,-0.548459,0.0609756,0.243902,6.0061
787.493,91.3575,-2.77318,0,9.62319,-0.263452,-2.019,0.27439,-0.853659,-0.365854,-9.89383,-0.692161,-0.457449,0.121951,-0.0914634,6.12805
787.503,91.3658,-2.78834,0,9.61361,-0.251477,-2.05014,0.304878,-0.853659,0,-9.89862,-0.66342,-0.505349,0.152439,-0.0914634,6.28049
787.513,91.3707,-2.80232,0,9.58726,-0.261057,-2.08606,0.121951,-0.426829,-0.426829,-9.89143,-0.665815,-0.505349,0.0914634,0.0914634,6.03659
787.523,91.3816,-2.82905,0,9.5705,-0.268242,-2.03816,-0.182927,-0.27439,-0.182927,-9.87946,-0.675395,-0.526904,0.0304878,-0.0304878,6.06707
787.533,91.3987,-2.82463,0,9.52739,-0.275427,-2.05972,-0.182927,0.27439,0,-9.88664,-0.687371,-0.481399,0.0914634,-0.0304878,6.34146
787.543,91.4013,-2.84676,0,9.5202,-0.251477,-2.08367,-0.213415,0.365854,-0.335366,-9.91778,-0.673001,-0.526904,-0.0914634,-0.0609756,6.12805
787.553,91.4126,-2.88036,0,9.49865,-0.285007,-2.08127,-0.396341,0.27439,-0.426829,-9.88904,-0.622705,-0.548459,-0.182927,0.0914634,5.82317
787.563,91.4213,-2.87454,0,9.52499,-0.285007,-2.07648,-0.243902,0.213415,-0.518293,-9.90101,-0.64905,-0.488584,0.0609756,0.0304878,6.06707
787.573,91.424,-2.90379,0,9.55373,-0.277822,-2.05972,-0.27439,-0.0609756,-0.731707,-9.87946,-0.66342,-0.546064,-0.335366,0.121951,5.79268
787.583,91.4265,-2.92405,0,9.52739,-0.265847,-2.0693,-0.121951,-0.0304878,-0.548781,-9.88904,-0.701741,-0.536484,-0.365854,0.121951,5.85366
787.593,91.4235,-2.95774,0,9.51541,-0.268242,-2.05493,-0.0914634,-0.213415,-1.0061,-9.87227,-0.665815,-0.570015,-0.243902,0.365854,6.15854
787.603,91.4224,-2.96182,0,9.52978,-0.261057,-2.09085,0.0609756,-0.182927,-0.731707,-9.86269,-0.675395,-0.517324,-0.335366,0.396341,6.0061
787.613,91.4174,-2.98288,0,9.5226,-0.249082,-2.09325,0.0914634,-0.304878,-0.823171,-9.89622,-0.684976,-0.548459,-0.213415,0.121951,5.94512
787.623,91.4167,-2.97294,0,9.58726,-0.275427,-2.10522,0,-0.518293,-0.914634,-9.89143,-0.682581,-0.498164,-0.121951,0.121951,6.0061
787.633,91.417,-2.96353,0,9.5705,-0.256267,-2.0693,0,-0.304878,-0.518293,-9.88425,-0.696951,-0.495769,0.182927,0.243902,5.79268
787.643,91.4084,-2.92995,0,9.55373,-0.229922,-2.11001,-0.0304878,0.0304878,-0.731707,-9.88425,-0.704136,-0.455054,0.335366,0.0914634,6.0061
787.653,91.4012,-2.88487,0,9.57768,-0.232317,-2.05972,0.152439,0.640244,-0.670732,-9.8579,-0.661025,-0.428708,-0.0304878,0.121951,5.94512
787.663,91.395,-2.8652,0,9.55373,-0.232317,-2.0693,0.213415,0.640244,-0.609756,-9.89143,-0.64426,-0.467029,0.243902,0,6.0061
787.673,91.3946,-2.83361,0,9.54894,-0.253872,-2.05493,0.304878,0.640244,-0.609756,-9.92257,-0.680186,-0.443079,-0.0914634,-0.0609756,5.85366
787.683,91.3885,-2.82989,0,9.54176,-0.220342,-2.07409,0.182927,0.762195,-0.243902,-9.90101,-0.65384,-0.483794,0.0914634,0.0609756,6.12805
787.693,91.3856,-2.82339,0,9.5705,-0.229922,-2.07888,0,0.945122,-0.243902,-9.92975,-0.670605,-0.479004,0.0304878,0.152439,6.0061
787.703,91.3763,-2.82803,0,9.57529,-0.210762,-2.10283,-0.27439,1.18902,-0.335366,-9.91778,-0.706531,-0.498164,0.0609756,0.365854,6.09756
787.713,91.3779,-2.82333,0,9.57529,-0.249082,-2.04774,-0.487805,1.06707,-0.396341,-9.91778,-0.661025,-0.481399,-0.0304878,-0.213415,5.85366
787.723,91.3769,-2.82155,0,9.58966,-0.237107,-2.05253,-0.396341,1.03659,-0.304878,-9.92257,-0.692161,-0.486189,0.365854,-0.243902,5.4878
787.733,91.3724,-2.86149,0,9.58966,-0.225132,-1.99984,-0.304878,1.46341,-0.304878,-9.92017,-0.687371,-0.555645,0.213415,-0.0304878,5.60976
787.743,91.3751,-2.85406,0,9.57529,-0.246687,-2.03816,-0.335366,1.18902,-0.27439,-9.89383,-0.64905,-0.481399,0.548781,-0.182927,5.73171
787.753,91.3746,-2.84679,0,9.53697,-0.234712,-2.07409,-0.365854,0.792683,-0.243902,-9.86988,-0.661025,-0.479004,0.365854,-0.243902,5.79268
787.763,91.374,-2.81669,0,9.52978,-0.239502,-2.00942,-0.213415,0.518293,-0.396341,-9.87946,-0.66342,-0.433499,0.182927,-0.335366,5.60976
787.773,91.3845,-2.81438,0,9.52978,-0.285007,-2.01421,0,0.457317,-0.518293,-9.87946,-0.64426,-0.481399,0.335366,-0.640244,5.7622
787.783,91.3909,-2.83394,0,9.52978,-0.263452,-2.0214,-0.396341,0.27439,-0.365854,-9.87467,-0.641865,-0.534089,0.304878,-0.823171,5.94512
787.793,91.4013,-2.86286,0,9.5202,-0.275427,-1.99505,-0.0304878,0.365854,-0.335366,-9.92017,-0.641865,-0.555645,0.0609756,-0.548781,5.57927
787.803,91.4102,-2.85919,0,9.51062,-0.275427,-2.02858,-0.213415,0.213415,-0.396341,-9.91299,-0.64905,-0.488584,0.152439,-0.396341,5.36585
787.813,91.4138,-2.85832,0,9.52499,-0.270637,-2.00703,-0.121951,0.152439,-0.609756,-9.8579,-0.680186,-0.490979,0,-0.0914634,5.45732
787.823,91.4181,-2.86528,0,9.5705,-0.280217,-2.01661,-0.27439,-0.518293,-0.670732,-9.88904,-0.687371,-0.505349,-0.213415,-0.0609756,5.45732
787.833,91.4119,-2.87451,0,9.57289,-0.249082,-2.06211,0.152439,-0.548781,-0.914634,-9.89862,-0.718506,-0.512534,0.121951,-0.213415,5.85366
787.843,91.4122,-2.8597,0,9.56571,-0.268242,-2.03337,0.0609756,-0.579268,-0.762195,-9.91778,-0.656235,-0.469424,0.243902,-0.304878,5.94512
787.853,91.408,-2.88999,0,9.56092,-0.241897,-2.04535,0.27439,-0.579268,-0.609756,-9.88185,-0.641865,-0.555645,0.27439,-0.426829,6.09756
787.863,91.4119,-2.92577,0,9.57768,-0.265847,-2.05732,-0.0304878,-0.548781,-0.457317,-9.87227,-0.63947,-0.565225,0.152439,-0.27439,5.79268
787.873,91.4124,-2.95373,0,9.56092,-0.256267,-2.04774,0.0304878,-0.731707,-0.518293,-9.87467,-0.670605,-0.55804,-0.0609756,-0.304878,6.18902
787.883,91.4185,-2.95805,0,9.53457,-0.277822,-2.08606,-0.121951,-0.487805,-0.548781,-9.88904,-0.675395,-0.517324,0,-0.0304878,5.85366
787.893,91.4206,-2.97171,0,9.54894,-0.261057,-1.98787,0,-0.396341,-0.487805,-9.86509,-0.670605,-0.531694,-0.243902,-0.0304878,5.57927
787.903,91.4217,-2.97742,0,9.5202,-0.261057,-2.0214,-0.243902,-0.213415,-0.579268,-9.87227,-0.670605,-0.522114,-0.0609756,-0.0914634,5.91463
787.913,91.4239,-2.95401,0,9.54415,-0.282612,-2.03337,-0.0914634,-0.27439,-0.853659,-9.90341,-0.680186,-0.476609,0,-0.0304878,5.79268
787.923,91.4179,-2.93634,0,9.53457,-0.246687,-2.05972,-0.396341,-0.182927,-0.853659,-9.8555,-0.656235,-0.479004,0.121951,-0.121951,5.97561
787.933,91.4092,-2.9051,0,9.51302,-0.234712,-2.09564,-0.182927,-0.365854,-0.884146,-9.85311,-0.637075,-0.455054,-0.0304878,-0.0609756,6.0061
787.943,91.3985,-2.87569,0,9.52978,-0.220342,-2.10762,-0.182927,-0.487805,-0.762195,-9.8579,-0.670605,-0.452659,0.396341,-0.0609756,5.85366
787.953,91.3945,-2.88446,0,9.58247,-0.246687,-2.05014,-0.548781,-0.853659,-0.731707,-9.83874,-0.677791,-0.507744,0.0914634,0,5.60976
787.963,91.3814,-2.85934,0,9.56571,-0.220342,-2.05493,-0.304878,-0.701219,-1.09756,-9.8555,-0.680186,-0.452659,0.213415,0.182927,5.82317
787.973,91.3706,-2.83629,0,9.55852,-0.220342,-2.03098,-0.487805,-0.792683,-0.884146,-9.8555,-0.696951,-0.452659,-0.0304878,0.152439,5.57927
787.983,91.371,-2.8286,0,9.55852,-0.251477,-2.03577,-0.213415,-0.762195,-0.579268,-9.88425,-0.708926,-0.474214,-0.152439,0.365854,5.82317
787.993,91.366,-2.80572,0,9.54415,-0.225132,-2.07169,0.152439,-0.670732,-0.426829,-9.88664,-0.675395,-0.443079,-0.152439,0.365854,5.64024
788.003,91.3624,-2.82489,0,9.54415,-0.251477,-2.07169,-0.0609756,-0.640244,-0.914634,-9.91059,-0.692161,-0.519719,0.0304878,0.152439,5.82317
788.013,91.3494,-2.83713,0,9.54176,-0.205972,-2.05014,-0.213415,-0.884146,-0.853659,-9.88664,-0.682581,-0.507744,-0.0914634,0.0304878,5.67073
788.023,91.3359,-2.86524,0,9.52978,-0.193997,-2.05732,-0.0304878,-0.823171,-0.579268,-9.94412,-0.684976,-0.546064,-0.27439,-0.213415,5.82317
788.033,91.3289,-2.92799,0,9.52978,-0.217947,-2.16749,-0.152439,-1.12805,-0.609756,-9.93215,-0.687371,-0.613125,-0.27439,-0.182927,5.54878
788.043,91.3211,-3.05867,0,9.54176,-0.215552,-2.10762,-0.0914634,-1.7378,-0.670732,-9.88904,-0.692161,-0.720901,-0.97561,0.0304878,5.54878
788.053,91.3237,-3.13927,0,9.54894,-0.237107,-2.04295,0.365854,-1.52439,-0.27439,-9.90341,-0.708926,-0.673001,-1.40244,0.152439,5.7622
788.063,91.3345,-3.19172,0,9.56092,-0.268242,-2.0693,0.609756,-1.79878,-0.335366,-9.93454,-0.790356,-0.661025,-1.70732,0.518293,6.25
788.073,91.3415,-3.24377,0,9.51781,-0.258662,-2.08606,0.914634,-1.7378,-0.396341,-9.92257,-0.742456,-0.677791,-1.40244,0.701219,6.21951
788.083,91.3446,-3.36699,0,9.51781,-0.289797,-2.13875,0.457317,-2.0122,-1.09756,-9.90341,-0.706531,-0.871787,-1.37195,0.823171,6.76829
788.093,91.3394,-3.48085,0,9.39087,-0.306563,-2.06211,0.0914634,-2.28659,-1.98171,-9.91059,-0.768801,-0.989143,-1.18902,1.98171,6.61585
788.103,91.3303,-3.55807,0,9.38608,-0.304167,-2.08846,-0.0304878,-2.71341,-2.2561,-9.92736,-0.795146,-0.917292,-1.25,3.07927,6.55488
788.113,91.3048,-3.57067,0,9.30226,-0.263452,-2.05253,-0.426829,-2.86585,-3.2622,-10.0495,-0.843047,-0.675395,-1.37195,3.41463,5.85366
788.123,91.2678,-3.59962,0,9.20885,-0.241897,-2.06211,-1.0061,-3.56707,-4.20732,-10.1429,-0.811912,-0.756826,-0.945122,4.29878,5.09146
788.133,91.2207,-3.6579,0,9.11065,-0.280217,-2.05253,-1.64634,-5.12195,-5.82317,-10.083,-0.694556,-0.888552,-0.487805,5.64024,4.84756
788.143,91.1649,-3.68236,0,9.12742,-0.349673,-2.05253,-2.40854,-6.79878,-7.68293,-9.97526,-0.60594,-0.740061,0,6.15854,4.84756
788.153,91.087,-3.65021,0,9.25675,-0.277822,-1.98308,-3.14024,-8.62805,-9.08537,-9.98244,-0.560435,-0.495769,0.152439,6.09756,5.12195
788.163,90.9894,-3.60435,0,9.38369,-0.189207,-1.95434,-3.96341,-9.84756,-10.0915,-10.0016,-0.550855,-0.431104,0.243902,5.88415,4.93902
788.173,90.887,-3.54731,0,9.49865,-0.129331,-2.04295,-4.20732,-10.3049,-10.0305,-10.0088,-0.584385,-0.376018,0.0304878,5.15244,4.78659
788.183,90.7899,-3.5035,0,9.65911,-0.0646655,-2.13157,-3.35366,-10.5183,-8.87195,-9.9561,-0.560435,-0.421523,-0.365854,5.27439,4.90854
788.193,90.6977,-3.45825,0,9.8076,0.0455054,-2.15791,-1.4939,-11.0061,-7.2561,-9.86509,-0.570015,-0.404758,-0.396341,5.03049,4.90854
788.203,90.6249,-3.41185,0,9.96807,0.0814307,-2.17947,0.426829,-11.189,-5.03049,-9.82197,-0.560435,-0.392783,-0.365854,4.45122,5.18293
788.213,90.5784,-3.36674,0,10.1549,0.0718506,-2.17228,1.70732,-8.93293,-2.43902,-9.8076,-0.58199,-0.390388,-0.426829,4.32927,5.2439
788.223,90.5378,-3.32493,0,10.1884,0.0766406,-2.22976,2.43902,-4.78659,-0.121951,-9.87946,-0.59157,-0.404758,-0.640244,3.53659,5.21341
788.233,90.5534,-3.29906,0,10.0735,-0.0287402,-2.33514,2.10366,-1.06707,2.43902,-9.86748,-0.627495,-0.467029,-0.853659,3.01829,5.2439
788.244,90.5867,-3.26249,0,9.78366,-0.122146,-2.27766,1.34146,1.64634,3.04878,-9.89622,-0.63468,-0.433499,-1.15854,2.2561,4.93902
788.254,90.6238,-3.21547,0,9.331,-0.174836,-2.12438,-0.762195,2.04268,2.62195,-9.88185,-0.61073,-0.426313,-1.25,1.25,4.90854
788.263,90.6748,-3.19476,0,9.0388,-0.251477,-2.07169,-2.71341,1.52439,1.18902,-9.94173,-0.61552,-0.517324,-1.37195,0.304878,4.57317
788.273,90.7539,-3.21948,0,8.93103,-0.294587,-2.15312,-3.56707,0.365854,-0.426829,-9.94891,-0.598755,-0.60115,-1.06707,0.182927,3.9939
788.283,90.769,-3.26378,0,8.98611,-0.356858,-2.28964,-2.7439,0.213415,-2.46951,-9.94652,-0.65384,-0.65863,-1.18902,-0.518293,3.68902
788.293,90.7583,-3.34275,0,9.11065,-0.294587,-2.34712,-2.07317,0.182927,-3.5061,-9.95849,-0.65384,-0.756826,-1.52439,-0.640244,3.5061
788.303,90.7265,-3.42657,0,9.28549,-0.203577,-2.36149,-1.25,-0.121951,-4.29878,-9.9058,-0.61552,-0.792751,-1.28049,-0.853659,3.47561
788.313,90.6903,-3.55019,0,9.4723,-0.162861,-2.44052,-1.25,-0.426829,-4.2378,-9.94891,-0.59636,-0.874182,-1.7378,-0.518293,3.56707
788.323,90.6512,-3.74187,0,9.58966,-0.179626,-2.40699,-0.945122,-0.579268,-4.78659,-9.93454,-0.57241,-0.969983,-1.7378,0.152439,3.68902
788.333,90.6234,-3.87272,0,9.70222,-0.208367,-2.48843,-0.731707,-0.152439,-4.05488,-9.97526,-0.593965,-0.912502,-1.58537,0.243902,3.71951
788.343,90.5959,-4.01492,0,9.76928,-0.220342,-2.44052,-0.731707,1.67683,-4.20732,-10.0471,-0.598755,-0.977168,-1.98171,0.243902,3.23171
788.353,90.5631,-4.09913,0,9.72857,-0.150886,-2.39981,-1.31098,3.56707,-3.96341,-10.0495,-0.584385,-0.898132,-2.2561,-0.426829,3.29268
788.363,90.5258,-4.15152,0,9.65432,-0.107776,-2.39981,-3.71951,6.61585,-3.96341,-10.0351,-0.589175,-0.869392,-2.56098,-0.97561,3.17073
788.373,90.4995,-4.18713,0,9.59445,-0.191602,-2.54351,-4.60366,9.29878,-3.9939,-10.004,-0.57241,-0.850232,-3.07927,-1.67683,3.17073
788.383,90.4696,-4.25089,0,9.50104,-0.198787,-2.41657,-4.02439,11.0061,-4.5122,-10.0303,-0.682581,-0.943638,-2.95732,-1.40244,3.17073
788.393,90.4297,-4.34353,0,9.41961,-0.155676,-2.23695,-2.80488,10.061,-5.06098,-10.0974,-0.720901,-1.02267,-3.2622,-0.945122,2.71341
788.403,90.3866,-4.47894,0,9.35255,-0.110171,-2.14594,-1.21951,7.28659,-4.90854,-10.0735,-0.780776,-1.06578,-2.65244,-0.304878,2.65244
788.413,90.3364,-4.60997,0,9.30465,-0.0742456,-2.13157,-1.03659,6.7378,-5.27439,-10.0543,-0.720901,-1.06578,-1.85976,-0.243902,2.65244
788.423,90.2835,-4.65168,0,9.39327,-0.0670605,-2.24892,-0.762195,7.04268,-5.54878,-10.1357,-0.704136,-0.926873,-1.43293,-0.609756,2.71341
788.433,90.227,-4.65934,0,9.63995,-0.0479004,-2.26808,0.792683,6.34146,-5.7622,-10.1669,-0.704136,-0.850232,-1.34146,-0.853659,2.83537
788.443,90.1765,-4.65687,0,9.81,-0.0359253,-2.17468,1.67683,5.06098,-5.12195,-10.1405,-0.673001,-0.819097,-0.853659,-1.61585,2.95732
788.453,90.1313,-4.66079,0,9.85072,-0.00718506,-2.05253,1.67683,4.02439,-4.32927,-10.0639,-0.682581,-0.838257,-1.25,-2.77439,3.23171
788.463,90.0988,-4.64652,0,9.8124,-0.0598755,-1.97829,1.18902,3.07927,-3.78049,-9.98723,-0.687371,-0.756826,-1.06707,-3.56707,3.14024
788.473,90.0708,-4.64234,0,9.73575,-0.0574805,-2.00703,0.487805,2.86585,-3.38415,-9.93215,-0.728086,-0.792751,-1.46341,-3.71951,3.17073
788.483,90.0439,-4.6705,0,9.56092,-0.0550855,-1.95194,0.365854,1.03659,-3.32317,-9.81479,-0.773591,-0.917292,-1.89024,-3.65854,3.47561
788.493,90.008,-4.66098,0,9.42919,0.00239502,-1.93278,-0.0609756,0.182927,-3.53659,-9.82437,-0.785566,-0.766406,-2.46951,-3.41463,3.59756
788.503,89.9767,-4.63474,0,9.40285,-0.0311353,-1.93757,0.121951,-0.609756,-3.59756,-9.86509,-0.811912,-0.696951,-2.62195,-3.87195,4.20732
788.513,89.9444,-4.60939,0,9.5202,-0.00958008,-2.0214,-0.457317,-0.426829,-3.47561,-9.94652,-0.804727,-0.701741,-2.59146,-3.81098,4.29878
788.523,89.913,-4.55297,0,9.5705,0.00718506,-2.08606,-0.0304878,-0.701219,-3.23171,-9.91778,-0.828677,-0.560435,-2.46951,-4.45122,4.26829
788.533,89.8733,-4.47372,0,9.6639,0.0934058,-1.98308,-0.426829,-1.25,-3.01829,-9.89622,-0.857417,-0.447869,-2.80488,-5.7622,4.26829
788.543,89.8347,-4.42599,0,9.65432,0.0934058,-1.95913,-0.548781,-1.15854,-2.9878,-9.83395,-0.895737,-0.56762,-2.31707,-6.06707,4.57317
788.553,89.7911,-4.36842,0,9.57768,0.146096,-1.97589,-1.25,-1.34146,-2.83537,-9.79803,-0.941243,-0.514929,-1.58537,-6.43293,4.66463
788.563,89.7524,-4.32646,0,9.50823,0.105381,-2.06451,-1.61585,-1.64634,-2.9878,-9.79803,-0.984353,-0.57241,-1.03659,-6.21951,4.5122
788.573,89.7091,-4.25941,0,9.51781,0.160466,-2.14354,-2.04268,-1.58537,-2.77439,-9.8076,-1.03225,-0.457449,-0.335366,-6.15854,4.32927
788.583,89.6642,-4.18465,0,9.62558,0.196392,-2.18665,-2.5,-1.70732,-2.53049,-9.84832,-1.09452,-0.414338,-0.0609756,-6.15854,3.9939
788.593,89.6233,-4.1044,0,9.69264,0.191602,-2.2106,-2.62195,-1.0061,-2.2561,-9.86988,-1.07776,-0.378413,0.304878,-6.67683,3.53659
788.603,89.5922,-4.03256,0,9.79323,0.134121,-2.23216,-2.19512,-0.914634,-2.19512,-9.89862,-1.03944,-0.402363,0.579268,-7.04268,3.04878
788.613,89.5678,-3.94122,0,9.80521,0.146096,-2.17468,-2.22561,0.0304878,-1.12805,-9.86988,-0.967588,-0.304167,1.06707,-7.40854,2.95732
788.623,89.529,-3.83592,0,9.70462,0.210762,-2.019,-2.62195,0.884146,-0.487805,-9.8555,-0.960403,-0.227527,1.28049,-7.77439,2.92683
788.633,89.4946,-3.75659,0,9.56571,0.182021,-2.03816,-3.14024,1.34146,-0.27439,-9.9537,-0.972378,-0.325723,0.945122,-8.20122,2.7439
788.643,89.4546,-3.66142,0,9.47949,0.191602,-2.13875,-2.89634,1.21951,-0.0914634,-9.92975,-0.953218,-0.241897,1.09756,-8.35366,2.9878
788.653,89.4138,-3.58817,0,9.44596,0.203577,-2.15791,-1.92073,0,-0.213415,-9.89862,-0.974773,-0.320933,1.34146,-9.05488,3.23171
788.663,89.3703,-3.50892,0,9.43638,0.215552,-2.16989,-1.31098,-0.853659,-0.182927,-9.9082,-0.991538,-0.282612,1.52439,-9.42073,3.38415
788.673,89.3558,-3.42314,0,9.46512,0.138911,-2.20821,-1.15854,-1.76829,-0.487805,-9.9561,-0.969983,-0.241897,1.7378,-9.87805,3.62805
788.683,89.353,-3.34373,0,9.52739,0.0862207,-2.24413,-0.396341,-2.2561,-0.792683,-10.004,-0.981958,-0.256267,2.31707,-10,3.84146
788.693,89.3527,-3.26936,0,9.5681,0.0790356,-2.23934,-0.365854,-2.5,-0.731707,-10.0279,-0.922083,-0.265847,2.34756,-10.6402,4.35976
788.703,89.3461,-3.21813,0,9.5705,0.0934058,-2.17468,-0.0304878,-2.22561,-1.0061,-10.0064,-0.881367,-0.354463,2.95732,-10.7622,4.32927
788.713,89.3695,-3.16875,0,9.60882,-0.0718506,-2.17947,-0.243902,-1.89024,-1.15854,-10.0112,-0.871787,-0.354463,2.95732,-11.4024,4.14634
788.723,89.3403,-3.10784,0,9.69743,0.208367,-2.18905,-0.243902,-1.25,-0.762195,-10.0519,-0.862207,-0.296982,2.34756,-12.4695,4.14634
788.733,89.3311,-3.0541,0,9.616,0.126936,-2.21779,-0.0914634,-1.09756,-0.548781,-10.0495,-0.890947,-0.318538,2.34756,-13.0793,3.75
788.743,89.3204,-3.00108,0,9.39566,0.0814307,-2.18186,-0.884146,-0.884146,-1.61585,-9.99681,-0.874182,-0.311353,2.16463,-13.9024,3.87195
788.753,89.3076,-2.93531,0,9.55373,0.126936,-2.18426,-0.365854,-1.09756,-1.03659,-10.0064,-0.855022,-0.246687,1.82927,-14.5427,4.17683
788.763,89.3256,-2.88082,0,9.58247,-0.0359253,-2.24174,0.670732,-0.731707,-1.15854,-9.98723,-0.857417,-0.285007,1.58537,-15.2134,4.5122
788.773,89.3148,-2.83802,0,9.51541,0.105381,-2.14833,1.09756,-0.731707,-1.25,-10.004,-0.845442,-0.328118,1.70732,-15.8537,4.54268
788.783,89.2798,-2.7725,0,9.40045,0.217947,-2.11241,0.609756,-0.731707,-1.70732,-9.97286,-0.799937,-0.220342,1.28049,-16.6159,4.66463
788.793,89.2355,-2.69966,0,9.32381,0.270637,-2.16989,0.487805,-0.213415,-1.85976,-9.97765,-0.802332,-0.177231,1.18902,-17.1037,4.7561
788.803,89.2289,-2.6198,0,9.2807,0.00479004,-2.17947,0.731707,-0.27439,-2.5,-9.94652,-0.835862,-0.134121,1.0061,-18.0488,4.93902
788.813,89.2194,-2.5575,0,9.50104,-0.0119751,-2.26808,1.15854,0.731707,-2.89634,-9.88425,-0.843047,-0.196392,0.670732,-18.5671,5.2439
788.823,89.201,-2.48556,0,9.44596,0.0311353,-2.16749,1.89024,-1.21951,-3.20122,-9.86988,-0.816702,-0.143701,0.365854,-18.8415,5.2439
788.833,89.1856,-2.3821,0,9.58487,0.0335303,-2.19623,2.28659,-2.0122,-2.92683,-9.87227,-0.835862,0.00479004,-0.0304878,-20.0305,5.60976
788.843,89.1763,-2.25568,0,9.68546,0.0263452,-2.21539,2.31707,-1.61585,-2.5,-9.91778,-0.840652,0.122146,-0.152439,-21.189,5.91463
788.853,89.1733,-2.08294,0,9.64714,0.00958008,-2.2106,1.67683,-0.396341,-2.19512,-9.97286,-0.835862,0.347278,-0.365854,-22.622,6.43293
788.863,89.1665,-1.91289,0,9.56092,0.0431104,-2.26569,1.4939,1.43293,-2.13415,-10.0327,-0.807122,0.366438,-0.579268,-24.1463,6.4939
788.873,89.1478,-1.749,0,9.56092,0.107776,-2.23216,1.34146,2.13415,-2.37805,-10.0543,-0.799937,0.368833,-0.731707,-25.2439,6.61585
788.883,89.1246,-1.60042,0,9.63037,0.150886,-2.24653,1.70732,2.0122,-2.2561,-10.0974,-0.859812,0.330513,-0.853659,-25.8841,6.98171
788.893,89.0805,-1.43779,0,9.72138,0.306563,-2.20821,1.67683,1.67683,-2.28659,-10.1142,-0.888552,0.419128,-0.487805,-26.9512,7.04268
788.903,89.0377,-1.27226,0,9.73815,0.292192,-2.22737,1.95122,0.701219,-2.53049,-10.1142,-0.981958,0.459844,-0.121951,-28.1402,6.98171
788.913,88.9882,-1.10674,0,9.6639,0.366438,-2.15312,1.7378,0.0304878,-1.95122,-10.0375,-0.972378,0.483794,0.457317,-29.878,7.10366
788.923,88.9413,-0.946938,0,9.5705,0.354463,-2.18426,1.70732,0.0914634,-1.79878,-9.92736,-1.05141,0.481399,0.853659,-30.8232,6.79878
788.933,88.9023,-0.764146,0,9.39327,0.294587,-2.07409,1.28049,0.365854,-1.98171,-9.86988,-1.09213,0.60594,0.792683,-31.4939,7.10366
788.943,88.8676,-0.562941,0,9.31663,0.261057,-2.00703,1.4939,0,-2.22561,-9.79084,-1.09931,0.711321,0.884146,-32.622,6.79878
788.953,88.8331,-0.342898,0,9.29507,0.244292,-2.02619,1.58537,-0.213415,-2.62195,-9.84114,-1.08494,0.831072,1.40244,-33.6585,6.82927
788.963,88.7933,-0.148895,0,9.29268,0.282612,-2.0214,1.7378,-0.731707,-2.68293,-9.86748,-1.07297,0.756826,1.55488,-34.3902,6.7378
788.973,88.7473,0.0272728,0,9.41003,0.328118,-2.02379,2.07317,-0.487805,-2.86585,-9.8579,-1.01549,0.711321,1.46341,-34.878,6.70732
788.983,88.6945,0.209445,0,9.48188,0.383203,-2.12678,2.10366,-0.945122,-2.9878,-10.0016,-0.965193,0.778381,1.7378,-35.8537,6.0061
788.993,88.6386,0.381873,0,9.58726,0.435894,-2.04535,2.16463,-1.70732,-2.71341,-10.1573,-0.929268,0.778381,1.34146,-36.6768,5.39634
789.003,88.5921,0.551271,0,9.69264,0.376018,-2.07169,1.18902,-2.22561,-2.80488,-10.1908,-0.893342,0.797541,1.15854,-37.3171,4.35976
789.013,88.5575,0.729868,0,9.69264,0.299377,-2.0669,0.884146,-2.34756,-2.71341,-10.1477,-0.886157,0.864602,0.304878,-38.6585,4.05488
789.023,88.5425,0.921906,0,9.65432,0.172441,-2.02379,0.609756,-2.34756,-2.53049,-10.1669,-0.857417,0.958008,0.27439,-39.6646,3.96341
789.033,88.5301,1.08881,0,9.62079,0.165256,-1.90165,0.182927,-2.65244,-2.40854,-10.1549,-0.819097,0.876577,-0.304878,-41.0366,4.11585
789.043,88.5131,1.28978,0,9.55373,0.210762,-1.99026,-1.09756,-1.37195,-2.2561,-10.1237,-0.735271,1.0562,0.304878,-41.9512,4.45122
789.053,88.4746,1.5238,0,9.58487,0.352068,-1.96871,-1.89024,0.0304878,-2.46951,-10.083,-0.64905,1.23583,1.0061,-42.7744,4.90854
789.063,88.4423,1.76809,0,9.55613,0.342488,-2.03098,-2.89634,0.243902,-1.89024,-10.0567,-0.63947,1.31966,0.762195,-43.8415,5.42683
789.073,88.4605,2.00801,0,9.58487,0.0814307,-2.17228,-3.53659,-0.731707,-1.40244,-10.0423,-0.64905,1.34121,0.701219,-44.3902,5.42683
789.083,88.5223,2.23953,0,9.64235,-0.0359253,-2.17947,-2.71341,-2.37805,-0.670732,-9.97047,-0.718506,1.33642,0.426829,-44.4512,5.42683
789.093,88.5645,2.46348,0,9.62079,0.0215552,-2.04535,-2.19512,-4.54268,-0.823171,-9.8124,-0.735271,1.32205,0.0914634,-44.7561,4.84756
789.103,88.6045,2.67463,0,9.71659,0.0311353,-2.10762,-1.34146,-6.15854,-0.701219,-9.76689,-0.761616,1.2981,0.121951,-45.3963,4.48171
789.113,88.6432,2.88663,0,9.8603,0.0981958,-2.08127,-1.15854,-7.13415,-0.0914634,-9.73815,-0.852627,1.33403,0.0609756,-46.0366,4.02439
789.123,88.6821,3.11798,0,9.90101,0.0742456,-2.09325,-1.76829,-6.61585,0.670732,-9.77886,-0.960403,1.46096,0.0914634,-46.7988,3.23171
789.133,88.726,3.37992,0,9.70222,0.0455054,-2.04056,-2.59146,-5.73171,1.28049,-9.79563,-0.989143,1.63819,0.365854,-48.2012,3.38415
789.143,88.7856,3.63442,0,9.52739,-0.0431104,-2.14833,-2.53049,-4.60366,1.4939,-9.73336,-1.01309,1.64059,1.34146,-48.3537,3.29268
789.153,88.8418,3.88565,0,9.331,-0.00239502,-2.22018,-1.79878,-4.17683,1.03659,-9.68306,-0.967588,1.66214,2.77439,-48.1402,3.71951
789.163,88.8985,4.17259,0,9.28789,0.0335303,-2.31838,-2.43902,-3.87195,0.335366,-9.58247,-0.953218,1.84417,4.11585,-48.1098,4.17683
789.173,88.9312,4.45991,0,9.28549,0.0694556,-2.31838,-2.46951,-4.57317,-0.396341,-9.56331,-0.893342,1.89207,4.5122,-47.8659,4.7561
789.183,88.9529,4.73987,0,9.30944,0.0431104,-2.32796,-2.53049,-4.2378,-0.97561,-9.52978,-1.16158,1.90404,6.85976,-46.6463,5.57927
789.193,88.9661,4.98834,0,9.35974,-0.00239502,-2.32077,-2.37805,-4.42073,-1.7378,-9.19687,-0.811912,1.75315,4.93902,-44.7866,5.12195
789.203,88.9809,5.27306,0,9.38369,-0.0670605,-2.33754,-1.7378,-4.5122,-2.19512,-9.19209,-0.998723,1.94715,6.82927,-44.1159,4.87805
789.213,88.9708,5.57161,0,9.41722,0.0550855,-2.4046,-1.55488,-3.9939,-2.65244,-9.0867,-1.0107,2.03098,6.76829,-43.0183,4.78659
789.223,88.9515,5.89886,0,9.43159,0.0934058,-2.45729,-1.58537,-2.77439,-3.01829,-9.07952,-1.08734,2.20102,6.95122,-42.1951,4.39024
789.233,88.9454,6.24404,0,9.45075,0.0167651,-2.46927,-1.52439,-2.37805,-2.80488,-9.14418,-1.14961,2.34951,7.65244,-41.5549,3.81098
789.243,88.9405,6.61817,0,9.5202,-0.0143701,-2.45729,-1.09756,-3.07927,-3.04878,-9.25675,-1.17835,2.56507,8.44512,-41.128,3.5061
789.253,88.9211,6.98764,0,9.54655,0.0383203,-2.39981,-1.55488,-3.56707,-3.75,-9.31663,-1.15919,2.62734,8.53659,-40.3049,3.10976
789.263,88.9088,7.35653,0,9.616,0.0143701,-2.34712,-2.59146,-2.83537,-3.41463,-9.27831,-1.13284,2.68003,8.75,-38.7805,2.92683
789.273,88.8876,7.75163,0,9.5202,0.00479004,-2.34233,-3.07927,-2.2561,-4.39024,-9.27831,-1.02746,2.86205,8.9939,-38.4756,2.95732
789.283,88.85,8.16924,0,9.50583,0.0862207,-2.32317,-3.78049,-1.43293,-5.06098,-9.27352,-0.943638,3.03209,8.71951,-38.7195,2.77439
789.293,88.8194,8.57149,0,9.52978,0.0502954,-2.39023,-3.65854,-1.15854,-4.87805,-9.1849,-0.929268,3.00814,8.68902,-38.9634,2.9878
789.303,88.7933,8.97928,0,9.51541,0.0239502,-2.42136,-3.62805,-1.34146,-4.81707,-9.13221,-0.857417,3.08718,8.56707,-38.628,3.35366
789.313,88.7597,9.40519,0,9.5202,0.126936,-2.33275,-3.23171,-0.945122,-4.35976,-9.01964,-0.778381,3.20214,8.71951,-38.1402,3.81098
789.323,88.73,9.81724,0,9.47709,0.112566,-2.39741,-3.53659,0.304878,-4.20732,-8.92624,-0.725691,3.18298,8.47561,-37.3476,4.02439
789.333,88.7011,10.2122,0,9.49865,0.136516,-2.46687,-3.17073,1.15854,-3.90244,-8.85918,-0.790356,3.15664,8.38415,-36.189,4.17683
789.343,88.6776,10.5795,0,9.50583,0.107776,-2.47885,-2.31707,1.28049,-3.78049,-8.83523,-0.814307,3.09676,8.41463,-34.6341,4.08537
789.353,88.6313,10.9482,0,9.43877,0.251477,-2.32317,-1.67683,1.82927,-4.29878,-8.78254,-0.883762,3.14945,8.53659,-32.8049,3.10976
789.363,88.5866,11.3444,0,9.35255,0.222737,-2.34712,-1.67683,2.2561,-4.57317,-8.78493,-0.876577,3.33626,9.14634,-32.1341,3.04878
789.373,88.5411,11.7528,0,9.41482,0.186812,-2.39023,-2.07317,2.56098,-5.21341,-8.86397,-0.823887,3.49194,9.14634,-31.4329,2.34756
789.383,88.5216,12.1333,0,9.42201,0.0143701,-2.37586,-1.52439,2.13415,-4.84756,-8.88073,-0.756826,3.44643,9.35976,-30.5793,2.28659
789.393,88.4809,12.5498,0,9.41243,0.141306,-2.27766,-0.609756,2.65244,-5.42683,-8.82086,-0.665815,3.6548,8.32317,-29.2988,2.37805
789.403,88.4469,12.9974,0,9.43398,0.0862207,-2.30161,-0.304878,2.86585,-5.51829,-8.78972,-0.62989,3.86077,7.65244,-28.2927,2.65244
789.413,88.4044,13.4185,0,9.44596,0.141306,-2.31598,0.0304878,2.2561,-5.7622,-8.72745,-0.555645,3.79371,6.70732,-27.7439,3.29268
789.423,88.3652,13.8081,0,9.41722,0.129331,-2.31598,-0.396341,2.2561,-5.67073,-8.61968,-0.55325,3.68114,5.42683,-26.4024,3.93293
789.433,88.3097,14.2164,0,9.51781,0.258662,-2.27048,-0.0914634,1.76829,-5.82317,-8.52866,-0.59157,3.79611,4.66463,-25.061,4.57317
789.443,88.2463,14.6269,0,9.46512,0.308958,-2.2106,0.365854,1.40244,-6.09756,-8.48076,-0.673001,3.85838,4.26829,-24.1768,4.69512
789.453,88.185,15.0019,0,9.47709,0.332908,-2.213,0.426829,0.487805,-5.73171,-8.48316,-0.826282,3.77455,3.68902,-22.2561,5.18293
789.463,88.1158,15.372,0,9.36932,0.383203,-2.22497,0.609756,0.27439,-5.97561,-8.47597,-0.876577,3.81766,3.9939,-20.5488,5.36585
789.473,88.0438,15.7483,0,9.34776,0.421523,-2.17228,0.518293,-0.182927,-5.91463,-8.48795,-0.950823,3.91825,4.11585,-19.1768,5.09146
789.483,87.9684,16.1225,0,9.3765,0.455054,-2.19384,0.182927,-0.0914634,-6.0061,-8.49992,-0.991538,3.98292,4.90854,-18.0488,4.78659
789.493,87.9102,16.5058,0,9.49865,0.364043,-2.34712,0.487805,-0.243902,-5.60976,-8.47837,-0.969983,4.08351,5.51829,-17.0122,5.18293
789.503,87.8304,16.8834,0,9.53697,0.534089,-2.26329,0.945122,-0.0609756,-5.85366,-8.44005,-0.958008,4.10985,6.15854,-15.7622,5.33537
789.513,87.7647,17.2572,0,9.58487,0.488584,-2.27048,0.182927,0.152439,-5.15244,-8.44484,-0.902922,4.16494,6.06707,-14.5122,5.39634
789.523,87.689,17.6473,0,9.48667,0.5772,-2.18186,0.762195,0.823171,-5.15244,-8.464,-0.850232,4.32062,5.85366,-12.9878,5.15244
789.533,87.6275,18.0099,0,9.46991,0.526904,-2.19863,-0.365854,1.18902,-4.45122,-8.48795,-0.809517,4.2775,5.79268,-11.6768,5
789.543,87.5724,18.3579,0,9.3789,0.505349,-2.22497,-0.365854,1.18902,-4.11585,-8.55501,-0.711321,4.31104,5.15244,-10.4878,4.5122
789.553,87.5164,18.7097,0,9.32142,0.529299,-2.23695,-0.304878,0.579268,-3.96341,-8.58136,-0.646655,4.40923,4.48171,-8.93293,4.39024
789.563,87.4595,19.0341,0,9.38608,0.534089,-2.27766,-0.152439,-0.27439,-4.17683,-8.61728,-0.63947,4.36373,3.41463,-8.35366,3.71951
789.573,87.4073,19.3397,0,9.45075,0.538879,-2.34951,-0.0609756,-1.34146,-3.78049,-8.59812,-0.65863,4.32541,2.68293,-7.56098,3.2622
789.583,87.3614,19.6407,0,9.4747,0.517324,-2.31838,-0.0304878,-2.13415,-3.53659,-8.54064,-0.646655,4.3302,1.67683,-6.7378,3.14024
789.593,87.3214,19.9458,0,9.56092,0.510139,-2.29203,0.0304878,-2.59146,-3.17073,-8.49992,-0.711321,4.38289,1.25,-6.28049,3.41463
789.603,87.2863,20.2327,0,9.58487,0.531694,-2.29443,0.792683,-2.68293,-2.40854,-8.47597,-0.814307,4.33738,0.731707,-5.67073,3.44512
789.613,87.2534,20.5007,0,9.55373,0.538879,-2.24174,0.579268,-2.19512,-2.04268,-8.45442,-0.823887,4.27271,0.823171,-4.66463,3.71951
789.623,87.2209,20.7772,0,9.52978,0.565225,-2.29443,0.152439,-1.58537,-1.31098,-8.42089,-0.878972,4.29187,0.670732,-3.65854,3.87195
789.633,87.2048,21.0782,0,9.46512,0.490979,-2.26329,0.365854,-1.34146,-0.945122,-8.464,-0.838257,4.41402,0.0914634,-3.01829,3.90244
789.643,87.1954,21.3629,0,9.43638,0.464634,-2.20821,0.579268,-1.67683,-0.884146,-8.50232,-0.852627,4.39486,0.121951,-2.80488,4.08537
789.653,87.1872,21.6712,0,9.43877,0.467029,-2.27287,0.27439,-2.22561,-0.731707,-8.5095,-0.799937,4.2775,0.121951,-1.70732,4.14634
789.663,87.1767,22.1786,0,9.44117,0.483794,-2.28006,0.609756,-2.86585,-0.518293,-8.50471,-0.807122,4.25595,0.121951,-0.457317,4.2378
789.673,87.1692,22.7479,0,9.46033,0.474214,-2.31598,0.731707,-3.56707,-0.579268,-8.53824,-0.866997,4.31582,-0.426829,0.121951,3.90244
789.683,87.1537,23.1382,0,9.46512,0.507744,-2.34712,0.518293,-3.93293,-0.426829,-8.58854,-0.888552,4.33978,-0.579268,0.457317,4.05488
789.693,87.1326,23.3857,0,9.48428,0.531694,-2.31838,0.518293,-4.42073,-0.365854,-8.62446,-0.907712,4.28709,-0.213415,0.914634,3.71951
789.703,87.1109,23.5711,0,9.53218,0.538879,-2.31359,0.579268,-4.69512,-0.0304878,-8.69392,-0.907712,4.29187,-0.396341,1.21951,3.84146
789.713,87.0981,23.7238,0,9.58247,0.524509,-2.36867,0.0609756,-4.57317,0.0609756,-8.70111,-0.898132,4.27511,-0.579268,1.46341,3.90244
789.723,87.0932,23.8357,0,9.53218,0.495769,-2.4022,0.304878,-3.47561,-0.0609756,-8.77056,-0.874182,4.25834,-0.609756,1.89024,3.78049
789.733,87.0885,23.9324,0,9.5226,0.505349,-2.39981,-0.182927,-3.44512,0.213415,-8.76338,-0.910107,4.2296,-1.37195,2.0122,3.96341
789.743,87.1031,24.0348,0,9.49625,0.445474,-2.4046,-0.0304878,-3.5061,0.457317,-8.74422,-0.905317,4.25355,-1.4939,1.95122,3.81098
789.753,87.1113,24.0927,0,9.50344,0.471819,-2.33754,-0.304878,-3.68902,0.609756,-8.74661,-0.948428,4.12901,-1.34146,2.40854,3.71951
789.763,87.1264,24.1518,0,9.49386,0.443079,-2.38065,-0.121951,-3.90244,0.640244,-8.71308,-0.953218,4.14338,-1.76829,2.86585,4.11585
789.773,87.1437,24.1969,0,9.46512,0.431104,-2.3543,-0.365854,-4.08537,0.640244,-8.71548,-0.989143,4.09788,-1.34146,2.92683,4.17683
789.783,87.1641,24.2303,0,9.43398,0.414338,-2.38544,-0.335366,-4.54268,0.426829,-8.71787,-0.965193,4.06195,-1.34146,3.17073,4.32927
789.793,87.1907,24.2466,0,9.43877,0.387993,-2.41897,-0.27439,-4.93902,0.670732,-8.79451,-1.04183,4.03321,-0.579268,3.56707,4.35976
789.803,87.2188,24.2637,0,9.44356,0.380808,-2.38783,-0.121951,-5.09146,0.396341,-8.8017,-1.04662,4.04279,-0.518293,3.53659,4.54268
789.813,87.2393,24.2742,0,9.44117,0.402363,-2.38304,-0.548781,-4.96951,0.609756,-8.80409,-1.04902,4.01884,0.0304878,3.75,4.17683
789.823,87.258,24.2801,0,9.46991,0.404758,-2.42136,-0.609756,-5.36585,0.243902,-8.82565,-1.02746,4.00926,0.27439,3.5061,4.42073
789.833,87.2786,24.2885,0,9.50344,0.395178,-2.42615,-0.945122,-4.81707,0.457317,-8.86397,-1.0083,4.038,0.335366,3.14024,4.35976
789.843,87.2895,24.3045,0,9.52978,0.428708,-2.41178,-0.579268,-4.54268,0.457317,-8.88313,-0.962798,4.08351,0.457317,3.53659,4.60366
789.853,87.2972,24.3027,0,9.51781,0.438289,-2.4501,-0.701219,-4.42073,0.457317,-8.90468,-0.974773,4.01645,0.365854,3.5061,4.45122
789.863,87.3111,24.3037,0,9.43398,0.411943,-2.44771,-0.640244,-3.96341,0.487805,-8.91905,-0.926873,4.03561,-0.243902,3.47561,4.69512
789.873,87.3123,24.2923,0,9.41003,0.445474,-2.44292,-0.487805,-3.93293,0.243902,-8.88073,-0.948428,3.96376,-0.396341,3.2622,4.57317
789.883,87.3194,24.2778,0,9.36932,0.423918,-2.44531,-0.884146,-3.44512,0.152439,-8.91187,-0.972378,3.96136,-0.487805,3.44512,4.7561
789.893,87.3349,24.2671,0,9.40045,0.399968,-2.44771,-1.18902,-3.01829,0.0304878,-8.90229,-0.993933,3.97094,-0.579268,3.47561,4.96951
789.903,87.3375,24.2601,0,9.43398,0.423918,-2.48124,-1.40244,-2.9878,-0.243902,-8.8951,-0.981958,3.98292,-0.548781,3.01829,5.06098
789.913,87.3546,24.2506,0,9.48667,0.392783,-2.53872,-1.06707,-2.43902,0.121951,-8.92624,-1.0083,3.98531,-0.365854,2.83537,5.33537
789.923,87.3783,24.2363,0,9.48667,0.371228,-2.51238,-0.884146,-2.40854,0.0609756,-8.91666,-1.02267,3.96136,-0.0304878,2.43902,5
789.933,87.3893,24.2268,0,9.52499,0.404758,-2.50759,-1.21951,-1.85976,0,-8.90468,-1.02267,3.97334,0.121951,2.31707,5.33537
789.943,87.3903,24.2224,0,9.49386,0.426313,-2.49322,-1.43293,-2.04268,-0.121951,-8.89031,-1.00112,3.98531,0.243902,2.43902,5.67073
789.953,87.3965,24.2157,0,9.47709,0.399968,-2.49561,-1.31098,-1.79878,-0.335366,-8.91187,-1.0107,3.98531,0.457317,2.22561,5.60976
789.963,87.4014,24.204,0,9.41961,0.409548,-2.56028,-1.21951,-1.43293,-0.152439,-8.85678,-1.01549,3.93981,0.365854,2.31707,5.54878
789.973,87.4046,24.1996,0,9.41722,0.423918,-2.52196,-1.09756,-1.25,0.213415,-8.82804,-1.0107,3.95418,0.701219,1.98171,6.0061
789.983,87.4131,24.2049,0,9.41243,0.399968,-2.57704,-1.09756,-1.25,-0.0914634,-8.86397,-1.04183,4.00447,0.701219,1.89024,6.15854
789.993,87.4152,24.1815,0,9.39087,0.411943,-2.56507,-0.731707,-1.25,-0.213415,-8.86397,-1.01788,3.90149,0.457317,1.98171,5.97561
790.003,87.409,24.17,0,9.39806,0.433499,-2.63213,-0.487805,-1.46341,-0.365854,-8.88073,-1.0107,3.94699,0.487805,2.07317,6.21951
790.013,87.4152,24.1764,0,9.4244,0.373623,-2.61297,0.213415,-1.43293,-0.701219,-8.88792,-1.01309,4.01405,0.609756,1.98171,5.94512
790.023,87.412,24.1562,0,9.45314,0.411943,-2.62255,0.335366,-1.28049,-0.701219,-8.91666,-1.00351,3.93741,0.457317,1.55488,5.82317
790.033,87.4004,24.1695,0,9.4244,0.443079,-2.58662,0,-0.609756,-0.792683,-8.90947,-0.998723,4.038,0.365854,1.28049,5.79268
790.043,87.3998,24.16,0,9.43159,0.411943,-2.65129,0.0914634,0.152439,-0.518293,-8.92145,-0.962798,3.97813,0.121951,1.03659,5.91463
790.053,87.394,24.1584,0,9.38369,0.414338,-2.60818,0.182927,0.609756,-0.884146,-8.90229,-1.0083,3.9901,0.304878,1.0061,6.21951
790.063,87.3909,24.1864,0,9.43159,0.404758,-2.60339,0.335366,0.640244,-0.884146,-8.90947,-0.955613,4.06195,-0.152439,0.609756,6.34146
790.073,87.3804,24.2049,0,9.44835,0.438289,-2.61057,0.731707,0.670732,-0.914634,-8.87355,-0.938848,4.02842,-0.121951,0.640244,6.03659
790.083,87.3771,24.2097,0,9.41003,0.402363,-2.63213,0.609756,0.97561,-0.97561,-8.81607,-0.895737,3.97573,-0.0304878,0.914634,5.97561
790.093,87.3764,24.216,0,9.41003,0.404758,-2.62494,0.731707,1.40244,-0.731707,-8.88552,-0.900527,4.01166,-0.304878,0.823171,5.94512
790.103,87.3856,24.2031,0,9.41482,0.373623,-2.57704,0.548781,1.70732,-0.609756,-8.93821,-0.910107,3.98771,-0.762195,0.823171,5.85366
790.113,87.3882,24.1713,0,9.38848,0.380808,-2.50519,0.518293,1.82927,-0.884146,-8.98611,-0.955613,3.95897,-1.0061,0.762195,5.91463
790.123,87.3908,24.1461,0,9.37411,0.371228,-2.54112,0.152439,1.67683,-1.0061,-8.95258,-0.974773,3.97094,-1.43293,0.213415,5.70122
790.133,87.3913,24.1241,0,9.35734,0.359253,-2.54351,0.701219,1.18902,-1.31098,-8.95019,-0.998723,3.96615,-2.04268,-0.396341,5.91463
790.143,87.3846,24.1338,0,9.40285,0.378413,-2.53393,0.579268,1.06707,-1.58537,-8.943,-0.984353,4.02842,-2.04268,-0.731707,6.18902
790.153,87.3681,24.1186,0,9.41003,0.431104,-2.46687,0.335366,1.4939,-1.67683,-8.91187,-0.989143,3.9446,-1.92073,-1.34146,6.61585
790.163,87.3531,24.1247,0,9.4244,0.440684,-2.52675,0.640244,1.34146,-1.40244,-8.8496,-0.948428,3.97813,-2.22561,-1.12805,6.95122
790.173,87.3368,24.1344,0,9.4244,0.457449,-2.54591,0.670732,1.58537,-1.25,-8.8472,-0.907712,3.98531,-1.95122,-0.853659,6.95122
790.183,87.3188,24.1264,0,9.47709,0.483794,-2.47645,0.792683,1.31098,-0.884146,-8.86397,-0.958008,3.94939,-2.04268,-1.0061,6.64634
790.193,87.304,24.1201,0,9.45314,0.462239,-2.47406,0.609756,1.4939,-1.12805,-8.89989,-0.946033,3.97094,-1.82927,-0.640244,6.31098
790.203,87.2953,24.0721,0,9.4723,0.426313,-2.44292,0.609756,1.0061,-1.28049,-8.8496,-0.989143,3.88472,-1.7378,-0.121951,6.03659
790.213,87.282,24.0764,0,9.44356,0.447869,-2.42136,0.426829,1.64634,-1.34146,-8.85199,-1.04183,3.96136,-1.25,-0.0914634,5.91463
790.223,87.2731,24.092,0,9.49625,0.445474,-2.47645,0.27439,1.58537,-1.03659,-8.84481,-1.07536,3.98292,-0.701219,-0.426829,6.12805
790.233,87.2575,24.0584,0,9.47949,0.467029,-2.43094,0.121951,1.64634,-1.31098,-8.86876,-1.06099,3.91107,-0.426829,-0.0914634,6.18902
790.243,87.2436,24.0587,0,9.48428,0.471819,-2.43094,0.0914634,1.40244,-1.06707,-8.84002,-1.02507,3.94699,-0.0914634,-0.182927,6.25
790.253,87.2303,24.0691,0,9.45793,0.476609,-2.38304,0.213415,1.28049,-0.884146,-8.86157,-0.955613,3.97573,0.121951,-0.335366,6.4939
790.263,87.2187,24.0951,0,9.41722,0.474214,-2.38304,0.0914634,1.15854,-0.731707,-8.88792,-0.972378,4.02603,-0.0914634,-0.518293,6.61585
790.273,87.2055,24.1187,0,9.41243,0.483794,-2.4525,-0.0304878,0.762195,-0.670732,-8.89031,-0.917292,4.03561,-0.121951,-0.853659,6.34146
790.283,87.1968,24.1394,0,9.39327,0.471819,-2.42615,0.0609756,0.823171,-0.518293,-8.8951,-0.898132,4.03561,-0.0914634,-0.884146,6.4939
790.293,87.1904,24.1584,0,9.39566,0.469424,-2.38065,0.213415,1.03659,-0.365854,-8.89989,-0.878972,4.04279,-0.487805,-1.15854,6.12805
790.303,87.1915,24.1742,0,9.40524,0.433499,-2.51956,-0.365854,0.487805,-0.640244,-8.87594,-0.900527,4.02842,-0.823171,-1.31098,6.25
790.313,87.1821,24.2134,0,9.41482,0.471819,-2.5004,0.0304878,0.457317,-0.731707,-8.8496,-0.859812,4.09069,-0.640244,-1.31098,6.28049
790.323,87.1745,24.2391,0,9.41961,0.469424,-2.54112,0.0304878,0.792683,-0.640244,-8.82086,-0.881367,4.03561,-1.18902,-1.06707,6.03659
790.333,87.1715,24.253,0,9.41482,0.457449,-2.44771,-0.27439,0.823171,-0.518293,-8.83523,-0.936453,4.01405,-1.21951,-1.0061,5.97561
790.343,87.1784,24.2463,0,9.4244,0.407153,-2.40699,-0.152439,0.945122,-0.762195,-8.84002,-0.924478,3.96376,-1.03659,-1.03659,6.03659
790.353,87.1826,24.2223,0,9.4244,0.407153,-2.41897,0.121951,1.06707,-0.914634,-8.79691,-0.972378,3.90867,-1.0061,-0.701219,6.58537
790.363,87.1759,24.2402,0,9.41482,0.447869,-2.43334,0,0.823171,-1.03659,-8.82325,-1.0083,4.00926,-0.945122,-0.670732,6.34146
790.373,87.1789,24.222,0,9.40045,0.407153,-2.5004,0.304878,0.762195,-0.97561,-8.87594,-0.972378,3.95418,-0.792683,-0.670732,6.21951
790.383,87.1789,24.2291,0,9.44835,0.423918,-2.50519,0.365854,0.731707,-0.945122,-8.85678,-0.972378,3.99968,-0.701219,-0.609756,6.15854
790.393,87.1789,24.2358,0,9.46991,0.440684,-2.44531,0.579268,0.884146,-0.670732,-8.82565,-0.934058,3.98531,-0.731707,-0.548781,6.21951
790.403,87.1724,24.234,0,9.46272,0.452659,-2.5004,0.27439,0.396341,-0.97561,-8.87834,-0.919688,3.9925,-0.579268,-0.548781,6.21951
790.413,87.1688,24.2348,0,9.44835,0.435894,-2.5028,0.609756,0.335366,-1.03659,-8.88313,-0.974773,3.99968,-0.609756,-0.579268,6.34146
790.423,87.1625,24.2022,0,9.45075,0.447869,-2.4525,0.518293,0.304878,-1.06707,-8.89989,-0.984353,3.93262,-0.426829,-0.609756,6.06707
790.433,87.158,24.2026,0,9.46512,0.452659,-2.41897,0.823171,0.152439,-0.853659,-8.89271,-0.969983,3.99729,-0.304878,-0.762195,6.25
790.443,87.159,24.1955,0,9.5226,0.445474,-2.4046,0.701219,0.0914634,-0.609756,-8.90947,-1.01309,3.98292,-0.0914634,-1.12805,5.97561
790.453,87.1463,24.1843,0,9.4723,0.500559,-2.45729,0.701219,0.243902,-0.426829,-8.90708,-1.02507,3.96855,-0.182927,-1.15854,5.73171
790.463,87.1368,24.1916,0,9.42201,0.476609,-2.39741,0.487805,0.487805,-0.823171,-8.91905,-1.00591,4.02842,-0.0304878,-1.4939,5.94512
790.473,87.1298,24.1991,0,9.43877,0.474214,-2.39023,0.579268,0.609756,-0.670732,-8.89031,-0.965193,4.01645,-0.182927,-1.43293,5.94512
790.483,87.1291,24.206,0,9.4268,0.457449,-2.42855,0.213415,0.426829,-0.518293,-8.92624,-0.941243,4.03321,0,-1.52439,6.0061
790.493,87.1322,24.2143,0,9.43877,0.445474,-2.38783,0.213415,0.152439,-0.487805,-8.90947,-0.967588,4.03321,0.0609756,-1.82927,5.67073
790.503,87.1261,24.2336,0,9.4244,0.474214,-2.44531,-0.121951,-0.0609756,-0.579268,-8.90708,-0.986748,4.07632,-0.579268,-1.98171,5.51829
790.513,87.1355,24.2214,0,9.44835,0.423918,-2.38783,-0.487805,-0.121951,-0.487805,-8.85678,-0.986748,3.9422,-0.0304878,-1.82927,5.60976
790.523,87.14,24.1975,0,9.4268,0.440684,-2.40699,-0.548781,0.0609756,-0.457317,-8.83044,-1.0083,3.88712,-0.0914634,-1.89024,5.60976
790.533,87.1458,24.2245,0,9.46512,0.445474,-2.4549,-0.518293,-0.121951,-0.27439,-8.80888,-1.01549,4.05477,0.213415,-1.98171,5.60976
790.543,87.1481,24.208,0,9.45793,0.443079,-2.45969,-0.396341,-0.0914634,-0.548781,-8.8472,-1.01788,3.91825,0.213415,-2.04268,5.64024
790.553,87.1605,24.2013,0,9.45793,0.426313,-2.45729,-0.152439,0.304878,-0.213415,-8.86636,-1.01788,3.95897,0.609756,-2.19512,5.82317
790.563,87.1603,24.2075,0,9.44835,0.457449,-2.41657,-0.487805,-0.335366,-0.365854,-8.92863,-1.01309,4.03561,0.914634,-2.46951,5.57927
790.573,87.1599,24.2078,0,9.43159,0.452659,-2.42376,-0.365854,-0.792683,-0.487805,-9.00527,-1.02028,4.04758,1.15854,-2.53049,5.36585
790.583,87.154,24.1773,0,9.47949,0.469424,-2.41897,-0.152439,-1.15854,-0.640244,-9.09389,-0.938848,3.95897,1.7378,-2.43902,5.06098
790.593,87.148,24.1477,0,9.45314,0.469424,-2.42615,-0.335366,-1.31098,-0.640244,-9.10826,-0.871787,3.96376,2.71341,-2.37805,4.78659
790.603,87.1428,24.1486,0,9.48188,0.457449,-2.4549,-0.213415,-0.945122,-0.884146,-9.08431,-0.862207,4.07393,2.62195,-3.14024,4.90854
790.613,87.1358,24.2007,0,9.43638,0.459844,-2.49322,-0.884146,-0.792683,-0.97561,-9.10586,-0.866997,4.3278,2.43902,-4.48171,4.45122
790.623,87.1261,24.2427,0,9.42919,0.474214,-2.49322,-0.823171,-0.640244,-0.945122,-9.00767,-0.943638,4.24397,1.52439,-5.60976,3.9939
790.633,87.135,24.2537,0,9.34776,0.411943,-2.43334,-1.61585,-0.518293,-0.670732,-8.83283,-0.881367,4.02363,0.853659,-5.12195,3.93293
790.643,87.1729,24.2755,0,9.35495,0.320933,-2.39981,-1.58537,-0.518293,-0.518293,-8.72027,-0.850232,4.02363,0.335366,-4.7561,4.26829
790.654,87.1912,24.3021,0,9.42201,0.328118,-2.34712,-1.31098,-0.701219,-1.09756,-8.68195,-0.850232,4.03082,-0.0304878,-4.2378,4.66463
790.663,87.1962,24.312,0,9.42201,0.356858,-2.39262,-1.09756,-0.97561,-1.46341,-8.72027,-0.878972,3.97813,-0.335366,-4.02439,5.06098
790.673,87.2025,24.3244,0,9.43877,0.349673,-2.35191,-1.0061,-1.06707,-1.46341,-8.72985,-0.895737,3.99489,-0.213415,-3.71951,5.51829
790.683,87.2036,24.3337,0,9.40764,0.378413,-2.4525,-1.06707,-0.914634,-1.43293,-8.72745,-0.876577,3.98292,-0.152439,-4.02439,5.64024
790.693,87.2031,24.3663,0,9.4244,0.404758,-2.50759,-0.762195,-0.792683,-1.18902,-8.68434,-0.874182,4.06674,-0.0609756,-3.71951,5.64024
790.703,87.1975,24.4006,0,9.38129,0.421523,-2.54351,-0.457317,-0.335366,-1.31098,-8.68434,-0.874182,4.07872,-0.213415,-3.47561,5.27439
790.713,87.1871,24.4339,0,9.36213,0.457449,-2.54591,-0.548781,0.243902,-1.09756,-8.69871,-0.869392,4.0859,-0.27439,-3.32317,5.12195
790.723,87.1708,24.4672,0,9.30944,0.479004,-2.51238,-0.335366,0.27439,-1.21951,-8.67476,-0.886157,4.07393,-0.182927,-2.83537,4.87805
790.733,87.1509,24.5175,0,9.31663,0.493374,-2.51717,-0.0609756,-0.670732,-1.40244,-8.66997,-0.929268,4.15296,-0.0304878,-3.01829,4.72561
790.743,87.1359,24.5559,0,9.35974,0.471819,-2.52435,0.121951,-1.06707,-1.43293,-8.69871,-1.00591,4.12183,-0.121951,-2.77439,4.48171
790.753,87.1084,24.5941,0,9.39087,0.548459,-2.56028,0.243902,-0.487805,-1.25,-8.71308,-1.03465,4.1338,-0.792683,-2.68293,4.5122
790.763,87.0879,24.65,0,9.43398,0.526904,-2.57704,0.548781,-0.304878,-1.03659,-8.74661,-1.04183,4.22721,-0.823171,-2.53049,4.45122
790.773,87.0615,24.692,0,9.45554,0.555645,-2.59381,0.823171,-0.487805,-1.28049,-8.78254,-1.0586,4.20326,-0.640244,-2.7439,4.32927
790.783,87.0366,24.7319,0,9.49386,0.55804,-2.63452,1.03659,-0.762195,-1.18902,-8.85199,-1.04662,4.24158,-0.884146,-3.01829,4.20732
790.793,87.0154,24.7531,0,9.48188,0.541274,-2.52914,0.914634,-0.548781,-1.18902,-8.87834,-1.03225,4.1817,-0.945122,-3.5061,3.90244
790.803,86.9948,24.7866,0,9.49146,0.536484,-2.56267,1.03659,0.396341,-1.34146,-8.87834,-1.0107,4.24397,-0.853659,-3.87195,4.08537
790.813,86.9762,24.8119,0,9.49386,0.529299,-2.60578,0.518293,0.823171,-1.34146,-8.90229,-1.04902,4.22481,-0.304878,-4.2378,4.2378
790.823,86.9545,24.8165,0,9.49386,0.548459,-2.5483,0.884146,1.12805,-1.37195,-8.90947,-1.08734,4.1362,0.243902,-4.63415,4.35976
790.833,86.9334,24.8039,0,9.50104,0.565225,-2.58183,1.21951,0.792683,-0.823171,-8.98851,-1.08973,4.09309,1.43293,-4.60366,3.90244
790.843,86.9228,24.7965,0,9.48667,0.524509,-2.53154,1.67683,0.365854,-0.701219,-9.02683,-1.10889,4.13141,1.61585,-5,3.44512
790.853,86.9039,24.7898,0,9.52739,0.56762,-2.54591,1.67683,0.0304878,-0.487805,-9.11305,-1.02028,4.17212,1.95122,-5.79268,2.71341
790.863,86.8924,24.7805,0,9.51062,0.546064,-2.57225,1.40244,-0.0609756,-0.182927,-9.17532,-1.00351,4.18649,2.07317,-6.34146,2.10366
790.873,86.8765,24.7651,0,9.49146,0.560435,-2.55549,1.4939,0.365854,-0.121951,-9.10586,-0.993933,4.12183,2.13415,-7.59146,1.52439
790.883,86.8841,24.7574,0,9.45793,0.495769,-2.52914,1.52439,0.487805,0.0304878,-8.9909,-0.955613,4.10267,1.79878,-8.29268,1.4939
790.893,86.9012,24.7551,0,9.41243,0.467029,-2.51238,1.46341,0.548781,0.0304878,-8.87594,-0.934058,4.07393,1.12805,-9.14634,1.7378
790.903,86.9081,24.7589,0,9.3789,0.483794,-2.5028,1.79878,0.762195,-0.152439,-8.84241,-0.943638,4.0859,0.792683,-10.0915,1.79878
790.913,86.918,24.7504,0,9.38848,0.474214,-2.5986,1.85976,1.34146,-0.152439,-8.78493,-0.969983,4.00208,0.213415,-10.9146,2.65244
790.923,86.9409,24.7346,0,9.331,0.426313,-2.51956,2.56098,1.64634,-0.27439,-8.83523,-1.02267,3.98771,-0.121951,-11.8293,2.71341
790.933,86.9454,24.7151,0,9.30944,0.467029,-2.50998,3.29268,1.76829,-0.487805,-8.86636,-1.03704,3.98052,0,-13.0183,3.38415
790.943,86.955,24.699,0,9.28549,0.443079,-2.52675,3.96341,2.0122,-0.579268,-8.92145,-1.09452,4.01645,0.182927,-14.4512,3.47561
790.953,86.9335,24.6772,0,9.30944,0.550855,-2.57225,4.08537,2.7439,-0.762195,-9.00767,-1.08494,4.02363,0.579268,-15.8537,3.65854
790.963,86.8879,24.6624,0,9.30944,0.665815,-2.49322,4.14634,3.84146,-1.4939,-9.12742,-1.09452,4.10506,1.31098,-17.8049,3.87195
790.973,86.8463,24.6872,0,9.31663,0.64905,-2.51956,4.60366,4.32927,-1.79878,-9.23759,-1.14482,4.34457,1.37195,-20.2744,3.59756
790.983,86.815,24.6909,0,9.41722,0.56762,-2.55309,5.12195,3.75,-2.5,-9.29268,-1.14961,4.26792,1.92073,-22.561,3.81098
790.993,86.78,24.6633,0,9.51541,0.55325,-2.49801,5.79268,3.23171,-3.2622,-9.29028,-1.19272,4.11225,2.95732,-23.8415,3.93293
791.003,86.7404,24.6585,0,9.54894,0.543669,-2.42376,6.12805,2.89634,-3.96341,-9.12263,-1.11368,4.14099,3.9939,-25.5793,4.45122
791.013,86.6912,24.6704,0,9.54415,0.60115,-2.42136,5.57927,3.53659,-4.29878,-9.01964,-1.07536,4.17212,4.45122,-27.4695,5.33537
791.023,86.6558,24.6787,0,9.53697,0.474214,-2.38783,4.81707,4.29878,-4.57317,-9.06515,-1.1544,4.17691,5.18293,-28.7195,5.94512
791.033,86.619,24.701,0,9.45554,0.428708,-2.46927,4.42073,5.85366,-5.30488,-9.10347,-1.22864,4.26313,5.4878,-29.9085,5.79268
791.043,86.6181,24.7311,0,9.41961,0.162861,-2.58902,3.47561,6.31098,-5.03049,-9.05317,-1.17835,4.2799,5.42683,-31.8598,5.82317
791.054,86.5481,24.7674,0,9.46272,0.65384,-2.40699,4.14634,7.16463,-5.97561,-9.01006,-1.08494,4.29427,5.54878,-33.5976,5.60976
791.063,86.503,24.8039,0,9.58247,0.486189,-2.44052,3.78049,7.53049,-5.73171,-8.98132,-1.06339,4.28709,6.15854,-34.878,5.64024
791.073,86.5012,24.8576,0,9.75252,0.129331,-2.6465,3.78049,7.9878,-5.79268,-8.98372,-1.09452,4.3781,6.09756,-36.0976,5.42683
791.083,86.4151,24.992,0,9.79323,0.862207,-2.33993,3.41463,11.7683,-5.64024,-9.02204,-1.08255,4.8092,6.40244,-38.5061,5.45732
791.093,86.3773,25.079,0,9.78844,0.502954,-2.56986,1.37195,14.4207,-5.18293,-9.07233,-1.11847,4.61999,6.79878,-40.8841,5.18293
791.103,86.3939,25.1196,0,9.64235,0.0239502,-2.84289,2.59146,14.7256,-5.45732,-9.02204,-1.11368,4.38049,7.43902,-41.5549,4.93902
791.113,86.3074,25.2252,0,9.51302,0.737666,-2.39981,3.9939,15.5793,-7.13415,-8.89271,-1.14721,4.64394,7.22561,-42.7134,5.09146
791.123,86.258,25.3464,0,9.40285,0.438289,-2.35191,1.28049,18.2622,-7.13415,-8.84481,-1.23583,4.71579,7.62195,-44.5427,4.93902
791.133,86.2173,25.5012,0,9.29028,0.237107,-2.70637,1.4939,22.3476,-8.81098,-8.89031,-1.32445,4.93374,7.53049,-46.0671,4.54268
791.143,86.1007,25.7193,0,9.30705,0.732876,-2.47406,1.55488,22.2866,-10.4268,-8.90708,-1.25739,5.30257,8.53659,-49.1463,4.2378
791.153,86.0354,25.8917,0,9.43398,0.318538,-2.53872,1.31098,16.2195,-10.6707,-8.91666,-1.12566,5.11097,10.3963,-50.8232,4.08537
791.163,85.9855,26.0172,0,9.43159,0.0479004,-2.82133,4.29878,10.6707,-12.5915,-8.90708,-0.946033,4.89781,12.3476,-51.2805,3.9939
791.173,85.8505,26.204,0,9.51781,0.677791,-2.34233,5,7.19512,-13.6585,-8.86876,-0.740061,5.21875,12.7134,-52.7134,3.90244
791.183,85.7527,26.3745,0,9.76928,0.356858,-2.49801,3.2622,7.0122,-14.1768,-8.9933,-0.589175,5.2427,12.561,-54.2988,3.44512
791.193,85.6444,26.5416,0,9.8124,0.380808,-2.29682,4.48171,11.372,-15.1829,-9.0388,-0.493374,5.28581,12.4085,-55.5793,2.65244
791.203,85.4915,26.7795,0,9.54415,0.711321,-1.87291,2.86585,10.6098,-15.7927,-8.97653,-0.452659,5.66662,12.0732,-58.0488,1.85976
791.213,85.4323,26.9886,0,9.7142,-0.179626,-2.06211,3.35366,5.85366,-17.4085,-8.8017,-0.529299,5.45106,10.7012,-58.1402,1.7378
791.223,85.311,27.2842,0,9.92975,0.112566,-2.22018,7.59146,5.54878,-20.3659,-8.62446,-0.742456,5.85582,8.53659,-56.4634,1.79878
791.233,85.1599,27.6659,0,9.91538,0.208367,-1.88009,5.73171,3.71951,-22.5305,-8.49274,-0.965193,6.31567,7.07317,-57.9573,2.53049
791.243,85.029,28.0419,0,10.0232,-0.0886157,-1.90165,4.93902,2.34756,-24.2683,-8.32988,-1.03225,6.24621,6.76829,-59.7256,3.59756
791.253,84.9033,28.4138,0,10.0735,-0.261057,-2.17468,8.10976,5.06098,-26.0061,-8.08798,-1.03704,6.12646,7.2561,-58.5061,5.51829
791.263,84.7304,28.8589,0,9.79323,-0.0263452,-2.33035,10.7012,7.92683,-28.3537,-7.71436,-0.895737,6.33004,7.19512,-57.1037,8.29268
791.273,84.5294,29.325,0,9.46991,0.0359253,-2.28964,11.5244,8.93293,-30.8232,-7.49162,-0.744851,6.36596,7.16463,-55.0915,11.0366
791.283,84.2958,29.8105,0,9.58487,0.160466,-2.35909,11.9817,6.85976,-33.0488,-7.33834,-0.637075,6.45218,8.14024,-52.8963,13.3841
791.293,84.0099,30.3211,0,9.7118,0.538879,-2.24653,12.6829,2.53049,-34.3293,-7.30481,-0.55804,6.6821,8.47561,-51.25,15.1829
791.303,83.6946,30.8173,0,9.67109,0.761616,-2.20821,11.6768,-2.83537,-35.2134,-7.40061,-0.632285,6.80665,9.05488,-49.6646,15.5183
791.313,83.3729,31.3048,0,9.93215,0.787961,-2.07888,12.0732,-7.89634,-36.4329,-7.42456,-0.742456,6.89766,8.68902,-47.3171,14.3598
791.323,83.031,31.7833,0,9.86748,1.02267,-1.67412,11.6463,-11.9512,-36.3415,-7.42696,-0.902922,6.96711,7.71341,-44.3598,12.378
791.333,82.6828,32.2822,0,9.9058,1.13045,-1.66454,10.7622,-10.7317,-36.4634,-7.38624,-1.01549,7.17548,6.46341,-42.561,9.81707
791.343,82.3224,32.8135,0,10.0663,1.29331,-1.66933,8.32317,-8.20122,-36.7683,-7.23535,-1.00112,7.36229,5.45732,-40.2744,7.80488
791.353,81.9836,33.3665,0,9.96807,1.14003,-1.64059,5.09146,-9.90854,-36.9207,-7.06531,-0.936453,7.47007,4.7561,-37.439,6.79878
791.363,81.6399,33.9368,0,9.76689,1.12566,-1.94476,4.05488,-11.189,-38.0183,-6.91203,-0.807122,7.56826,3.9939,-34.5122,7.37805
791.373,81.2782,34.5194,0,9.75012,1.18793,-2.09325,4.84756,-14.939,-39.7866,-6.91682,-0.749641,7.81495,3.32317,-32.5915,8.68902
791.383,80.8713,35.095,0,9.8603,1.62382,-1.76034,2.71341,-17.2866,-40.2439,-6.81862,-0.64426,7.81734,2.80488,-30.3963,10.1829
791.393,80.4516,35.6369,0,10.0471,1.85614,-1.825,0.27439,-19.5122,-40.0915,-6.80665,-0.61552,7.73112,2.28659,-28.3537,11.7683
791.403,80.031,36.1516,0,10.0184,2.03337,-1.81063,-2.19512,-19.7256,-38.9939,-6.84497,-0.694556,7.73831,2.2561,-26.0671,12.0427
791.413,79.6128,36.6387,0,9.69264,1.96392,-1.81782,-3.68902,-20.9451,-39.6341,-6.88329,-0.828677,7.73352,2.71341,-24.8171,11.5244
791.423,79.1893,37.1183,0,9.77886,2.1148,-1.88967,-6.34146,-20.7317,-39.5122,-6.85934,-0.972378,7.791,2.95732,-22.622,10
791.433,78.7913,37.6046,0,9.87467,2.10522,-2.17947,-8.65854,-20.7622,-38.1098,-6.77791,-1.05141,7.87961,2.95732,-20.122,8.65854
791.443,78.3845,38.1138,0,9.79084,2.22497,-2.32077,-9.57317,-20.8232,-38.2622,-6.64139,-0.996328,8.02092,3.04878,-17.8049,7.56098
791.453,77.9594,38.6411,0,9.96089,2.42615,-2.52914,-10.2134,-19.939,-39.1463,-6.52643,-0.919688,8.16223,3.17073,-15.3049,7.13415
791.463,77.5,39.1557,0,9.94652,2.66087,-2.61297,-11.0976,-15.4573,-40.8841,-6.50248,-0.855022,8.19576,2.68293,-12.9573,7.37805
791.473,77.0169,39.6447,0,9.97526,2.77822,-2.54112,-10.9146,-16.25,-43.0488,-6.53601,-0.740061,8.20294,2.28659,-10.4268,8.20122
791.483,76.4926,40.1132,0,9.86269,3.06562,-2.61057,-11.372,-14.2988,-44.7561,-6.65815,-0.651445,8.34904,1.21951,-9.2378,8.65854
791.493,75.9511,40.5466,0,9.88425,3.20454,-2.52196,-12.5,-11.6159,-46.1585,-6.77312,-0.60594,8.3682,0.884146,-8.5061,9.32927
791.503,75.4048,40.9251,0,9.97765,3.3195,-2.49082,-13.5671,-7.83537,-46.8598,-6.87371,-0.622705,8.21013,0.884146,-7.40854,9.42073
791.513,74.8508,41.2915,0,9.89862,3.48475,-2.27287,-14.5732,-8.29268,-46.7378,-6.94556,-0.701741,8.3179,0.487805,-6.61585,9.29878
791.523,74.3083,41.6202,0,9.65911,3.31471,-2.61057,-14.9085,-9.69512,-47.622,-7.0198,-0.807122,8.23408,0.701219,-6.61585,8.44512
791.533,73.7511,41.9309,0,9.26633,3.33866,-2.91234,-14.0549,-10.4268,-48.4451,-6.94795,-0.910107,8.10954,1.21951,-5.45732,7.62195
791.543,73.1972,42.2587,0,9.28789,3.25962,-2.97461,-12.0122,-10.061,-50.2134,-6.87131,-0.950823,8.21971,1.61585,-4.35976,7.10366
791.553,72.6207,42.5896,0,9.5226,3.50391,-2.61536,-13.4451,-12.3171,-51.8902,-6.83299,-0.953218,8.26282,0.884146,-3.5061,6.67683
791.563,72.042,42.9341,0,9.45793,3.51349,-2.65129,-15.061,-12.2866,-52.9268,-6.70845,-0.910107,8.13828,1.0061,-2.22561,6.95122
791.573,71.4658,43.3825,0,9.54176,3.55421,-2.76864,-16.9817,-8.9939,-53.75,-6.61025,-0.816702,8.01374,0.853659,-0.762195,7.56098
791.583,70.8828,43.856,0,9.27591,3.57576,-2.62015,-16.8902,-11.2195,-54.2988,-6.53601,-0.684976,7.94428,1.15854,0.579268,8.44512
791.593,70.293,44.1284,0,9.11784,3.60929,-2.61057,-17.9573,-13.811,-55.122,-6.5887,-0.696951,7.82932,1.15854,2.22561,9.32927
791.603,69.7159,44.3292,0,9.09628,3.55421,-2.76385,-18.2622,-13.811,-55.5488,-6.60307,-0.706531,7.62574,1.95122,4.20732,9.63415
791.613,69.1505,44.5051,0,9.07712,3.5566,-2.77104,-17.3171,-12.6524,-55.4268,-6.65576,-0.725691,7.5994,2.13415,6.12805,9.42073
791.623,68.5965,44.6683,0,9.06515,3.56139,-2.62494,-18.4146,-13.3537,-55.3049,-6.62462,-0.759221,7.52994,2.10366,7.40854,8.81098
791.633,68.0424,44.8014,0,8.99569,3.65001,-2.74948,-17.8963,-14.3598,-55.1524,-6.60307,-0.766406,7.35271,1.67683,9.26829,7.92683
791.643,67.5106,44.9323,0,8.9454,3.57337,-2.59141,-17.7439,-15.5488,-54.6341,-6.60786,-0.804727,7.38145,1.55488,11.4939,7.19512
791.653,66.9738,45.0598,0,8.8496,3.77695,-2.42615,-19.6951,-14.4512,-53.5061,-6.4929,-0.749641,7.26649,1.34146,13.2927,6.37195
791.663,66.4429,45.1886,0,8.70111,3.74581,-2.75906,-22.0122,-12.5,-53.628,-6.47134,-0.65863,7.28565,0.487805,15.3963,5.88415
791.673,65.9275,45.309,0,8.69392,3.65719,-2.60339,-21.2195,-13.7195,-54.1159,-6.38752,-0.60115,7.17308,0.0304878,17.6524,6.06707
791.683,65.4154,45.3754,0,8.61728,3.71228,-2.70398,-21.0061,-14.1768,-53.811,-6.3971,-0.60594,6.88089,0.0609756,20.3354,5.97561
791.693,64.8978,45.4491,0,8.7059,3.87275,-2.86444,-22.2866,-15.3963,-54.0549,-6.44021,-0.58199,6.99106,0.121951,22.6524,5.91463
791.703,64.3941,45.4676,0,8.58375,3.86317,-2.75906,-21.7378,-14.7866,-53.1707,-6.48571,-0.593965,6.72521,0.701219,24.4512,5.7622
791.713,63.8758,45.4838,0,8.46879,4.06914,-2.67284,-23.628,-13.8415,-52.7744,-6.56714,-0.56762,6.80186,1.06707,25.9451,5.88415
791.723,63.3731,45.4873,0,8.35862,4.01645,-2.59381,-25.2134,-11.3415,-52.2256,-6.62223,-0.593965,6.78749,1.31098,27.5,5.51829
791.733,62.8904,45.4716,0,8.24366,3.93262,-2.91474,-25.1524,-12.4085,-51.5549,-6.67492,-0.63468,6.73,1.28049,29.0549,4.93902
791.743,62.428,45.4549,0,8.22929,3.89191,-2.76625,-22.4695,-16.3415,-50.8537,-6.72042,-0.64905,6.76833,1.21951,31.0061,4.69512
791.753,61.9518,45.3993,0,8.01853,3.97334,-2.73032,-22.439,-15.6707,-51.0671,-6.67013,-0.665815,6.4905,0.548781,33.872,4.29878
791.763,61.4674,45.3533,0,8.0784,4.14099,-2.58423,-24.0549,-17.9573,-51.2805,-6.69647,-0.687371,6.56235,-0.457317,36.7378,4.11585
791.773,60.9674,45.2865,0,7.98739,4.32541,-2.85007,-26.2805,-15.5183,-51.2195,-6.72042,-0.716111,6.45697,-0.365854,38.2012,3.90244
791.783,60.4723,45.211,0,8.10954,4.38289,-2.69679,-26.8902,-15.6402,-51.8293,-6.7803,-0.742456,6.45218,-0.609756,40.122,3.84146
791.793,59.9549,45.1035,0,8.04008,4.58646,-2.85726,-28.4451,-14.7256,-52.439,-6.79707,-0.761616,6.27256,-0.365854,41.7988,4.11585
791.803,59.436,44.9965,0,7.97302,4.53617,-2.63452,-28.2317,-15,-53.7805,-6.81144,-0.716111,6.26777,-0.884146,43.7195,4.20732
791.813,58.8828,44.8684,0,7.92751,4.86907,-2.67284,-30.122,-14.6037,-54.4207,-6.99106,-0.661025,6.29172,-0.853659,45.5488,4.5122
791.823,58.3356,44.698,0,7.9347,4.87865,-2.79978,-29.2378,-15.7927,-54.878,-7.10363,-0.64905,6.13125,-1.18902,47.2256,4.5122
791.833,57.7855,44.4969,0,7.87482,4.95769,-2.9339,-28.1402,-13.9329,-55.061,-7.24493,-0.63468,6.04982,-0.97561,48.9939,4.78659
791.843,57.2524,44.2645,0,8.07361,4.97925,-2.78062,-26.8902,-15.0305,-55.5183,-7.31918,-0.56283,5.90133,-0.97561,50.6098,4.96951
791.854,56.6993,43.9845,0,8.05445,5.20438,-2.76146,-26.2805,-13.9939,-56.189,-7.46288,-0.476609,5.71691,-1.25,52.2866,4.57317
791.863,56.1597,43.7133,0,8.06164,5.22114,-2.56746,-26.0366,-13.9329,-55.8232,-7.51797,-0.450264,5.74805,-1.52439,53.4451,5.15244
791.873,55.5869,43.4699,0,7.81974,5.51094,-2.54591,-28.811,-10.3354,-55.7317,-7.58742,-0.457449,5.89175,-2.31707,53.2317,4.81707
791.883,55.03,43.2095,0,7.62335,5.27144,-2.87402,-27.7134,-9.08537,-56.311,-7.62574,-0.531694,5.77918,-3.17073,53.2927,4.84756
791.893,54.4531,42.8856,0,7.53473,5.4319,-2.56507,-28.7195,-7.59146,-57.1951,-7.5994,-0.555645,5.38161,-3.96341,55.3659,4.63415
791.903,53.8608,42.592,0,7.41259,5.49896,-2.68482,-29.939,-5.30488,-58.3537,-7.61377,-0.574805,5.4822,-4.14634,57.1037,4.48171
791.913,53.2843,42.286,0,7.47965,5.49657,-2.66326,-30.2744,-3.75,-58.4756,-7.64251,-0.613125,5.38161,-4.81707,58.0488,4.29878
791.923,52.6648,41.9646,0,7.4533,5.89414,-2.81654,-28.689,-1.70732,-59.9085,-7.71675,-0.61552,5.29539,-5.09146,58.4756,4.42073
791.933,52.0295,41.6244,0,7.38145,6.11448,-2.55549,-28.7805,-1.58537,-60.122,-7.75986,-0.598755,5.16845,-5.12195,59.2378,4.2378
791.943,51.3801,41.3126,0,7.28325,6.3013,-2.73272,-29.0854,0.152439,-60.3659,-7.84369,-0.570015,5.30018,-5.36585,59.7561,4.26829
791.953,50.7176,40.988,0,7.08926,6.20071,-2.71116,-27.1951,1.64634,-62.378,-7.85327,-0.548459,5.18043,-5.70122,59.6341,4.42073
791.963,50.0237,40.6097,0,6.85934,6.4426,-2.35909,-27.3171,-2.5,-62.8049,-7.94907,-0.500559,4.91698,-6.34146,61.372,4.11585
791.973,49.3402,40.2249,0,7.01262,6.54319,-2.94108,-27.8354,1.40244,-63.5366,-8.02332,-0.443079,4.85949,-6.18902,62.8049,4.35976
791.983,48.6884,39.8347,0,7.05094,6.39231,-2.67284,-26.0366,0,-63.3841,-8.08798,-0.354463,4.79962,-7.43902,63.4756,4.42073
791.993,48.0166,39.4292,0,6.81383,6.52643,-2.48843,-23.872,-0.182927,-63.5366,-8.18618,-0.387993,4.70861,-8.68902,63.2622,4.84756
792.003,47.3708,39.0556,0,6.80904,6.445,-2.36388,-24.939,2.0122,-62.9573,-8.15265,-0.380808,4.76609,-9.96951,63.5366,5.27439
792.013,46.6945,38.6386,0,6.76593,6.63181,-2.62973,-24.8476,3.5061,-65.3354,-8.09038,-0.438289,4.45474,-10.5793,63.1707,5.54878
792.023,45.9914,38.1664,0,6.56714,6.76833,-2.28964,-23.9329,7.04268,-66.5244,-8.03529,-0.411943,4.10027,-10.0305,64.6951,6.18902
792.033,45.2607,37.8075,0,6.38512,6.95753,-1.99505,-22.7439,7.65244,-67.5305,-7.89398,-0.507744,4.45234,-10.0915,64.8171,6.76829
792.043,44.5101,37.3859,0,6.16239,7.05094,-2.02379,-24.7866,8.23171,-68.2012,-7.85087,-0.665815,4.08351,-9.48171,64.6341,7.59146
792.053,43.755,36.9402,0,6.057,7.09884,-1.84417,-23.5976,9.54268,-68.811,-7.84369,-0.761616,3.90388,-8.90244,66.4329,7.68293
792.063,43.0049,36.5331,0,6.03305,7.33355,-1.92799,-25.3354,10.1829,-67.7439,-7.9347,-0.838257,4.0404,-8.71951,65.8841,7.77439
792.073,42.2382,36.1067,0,5.84624,7.37906,-1.87291,-23.6585,9.78659,-68.811,-8.06164,-0.821492,3.94699,-9.14634,65,7.2561
792.083,41.4894,35.6528,0,6.02826,7.68562,-1.85375,-23.5366,11.311,-67.9878,-8.0808,-0.809517,3.76258,-8.78049,65.1219,7.0122
792.093,40.7451,35.2293,0,5.92049,7.67364,-2.08127,-23.9329,13.9329,-68.1098,-8.25803,-0.720901,3.89909,-8.32317,64.0549,7.16463
792.103,40.0081,34.7838,0,6.03066,8.18857,-1.55676,-20.9451,8.93293,-66.2805,-8.35143,-0.780776,3.76976,-7.53049,63.6585,7.0122
792.113,39.2566,34.3158,0,5.70254,8.18857,-1.49449,-25.3049,11.128,-66.1585,-8.44963,-0.771196,3.63564,-7.2561,63.2622,7.2561
792.123,38.5055,33.8651,0,5.33371,7.82932,-1.64777,-25.2134,11.0061,-66.4634,-8.51908,-0.845442,3.65959,-7.07317,63.2927,7.53049
792.133,37.7502,33.2921,0,5.29299,7.86524,-1.8777,-26.372,13.1707,-67.7439,-8.53585,-0.902922,3.05844,-5.85366,64.3902,7.59146
792.143,36.9984,32.7433,0,5.35766,7.89159,-1.77471,-26.9817,10.9146,-69.4207,-8.56699,-0.929268,3.0776,-4.84756,66.0061,7.43902
792.153,36.209,32.2331,0,4.92895,8.07601,-1.93278,-22.8963,8.87195,-69.1159,-8.64602,-0.929268,3.17819,-5.15244,65.2744,7.65244
792.163,35.4088,31.6912,0,4.79243,8.44005,-1.40588,-21.7988,7.0122,-68.1402,-8.76817,-0.969983,2.99617,-5.18293,63.7805,7.86585
792.173,34.5972,31.1444,0,4.73495,8.52387,-0.857417,-26.9512,2.31707,-69.8476,-8.85199,-0.965193,2.90995,-5.70122,63.4756,7.83537
792.183,33.7935,30.6186,0,4.56491,8.5598,-1.07057,-24.1159,4.17683,-68.689,-8.92145,-0.900527,2.92911,-5.12195,62.8963,7.95732
792.193,32.9711,30.1057,0,4.5697,9.04838,-0.934058,-27.8659,2.31707,-69.6341,-8.94779,-0.835862,2.90276,-4.66463,62.0732,8.59756
792.203,32.1438,29.5436,0,4.52898,9.01246,-1.27176,-33.4451,1.89024,-71.5854,-9.07952,-0.747246,2.64171,-4.05488,62.9878,9.02439
792.213,31.2591,29.0701,0,4.26792,9.36692,-1.30768,-35.3354,2.71341,-74.6646,-9.22083,-0.835862,2.9794,-4.45122,64.5732,9.08537
792.223,30.3591,28.5511,0,4.15775,9.05317,-1.52802,-30.7927,-1.25,-78.3841,-9.38608,-0.910107,2.7423,-5.42683,65.1219,8.5061
792.233,29.3855,27.8661,0,3.95657,9.51302,-0.754431,-36.9512,-8.38415,-83.4756,-9.46991,-1.0586,1.94236,-5.33537,67.9878,7.5
792.243,28.4653,27.2133,0,4.16254,9.78844,-1.06099,-37.7744,-5.45732,-80.9451,-9.52978,-1.11608,1.97829,-4.5122,70,6.92073
792.253,27.7478,26.5766,0,5.12534,9.90101,-1.55197,-27.9878,-6.85976,-70.9756,-9.46033,-1.23344,1.92081,-3.41463,69.0549,6.7378
792.263,27.0666,25.8914,0,4.87147,9.39087,-0.452659,-30.8841,-3.59756,-68.8415,-9.26394,-1.28373,1.56874,-2.28659,68.2927,7.31707
792.273,26.4279,25.3203,0,4.67508,9.15137,-1.22146,-37.1951,9.32927,-65.1524,-9.00048,-1.12326,1.88009,-2.16463,66.5854,8.23171
792.283,25.8574,24.6841,0,4.63676,8.63165,-1.64059,-35.061,5.79268,-61.9207,-8.66997,-0.991538,1.46336,-1.61585,65.6707,9.93902
792.293,25.3831,24.0049,0,4.53377,8.0305,-1.93278,-26.7378,13.0793,-55.7317,-8.28677,-0.754431,1.14482,-1.4939,67.3781,11.7988
792.303,24.8217,23.4251,0,3.78653,7.38385,-1.07057,-35.0305,21.0671,-60.8841,-8.08559,-0.62989,1.38193,-1.58537,67.9268,13.2317
792.313,24.1862,22.8586,0,3.36261,6.67252,-1.88967,-38.75,18.0793,-68.7805,-7.94188,-0.519719,1.32205,-1.7378,66.7683,14.0854
792.323,23.5756,22.2938,0,3.65959,7.05812,-2.21539,-30.5488,15.0305,-68.8719,-7.88201,-0.502954,1.23823,-2.28659,67.2256,14.1463
792.333,22.9637,21.7632,0,4.16254,6.21268,-1.79866,-44.0244,23.3537,-83.3537,-7.84369,-0.505349,1.27415,-2.65244,66.7683,13.811
792.343,21.5529,21.2147,0,-0.184417,7.09165,-1.00351,-35.1829,2.53049,-94.0549,-7.87003,-0.531694,1.14003,-3.23171,66.7988,12.9268
792.353,20.4872,20.6639,0,0.924478,9.58487,2.46687,-24.4512,-22.8963,-76.0061,-7.89398,-0.61552,1.0586,-3.41463,67.5,11.5244
792.363,19.7954,20.2016,0,3.26681,9.16574,-0.0455054,-32.8049,-2.31707,-68.811,-7.97062,-0.723296,1.30768,-3.53659,66.0366,10.3354
792.373,19.2599,19.7456,0,3.87275,8.44005,-1.52563,-21.9512,11.5244,-64.5427,-8.06882,-0.811912,1.27894,-4.39024,64.5122,9.08537
792.383,18.6897,19.2736,0,3.08,8.63884,-0.177231,-20.8232,9.66463,-58.9329,-8.10714,-0.917292,1.15919,-4.57317,62.8659,7.68293
792.393,18.2268,18.8364,0,3.33626,8.20055,-0.282612,-22.1646,15.8841,-54.2683,-8.19815,-0.958008,1.23104,-4.2378,61.7683,7.19512
792.403,17.8599,18.4513,0,3.76497,8.35383,-0.819097,-21.311,23.5976,-49.7561,-8.31311,-0.981958,1.37714,-4.32927,59.7866,6.61585
792.413,17.4505,18.1,0,3.13508,8.3179,-0.100591,-23.3537,16.8902,-47.4695,-8.35862,-0.969983,1.45378,-4.84756,57.9268,6.64634
792.423,17.0891,17.7219,0,3.0273,8.464,-0.522114,-21.5854,10.2744,-41.4329,-8.4161,-0.941243,1.30768,-5.21341,56.5549,6.25
792.433,16.7447,17.3562,0,2.692,8.6077,-0.479004,-18.9329,4.87805,-35.7012,-8.57417,-0.905317,1.32205,-5.2439,55.9756,6.64634
792.443,16.419,16.9736,0,2.59141,8.74661,-0.311353,-18.2927,-0.548781,-32.7439,-8.67237,-0.826282,1.21427,-5.33537,55.9451,6.85976
792.453,16.0858,16.5342,0,2.32077,9.05078,-0.0359253,-18.0488,-3.01829,-29.8476,-8.86397,-0.821492,0.955613,-4.90854,55.7317,7.22561
792.463,15.7148,16.0678,0,2.02858,9.26154,-0.177231,-17.0122,-3.81098,-30.2439,-9.08431,-0.814307,0.799937,-3.96341,55.6402,7.28659
792.473,15.3138,15.5861,0,1.81303,9.37171,-0.174836,-16.3415,-6.18902,-31.189,-9.34297,-0.883762,0.682581,-2.59146,55.3963,7.2561
792.483,14.899,15.0756,0,1.86333,9.39806,-0.0622705,-18.5976,-6.55488,-33.9634,-9.57289,-0.833467,0.495769,-1.40244,54.6951,7.59146
792.493,14.5274,14.5796,0,2.31119,9.26394,-0.0862207,-17.7134,-8.56707,-36.0976,-9.69025,-0.720901,0.476609,0.0914634,53.689,7.71341
792.503,14.1293,14.0774,0,2.11959,9.11784,-0.0407153,-17.8963,-9.69512,-37.6829,-9.78126,-0.58199,0.368833,0.853659,52.6829,8.93293
792.513,13.7749,13.5789,0,2.43573,9.28789,-0.0718506,-15.8537,-10.0305,-37.3171,-9.91059,-0.490979,0.301772,1.34146,51.6463,9.84756
792.523,13.3969,13.099,0,2.13636,9.35734,0.306563,-14.0244,-7.68293,-36.7073,-10.0184,-0.495769,0.299377,1.0061,50.6402,11.311
792.533,13.041,12.5856,0,2.18186,9.34537,0.203577,-12.5,-2.19512,-35.7927,-10.0447,-0.536484,0.0670605,0.396341,50.1829,11.6463
792.543,12.6794,12.0598,0,1.99984,9.50104,0.728086,-10.3659,-0.792683,-34.5427,-10.0782,-0.60594,-0.0790356,-0.152439,48.9939,11.7683
792.553,12.3207,11.5151,0,1.92799,9.58487,0.953218,-10.9146,0.457317,-33.9329,-10.0591,-0.656235,-0.256267,0.396341,47.9268,11.189
792.563,11.9884,10.9682,0,1.91602,9.6663,0.725691,-12.4695,4.11585,-31.6463,-10.0327,-0.718506,-0.361648,1.52439,46.5854,10.4573
792.573,11.6354,10.438,0,1.60706,9.10347,0.435894,-11.4939,12.5,-31.9817,-9.99681,-0.775986,-0.383203,3.2622,45.5793,9.29878
792.583,11.2504,9.90464,0,1.36037,9.29747,0.356858,-11.372,15.6707,-32.5305,-9.99202,-0.761616,-0.490979,5.03049,43.9024,8.2622
792.593,10.8693,9.39517,0,1.21427,9.50104,0.378413,-10.7317,16.25,-30.7927,-9.97526,-0.728086,-0.479004,7.0122,42.7439,7.2561
792.603,10.4554,8.91183,0,0.754431,9.45554,0.282612,-10.9146,14.8171,-29.3598,-9.94891,-0.692161,-0.452659,8.44512,41.4939,6.70732
792.613,10.0516,8.44478,0,0.680186,9.53218,0.593965,-12.3171,10.3354,-28.2012,-9.97047,-0.60115,-0.467029,9.84756,40.5183,6.40244
792.623,9.67114,7.97177,0,0.66342,9.63995,0.399968,-14.2988,5.39634,-26.3415,-10.0471,-0.63468,-0.579595,10.9451,40.0915,6.12805
792.633,9.33298,7.54751,0,0.850232,9.60642,0.416733,-13.9329,0.823171,-25.0915,-10.1261,-0.524509,-0.450264,11.7378,39.5732,6.31098
792.643,9.0372,7.13929,0,0.979563,9.73096,0.462239,-14.8476,-3.29268,-22.8659,-10.198,-0.498164,-0.457449,12.1341,38.9024,6.40244
792.653,8.7515,6.75623,0,0.893342,9.7142,0.411943,-16.128,-6.79878,-21.4329,-10.2962,-0.443079,-0.421523,11.9817,38.2927,6.98171
792.663,8.49095,6.37066,0,0.953218,9.75012,0.450264,-16.9817,-10.7622,-20.122,-10.3513,-0.476609,-0.505349,11.7683,37.4695,7.19512
792.673,8.26855,5.98192,0,1.08734,9.77168,0.574805,-17.622,-13.4756,-18.3232,-10.3321,-0.428708,-0.589175,11.25,36.8293,7.46951
792.683,8.0898,5.58016,0,1.23344,9.73815,0.471819,-17.8049,-16.4329,-16.0976,-10.3153,-0.416733,-0.718506,11.25,36.2195,7.7439
792.693,7.94002,5.15641,0,1.346,9.69264,0.316143,-17.1037,-18.2927,-14.9085,-10.2172,-0.342488,-0.883762,10.8841,35.7317,7.5
792.703,7.81513,4.71256,0,1.42264,9.63037,0.387993,-15.2134,-18.5671,-13.689,-10.1645,-0.359253,-1.04662,11.311,34.939,7.71341
792.713,7.70569,4.27237,0,1.48252,9.7142,0.385598,-13.811,-17.5305,-12.9268,-10.1669,-0.366438,-1.11129,11.5549,33.4146,7.59146
792.723,7.63316,3.83854,0,1.64777,9.70462,0.469424,-13.1402,-16.4024,-11.3415,-10.1118,-0.450264,-1.15679,11.6768,31.6463,7.37805
792.733,7.6058,3.39551,0,1.88249,9.63037,0.502954,-11.5549,-15.0305,-9.78659,-10.1597,-0.488584,-1.28373,11.8902,29.8476,7.16463
792.743,7.60655,2.99464,0,1.96392,9.5681,0.438289,-9.84756,-12.3171,-8.07927,-10.2219,-0.426313,-1.18074,12.3476,27.9573,7.16463
792.753,7.6156,2.5792,0,1.88967,9.45314,0.383203,-7.16463,-10.3963,-6.64634,-10.0854,-0.469424,-1.30529,11.6463,24.6037,7.04268
792.763,7.6386,2.19434,0,1.90644,9.58726,0.474214,-5.82317,-8.68902,-5.15244,-10.0926,-0.366438,-1.24541,10.7927,21.189,7.2561
792.773,7.64271,1.78401,0,1.60945,9.79803,0.66342,-6.52439,-7.40854,-3.2622,-10.0591,-0.335303,-1.42743,10.7317,18.3841,7.62195
792.783,7.64844,1.37103,0,1.61664,9.77886,0.493374,-5.7622,-6.89024,-3.23171,-10.1022,-0.316143,-1.52084,10.122,16.8293,7.86585
792.793,7.63026,0.940956,0,1.35558,9.84593,0.766406,-4.7561,-6.98171,-2.31707,-10.0591,-0.273032,-1.66693,9.57317,16.2195,8.04878
792.803,7.60198,0.50903,0,1.26457,9.82677,0.732876,-4.69512,-7.34756,-2.16463,-10.0423,-0.225132,-1.75076,8.38415,15.5183,8.07927
792.813,7.57148,0.0615981,0,1.24302,9.82197,0.661025,-3.9939,-7.04268,-2.16463,-9.99921,-0.225132,-1.89207,7.77439,15.122,8.47561
792.823,7.54441,-0.367046,0,1.25739,9.79563,0.692161,-3.62805,-7.80488,-2.13415,-9.98484,-0.251477,-1.88488,7.10366,14.6646,8.47561
792.833,7.51432,-0.805388,0,1.22386,9.82197,0.802332,-2.9878,-8.71951,-1.95122,-9.97286,-0.249082,-2.00463,6.03659,14.2988,8.47561
792.843,7.48741,-1.24927,0,1.22625,9.76689,0.713716,-3.41463,-8.78049,-1.79878,-9.88185,-0.325723,-2.09085,5.51829,13.7195,8.14024
792.853,7.47249,-1.67403,0,1.31008,9.78605,0.787961,-3.29268,-8.47561,-1.89024,-9.8555,-0.352068,-2.07888,4.66463,12.9878,7.80488
792.863,7.45976,-2.06793,0,1.35558,9.69504,0.689766,-3.84146,-7.16463,-2.46951,-9.82197,-0.340093,-2.00942,4.14634,11.8293,7.59146
792.873,7.44637,-2.45074,0,1.36516,9.71899,0.735271,-3.65854,-5.7622,-2.62195,-9.80042,-0.373623,-2.02619,3.5061,10.8232,7.53049
792.883,7.43576,-2.80594,0,1.43222,9.67588,0.708926,-4.11585,-4.11585,-3.23171,-9.82437,-0.392783,-1.97589,3.47561,9.63415,6.98171
792.893,7.42695,-3.15105,0,1.47294,9.65911,0.63947,-4.11585,-2.22561,-3.56707,-9.87467,-0.354463,-2.00463,2.62195,8.78049,6.67683
792.903,7.42139,-3.45863,0,1.46336,9.70941,0.656235,-3.81098,-0.579268,-3.10976,-9.89862,-0.275427,-1.90165,2.34756,7.92683,6.21951
792.913,7.41757,-3.75905,0,1.48252,9.7118,0.560435,-3.38415,0.27439,-3.17073,-9.94173,-0.246687,-1.93278,2.22561,7.46951,6.18902
792.923,7.40414,-4.05405,0,1.37474,9.67588,0.514929,-2.71341,2.0122,-2.89634,-9.89143,-0.289797,-1.95194,2.28659,6.89024,5.79268
792.933,7.38095,-4.34085,0,1.31966,9.67827,0.548459,-2.40854,3.01829,-3.17073,-9.89622,-0.253872,-1.96871,2.13415,6.85976,5.15244
792.943,7.35585,-4.62864,0,1.28613,9.71659,0.510139,-1.98171,1.98171,-2.92683,-9.82437,-0.285007,-2.00942,1.98171,6.55488,4.5122
792.953,7.31816,-4.89541,0,1.14961,9.76689,0.490979,-2.2561,0.792683,-2.28659,-9.85072,-0.294587,-1.9711,1.67683,6.34146,3.9939
792.963,7.27836,-5.163,0,1.1041,9.81719,0.536484,-2.62195,-1.76829,-1.40244,-9.80521,-0.347278,-2.01182,1.52439,5.94512,3.10976
792.973,7.26503,-5.42688,0,1.24062,9.81719,0.548459,-2.95732,-3.41463,-1.12805,-9.83395,-0.373623,-2.04535,1.15854,5.30488,2.77439
792.983,7.2816,-5.69541,0,1.34121,9.82437,0.56283,-2.77439,-4.93902,-0.487805,-9.83635,-0.383203,-2.10762,1.0061,4.72561,2.56098
792.993,7.33135,-5.9455,0,1.4418,9.71659,0.519719,-2.95732,-6.18902,-0.396341,-9.83156,-0.385598,-2.06451,0.884146,4.29878,2.31707
793.003,7.41515,-6.19627,0,1.51126,9.68306,0.560435,-2.28659,-5.73171,-0.121951,-9.80042,-0.364043,-2.09804,0.243902,4.02439,2.34756
793.013,7.51596,-6.45217,0,1.55437,9.6663,0.627495,-0.945122,-4.81707,-0.0304878,-9.81479,-0.395178,-2.16031,-0.762195,3.75,2.10366
793.023,7.59339,-6.71297,0,1.54,9.72857,0.723296,-0.304878,-3.38415,0.182927,-9.8076,-0.390388,-2.23934,-1.15854,4.14634,2.43902
793.033,7.68809,-6.95707,0,1.58311,9.69264,0.56762,0,-1.03659,-0.0609756,-9.75491,-0.364043,-2.20102,-1.67683,4.2378,2.5
793.043,7.78201,-7.17864,0,1.59748,9.7142,0.62989,0.579268,0.762195,0.0304878,-9.75491,-0.404758,-2.12917,-2.62195,3.68902,2.65244
793.057,7.82503,-7.40239,0,1.52563,9.81,0.744851,0.426829,2.89634,-0.365854,-9.73815,-0.376018,-2.1651,-3.68902,3.47561,2.86585
793.064,7.84062,-7.6205,0,1.46336,9.87706,0.816702,-0.121951,3.68902,-0.670732,-9.7597,-0.387993,-2.15073,-4.32927,2.86585,2.9878
793.073,7.83158,-7.84572,0,1.36037,9.79084,0.754431,-0.213415,5.4878,-1.15854,-9.73336,-0.385598,-2.19623,-5.33537,2.68293,3.47561
793.083,7.80695,-8.07124,0,1.28613,9.73575,0.785566,0.396341,6.89024,-1.67683,-9.76689,-0.354463,-2.23455,-5.7622,2.53049,3.5061
793.093,7.76775,-8.29893,0,1.2023,9.80521,0.826282,0.0914634,8.62805,-1.89024,-9.76449,-0.347278,-2.25611,-6.58537,2.28659,3.62805
793.103,7.72383,-8.50565,0,1.18074,9.8076,0.720901,0.243902,8.59756,-2.31707,-9.76449,-0.421523,-2.23695,-6.67683,2.5,3.5061
793.113,7.68705,-8.72651,0,1.21188,9.6663,0.66342,-0.0609756,8.68902,-2.34756,-9.73336,-0.467029,-2.25611,-6.46341,1.98171,3.5061
793.123,7.64534,-8.94964,0,1.17356,9.69743,0.701741,0.670732,7.89634,-2.34756,-9.74533,-0.498164,-2.24174,-5.91463,1.58537,3.14024
793.133,7.60653,-9.17081,0,1.18314,9.77407,0.684976,0.243902,6.21951,-2.10366,-9.75012,-0.57241,-2.24892,-5.91463,1.43293,3.14024
793.143,7.57817,-9.39719,0,1.21427,9.72857,0.65384,0.701219,5.45732,-1.43293,-9.73336,-0.584385,-2.29443,-5.30488,1.40244,2.7439
793.153,7.53557,-9.64124,0,1.13284,9.8076,0.684976,-0.0609756,4.54268,-1.06707,-9.73336,-0.603545,-2.33035,-4.57317,1.12805,3.01829
793.163,7.50168,-9.86571,0,1.17116,9.79323,0.641865,-0.213415,2.77439,-1.15854,-9.74773,-0.622705,-2.39023,-4.02439,1.43293,2.86585
793.173,7.49361,-10.13,0,1.27894,9.76689,0.66342,-0.487805,2.13415,-0.670732,-9.7621,-0.617915,-2.3543,-3.81098,0.640244,3.20122
793.183,7.49285,-10.3904,0,1.30289,9.75252,0.627495,-0.396341,2.37805,-0.579268,-9.8076,-0.641865,-2.32556,-3.71951,0.335366,2.7439
793.193,7.49119,-10.6884,0,1.30289,9.80042,0.720901,-0.365854,1.4939,-0.518293,-9.7621,-0.62031,-2.33035,-3.75,0.0304878,3.01829
793.203,7.47974,-10.9159,0,1.23583,9.72617,0.656235,-0.609756,1.0061,0.182927,-9.75491,-0.613125,-2.31119,-3.81098,-0.27439,2.83537
793.213,7.4805,-11.1966,0,1.26697,9.73575,0.6251,-0.27439,0.640244,0.396341,-9.69504,-0.579595,-2.37825,-4.02439,0.0914634,3.10976
793.223,7.48928,-11.4628,0,1.29331,9.75491,0.524509,0.0304878,0.213415,0.609756,-9.64235,-0.570015,-2.39262,-3.62805,0.152439,3.17073
793.233,7.5288,-11.6802,0,1.42504,9.71659,0.512534,0.487805,-0.0914634,0.853659,-9.63516,-0.59636,-2.39023,-3.53659,0.335366,3.62805
793.243,7.56929,-11.8734,0,1.42743,9.70462,0.63947,0.914634,-0.0609756,0.609756,-9.59445,-0.65384,-2.3543,-3.75,0.304878,3.68902
793.253,7.59454,-12.0985,0,1.37235,9.71659,0.64426,0.609756,-0.27439,0.548781,-9.60163,-0.64905,-2.47645,-3.44512,0.365854,3.84146
793.263,7.59448,-12.2535,0,1.28373,9.79803,0.742456,0.762195,-0.0609756,0.548781,-9.63277,-0.64426,-2.4525,-3.38415,0.762195,3.62805
793.273,7.57618,-12.3992,0,1.21188,9.86988,0.747246,0.182927,0.27439,0.548781,-9.67588,-0.66342,-2.49561,-3.14024,0.884146,3.93293
793.283,7.55614,-12.5353,0,1.24062,9.8076,0.687371,0.0609756,0.213415,-0.365854,-9.64714,-0.60594,-2.41657,-3.10976,0.457317,3.93293
793.293,7.54959,-12.6875,0,1.28373,9.76449,0.684976,0.213415,0.670732,-0.365854,-9.70222,-0.62989,-2.47645,-3.04878,0.304878,4.29878
793.303,7.54577,-12.802,0,1.31247,9.77886,0.725691,0.335366,0.97561,-0.762195,-9.72617,-0.613125,-2.41178,-2.89634,0.152439,4.14634
793.313,7.53236,-12.9017,0,1.27176,9.81,0.718506,0.762195,1.28049,-0.792683,-9.69983,-0.574805,-2.39023,-2.59146,-0.121951,4.42073
793.323,7.50565,-12.997,0,1.20948,9.82916,0.713716,0.518293,1.7378,-0.97561,-9.70701,-0.59636,-2.42615,-2.59146,-0.335366,4.42073
793.333,7.47121,-13.0912,0,1.16637,9.84593,0.713716,0.27439,0.97561,-0.853659,-9.66869,-0.61073,-2.43094,-2.62195,-0.365854,5.09146
793.343,7.45019,-13.1948,0,1.22386,9.76689,0.62031,-0.518293,0.518293,-1.03659,-9.68785,-0.684976,-2.46208,-2.04268,-0.243902,5.12195
793.353,7.44647,-13.3056,0,1.29092,9.74533,0.684976,0,0.457317,-0.762195,-9.69504,-0.723296,-2.47645,-1.4939,-0.0609756,5.45732
793.363,7.45103,-13.3833,0,1.32684,9.78844,0.696951,-0.0609756,-0.152439,-0.640244,-9.68306,-0.742456,-2.43573,-1.37195,-0.121951,5.57927
793.373,7.44462,-13.4376,0,1.28613,9.80042,0.673001,-0.152439,-0.0914634,-0.762195,-9.7118,-0.766406,-2.44292,-0.670732,-0.579268,5.64024
793.383,7.42702,-13.4788,0,1.23104,9.82197,0.661025,-0.121951,0.0304878,-0.579268,-9.69025,-0.742456,-2.41418,-0.243902,-0.579268,5.67073
793.393,7.41141,-13.5465,0,1.23823,9.79563,0.656235,-0.213415,-0.335366,-0.762195,-9.68306,-0.704136,-2.49801,0.0609756,-0.762195,5.88415
793.403,7.39556,-13.5794,0,1.24062,9.80042,0.694556,-0.670732,-1.21951,-0.945122,-9.68067,-0.699346,-2.41657,0.304878,-0.731707,6.03659
793.413,7.37826,-13.6167,0,1.22146,9.7621,0.632285,-0.426829,-1.52439,-0.762195,-9.67588,-0.632285,-2.42855,-0.243902,-0.640244,6.21951
793.423,7.358,-13.6524,0,1.20948,9.83395,0.665815,-0.823171,-1.89024,-0.609756,-9.65911,-0.59157,-2.42376,-0.579268,-0.579268,6.31098
793.433,7.34435,-13.6855,0,1.24302,9.81479,0.632285,-0.945122,-2.31707,-0.914634,-9.63756,-0.62989,-2.42136,-0.365854,-0.670732,6.4939
793.443,7.34307,-13.7208,0,1.30289,9.79803,0.63468,-0.914634,-2.71341,-0.945122,-9.66869,-0.646655,-2.43334,-0.0914634,-0.457317,6.58537
793.453,7.32636,-13.7534,0,1.23344,9.79563,0.5772,-1.37195,-2.92683,-1.18902,-9.66151,-0.708926,-2.44771,0.0914634,-0.884146,6.7378
793.463,7.3092,-13.7659,0,1.20948,9.78126,0.651445,-1.28049,-3.20122,-0.640244,-9.67348,-0.704136,-2.4022,0.457317,-0.884146,6.70732
793.473,7.29267,-13.8038,0,1.21427,9.81,0.66342,-1.40244,-3.04878,-0.731707,-9.63516,-0.673001,-2.44771,0.487805,-0.548781,7.22561
793.483,7.28668,-13.842,0,1.26936,9.81958,0.6251,-1.67683,-3.17073,-0.884146,-9.67109,-0.708926,-2.46208,1.03659,-0.457317,7.13415
793.493,7.27758,-13.863,0,1.25739,9.75731,0.65863,-1.4939,-3.04878,-1.12805,-9.73096,-0.713716,-2.44531,1.34146,-0.396341,7.07317
793.503,7.26769,-13.8567,0,1.2526,9.75252,0.641865,-1.64634,-3.23171,-1.15854,-9.75731,-0.773591,-2.39262,1.64634,-0.609756,6.79878
793.513,7.25705,-13.8674,0,1.2526,9.78366,0.704136,-1.64634,-4.08537,-1.18902,-9.74773,-0.740061,-2.43573,1.61585,-0.914634,6.76829
793.523,7.23886,-13.8684,0,1.21667,9.76689,0.656235,-1.82927,-4.2378,-1.40244,-9.76689,-0.65863,-2.41418,1.7378,-0.518293,6.58537
793.533,7.21798,-13.8568,0,1.19511,9.77886,0.651445,-1.95122,-4.02439,-1.31098,-9.69025,-0.617915,-2.36388,1.46341,-0.701219,6.40244
793.543,7.21182,-13.8705,0,1.30529,9.77168,0.617915,-2.22561,-3.96341,-1.70732,-9.64714,-0.59636,-2.41418,1.7378,-0.701219,6.40244
793.553,7.21126,-13.8717,0,1.31726,9.69504,0.61552,-1.92073,-2.92683,-1.58537,-9.6639,-0.61552,-2.39023,1.58537,-0.853659,6.15854
793.563,7.21661,-13.8646,0,1.36037,9.71659,0.66342,-1.89024,-2.10366,-1.61585,-9.66151,-0.598755,-2.36628,1.34146,-1.09756,6.43293
793.573,7.21558,-13.8368,0,1.36995,9.75731,0.58678,-1.70732,-2.13415,-2.07317,-9.70222,-0.617915,-2.30401,1.43293,-1.4939,6.28049
793.583,7.21312,-13.811,0,1.33882,9.81719,0.550855,-1.40244,-1.21951,-1.7378,-9.73575,-0.61552,-2.31359,1.09756,-1.46341,6.03659
793.593,7.19735,-13.7938,0,1.2526,9.78844,0.58199,-1.09756,-1.15854,-1.82927,-9.7621,-0.61073,-2.33993,1.09756,-1.7378,6.4939
793.603,7.17078,-13.7823,0,1.18074,9.81719,0.63947,-1.18902,-2.46951,-1.82927,-9.77168,-0.627495,-2.35909,1.0061,-1.7378,6.28049
793.613,7.1511,-13.7709,0,1.21427,9.79563,0.716111,-1.28049,-2.43902,-1.7378,-9.73336,-0.689766,-2.34951,1.15854,-1.61585,6.55488
793.623,7.12524,-13.764,0,1.18553,9.79563,0.720901,-1.37195,-3.35366,-2.0122,-9.70222,-0.689766,-2.3543,0.670732,-1.92073,6.43293
793.633,7.11162,-13.7608,0,1.2502,9.79323,0.694556,-1.70732,-3.35366,-1.79878,-9.68067,-0.682581,-2.36149,0.457317,-1.95122,6.37195
793.643,7.10723,-13.7393,0,1.30768,9.78126,0.725691,-1.89024,-2.9878,-1.79878,-9.6663,-0.66821,-2.28724,0.914634,-2.22561,6.25
793.653,7.10598,-13.7218,0,1.34121,9.7597,0.64905,-2.07317,-2.34756,-1.98171,-9.67588,-0.656235,-2.30401,0.670732,-1.92073,6.03659
793.663,7.10485,-13.7166,0,1.31726,9.76449,0.555645,-1.43293,-1.55488,-1.70732,-9.67827,-0.66821,-2.34712,0.762195,-1.61585,6.28049
793.673,7.1067,-13.7166,0,1.33642,9.78126,0.603545,-1.67683,-1.85976,-1.67683,-9.67109,-0.63468,-2.36149,1.03659,-1.21951,6.03659
793.683,7.10467,-13.6892,0,1.33403,9.75012,0.550855,-1.21951,-1.43293,-1.98171,-9.67827,-0.694556,-2.28485,0.823171,-1.06707,6.15854
793.693,7.11005,-13.678,0,1.38911,9.81,0.531694,-1.09756,-1.40244,-1.92073,-9.69504,-0.684976,-2.33035,0.914634,-1.03659,6.0061
793.703,7.11544,-13.6507,0,1.35319,9.75731,0.641865,-1.21951,-0.609756,-1.64634,-9.71659,-0.651445,-2.28485,0.731707,-1.12805,6.40244
793.713,7.12567,-13.6123,0,1.38432,9.75252,0.677791,-0.884146,-0.243902,-1.64634,-9.75731,-0.637075,-2.23455,0.182927,-1.7378,6.28049
793.723,7.12548,-13.5875,0,1.32445,9.76449,0.773591,-0.121951,0.884146,-1.67683,-9.75012,-0.613125,-2.27287,-0.152439,-1.82927,6.31098
793.733,7.11438,-13.5551,0,1.26218,9.8555,0.773591,-0.548781,1.7378,-1.61585,-9.75252,-0.560435,-2.24174,-0.762195,-1.82927,6.21951
793.743,7.09022,-13.5265,0,1.18314,9.85311,0.632285,-0.792683,2.2561,-1.76829,-9.78366,-0.608335,-2.25132,-0.823171,-2.10366,6.0061
793.753,7.05749,-13.5232,0,1.14961,9.81,0.651445,-0.701219,2.77439,-2.37805,-9.7621,-0.651445,-2.33754,-1.12805,-2.22561,6.03659
793.763,7.01467,-13.5251,0,1.08734,9.79803,0.699346,-0.609756,3.20122,-2.71341,-9.76928,-0.651445,-2.35909,-1.0061,-2.28659,6.43293
793.773,6.95604,-13.5281,0,0.977168,9.80521,0.708926,-0.335366,3.01829,-3.04878,-9.77407,-0.708926,-2.36628,-0.884146,-2.83537,6.31098
793.783,6.89626,-13.5236,0,0.974773,9.77886,0.764011,0.304878,1.76829,-3.35366,-9.76449,-0.740061,-2.33275,-0.670732,-3.35366,6.46341
793.793,6.84913,-13.5212,0,1.04423,9.72378,0.718506,1.55488,0.182927,-3.10976,-9.7597,-0.766406,-2.33993,-0.731707,-3.38415,6.52439
793.803,6.80401,-13.5013,0,1.04183,9.82677,0.708926,0.701219,-0.853659,-2.80488,-9.73815,-0.766406,-2.2585,-0.0304878,-3.68902,6.58537
793.813,6.75903,-13.4769,0,1.05381,9.81,0.752036,-0.0304878,-1.21951,-3.10976,-9.70701,-0.723296,-2.22737,0.0304878,-3.87195,6.95122
793.823,6.71927,-13.4388,0,1.07057,9.85311,0.869392,-0.396341,-1.18902,-2.80488,-9.69983,-0.682581,-2.1627,0.121951,-3.78049,6.76829
793.833,6.6841,-13.4018,0,1.1041,9.81,0.701741,-1.15854,-0.426829,-2.92683,-9.68546,-0.63947,-2.15791,0.0609756,-3.78049,6.79878
793.843,6.65102,-13.3564,0,1.10889,9.7597,0.706531,-0.914634,-0.121951,-2.92683,-9.68546,-0.62031,-2.1148,0.121951,-3.78049,6.64634
793.853,6.61555,-13.3266,0,1.10171,9.75252,0.60594,-0.0609756,-0.182927,-3.17073,-9.6639,-0.6251,-2.16989,0.243902,-3.65854,6.52439
793.863,6.58402,-13.2926,0,1.09452,9.8076,0.646655,-0.365854,-0.701219,-2.65244,-9.70941,-0.64426,-2.15552,0.121951,-3.84146,6.37195
793.873,6.54383,-13.2468,0,1.03465,9.8076,0.598755,-0.518293,-1.03659,-2.83537,-9.7621,-0.64426,-2.11001,0.426829,-3.75,6.43293
793.883,6.51174,-13.1875,0,1.07776,9.76689,0.732876,-1.28049,-1.7378,-2.71341,-9.76928,-0.627495,-2.04535,0.0914634,-3.71951,6.25
793.893,6.48073,-13.1385,0,1.07536,9.80042,0.723296,-1.79878,-2.28659,-2.59146,-9.76689,-0.637075,-2.07888,0.0609756,-3.75,6.46341
793.903,6.46634,-13.086,0,1.17116,9.74294,0.646655,-1.98171,-2.40854,-2.37805,-9.74054,-0.63468,-2.05014,-0.304878,-3.65854,6.18902
793.913,6.45527,-13.0526,0,1.18793,9.78126,0.708926,-2.46951,-1.40244,-2.2561,-9.7118,-0.63468,-2.1172,0.0304878,-3.53659,5.94512
793.923,6.44033,-13.0302,0,1.12805,9.80042,0.687371,-2.56098,-1.18902,-1.82927,-9.65432,-0.641865,-2.14594,-0.121951,-3.59756,5.91463
793.933,6.43168,-13.0031,0,1.16398,9.79084,0.716111,-3.17073,-1.0061,-1.79878,-9.64714,-0.66821,-2.12199,0.0609756,-3.2622,5.85366
793.943,6.4333,-12.9913,0,1.18074,9.78605,0.723296,-3.10976,-0.548781,-1.25,-9.63995,-0.701741,-2.17947,0.396341,-3.32317,6.0061
793.953,6.44332,-12.9738,0,1.20709,9.7621,0.728086,-3.93293,-1.0061,-1.06707,-9.70462,-0.725691,-2.16749,0.365854,-3.41463,5.79268
793.963,6.48368,-12.9365,0,1.29331,9.73096,0.752036,-4.54268,-0.640244,-0.609756,-9.76928,-0.833467,-2.09085,0.243902,-3.87195,5.51829
793.973,6.50589,-12.9215,0,1.24781,9.70222,0.847837,-5.57927,0.426829,-0.884146,-9.82437,-0.857417,-2.19384,0.518293,-4.78659,5.06098
793.983,6.54012,-12.9112,0,1.28134,9.59684,0.876577,-7.10366,2.13415,-0.853659,-9.82916,-0.919688,-2.213,1.64634,-5.54878,4.39024
793.993,6.58079,-12.8744,0,1.32684,9.60163,0.910107,-8.71951,4.17683,-0.914634,-9.80042,-0.938848,-2.08606,2.37805,-6.09756,3.38415
794.003,6.61105,-12.8548,0,1.23823,9.65432,0.847837,-9.63415,7.71341,-0.426829,-9.73815,-0.910107,-2.14354,3.01829,-6.95122,2.5
794.013,6.58887,-12.8312,0,1.0562,9.67827,0.728086,-10.3963,10.6707,-0.548781,-9.69264,-0.859812,-2.11241,3.62805,-7.07317,1.46341
794.023,6.53493,-12.8118,0,0.924478,9.63756,0.598755,-10.9146,11.9207,-0.670732,-9.67588,-0.838257,-2.12438,3.35366,-7.9878,0.365854
794.033,6.44454,-12.7782,0,0.819097,9.67109,0.395178,-11.0061,12.0122,-0.335366,-9.65432,-0.807122,-2.05253,2.71341,-7.80488,-0.640244
794.043,6.32843,-12.7911,0,0.704136,9.7118,0.179626,-10.4878,10.9756,-0.396341,-9.6663,-0.847837,-2.25611,2.16463,-6.95122,-1.21951
794.053,6.19948,-12.814,0,0.66342,9.88185,0.0598755,-9.96951,7.9878,-0.152439,-9.65432,-0.936453,-2.29922,1.92073,-5.97561,-1.43293
794.063,6.10855,-12.8589,0,0.768801,9.96328,0.0574805,-9.7561,2.77439,-0.0914634,-9.63756,-1.09213,-2.39502,1.76829,-4.7561,-1.18902
794.073,6.07736,-12.9193,0,0.960403,9.90341,0.102986,-10.3354,-1.92073,0,-9.63756,-1.28134,-2.46927,2.22561,-4.26829,-0.945122
794.083,6.10242,-12.9792,0,1.13045,9.86988,0.0766406,-11.0061,-4.63415,0.0304878,-9.63037,-1.50886,-2.47166,2.46951,-3.68902,-0.457317
794.093,6.14546,-13.0394,0,1.20948,9.82916,0.167651,-11.311,-5.67073,-0.213415,-9.63277,-1.61664,-2.48124,2.40854,-3.41463,-0.365854
794.103,6.21881,-13.1184,0,1.31726,9.92496,0.196392,-11.5549,-6.21951,0.0304878,-9.61121,-1.69328,-2.56986,2.92683,-3.53659,-0.548781
794.113,6.276,-13.2224,0,1.29092,9.89622,0.340093,-11.8902,-6.67683,0.304878,-9.50583,-1.66214,-2.62973,3.2622,-2.56098,-0.182927
794.123,6.32524,-13.3175,0,1.27655,9.93454,0.368833,-11.7378,-7.34756,0.27439,-9.42201,-1.67651,-2.52914,3.84146,-1.67683,0.0914634
794.133,6.39185,-13.4154,0,1.38672,9.95131,0.296982,-12.1951,-8.07927,0.548781,-9.32381,-1.59987,-2.49082,3.44512,-1.37195,0.579268
794.143,6.47527,-13.547,0,1.48491,9.94652,0.225132,-12.8354,-9.2378,0.609756,-9.26633,-1.57592,-2.49322,3.01829,-0.731707,1.64634
794.153,6.58323,-13.6393,0,1.59508,9.82197,0.107776,-12.8354,-9.45122,0.731707,-9.28549,-1.50647,-2.38065,1.18902,-0.182927,1.98171
794.163,6.67422,-13.6469,0,1.57113,9.77168,0.129331,-12.1037,-9.5122,1.18902,-9.38369,-1.48731,-2.28964,0.426829,0.243902,1.95122
794.173,6.74535,-13.6301,0,1.50886,9.80521,0.110171,-12.0427,-9.93902,2.16463,-9.44356,-1.46096,-2.24653,-0.914634,1.12805,1.79878
794.183,6.81491,-13.5876,0,1.46575,9.7597,0.0143701,-11.7073,-10.7012,3.14024,-9.57289,-1.47533,-2.18905,-1.92073,1.37195,1.55488
794.193,6.91775,-13.5302,0,1.64777,9.70701,-0.105381,-11.3415,-13.7195,4.63415,-9.59445,-1.43222,-2.13396,-2.83537,1.4939,1.61585
794.203,7.08882,-13.4364,0,2.02619,9.66869,-0.390388,-10.6402,-18.1402,7.40854,-9.58247,-1.43701,-2.05014,-3.47561,1.03659,1.7378
794.213,7.32861,-13.2143,0,2.38304,9.44356,-0.613125,-9.45122,-23.0183,10.0305,-9.58247,-1.4418,-1.89925,-3.84146,0.182927,1.95122
794.223,7.65766,-13.0455,0,2.84768,9.32381,-0.759221,-7.07317,-27.439,13.872,-9.54176,-1.40588,-1.85135,-4.39024,-0.762195,2.89634
794.233,8.08633,-12.8947,0,3.30273,9.14418,-0.821492,-5.06098,-29.1159,18.8415,-9.49146,-1.38432,-1.79147,-5.36585,-1.21951,3.68902
794.243,8.64256,-12.7632,0,3.84401,8.78493,-0.742456,-2.40854,-27.7134,25.0305,-9.58008,-1.42264,-1.74597,-5.97561,-1.89024,4.54268
794.253,9.3362,-12.663,0,4.35894,8.38257,-0.773591,1.28049,-24.2683,32.3476,-9.61121,-1.40109,-1.78908,-5.94512,-2.62195,5.06098
794.263,10.1555,-12.5816,0,4.77088,8.06882,-0.704136,6.31098,-20.0915,40.2134,-9.65432,-1.40109,-1.82979,-5.2439,-3.47561,5.42683
794.273,11.1028,-12.5057,0,5.11576,7.68083,-0.747246,12.1037,-15.6402,48.689,-9.6663,-1.31966,-1.82979,-4.78659,-4.63415,5.91463
794.283,12.1663,-12.4136,0,5.39358,7.33594,-0.883762,18.9939,-11.189,57.0427,-9.59205,-1.26697,-1.7292,-3.17073,-6.67683,6.31098
794.293,13.3217,-12.296,0,5.48459,6.99825,-1.08494,25.8232,-8.56707,65,-9.44356,-1.14003,-1.57832,-1.98171,-8.62805,7.16463
794.303,14.5805,-12.1852,0,5.74565,6.85694,-1.16398,32.3171,-2.5,74.0854,-9.25436,-1.01549,-1.55676,-0.27439,-10.2134,7.56098
794.313,15.9036,-12.0894,0,5.83666,7.05333,-0.946033,38.9939,-0.335366,83.9329,-9.07712,-0.876577,-1.57113,0.518293,-10.8841,7.62195
794.323,17.2409,-12.0069,0,5.68817,7.66885,-0.593965,44.1159,-0.853659,94.2988,-8.8951,-0.670605,-1.57832,1.40244,-11.0366,8.20122
794.333,18.6027,-11.936,0,6.02826,8.69153,-0.589175,47.5915,0.426829,103.232,-8.83044,-0.455054,-1.59987,0.548781,-10.8232,8.10976
794.343,19.9317,-11.9047,0,5.97557,10.0327,-0.285007,48.628,0.518293,110.762,-9.00048,-0.380808,-1.78189,-0.609756,-10.7622,8.17073
794.353,21.1637,-11.9357,0,5.41274,11.3787,-0.0143701,46.1585,0.121951,114.482,-9.30226,-0.332908,-2.10283,-1.15854,-10.3049,7.28659
794.363,22.3011,-12.0092,0,5.01038,12.3008,0.141306,41.8902,0.518293,114.024,-9.6639,-0.258662,-2.38065,-1.03659,-9.48171,6.25
794.373,23.3383,-12.0677,0,4.40205,12.2793,0.452659,38.5366,-0.121951,111.098,-10.1214,-0.265847,-2.43573,-0.0914634,-8.9939,5.64024
794.383,24.298,-12.1467,0,4.00926,11.9224,0.579595,37.1341,-2.5,107.622,-10.4782,-0.225132,-2.63213,0.97561,-7.83537,6.03659
794.393,25.1953,-12.2555,0,3.60211,11.4218,0.548459,39.2073,-6.92073,105.427,-10.7033,-0.131726,-2.85247,0.97561,-6.40244,7.13415
794.403,26.0107,-12.39,0,3.25723,10.9524,0.205972,43.5976,-9.08537,100.823,-10.7201,0.0239502,-3.00814,-0.0609756,-5.57927,8.9939
794.413,26.7382,-12.5564,0,3.08,11.0554,-0.0718506,50.7012,-9.72561,95.5488,-10.5405,0.237107,-3.14227,-2.71341,-5.09146,12.0122
794.423,27.4246,-12.7521,0,3.36979,11.156,-0.0287402,53.0488,-9.54268,90.3049,-10.3896,0.500559,-3.2716,-5.88415,-4.35976,13.8415
794.433,28.0427,-12.9643,0,3.35782,11.4242,0.0502954,53.2012,-10.2744,85.6098,-10.4088,0.65384,-3.39135,-9.39024,-3.68902,15.0305
794.443,28.6187,-13.1906,0,3.57337,11.3979,0.464634,51.4634,-13.7195,80.4878,-10.404,0.677791,-3.45601,-12.2256,-2.34756,15.061
794.453,29.1643,-13.4016,0,3.78892,10.9045,0.716111,50.3049,-20.6707,74.9695,-10.4686,0.742456,-3.40811,-14.1159,-1.7378,14.6951
794.463,29.6696,-13.5542,0,4.16494,10.7848,1.10889,49.4207,-24.1463,67.9878,-10.6267,0.752036,-3.25723,-15.2439,-2.13415,15.4878
794.473,30.1505,-13.6565,0,4.64394,10.4806,1.17356,47.3171,-22.4695,60.8537,-10.6483,0.61552,-3.06562,-16.6768,-2.71341,16.5549
794.483,30.6232,-13.72,0,5.04152,9.7621,0.778381,48.4146,-14.1768,54.0244,-10.5093,0.479004,-2.86684,-18.811,-3.90244,18.5671
794.493,31.0724,-13.7496,0,5.28581,9.55373,0.55325,50.6402,1.0061,49.2378,-10.2315,0.443079,-2.6441,-20.0305,-5.15244,20.3049
794.503,31.489,-13.7782,0,5.41753,9.39806,0.502954,50.6098,19.4512,44.7866,-9.93694,0.464634,-2.56986,-22.1341,-6.09756,22.8049
794.513,31.8918,-13.7932,0,5.27144,8.71308,0.376018,51.8902,38.689,41.7378,-9.70941,0.546064,-2.4549,-23.811,-6.82927,24.6646
794.523,32.2744,-13.8095,0,5.10618,8.28437,0.62031,51.2805,54.5732,39.5427,-9.53936,0.627495,-2.42136,-24.2378,-7.83537,25.7012
794.533,32.6359,-13.8472,0,4.94332,8.05445,0.969983,49.1463,66.3719,38.3841,-9.31663,0.65384,-2.46208,-24.9085,-8.56707,26.25
794.543,32.9832,-13.9195,0,4.81399,7.90835,1.18793,45.4268,73.811,38.1098,-9.12263,0.677791,-2.56746,-24.3598,-8.9939,25.9451
794.553,33.2737,-13.9903,0,4.42121,7.78381,1.08973,40.4878,77.8659,36.5549,-8.9933,0.637075,-2.53633,-23.9634,-9.02439,24.9695
794.563,33.4976,-14.0627,0,4.05477,7.45091,0.713716,36.9207,81.3415,32.4695,-8.92384,0.467029,-2.53633,-23.9024,-9.72561,23.7195
794.573,33.6331,-14.116,0,3.71228,7.26888,0.392783,33.3537,80.7012,26.9817,-8.95498,0.325723,-2.47645,-23.5671,-9.93902,21.9512
794.583,33.7053,-14.1671,0,3.62606,7.0677,0.220342,29.2683,77.6219,20.5793,-9.02443,0.208367,-2.49561,-23.3537,-10.4573,19.939
794.593,33.7128,-14.1938,0,3.47757,6.95514,-0.00239502,27.7744,71.4634,15.3354,-9.14897,0.170046,-2.43334,-23.6585,-10.8537,18.0793
794.603,33.6562,-14.2231,0,3.45122,7.20422,-0.134121,25.6707,63.5366,10.7927,-9.20406,0.189207,-2.46448,-23.3232,-11.2805,16.25
794.613,33.5496,-14.2495,0,3.32668,7.37187,-0.155676,23.7195,53.1402,8.29268,-9.29747,0.249082,-2.48124,-23.3841,-10.7622,14.7256
794.623,33.3947,-14.2677,0,3.21651,7.50599,-0.189207,22.5915,43.8415,5.91463,-9.38129,0.340093,-2.47166,-23.5976,-10.2744,13.2317
794.633,33.1982,-14.2748,0,3.27639,7.70238,0.102986,20.0915,34.2073,4.08537,-9.44117,0.426313,-2.44052,-23.811,-9.2378,11.8902
794.643,32.9126,-14.2914,0,3.365,7.80537,-0.160466,19.3293,26.0976,2.56098,-9.48907,0.455054,-2.49561,-24.1768,-8.17073,10.2439
794.653,32.026,-14.2925,0,3.20933,7.80297,-0.119751,19.1463,18.5976,-0.914634,-9.49865,0.471819,-2.43094,-24.4207,-7.40854,9.48171
794.663,31.7964,-14.3263,0,3.42967,7.92033,-0.160466,16.7683,12.561,-5.27439,-9.48188,0.445474,-2.57225,-24.2073,-6.82927,8.10976
794.673,31.5849,-14.391,0,3.83682,7.94428,-0.263452,15.8537,6.95122,-9.29878,-9.47709,0.407153,-2.71356,-24.6037,-5.67073,7.31707
794.683,31.3692,-14.465,0,4.04758,7.95386,-0.184417,14.5427,3.20122,-12.5915,-9.46033,0.373623,-2.75667,-24.9695,-4.57317,7.0122
794.693,31.1521,-14.5381,0,4.2296,7.92033,-0.155676,14.0854,2.19512,-15.4878,-9.53697,0.392783,-2.77822,-24.7561,-3.53659,6.46341
794.703,30.931,-14.5952,0,4.27271,7.76465,-0.0431104,13.3537,1.85976,-17.8049,-9.53218,0.421523,-2.72314,-25.6098,-3.81098,6.31098
794.713,30.7321,-14.6535,0,4.45474,7.75028,0.105381,11.4939,2.68293,-18.1707,-9.5226,0.510139,-2.7399,-25.9451,-4.2378,5.79268
794.723,30.4403,-14.7184,0,4.21523,7.87243,0.368833,11.4939,6.06707,-24.5427,-9.51302,0.641865,-2.77822,-26.4329,-4.39024,5.73171
794.733,30.0802,-14.7706,0,4.44755,8.38017,0.811912,8.07927,9.29878,-31.6768,-9.49625,0.811912,-2.73272,-26.7683,-5.57927,5.30488
794.743,29.7128,-14.8159,0,4.53138,7.87722,0.641865,3.44512,13.4756,-37.1341,-9.4747,0.910107,-2.70637,-27.439,-6.21951,4.87805
794.753,29.3477,-14.8618,0,4.77806,7.58982,0.373623,2.13415,16.8598,-42.3171,-9.48428,0.914897,-2.72074,-28.1402,-6.76829,3.65854
794.763,28.9789,-14.9301,0,4.89302,7.23296,-0.0431104,3.07927,17.5915,-47.2866,-9.42919,0.821492,-2.81415,-28.75,-6.95122,2.95732
794.773,28.6062,-15.0262,0,5.32413,7.47246,0.119751,2.5,14.7256,-51.2805,-9.4244,0.759221,-2.95066,-28.628,-6.67683,1.52439
794.783,28.2688,-15.1175,0,5.42472,6.99585,-0.263452,0.487805,5,-53.1707,-9.35016,0.656235,-2.92192,-27.8354,-6.37195,0.518293
794.793,28.0132,-15.2177,0,5.93246,6.87371,-0.543669,3.38415,-7.40854,-51.6463,-9.3286,0.62031,-2.97222,-26.7683,-6.4939,-0.213415
794.803,27.8251,-15.275,0,6.40907,6.78988,-0.802332,4.35976,-14.6646,-50.4878,-9.38848,0.60115,-2.81654,-25.3659,-7.2561,-0.304878
794.813,27.7094,-15.3152,0,6.89287,6.7827,-1.09452,5.51829,-19.0549,-47.8049,-9.56092,0.598755,-2.80217,-23.811,-9.08537,-0.335366
794.823,27.6809,-15.3204,0,7.01501,6.27495,-1.84896,12.561,-20.2134,-44.6951,-9.6639,0.5772,-2.68003,-22.2256,-10.7927,-0.731707
794.833,27.6182,-15.2918,0,7.17308,7.01501,-1.7292,15.5793,-16.9512,-43.0488,-9.71899,0.565225,-2.54351,-20.4573,-13.4756,-1.28049
794.843,27.5486,-15.2721,0,7.38145,7.64969,-1.61424,12.8049,-12.3476,-40.4878,-9.7142,0.62031,-2.57944,-18.9634,-15.5183,-2.04268
794.853,27.5297,-15.2294,0,7.78381,7.94907,-1.51844,11.0061,-7.9878,-36.311,-9.77168,0.59157,-2.48603,-17.3171,-16.311,-2.83537
794.863,27.529,-15.145,0,8.05206,8.56699,-1.27655,12.7744,-5,-32.1037,-9.92736,0.507744,-2.32556,-16.1585,-17.378,-3.59756
794.873,27.5008,-15.0294,0,8.29395,9.77647,-0.883762,14.1463,-4.84756,-28.9634,-10.301,0.320933,-2.24892,-14.7256,-18.2927,-4.17683
794.883,27.4049,-14.8601,0,7.95625,11.2686,-0.0479004,9.81707,-4.35976,-25.5488,-10.8446,-0.00479004,-2.07888,-11.6463,-19.6646,-4.14634
794.893,27.2308,-14.6227,0,7.3096,12.3631,0.459844,2.80488,-0.701219,-24.2683,-11.532,-0.318538,-1.82261,-7.37805,-23.1707,-2.31707
794.903,27.0487,-14.4316,0,7.02459,12.2026,0.524509,-2.5,5.36585,-24.0854,-12.1691,-0.732876,-2.12917,-1.52439,-25.7927,0.548781
794.913,27.0227,-14.2813,0,7.94428,11.3739,0.407153,0.396341,11.7683,-18.75,-12.332,-1.08734,-2.34472,3.65854,-26.128,4.63415
794.923,27.2413,-14.1606,0,8.79691,10.1405,0.177231,6.09756,16.5854,-6.09756,-11.999,-1.20709,-2.40939,8.14024,-24.7256,9.2378
794.933,27.6163,-14.0987,0,8.50711,8.84481,-0.0431104,17.4085,20.6402,4.20732,-11.3428,-0.900527,-2.56028,12.9878,-24.6037,13.3232
794.943,28.0914,-14.0492,0,8.34425,8.34185,-1.74357,28.811,28.628,12.9878,-10.7273,-0.366438,-2.47166,17.0427,-25.3354,17.2256
794.953,28.4613,-14.0128,0,6.68929,8.62686,-1.52323,33.5976,30.3354,17.9573,-10.3225,0.340093,-2.43334,21.0976,-26.9512,19.4207
794.963,28.6155,-13.9667,0,4.6152,9.12981,-1.55197,24.878,29.5427,19.0854,-10.0782,0.905317,-2.32317,24.0854,-26.7378,20.3049
794.973,28.4632,-13.9012,0,2.29682,8.78493,-1.96871,20.6707,30.3354,12.9573,-9.98244,1.34361,-2.20102,24.8171,-24.6646,19.7561
794.983,26.0808,-13.809,0,0.469424,8.86157,-1.59987,26.6159,28.5366,-0.182927,-9.94173,1.72681,-2.05493,23.0793,-21.1585,17.8659
794.993,25.2427,-13.6538,0,-0.869392,9.15137,-0.593965,33.689,19.6341,-21.2195,-9.96568,1.86572,-1.75315,19.6037,-18.0183,15.5793
795.003,24.2029,-13.4552,0,-0.986748,9.58726,0.160466,30.2439,4.63415,-42.5915,-9.98244,1.83458,-1.53042,15.5488,-15.2744,13.1098
795.013,23.1971,-13.1623,0,0.311353,9.33579,-0.0838257,22.2256,-9.45122,-57.1341,-10.2028,1.55437,-1.09452,10.8232,-13.3841,11.9817
795.023,22.4231,-12.824,0,2.53393,9.71899,-0.57241,17.2561,-8.90244,-61.4634,-10.4423,0.986748,-0.855022,6.64634,-12.2256,10.7317
795.033,21.8458,-12.4487,0,4.12662,10.1501,-0.828677,11.372,6.64634,-58.2927,-10.7488,0.196392,-0.63947,4.2378,-11.5549,9.78659
795.043,21.3917,-12.0498,0,4.67987,10.404,-0.325723,10.3354,19.8476,-51.189,-10.8494,-0.593965,-0.459844,4.35976,-10.6402,8.84146
795.053,20.9372,-11.6581,0,3.85359,10.4016,-0.332908,6.7378,32.4085,-44.2073,-10.8159,-1.18074,-0.416733,5.54878,-9.42073,7.80488
795.063,20.3315,-11.2523,0,1.93997,9.74773,-0.170046,4.96951,32.3171,-42.0427,-10.4854,-1.61903,-0.265847,7.16463,-8.23171,6.79878
795.073,19.5568,-10.6494,0,0.512534,9.21843,-0.134121,6.34146,17.3476,-44.0549,-10.1693,-0.881367,0.696951,2.34756,-10.3963,6.98171
795.083,18.6789,-10.2465,0,-0.138911,9.18729,-0.440684,5.21341,0.365854,-47.8963,-9.65432,-1.79626,-0.0886157,12.5,-7.46951,6.67683
795.093,17.8391,-9.73956,0,0.277822,9.47949,-1.18793,1.7378,-8.32317,-51.0061,-9.43398,-1.31487,0.402363,14.939,-5.97561,6.61585
795.103,17.0943,-9.18408,0,1.17356,9.47949,-2.01661,1.76829,-13.5671,-53.9939,-9.24478,-1.12805,0.673001,15.7927,-6.15854,5.97561
795.113,16.423,-8.59857,0,1.79387,9.63037,-2.08606,3.81098,-13.3232,-55.1524,-9.35495,-0.881367,0.907712,16.4024,-7.56098,5.39634
795.123,15.7819,-8.05309,0,2.04056,9.95131,-1.66933,3.41463,-9.57317,-55.5488,-9.43638,-0.684976,0.843047,16.8598,-6.92073,4.57317
795.133,15.1741,-7.52746,0,2.19623,9.74294,-1.62382,2.13415,-3.35366,-55.7317,-9.69025,-0.58199,0.874182,16.8902,-6.76829,3.62805
795.143,14.591,-7.02801,0,2.13875,9.45793,-1.93997,3.29268,-1.37195,-54.5427,-9.86988,-0.613125,0.862207,15.6402,-5.85366,3.2622
795.153,14.0563,-6.58991,0,2.24413,9.29028,-1.71244,4.20732,0,-52.5,-9.88664,-0.651445,0.656235,14.5427,-4.48171,2.2561
795.163,13.5807,-6.15644,0,2.43094,9.4244,-1.2981,2.31707,1.25,-49.3598,-9.76689,-0.754431,0.493374,13.4451,-2.56098,0.853659
795.173,13.1504,-5.55648,0,2.38065,9.35255,-1.14721,-0.97561,0.609756,-45.3354,-9.64714,-0.890947,0.258662,13.3232,-0.823171,-0.152439
795.183,12.711,-5.0378,0,1.99745,9.18011,-1.43222,-2.2561,1.85976,-43.0488,-9.50823,-0.953218,0.110171,14.6951,0.823171,-1.12805
795.193,12.2275,-4.86035,0,1.49928,9.26154,-1.43222,-3.20122,-1.28049,-42.1646,-9.48428,-1.04423,-0.201182,16.9512,2.68293,-1.64634
795.203,11.7062,-4.69956,0,1.11368,9.29028,-1.42504,-4.54268,-7.37805,-42.1951,-9.62558,-1.04662,-0.201182,19.5427,2.9878,-2.07317
795.213,11.1688,-4.62609,0,0.934058,9.44835,-1.57592,-5.88415,-13.3537,-42.4695,-9.72138,-1.13524,-0.483794,22.5,4.84756,-2.34756
795.223,10.6421,-4.5259,0,0.950823,9.63995,-1.54479,-6.61585,-19.4207,-42.439,-9.93933,-1.16398,-0.361648,24.9695,5.57927,-3.32317
795.233,10.1208,-4.43501,0,0.852627,9.60403,-1.47294,-6.82927,-26.2805,-41.8293,-10.0423,-1.16158,-0.387993,26.6768,5.7622,-4.5122
795.243,9.61708,-4.38676,0,0.847837,9.69743,-1.36756,-9.11585,-32.6829,-40.9451,-10.0303,-1.14721,-0.55804,27.9573,6.89024,-5.36585
795.253,9.14445,-4.35403,0,0.979563,9.62798,-1.60706,-11.4024,-37.1341,-40.4573,-9.96089,-0.958008,-0.613125,29.2073,7.77439,-6.28049
795.263,8.70615,-4.3221,0,1.21906,9.62558,-1.55197,-11.6159,-40.6098,-40.7927,-9.84832,-0.876577,-0.603545,29.7256,8.32317,-6.43293
795.273,8.2916,-4.27568,0,1.42743,9.8076,-1.35319,-12.8963,-44.3598,-41.4329,-9.73815,-0.843047,-0.529299,29.7561,7.9878,-6.76829
795.283,7.8887,-4.19097,0,1.47294,9.89862,-1.4418,-14.6646,-46.7073,-41.4634,-9.71659,-0.795146,-0.356858,28.628,7.28659,-6.82927
795.293,7.4903,-4.13718,0,1.45857,9.62798,-1.43941,-13.5671,-49.7256,-42.1341,-9.69264,-0.730481,-0.474214,27.2866,6.98171,-6.64634
795.303,7.08943,-4.1277,0,1.47054,9.82677,-1.31726,-15,-50.3049,-42.9878,-9.72138,-0.732876,-0.656235,25.9451,7.31707,-6.58537
795.313,6.67881,-4.08922,0,1.35558,9.8555,-1.08973,-17.1646,-48.5366,-43.4146,-9.69743,-0.565225,-0.529299,24.6951,6.85976,-5.88415
795.323,6.27896,-4.08615,0,1.3484,9.79323,-1.02746,-18.7195,-46.0366,-43.1707,-9.66151,-0.536484,-0.673001,24.3902,5.60976,-5.09146
795.333,5.91356,-4.11699,0,1.60466,9.73815,-1.30768,-19.7256,-43.9329,-43.5671,-9.52978,-0.505349,-0.804727,23.7805,4.93902,-4.11585
795.343,5.52186,-4.17168,0,1.37714,9.5226,-1.21427,-20.3963,-43.2012,-44.6951,-9.54894,-0.502954,-0.907712,23.4451,4.2378,-3.32317
795.353,5.15456,-4.21343,0,1.54239,9.3765,-1.43701,-21.0976,-40.122,-45.2744,-9.42919,-0.471819,-0.847837,23.2622,3.65854,-2.65244
795.363,4.77712,-4.25332,0,1.36037,9.28789,-1.31726,-20.0915,-39.3293,-45,-9.26633,-0.495769,-0.831072,23.2927,3.65854,-1.89024
795.373,4.43364,-4.30947,0,1.59508,9.58966,-1.46815,-18.9329,-36.8902,-44.5732,-9.2328,-0.510139,-0.895737,23.2927,3.65854,-0.97561
795.383,4.07688,-4.3867,0,1.43941,9.84593,-1.152,-19.8476,-35.9756,-44.3293,-9.24717,-0.543669,-1.00112,23.0183,4.66463,-0.670732
795.393,3.72015,-4.47881,0,1.39151,9.70941,-0.991538,-19.7561,-32.6524,-44.7256,-9.20646,-0.689766,-1.07057,22.8963,4.90854,-0.884146
795.403,3.36217,-4.60676,0,1.54239,9.64953,-1.01788,-20.7317,-29.4512,-47.4695,-9.137,-0.819097,-1.22625,23.4451,5.67073,-0.945122
795.413,3.0078,-4.76119,0,1.52802,9.68785,-1.21427,-22.1951,-27.5915,-47.5915,-9.03641,-0.924478,-1.34361,23.9329,6.82927,-0.945122
795.423,2.63585,-4.93108,0,1.40827,9.62079,-1.28852,-23.5061,-25.6098,-48.811,-8.93103,-0.919688,-1.41546,24.4817,8.17073,-0.396341
795.433,2.25768,-5.13223,0,1.17116,9.10347,-1.18314,-22.1037,-25.6707,-48.1707,-8.83523,-0.958008,-1.55197,24.9085,9.26829,0.426829
795.443,1.80519,-5.35908,0,0.675395,9.05078,-0.749641,-22.6829,-29.5732,-50.2744,-8.73224,-0.938848,-1.66693,25.4268,10.6402,1.76829
795.453,1.40272,-5.59508,0,1.13524,9.59205,-1.34121,-21.9512,-25.6402,-51.1585,-8.68434,-0.931663,-1.7292,26.0671,11.5549,2.62195
795.464,0.942216,-5.87285,0,0.58199,9.62558,-0.967588,-21.8293,-29.1463,-51.189,-8.66279,-0.986748,-1.92799,27.378,12.5305,3.9939
795.473,0.44361,-6.14653,0,0.488584,9.53936,-1.00112,-25,-31.1585,-54.939,-8.69153,-0.914897,-1.96152,28.1098,13.3841,4.78659
795.483,-0.0220862,-6.43077,0,0.893342,9.93215,-1.08734,-25.1829,-29.9695,-57.1037,-8.66279,-0.934058,-2.04056,28.7195,14.0854,5.54878
795.493,-0.47121,-6.72493,0,1.01549,10.0471,-0.802332,-27.378,-28.9939,-57.6524,-8.59093,-0.922083,-2.10762,29.7561,15.1524,6.79878
795.503,-0.993588,-7.03192,0,0.524509,9.5202,-0.474214,-30.6402,-31.4329,-60.7012,-8.56459,-0.924478,-2.19863,30.2439,16.0671,8.14024
795.513,-1.52673,-7.31341,0,0.550855,9.8124,-0.752036,-31.372,-31.128,-62.9878,-8.53345,-0.907712,-2.13636,30.5793,17.1646,9.54268
795.523,-2.04911,-7.52115,0,0.687371,9.9537,-1.00351,-30.8232,-28.9939,-64.4817,-8.53106,-0.843047,-1.88728,31.128,17.1951,11.2805
795.533,-2.5922,-7.68246,0,0.64905,9.8579,-0.847837,-34.0854,-31.4329,-67.2866,-8.40652,-0.749641,-1.71244,30.8537,16.3415,13.5976
795.543,-3.04926,-7.86618,0,1.27655,10.0256,-0.835862,-34.0244,-31.128,-66.7378,-8.28916,-0.725691,-1.79866,31.128,15.9756,15.3963
795.553,-3.6103,-8.09082,0,0.603545,9.24238,-0.129331,-38.3232,-40.9146,-71.0976,-8.35862,-0.728086,-1.99984,31.7378,16.8902,17.1951
795.563,-3.98392,-8.349,0,1.6837,9.3286,-0.862207,-37.1951,-40.8841,-66.3719,-8.62926,-0.878972,-2.23455,33.2012,18.689,17.8963
795.573,-4.29455,-8.57007,0,1.59987,8.62207,-1.08255,-36.4024,-38.7195,-61.2805,-9.06515,-1.03704,-2.23216,34.8476,19.9085,18.2317
795.583,-4.42509,-8.76219,0,2.12438,8.46879,-1.90883,-33.3232,-34.3293,-50.8232,-9.63756,-1.24062,-2.28245,36.9207,19.7561,17.1646
795.593,-4.55493,-8.93336,0,1.55197,8.43047,-1.51605,-32.5915,-36.0366,-43.5671,-10.0902,-1.37953,-2.32796,38.9634,18.7805,16.25
795.603,-4.61517,-9.12868,0,1.67891,8.72027,-2.47166,-30.6707,-32.2866,-37.6829,-10.4447,-1.65017,-2.56028,40.6402,18.689,15.122
795.613,-4.81221,-9.33586,0,0.407153,8.88792,-2.15312,-28.2317,-38.9634,-34.878,-10.5022,-1.64059,-2.67045,42.0122,18.9939,13.9634
795.623,-4.96209,-9.48656,0,0.694556,9.69743,-2.88839,-27.1646,-47.7744,-33.4756,-10.5525,-1.40588,-2.44531,41.6768,19.1159,13.6585
795.633,-5.07778,-9.50017,0,0.637075,10.4447,-2.64171,-25.2439,-55.6402,-29.0549,-10.9093,-0.986748,-1.87291,38.2622,17.9268,13.5366
795.643,-5.23662,-9.34678,0,0.373623,10.8135,-2.2106,-27.7744,-68.9939,-30.6098,-11.6446,-0.519719,-1.13284,32.2256,14.1768,13.5366
795.653,-5.37274,-8.97542,0,0.742456,11.1991,-2.36867,-28.5671,-73.0793,-32.3171,-13.2397,0.143701,0.0143701,22.622,6.46341,12.1341
795.663,-5.47684,-8.59767,0,1.09692,11.4937,-2.20102,-23.5671,-68.1402,-32.7134,-14.4252,0.828677,0.100591,10.9146,-0.0914634,9.17683
795.673,-5.51486,-8.37728,0,1.66693,11.9368,-2.0693,-20.1524,-57.622,-31.2805,-14.7869,1.42264,-0.787961,1.0061,-2.62195,4.5122
795.683,-5.49742,-8.27038,0,1.60227,11.7859,-1.70765,-15.5488,-46.8902,-25.2744,-14.145,1.69088,-1.41067,-7.56098,-2.86585,-0.670732
795.693,-5.44822,-8.23953,0,1.38193,11.18,-1.26697,-16.0061,-40,-20.5793,-13.0912,1.07776,-1.72681,-12.9878,-4.5122,-5.57927
795.703,-5.33654,-8.26737,0,1.3005,10.9333,-1.31966,-13.872,-30.7622,-13.5671,-12.0517,0.112566,-1.90404,-16.0061,-7.16463,-10.6707
795.713,-5.13497,-8.43018,0,1.28613,10.9955,-1.08255,-8.38415,-24.1768,-4.14634,-11.0386,-0.986748,-2.43094,-16.128,-8.32317,-15.5183
