time,angle1,angle2,intgangle,accX1,accY1,accZ1,gyroX1,gyroY1,gyroZ1,accX2,accY2,accZ2,gyroX2,gyroY2,gyroZ2
1003.9,86.7832,-0.571065,0,9.87227,0.687371,1.21906,-1.52439,3.78049,-0.670732,-9.89862,-0.342488,-0.0574805,0.0914634,0.365854,5.94512
1003.91,86.7536,-0.550962,0,9.81,0.64426,1.22386,-1.4939,4.78659,-0.0914634,-9.91538,-0.301772,-0.0574805,0.0914634,0.426829,5.70122
1003.92,86.7567,-0.524394,0,9.7118,0.55804,1.24062,-1.28049,3.68902,0.518293,-9.9561,-0.308958,-0.0407153,0.396341,0.396341,5.64024
1003.93,86.7712,-0.516024,0,9.73096,0.510139,1.18314,-0.487805,2.0122,0.121951,-9.98723,-0.320933,-0.0766406,0.365854,-0.0914634,5.57927
1003.94,86.7894,-0.491483,0,9.77407,0.474214,1.17595,0.0914634,0.762195,-0.335366,-9.97047,-0.325723,-0.0407153,0.335366,-0.335366,5.57927
1003.95,86.7992,-0.463352,0,9.79563,0.495769,1.18793,0.640244,0.243902,-0.426829,-9.96568,-0.313748,-0.0239502,-0.0304878,-0.518293,5.85366
1003.96,86.8039,-0.44884,0,9.89862,0.531694,1.14482,0.853659,-0.243902,-0.152439,-9.94652,-0.330513,-0.0479004,-0.0609756,-0.609756,6.06707
1003.97,86.8063,-0.422314,0,9.81958,0.514929,1.11608,0.762195,0.640244,-0.579268,-9.90341,-0.340093,-0.0191602,-0.213415,-0.609756,6.46341
1003.98,86.8069,-0.432763,0,9.63277,0.464634,1.21667,0.426829,-0.304878,-1.34146,-9.89383,-0.354463,-0.0958008,-0.152439,-0.548781,6.40244
1003.99,86.7483,-0.463948,0,9.33339,0.747246,1.3939,0.213415,0.0914634,-2.53049,-9.96568,-0.445474,-0.134121,0,-0.213415,6.09756
1004,86.7399,-0.469848,0,9.76689,0.483794,0.795146,-1.21951,-0.670732,-1.95122,-10.0016,-0.426313,-0.0934058,0.213415,-0.335366,5.73171
1004.01,86.7843,-0.446318,0,9.7118,-0.0263452,1.46575,0.609756,-4.17683,-3.07927,-9.92736,-0.368833,-0.0311353,0.426829,-0.518293,5.85366
1004.02,86.7539,-0.464188,0,10.5309,0.677791,1.04183,2.65244,-3.56707,-2.04268,-9.90101,-0.320933,-0.119751,0.426829,-0.731707,6.03659
1004.03,86.718,-0.47885,0,10.0806,0.673001,1.31008,0.487805,-3.65854,-2.34756,-9.9082,-0.268242,-0.114961,0.335366,-0.701219,5.88415
1004.04,86.7152,-0.505901,0,10.119,0.538879,1.40348,1.70732,-3.01829,-1.0061,-9.93694,-0.225132,-0.155676,0.304878,-0.97561,5.97561
1004.05,86.6655,-0.593643,0,9.83395,0.783171,1.41785,-1.34146,-4.54268,-1.4939,-9.91059,-0.229922,-0.232317,-0.152439,0.0609756,5.70122
1004.06,86.5952,-0.693471,0,9.88185,0.866997,1.24781,-2.10366,2.37805,-0.579268,-9.90101,-0.158071,-0.275427,-0.365854,0.152439,5.51829
1004.07,86.534,-0.792769,0,9.68067,0.790356,1.04902,-2.19512,9.05488,0.304878,-9.87706,-0.182021,-0.282612,-0.792683,0.0914634,5.60976
1004.08,86.5154,-0.809,0,9.4723,0.701741,1.14242,-1.67683,7.53049,1.06707,-9.91778,-0.225132,-0.165256,-0.853659,-0.121951,5.54878
1004.09,86.5524,-0.779754,0,9.38129,0.457449,1.25499,-1.12805,3.35366,1.21951,-9.92017,-0.229922,-0.0862207,-1.18902,-0.243902,5.54878
1004.1,86.6924,-0.764543,0,9.50583,0.131726,1.36037,0.0914634,-2.28659,0.457317,-9.89862,-0.308958,-0.100591,-1.28049,-0.670732,5.67073
1004.11,86.8027,-0.735873,0,9.81479,0.158071,1.40588,0.914634,-6.37195,-0.27439,-9.83395,-0.335303,-0.0742456,-1.12805,-0.487805,5.79268
1004.12,86.8285,-0.724825,0,10.1884,0.421523,1.39869,0.670732,-7.07317,-0.426829,-9.78126,-0.356858,-0.102986,-1.21951,-0.640244,5.97561
1004.13,86.7988,-0.662084,0,10.2172,0.687371,1.17116,-0.365854,-3.75,-1.09756,-9.79803,-0.361648,-0.0191602,-0.731707,-0.213415,6.09756
1004.14,86.738,-0.601595,0,10.1381,0.859812,1.06818,-0.792683,0.914634,-0.731707,-9.81719,-0.426313,-0.00479004,-0.457317,0.304878,5.94512
1004.15,86.6883,-0.568846,0,9.96328,0.756826,1.06339,-1.15854,4.32927,-0.304878,-9.91538,-0.416733,-0.0335303,0,0.518293,5.85366
1004.16,86.6855,-0.534909,0,9.72138,0.57241,1.08734,-0.548781,4.87805,0.0609756,-9.94891,-0.426313,-0.0287402,-0.152439,0.396341,5.30488
1004.17,86.6963,-0.5083,0,9.69983,0.543669,1.07776,0.304878,2.43902,0.670732,-9.93215,-0.419128,-0.0383203,0.335366,0.396341,5.54878
1004.18,86.7267,-0.509643,0,9.84353,0.459844,1.1065,1.15854,-0.0304878,0.853659,-9.97526,-0.411943,-0.0910107,0.731707,-0.121951,5.67073
1004.19,86.76,-0.472977,0,9.75491,0.450264,1.13763,1.40244,-0.426829,-0.121951,-9.98963,-0.407153,-0.0143701,0.731707,-0.335366,5.4878
1004.2,86.8864,-0.411329,0,9.54415,-0.117356,1.08015,1.61585,-1.95122,-1.18902,-10.0088,-0.407153,0.0862207,0.945122,-0.97561,6.25
1004.21,86.7552,-0.382833,0,9.34297,1.2023,0.977168,1.0061,0.335366,-2.2561,-10.004,-0.443079,-0.00239502,0.884146,-0.701219,6.0061
1004.22,86.793,-0.356122,0,9.75012,-0.00958008,1.22386,-0.823171,-2.92683,-3.35366,-9.92496,-0.414338,-0.00239502,1.09756,-0.762195,6.06707
1004.23,86.8047,-0.348899,0,10.0735,0.160466,1.27176,3.04878,-3.2622,-3.65854,-9.90341,-0.352068,-0.0431104,0.97561,-1.03659,6.40244
1004.24,86.746,-0.3569,0,10.4231,0.828677,1.13284,1.12805,-1.85976,-3.10976,-9.87706,-0.349673,-0.0790356,1.0061,-0.701219,6.40244
1004.25,86.6918,-0.372971,0,10.0232,0.826282,1.38672,1.18902,-3.41463,-1.98171,-9.86748,-0.263452,-0.0958008,0.731707,-0.548781,6.15854
1004.26,86.6581,-0.4381,0,10.1453,0.730481,1.31726,-0.335366,-3.32317,-1.06707,-9.86509,-0.191602,-0.170046,0.548781,0.0914634,5.64024
1004.27,86.6315,-0.524692,0,9.82197,0.65384,1.47054,-1.61585,-1.06707,-1.34146,-9.88664,-0.184417,-0.251477,-0.0609756,0.457317,5.67073
1004.28,86.5774,-0.565268,0,9.77647,0.783171,1.21667,-0.640244,4.66463,-0.640244,-9.92257,-0.146096,-0.174836,-0.27439,0.457317,5.42683
1004.29,86.5081,-0.585001,0,9.53457,0.850232,1.1065,-1.40244,8.01829,0.640244,-9.96568,-0.167651,-0.141306,-0.396341,0.518293,5.54878
1004.3,86.5173,-0.603114,0,9.43638,0.60115,1.21188,-0.914634,6.52439,1.46341,-9.98723,-0.153281,-0.134121,-0.579268,-0.0914634,5.54878
1004.31,86.5375,-0.623003,0,9.48667,0.589175,1.14961,-0.579268,3.32317,2.2561,-9.92017,-0.162861,-0.146096,-0.823171,-0.457317,5.30488
1004.32,86.5876,-0.621738,0,9.6663,0.392783,1.14482,-0.213415,-0.304878,2.31707,-9.88185,-0.189207,-0.105381,-1.40244,-0.243902,5.73171
1004.33,86.6367,-0.623828,0,9.78605,0.376018,1.2526,0,-2.9878,1.70732,-9.85072,-0.229922,-0.112566,-1.21951,-0.823171,5.85366
1004.34,86.6958,-0.640979,0,9.88904,0.323328,1.31726,0.579268,-5.18293,0.884146,-9.84114,-0.296982,-0.148491,-1.52439,-0.823171,5.70122
1004.35,86.7392,-0.620103,0,10.0663,0.380808,1.33642,0.487805,-4.72561,-0.304878,-9.84353,-0.354463,-0.0742456,-1.15854,-0.213415,6.0061
1004.36,86.7336,-0.599295,0,10.0735,0.546064,1.27176,-0.121951,-2.0122,-1.06707,-9.85311,-0.433499,-0.0742456,-0.457317,-0.0304878,6.0061
1004.37,86.7176,-0.590922,0,9.93694,0.598755,1.20709,-0.426829,1.15854,-1.06707,-9.89622,-0.479004,-0.0862207,-0.518293,0.426829,5.73171
1004.38,86.707,-0.55641,0,9.86509,0.58678,1.19032,-0.487805,2.77439,-0.609756,-9.87227,-0.445474,-0.0407153,-0.121951,0.213415,5.57927
1004.39,86.7039,-0.515167,0,9.83156,0.565225,1.16398,-0.426829,2.92683,-0.335366,-9.91299,-0.419128,-0.0239502,0.365854,0.152439,5.27439
1004.4,86.6983,-0.485956,0,9.8579,0.58199,1.1544,-0.27439,2.0122,-0.152439,-9.91299,-0.390388,-0.0407153,0.548781,0.0609756,5.33537
1004.41,86.6733,-0.45792,0,9.8603,0.651445,1.19032,-0.426829,0.884146,-0.213415,-9.93694,-0.378413,-0.0287402,0.518293,0.335366,5.03049
1004.42,86.6644,-0.45767,0,9.82916,0.59636,1.19751,-0.457317,0.762195,-0.182927,-9.94412,-0.390388,-0.0790356,0.579268,0.0304878,5.36585
1004.43,86.6672,-0.412769,0,9.82197,0.543669,1.14482,-0.335366,0.426829,-0.457317,-9.98723,-0.366438,0,0.731707,0.0914634,5.33537
1004.44,86.6652,-0.411541,0,9.7597,0.56283,1.16637,-0.0914634,0.731707,-0.365854,-9.93454,-0.373623,-0.0694556,0.762195,0.0609756,5.54878
1004.45,86.6625,-0.384933,0,9.81479,0.570015,1.19272,-0.213415,0.792683,-0.335366,-9.91778,-0.349673,-0.00958008,0.670732,-0.701219,5.82317
1004.46,86.663,-0.382732,0,9.84593,0.565225,1.18314,0.121951,0.792683,-0.213415,-9.89622,-0.344883,-0.0622705,0.670732,-0.518293,5.97561
1004.47,86.6598,-0.401207,0,9.84832,0.59157,1.20469,0.0609756,0.457317,0.182927,-9.87227,-0.325723,-0.102986,0.579268,-0.426829,5.82317
1004.48,86.6592,-0.420868,0,9.81479,0.579595,1.28373,-0.121951,0.365854,0.152439,-9.84114,-0.335303,-0.102986,0.487805,-0.213415,6.06707
1004.49,86.677,-0.454724,0,9.78126,0.517324,1.23344,0.304878,0.0304878,0.243902,-9.89622,-0.285007,-0.126936,0.945122,0.0304878,5.67073
1004.5,86.706,-0.452394,0,9.77647,0.476609,1.31487,0.27439,-0.609756,0.182927,-9.88664,-0.287402,-0.0742456,0.670732,0.182927,5.70122
1004.51,86.7373,-0.426528,0,9.76689,0.452659,1.31247,0.701219,-0.853659,-0.182927,-9.92017,-0.285007,-0.0311353,0.518293,0.213415,5.94512
1004.52,86.7617,-0.428549,0,9.72138,0.443079,1.25499,0.518293,-1.46341,-0.487805,-9.84832,-0.285007,-0.0766406,0.243902,-0.0914634,5.91463
1004.53,86.7711,-0.465562,0,9.77168,0.479004,1.29571,0.579268,-2.43902,-0.731707,-9.88904,-0.301772,-0.136516,0.365854,-0.121951,6.0061
1004.54,86.7763,-0.502363,0,9.82437,0.474214,1.29571,0.518293,-3.14024,-1.03659,-9.86509,-0.294587,-0.141306,0.304878,-0.121951,6.12805
1004.55,86.7604,-0.445453,0,9.84832,0.570015,1.28613,0.213415,-3.20122,-1.37195,-9.89383,-0.273032,0.00958008,0.0914634,0.121951,6.09756
1004.56,86.6071,-0.405781,0,9.20406,1.31247,1.33642,0.27439,-5.82317,-2.13415,-9.96089,-0.299377,-0.00958008,0.27439,0.0609756,5.97561
1004.57,86.5976,-0.38132,0,9.77886,0.493374,0.996328,-2.0122,3.14024,-2.22561,-9.88664,-0.308958,-0.0239502,-0.243902,0.304878,5.67073
1004.58,86.6371,-0.362225,0,9.85311,0.0694556,1.26457,-0.396341,-0.579268,-2.77439,-9.86509,-0.316143,-0.0335303,0.0609756,-0.152439,5.88415
1004.59,86.635,-0.383323,0,10.2124,0.493374,1.2502,1.58537,-4.11585,-1.70732,-9.91538,-0.296982,-0.0981958,0.0304878,0.0914634,5.67073
1004.6,86.6032,-0.349597,0,10.1118,0.677791,1.16637,-0.853659,0.823171,-2.13415,-9.9537,-0.318538,-0.00479004,-0.365854,0.182927,5.54878
1004.61,86.597,-0.400486,0,9.92736,0.536484,1.34361,0,-2.10366,-1.4939,-9.92496,-0.308958,-0.153281,-0.518293,0.213415,5.42683
1004.62,86.5654,-0.44304,0,9.83635,0.687371,1.23344,-1.64634,-2.07317,-1.58537,-9.90341,-0.249082,-0.150886,-0.609756,0.335366,5.51829
1004.63,86.5446,-0.486403,0,9.7142,0.603545,1.23104,-1.7378,-0.182927,-1.79878,-9.96089,-0.280217,-0.167651,-0.670732,0.426829,5.30488
1004.64,86.5152,-0.490165,0,9.63516,0.670605,1.01788,-0.914634,3.29268,-1.31098,-10.0519,-0.277822,-0.0934058,-0.914634,0.457317,5.42683
1004.65,86.4896,-0.527287,0,9.54894,0.651445,1.02028,-0.396341,3.87195,-0.426829,-10.0232,-0.287402,-0.150886,-0.701219,-0.0304878,5.30488
1004.66,86.4983,-0.581105,0,9.63277,0.584385,1.08255,0.396341,0.823171,0.731707,-9.96568,-0.268242,-0.196392,-0.762195,-0.27439,5.39634
1004.67,86.5173,-0.575061,0,9.83635,0.55804,1.06818,0.792683,-1.58537,1.12805,-9.91778,-0.265847,-0.0886157,-0.853659,-0.426829,5.4878
1004.68,86.5341,-0.574427,0,10.0112,0.58678,1.14482,1.09756,-2.7439,1.37195,-9.86748,-0.301772,-0.0981958,-0.823171,-0.731707,5.64024
1004.69,86.552,-0.568557,0,10.0471,0.570015,1.14242,0.823171,-1.79878,1.18902,-9.88904,-0.368833,-0.0862207,-1.18902,-0.701219,5.70122
1004.7,86.585,-0.569162,0,10.0184,0.474214,1.2023,0.457317,0.365854,0.487805,-9.88185,-0.392783,-0.100591,-1.25,-1.06707,5.85366
1004.71,86.6074,-0.640065,0,9.84353,0.493374,1.15679,0.335366,1.89024,-0.304878,-9.80521,-0.380808,-0.253872,-1.37195,-0.701219,6.03659
1004.72,86.6291,-0.747942,0,9.68546,0.479004,1.14721,-0.0914634,3.04878,-0.457317,-9.83635,-0.459844,-0.313748,-1.40244,-0.365854,5.82317
1004.73,86.659,-0.797579,0,9.62558,0.464634,1.21667,0.243902,2.89634,-0.27439,-9.92975,-0.462239,-0.222737,-1.92073,-0.243902,6.03659
1004.74,86.6841,-0.827542,0,9.7118,0.481399,1.27655,0.853659,1.40244,-0.182927,-10.0064,-0.534089,-0.227527,-1.92073,-1.12805,6.12805
1004.75,86.6993,-0.859604,0,9.80521,0.522114,1.26936,1.34146,-0.335366,0.0304878,-9.97765,-0.490979,-0.246687,-1.37195,-1.43293,6.31098
1004.76,86.6963,-0.861883,0,9.89622,0.5772,1.28852,1.70732,-1.52439,-0.121951,-9.92257,-0.445474,-0.158071,-1.12805,-1.76829,6.4939
1004.77,86.6966,-0.859903,0,9.98963,0.570015,1.23823,1.21951,-2.04268,-0.152439,-9.9058,-0.455054,-0.143701,-0.304878,-2.13415,6.76829
1004.78,86.6946,-0.86199,0,9.96568,0.55325,1.25499,0.304878,-1.15854,-0.670732,-9.8579,-0.443079,-0.153281,-0.0914634,-0.701219,6.43293
1004.79,86.694,-0.871906,0,9.93454,0.536484,1.2502,-0.0609756,0.182927,-0.823171,-9.79084,-0.445474,-0.172441,0.27439,1.12805,6.28049
1004.8,86.7037,-0.879792,0,9.89622,0.450264,1.22625,-0.609756,1.18902,-1.18902,-9.7597,-0.404758,-0.177231,0.365854,3.2622,5.91463
1004.81,86.6886,-0.86607,0,9.77407,0.534089,1.1999,-0.640244,1.76829,-1.98171,-9.78605,-0.368833,-0.0886157,0.609756,4.48171,5.57927
1004.82,86.6609,-0.833437,0,9.67827,0.608335,1.18793,-1.46341,1.21951,-2.10366,-9.81958,-0.299377,-0.00479004,0.457317,5,4.93902
1004.83,86.6703,-0.797432,0,9.76689,0.376018,1.23823,-1.18902,0.152439,-1.98171,-9.86509,-0.239502,0.0167651,0.213415,5.60976,4.54268
1004.84,86.6364,-0.752058,0,9.82916,0.675395,1.17835,-1.0061,-0.0304878,-1.92073,-9.87706,-0.162861,0.0622705,-0.27439,5.12195,4.29878
1004.85,86.5973,-0.674843,0,9.7597,0.718506,1.17595,-1.18902,-0.304878,-1.61585,-9.80281,-0.134121,0.203577,-0.518293,4.78659,4.45122
1004.86,86.6015,-0.603263,0,9.76449,0.517324,1.30529,-1.31098,-0.609756,-0.914634,-9.76449,-0.124541,0.186812,-0.518293,4.14634,4.57317
1004.87,86.5611,-0.552574,0,9.78844,0.737666,1.19751,-0.853659,-0.792683,-0.945122,-9.81479,-0.131726,0.114961,-0.640244,4.48171,4.87805
1004.88,86.5576,-0.510775,0,9.82677,0.58678,1.20709,-0.518293,-0.701219,-0.457317,-9.87467,-0.184417,0.0886157,-1.25,4.96951,4.69512
1004.89,86.5434,-0.448362,0,9.80281,0.62989,1.18553,-0.0914634,-0.792683,-0.396341,-9.88664,-0.205972,0.184417,-1.55488,4.90854,5.03049
1004.9,86.5242,-0.38214,0,9.77886,0.64905,1.16158,-0.152439,-1.92073,-0.243902,-9.8555,-0.172441,0.208367,-1.37195,4.48171,4.69512
1004.91,86.5092,-0.310404,0,9.79563,0.641865,1.17116,0.0914634,-1.21951,0.0304878,-9.8579,-0.225132,0.234712,-1.46341,3.65854,4.32927
1004.92,86.4905,-0.252483,0,9.82197,0.65863,1.19751,-0.396341,-0.945122,0.0304878,-9.8579,-0.203577,0.182021,-1.46341,3.14024,3.90244
1004.93,86.4792,-0.217236,0,9.85072,0.677791,1.22864,-0.152439,-0.27439,0.579268,-9.87946,-0.198787,0.100591,-1.40244,3.07927,3.32317
1004.94,86.4743,-0.20281,0,9.82197,0.670605,1.14721,-0.243902,0.335366,0.884146,-9.89383,-0.239502,0.0239502,-1.76829,3.23171,3.14024
1004.95,86.4854,-0.189229,0,9.81719,0.62989,1.19032,0.0914634,0.426829,1.55488,-9.94652,-0.251477,0.0239502,-1.76829,3.38415,2.86585
1004.96,86.5016,-0.192421,0,9.78605,0.59636,1.20948,-0.213415,0.182927,1.58537,-9.93694,-0.246687,-0.0431104,-1.70732,2.9878,2.71341
1004.97,86.5254,-0.196697,0,9.80521,0.55804,1.24062,0.152439,0.243902,1.79878,-9.96328,-0.299377,-0.0479004,-2.40854,2.59146,2.92683
1004.98,86.5491,-0.220951,0,9.83156,0.555645,1.20469,0.335366,-0.0304878,1.79878,-10.0088,-0.304167,-0.119751,-2.37805,1.95122,2.80488
1004.99,86.5786,-0.277163,0,9.86509,0.507744,1.16877,0.213415,-0.548781,1.64634,-10.0184,-0.340093,-0.220342,-2.65244,1.4939,2.86585
1005,86.596,-0.347002,0,9.80042,0.560435,1.2023,0.457317,-0.548781,1.34146,-9.96568,-0.354463,-0.258662,-2.62195,1.31098,2.71341
1005.01,86.6198,-0.444016,0,9.84832,0.517324,1.14003,0.304878,-0.670732,1.18902,-9.92736,-0.392783,-0.304167,-2.40854,0.853659,2.9878
1005.02,86.6475,-0.52421,0,9.84832,0.500559,1.15919,0.182927,-0.396341,1.4939,-9.91059,-0.452659,-0.308958,-2.71341,1.25,3.14024
1005.03,86.674,-0.616812,0,9.83635,0.490979,1.12805,0.121951,-0.0914634,1.09756,-9.91778,-0.483794,-0.392783,-2.13415,1.64634,2.89634
1005.04,86.7102,-0.710652,0,9.85072,0.435894,1.16637,0.304878,0.0304878,1.34146,-9.89383,-0.514929,-0.421523,-1.7378,1.79878,3.23171
1005.05,86.7512,-0.778845,0,9.83874,0.409548,1.16158,0.426829,-0.0304878,0.701219,-9.92257,-0.534089,-0.366438,-1.4939,2.07317,3.32317
1005.06,86.7938,-0.84583,0,9.86748,0.395178,1.21188,0.243902,-0.0304878,0.670732,-9.99442,-0.526904,-0.378413,-0.97561,2.04268,3.44512
1005.07,86.8467,-0.906649,0,9.89143,0.373623,1.18553,0.701219,0.243902,0.152439,-9.95849,-0.526904,-0.352068,-1.06707,1.7378,3.59756
1005.08,86.8814,-0.972842,0,9.84832,0.387993,1.17116,1.09756,-0.0609756,-0.426829,-9.97047,-0.493374,-0.354463,-1.09756,1.25,3.75
1005.09,86.9,-1.03163,0,9.79084,0.438289,1.19751,1.15854,-0.121951,-0.518293,-9.92257,-0.433499,-0.323328,-0.884146,0.97561,3.68902
1005.1,86.903,-1.07695,0,9.81,0.479004,1.2023,0.945122,-0.518293,-0.823171,-9.87467,-0.423918,-0.289797,-1.28049,0.884146,3.84146
1005.11,86.9046,-1.14225,0,9.83395,0.488584,1.16398,0.579268,-0.640244,-0.792683,-9.84593,-0.428708,-0.356858,-1.43293,1.06707,3.53659
1005.12,86.8994,-1.17654,0,9.82677,0.507744,1.18793,0.731707,-0.487805,-1.0061,-9.86269,-0.423918,-0.301772,-1.25,1.52439,3.87195
1005.13,86.8905,-1.22801,0,9.81958,0.529299,1.23344,0.579268,-0.121951,-0.97561,-9.89383,-0.486189,-0.366438,-1.15854,1.58537,3.93293
1005.14,86.8856,-1.26332,0,9.84353,0.524509,1.1999,0.304878,-0.213415,-0.731707,-9.91778,-0.507744,-0.323328,-1.21951,1.52439,3.81098
1005.15,86.8831,-1.2951,0,9.84353,0.514929,1.14003,0.548781,0.0304878,-0.731707,-9.94173,-0.498164,-0.313748,-0.792683,1.31098,3.9939
1005.16,86.8737,-1.33354,0,9.82437,0.555645,1.20709,0.304878,0.396341,-0.426829,-9.98244,-0.546064,-0.340093,-0.762195,1.25,3.56707
1005.17,86.8729,-1.36536,0,9.84114,0.517324,1.16637,0.670732,0.579268,-0.579268,-9.98005,-0.55325,-0.311353,-0.640244,0.762195,3.96341
1005.18,86.861,-1.35668,0,9.84353,0.55325,1.17595,0.823171,0.182927,-0.914634,-9.97765,-0.536484,-0.222737,-0.670732,-0.0609756,4.08537
1005.19,86.8475,-1.413,0,9.8555,0.565225,1.22386,0.365854,-0.27439,-0.884146,-10.004,-0.517324,-0.335303,-0.213415,-0.0304878,4.14634
1005.2,86.8363,-1.479,0,9.87946,0.565225,1.22864,0.304878,-0.27439,-0.701219,-10.0016,-0.534089,-0.364043,-0.518293,-0.0609756,4.35976
1005.21,86.8277,-1.52433,0,9.87467,0.55804,1.18074,-0.182927,-0.182927,-0.609756,-10.0136,-0.543669,-0.347278,-0.27439,-0.213415,4.66463
1005.22,86.8139,-1.56444,0,9.8603,0.574805,1.26697,-0.182927,0.0304878,-0.823171,-10.0208,-0.560435,-0.349673,-0.518293,-0.304878,4.60366
1005.23,86.8064,-1.62033,0,9.85311,0.55804,1.22625,-0.182927,0.609756,-0.548781,-9.92975,-0.55325,-0.364043,-0.0304878,-0.0304878,4.81707
1005.24,86.7903,-1.65872,0,9.84114,0.59157,1.20709,-0.487805,0.182927,-0.731707,-9.97765,-0.59636,-0.361648,-0.396341,0.365854,4.78659
1005.25,86.7826,-1.68478,0,9.81719,0.56283,1.24302,-0.487805,0.304878,-0.487805,-10.0447,-0.570015,-0.354463,-0.426829,0.640244,4.90854
1005.26,86.7842,-1.67451,0,9.82437,0.534089,1.18314,-0.640244,0.396341,-0.335366,-10.0687,-0.514929,-0.273032,-0.213415,0.396341,4.60366
1005.27,86.785,-1.66585,0,9.84832,0.514929,1.18314,-0.579268,0.0304878,-0.762195,-9.98244,-0.469424,-0.275427,-0.0304878,0.182927,4.7561
1005.28,86.7772,-1.67038,0,9.8603,0.55325,1.14003,-0.457317,-0.304878,-0.823171,-9.92017,-0.476609,-0.296982,0.304878,-0.213415,4.87805
1005.29,86.7746,-1.67187,0,9.88664,0.538879,1.19032,-0.701219,0.121951,-0.670732,-9.89383,-0.507744,-0.292192,-0.243902,-0.548781,5.36585
1005.3,86.7684,-1.69753,0,9.82437,0.538879,1.18553,-0.823171,-0.396341,-0.945122,-9.87946,-0.519719,-0.347278,-0.0609756,-0.670732,5.60976
1005.31,86.7682,-1.74237,0,9.8076,0.529299,1.14961,-0.640244,-0.121951,-0.609756,-9.88904,-0.560435,-0.402363,0.0609756,-0.792683,5.4878
1005.32,86.7819,-1.80271,0,9.77886,0.459844,1.13763,-0.762195,-0.335366,-0.731707,-9.86988,-0.546064,-0.421523,0.27439,-0.426829,5.39634
1005.33,86.8057,-1.81185,0,9.77886,0.455054,1.1544,-0.335366,-0.304878,-0.304878,-9.92257,-0.505349,-0.328118,0.213415,0.121951,5.27439
1005.34,86.8159,-1.82089,0,9.77647,0.490979,1.16637,-0.487805,-0.121951,-0.426829,-9.91538,-0.457449,-0.330513,-0.0304878,0.27439,5.03049
1005.35,86.8254,-1.83604,0,9.78605,0.486189,1.20469,-0.243902,0.0609756,-0.518293,-9.92257,-0.443079,-0.347278,0.121951,0.487805,5.15244
1005.36,86.8386,-1.86105,0,9.81,0.464634,1.17595,-0.213415,-0.243902,-0.579268,-9.90341,-0.387993,-0.371228,-0.243902,0.548781,5.27439
1005.37,86.8481,-1.88264,0,9.83874,0.471819,1.1544,-0.121951,-0.243902,-0.670732,-9.97765,-0.376018,-0.371228,-0.609756,0.487805,5.09146
1005.38,86.8523,-1.90357,0,9.82916,0.495769,1.12326,0.182927,-0.243902,-0.640244,-10.0184,-0.376018,-0.376018,-0.945122,0.487805,5.18293
1005.39,86.8531,-1.9142,0,9.8579,0.507744,1.11847,0,-0.548781,-0.701219,-10.0543,-0.376018,-0.354463,-1.46341,-0.121951,4.87805
1005.4,86.8528,-1.93901,0,9.8124,0.517324,1.14721,0.335366,-0.152439,-0.579268,-10.1046,-0.416733,-0.387993,-1.7378,0.182927,4.54268
1005.41,86.8516,-1.97189,0,9.82677,0.524509,1.11608,0.670732,-0.0304878,-0.518293,-10.1166,-0.433499,-0.419128,-1.89024,-0.426829,4.42073
1005.42,86.8483,-2.06438,0,9.80042,0.548459,1.09452,0.792683,-0.0914634,-0.0304878,-10.1166,-0.435894,-0.529299,-1.79878,0.0914634,4.05488
1005.43,86.843,-2.12893,0,9.79084,0.548459,1.07776,0.884146,-0.182927,-0.27439,-10.1764,-0.471819,-0.519719,-2.28659,0.396341,3.56707
1005.44,86.8426,-2.17188,0,9.8124,0.548459,1.11368,1.06707,-0.365854,0.182927,-10.2291,-0.435894,-0.479004,-3.23171,0.27439,3.2622
1005.45,86.8552,-2.20941,0,9.82197,0.500559,1.02746,1.25,-0.426829,-0.0609756,-10.313,-0.450264,-0.474214,-3.71951,-0.0914634,2.89634
1005.46,86.8686,-2.21626,0,9.87227,0.502954,1.02746,1.64634,-0.548781,0.304878,-10.3369,-0.431104,-0.421523,-4.29878,-0.97561,2.5
1005.47,86.8809,-2.20064,0,9.91059,0.493374,1.09452,2.0122,-1.25,-0.152439,-10.4064,-0.378413,-0.340093,-4.84756,-2.28659,2.37805
1005.48,86.941,-2.20388,0,9.93454,0.234712,1.04902,2.83537,-1.0061,-0.640244,-10.3824,-0.378413,-0.416733,-5.12195,-3.68902,2.46951
1005.49,86.9166,-2.20823,0,9.91299,0.613125,1.03465,3.47561,-1.06707,-0.731707,-10.3369,-0.387993,-0.421523,-5.70122,-4.57317,2.92683
1005.5,86.8968,-2.2026,0,9.78126,0.58678,1.02267,3.35366,-0.426829,-0.27439,-10.2698,-0.364043,-0.376018,-5.91463,-6.12805,3.14024
1005.51,86.9104,-2.2234,0,9.84353,0.493374,1.05381,3.44512,-1.40244,0.243902,-10.2195,-0.411943,-0.493374,-6.0061,-7.37805,3.29268
1005.52,86.9479,-2.27294,0,9.86509,0.399968,1.0586,3.59756,-0.762195,0.396341,-10.1812,-0.481399,-0.6251,-6.12805,-8.01829,3.07927
1005.53,86.9661,-2.31022,0,9.87946,0.469424,1.0083,4.02439,-0.182927,0.365854,-10.1094,-0.538879,-0.574805,-6.40244,-8.14024,3.14024
1005.54,87.0019,-2.34301,0,9.84832,0.404758,1.04183,3.75,-0.182927,0.182927,-10.1333,-0.60594,-0.56283,-7.28659,-8.29268,2.34756
1005.55,87.0418,-2.34215,0,9.86988,0.371228,1.09213,3.87195,-0.0609756,-0.182927,-10.1477,-0.589175,-0.419128,-7.89634,-8.87195,1.58537
1005.56,87.0731,-2.30346,0,9.8579,0.287402,1.08255,4.17683,0.121951,-1.06707,-10.1716,-0.55325,-0.251477,-8.59756,-10.3049,1.25
1005.57,87.0756,-2.22525,0,9.91778,0.383203,1.06818,4.2378,0.792683,-1.67683,-10.2172,-0.452659,-0.0694556,-9.5122,-12.3476,1.0061
1005.58,87.0692,-2.14124,0,9.87706,0.390388,1.06578,5.03049,0.884146,-2.2561,-10.1836,-0.342488,-0.0311353,-10.2134,-14.3902,1.09756
1005.59,87.0541,-2.05429,0,9.86988,0.445474,1.0562,5.15244,0.853659,-2.37805,-10.1094,-0.364043,-0.00479004,-10.6707,-16.4939,1.61585
1005.6,87.0333,-1.9516,0,9.78844,0.462239,1.09452,5,-0.304878,-2.68293,-10.083,-0.380808,0.0790356,-11.6159,-18.1402,1.82927
1005.61,87.0173,-1.8446,0,9.77168,0.392783,1.14003,4.26829,-0.97561,-3.10976,-10.0854,-0.531694,0.114961,-12.7134,-19.6951,1.76829
1005.62,87.003,-1.73942,0,9.85072,0.349673,1.16158,3.47561,-1.43293,-3.5061,-10.0782,-0.706531,0.124541,-13.4756,-20.9146,1.12805
1005.63,86.9931,-1.64379,0,9.91059,0.229922,1.18314,3.32317,-0.853659,-4.48171,-9.95849,-0.850232,0.0981958,-14.2683,-22.2866,0.27439
1005.64,86.9357,-1.52813,0,10.0327,0.5772,1.14242,4.29878,0.213415,-5.27439,-9.92257,-0.881367,0.201182,-14.6951,-23.3232,-0.304878
1005.65,86.8948,-1.41401,0,9.83874,0.452659,1.27176,3.10976,-1.40244,-5.06098,-9.90101,-0.907712,0.213157,-14.6646,-24.3293,-0.487805
1005.66,86.8433,-1.31101,0,9.92496,0.538879,1.15919,3.32317,0.579268,-5.2439,-9.8076,-0.847837,0.182021,-14.1159,-25.0305,-0.518293
1005.67,86.7812,-1.21997,0,9.68785,0.62989,1.20948,3.56707,-1.40244,-5.18293,-9.70941,-0.852627,0.146096,-12.6524,-25.3963,0.0914634
1005.68,86.7118,-1.15607,0,9.67827,0.773591,1.15679,3.14024,-1.43293,-4.2378,-9.69743,-0.823887,0.0455054,-11.0976,-25.2439,0.853659
1005.69,86.6462,-1.06585,0,9.71899,0.831072,1.16158,3.23171,-1.76829,-3.17073,-9.7621,-0.881367,0.170046,-9.96951,-25.0915,1.52439
1005.7,86.5987,-0.986996,0,9.79323,0.711321,1.25739,3.10976,-1.03659,-3.07927,-9.79803,-0.936453,0.136516,-8.10976,-25.7012,1.98171
1005.71,86.5693,-0.902865,0,9.92496,0.541274,1.26936,2.56098,0.487805,-3.59756,-9.81479,-0.984353,0.172441,-6.43293,-26.4634,2.04268
1005.72,86.5309,-0.824084,0,9.90101,0.5772,1.2981,2.68293,1.64634,-4.11585,-9.8076,-1.00351,0.162861,-4.54268,-27.3171,2.07317
1005.73,86.484,-0.757195,0,9.91059,0.64905,1.2023,2.83537,2.40854,-4.20732,-9.79084,-0.981958,0.124541,-2.89634,-27.5305,2.10366
1005.74,86.4336,-0.658771,0,9.88185,0.732876,1.23823,2.40854,3.32317,-3.59756,-9.84353,-0.974773,0.273032,-1.12805,-28.1707,2.0122
1005.75,86.379,-0.54784,0,9.88664,0.790356,1.28852,1.52439,3.78049,-3.41463,-9.94891,-0.974773,0.347278,-0.0914634,-28.9634,2.0122
1005.76,86.3198,-0.448474,0,9.81719,0.804727,1.31008,0.853659,4.20732,-3.78049,-9.98723,-0.946033,0.316143,0.670732,-29.9695,1.70732
1005.77,86.2589,-0.328592,0,9.76689,0.802332,1.33882,0.365854,4.26829,-4.08537,-10.004,-0.946033,0.423918,1.61585,-30.7927,2.10366
1005.78,86.2075,-0.219726,0,9.73096,0.718506,1.39151,0.670732,3.75,-4.2378,-9.99681,-0.898132,0.395178,1.95122,-31.6768,2.89634
1005.79,86.1568,-0.106735,0,9.74294,0.682581,1.42025,0.823171,3.04878,-4.72561,-10.0279,-0.843047,0.433499,2.80488,-31.9817,3.56707
1005.8,86.1039,0.0162402,0,9.80521,0.689766,1.41785,1.79878,2.2561,-5.03049,-10.0926,-0.823887,0.500559,3.41463,-32.1951,4.32927
1005.81,86.0489,0.156551,0,9.84593,0.749641,1.43701,1.76829,2.22561,-4.66463,-10.1214,-0.797541,0.60115,4.14634,-32.4085,4.26829
1005.82,85.9839,0.303195,0,9.86988,0.831072,1.42504,1.64634,1.92073,-4.84756,-10.1645,-0.790356,0.656235,5.39634,-33.4756,4.90854
1005.83,85.9158,0.447335,0,9.89622,0.866997,1.40588,1.82927,1.79878,-4.90854,-10.1693,-0.756826,0.670605,5.33537,-34.3902,5.45732
1005.84,85.8533,0.628089,0,9.89862,0.852627,1.48252,1.79878,1.09756,-4.63415,-10.1645,-0.761616,0.859812,5.60976,-35.7012,5.64024
1005.85,85.7896,0.806173,0,9.90101,0.855022,1.43701,1.52439,0.670732,-4.87805,-10.0806,-0.802332,0.871787,6.03659,-36.8598,6.21951
1005.86,85.7228,0.997762,0,9.83874,0.878972,1.35798,2.13415,1.06707,-4.96951,-9.98244,-0.831072,0.953218,6.12805,-38.3232,6.95122
1005.87,85.6679,1.1928,0,9.67827,0.787961,1.32684,1.28049,-0.27439,-4.81707,-9.88185,-0.819097,0.991538,7.04268,-38.9939,7.77439
1005.88,85.6233,1.38423,0,9.75731,0.740061,1.22625,1.70732,0.97561,-4.54268,-9.80281,-0.838257,1.00112,7.19512,-39.5732,8.2622
1005.89,85.583,1.58183,0,9.72857,0.696951,1.20948,2.10366,0.121951,-4.69512,-9.80042,-0.910107,1.06099,8.38415,-39.4512,9.05488
1005.9,85.5501,1.77916,0,9.81,0.680186,1.13524,2.43902,0.884146,-4.29878,-9.69983,-0.986748,1.08255,9.17683,-39.7561,9.7561
1005.91,85.5216,1.98397,0,9.84832,0.622705,1.21427,3.14024,-0.243902,-4.63415,-9.58726,-0.981958,1.13524,10.061,-40.061,10.2134
1005.92,85.5005,2.20104,0,9.83156,0.574805,1.18074,3.75,-1.67683,-4.5122,-9.50344,-0.981958,1.21188,11.4329,-40.061,10.7622
1005.93,85.4791,2.45293,0,9.81719,0.543669,1.13763,3.75,-2.46951,-4.93902,-9.49625,-0.962798,1.3963,12.378,-39.8476,10.7012
1005.94,85.4469,2.71393,0,9.77168,0.560435,1.17116,3.53659,-2.68293,-5.82317,-9.46033,-0.938848,1.47294,13.3537,-39.2378,10.5183
1005.95,85.4089,2.97502,0,9.76689,0.538879,1.1999,2.92683,-1.76829,-6.7378,-9.40045,-0.902922,1.50886,14.3902,-38.0488,10.061
1005.96,85.3618,3.22909,0,9.72857,0.548459,1.20709,2.53049,-0.823171,-7.59146,-9.32142,-0.850232,1.51126,15.1829,-36.7683,9.35976
1005.97,85.3077,3.5057,0,9.7597,0.58199,1.2023,2.7439,-0.426829,-8.01829,-9.29268,-0.740061,1.64538,15.4268,-35,9.2378
1005.98,85.2547,3.79078,0,9.81,0.56283,1.14961,2.92683,-0.670732,-8.29268,-9.29747,-0.675395,1.7292,15.3659,-34.1159,8.87195
1005.99,85.1957,4.13504,0,9.85311,0.56283,1.09931,3.59756,-0.396341,-9.02439,-9.45314,-0.404758,2.06211,13.3537,-36.0671,8.38415
1006,85.1227,4.44037,0,9.8603,0.651445,1.13045,4.05488,-0.609756,-9.54268,-9.31184,-0.716111,1.9256,16.1585,-32.7134,8.41463
1006.01,85.0361,4.7846,0,9.92257,0.713716,1.12326,4.26829,0.426829,-10.3963,-9.25196,-0.59636,2.13157,15.2134,-32.1037,8.65854
1006.02,84.9385,5.12211,0,9.91059,0.802332,1.19032,4.05488,0.0914634,-10.6402,-9.24478,-0.64905,2.16031,15.1524,-31.2805,9.11585
1006.03,84.8338,5.48587,0,9.90101,0.852627,1.17116,3.65854,0.670732,-10.9756,-9.22801,-0.61552,2.32796,15.2134,-30.1524,9.60366
1006.04,84.7293,5.83506,0,9.87706,0.811912,1.18314,3.01829,1.61585,-11.6159,-9.25675,-0.584385,2.33514,15.0305,-29.4207,9.72561
1006.05,84.6166,6.1876,0,9.81479,0.900527,1.22146,2.71341,2.46951,-11.5549,-9.27831,-0.514929,2.41657,14.939,-28.0793,9.81707
1006.06,84.5051,6.53532,0,9.86988,0.878972,1.15679,2.31707,3.87195,-11.9817,-9.34058,-0.428708,2.47406,14.3902,-26.8902,9.72561
1006.07,84.3794,6.89547,0,9.76449,0.984353,1.23583,1.89024,2.7439,-12.2866,-9.37171,-0.330513,2.5986,13.872,-26.7378,9.20732
1006.08,84.2597,7.27509,0,9.76928,0.955613,1.21906,2.0122,3.68902,-12.2866,-9.3789,-0.306563,2.75188,12.9268,-26.1585,8.90244
1006.09,84.1351,7.62721,0,9.70222,1.03704,1.29571,1.82927,3.47561,-11.9817,-9.33818,-0.273032,2.68482,11.8293,-25.5793,8.5061
1006.1,84.017,7.97212,0,9.69504,1.03704,1.27176,1.46341,3.65854,-11.5549,-9.29986,-0.263452,2.70398,11.4634,-25.2439,8.10976
1006.11,83.9076,8.31251,0,9.66151,1.04902,1.36995,1.40244,1.76829,-10.7317,-9.2831,-0.335303,2.7399,11.0061,-25.0305,8.17073
1006.12,83.795,8.6602,0,9.82677,1.11608,1.2502,2.07317,2.31707,-10.7012,-9.21364,-0.397573,2.81175,11.0976,-24.6037,8.5061
1006.13,83.6758,9.00367,0,9.7621,1.25739,1.28373,2.2561,1.61585,-9.84756,-9.14418,-0.438289,2.83331,11.5244,-23.872,8.81098
1006.14,83.5549,9.34697,0,9.73815,1.3484,1.17835,2.0122,1.76829,-9.14634,-9.06754,-0.469424,2.86923,11.7988,-23.0488,9.35976
1006.15,83.4502,9.69779,0,9.80521,1.23344,1.24541,1.64634,2.16463,-9.20732,-9.04359,-0.440684,2.95545,11.9512,-21.9207,9.08537
1006.16,83.3418,10.0446,0,9.70941,1.24302,1.29092,1.37195,2.5,-9.54268,-9.03162,-0.404758,2.99617,11.9207,-20.9451,8.93293
1006.17,83.2329,10.3842,0,9.55613,1.24541,1.30289,1.52439,2.46951,-9.54268,-9.04359,-0.361648,3.0297,11.4939,-19.7256,8.41463
1006.18,83.1208,10.7168,0,9.79563,1.2981,1.19511,1.4939,2.77439,-9.84756,-9.11784,-0.318538,3.08479,11.3415,-18.7805,7.2561
1006.19,83.004,11.0666,0,9.63516,1.38672,1.2981,1.64634,2.16463,-9.2378,-9.11784,-0.265847,3.2213,10.2134,-18.3537,6.4939
1006.2,82.8923,11.4025,0,9.72378,1.41785,1.25739,1.7378,2.80488,-8.75,-9.17053,-0.201182,3.24046,9.66463,-17.7744,6.12805
1006.21,82.7815,11.7173,0,9.72378,1.4442,1.28373,1.55488,1.58537,-8.56707,-9.13221,-0.134121,3.19256,9.39024,-16.9207,6.03659
1006.22,82.6754,12.0435,0,9.73575,1.4921,1.26697,1.31098,4.90854,-7.77439,-9.06515,-0.107776,3.27639,8.90244,-16.4329,6.21951
1006.23,82.5787,12.3606,0,9.62558,1.45857,1.44899,1.12805,1.0061,-7.22561,-9.08191,-0.0934058,3.30034,8.56707,-16.189,6.76829
1006.24,82.4844,12.6889,0,9.79323,1.47773,1.30289,0.884146,3.32317,-7.2561,-9.07952,-0.160466,3.40811,8.2622,-15.7927,6.76829
1006.25,82.3902,12.9998,0,9.7142,1.54,1.25978,0.487805,3.17073,-6.55488,-9.10107,-0.184417,3.39614,7.89634,-15.4878,7.34756
1006.26,82.3108,13.3247,0,9.67348,1.46336,1.42983,0.335366,2.68293,-6.06707,-9.06036,-0.229922,3.50152,7.34756,-15.122,6.95122
1006.27,82.2389,13.6258,0,9.62558,1.44899,1.34361,0.27439,1.58537,-5.54878,-9.04599,-0.234712,3.44643,6.61585,-14.4207,6.46341
1006.28,82.1755,13.9206,0,9.69264,1.4442,1.346,0,1.40244,-5,-9.05078,-0.234712,3.47517,6.25,-13.3232,5.88415
1006.29,82.1022,14.2159,0,9.53457,1.53042,1.42264,-0.487805,-2.10366,-4.78659,-9.02443,-0.189207,3.52068,5.70122,-12.7744,5.21341
1006.3,82.0412,14.5043,0,9.74533,1.48252,1.34121,-0.0304878,-0.0914634,-4.66463,-9.00288,-0.182021,3.53505,5.2439,-12.378,4.81707
1006.31,81.9782,14.7784,0,9.54894,1.57113,1.33882,-0.487805,-1.43293,-3.41463,-9.01006,-0.143701,3.52547,4.5122,-11.6159,4.72561
1006.32,81.9257,15.0398,0,9.69983,1.52323,1.32205,-1.0061,-1.28049,-3.41463,-8.97653,-0.160466,3.50391,4.32927,-11.4329,4.63415
1006.33,81.8771,15.2917,0,9.67348,1.53042,1.26697,-0.914634,-0.792683,-2.89634,-8.97174,-0.210762,3.50631,3.32317,-10.6402,4.72561
1006.34,81.8381,15.5362,0,9.69743,1.52802,1.25499,-0.945122,-0.487805,-1.76829,-8.9454,-0.273032,3.5087,3.32317,-9.87805,4.90854
1006.35,81.8072,15.7641,0,9.72378,1.49928,1.22625,-1.18902,-0.731707,-1.37195,-8.98851,-0.285007,3.49433,3.01829,-9.48171,4.78659
1006.36,81.78,15.9854,0,9.71659,1.4921,1.22625,-1.58537,-1.09756,-0.701219,-9.03401,-0.347278,3.52307,2.46951,-9.35976,4.87805
1006.37,81.7712,16.1965,0,9.69983,1.42504,1.20709,-1.55488,-1.28049,-0.182927,-9.06275,-0.354463,3.52786,2.68293,-9.20732,4.78659
1006.38,81.7823,16.3952,0,9.73096,1.33882,1.18074,-1.4939,-1.52439,-0.548781,-9.07952,-0.349673,3.51589,2.71341,-8.84146,4.84756
1006.39,81.8081,16.5865,0,9.75012,1.32684,1.20709,-1.09756,-1.76829,0.0609756,-9.09149,-0.373623,3.52307,2.89634,-8.65854,4.84756
1006.4,81.8322,16.7836,0,9.73096,1.31487,1.23104,-0.945122,-2.40854,-0.152439,-9.0867,-0.308958,3.58295,2.9878,-8.2622,4.72561
1006.41,81.8607,16.9611,0,9.79323,1.31487,1.19032,-0.426829,-3.32317,0,-9.06515,-0.282612,3.52068,2.89634,-7.92683,4.90854
1006.42,81.8879,17.1363,0,9.8076,1.31008,1.16637,-0.243902,-3.44512,-0.0609756,-9.01725,-0.340093,3.52307,2.13415,-7.10366,4.81707
1006.43,81.9292,17.3115,0,9.80521,1.25739,1.08255,-0.213415,-3.53659,0.182927,-9.01725,-0.376018,3.55421,2.10366,-6.40244,4.54268
1006.44,81.969,17.4647,0,9.7621,1.26218,1.03465,0.121951,-3.07927,0,-9.03162,-0.421523,3.48954,1.70732,-5.7622,4.05488
1006.45,82.0026,17.6121,0,9.76689,1.27176,1.03225,0.213415,-2.7439,-0.0304878,-9.08431,-0.419128,3.50631,1.4939,-4.87805,3.75
1006.46,82.0476,17.7568,0,9.7597,1.22146,1.07776,0.27439,-2.46951,0.213415,-9.07233,-0.443079,3.5111,1.34146,-4.48171,3.41463
1006.47,82.0845,17.8825,0,9.80281,1.24302,1.06099,0.304878,-1.89024,-0.0914634,-9.06754,-0.443079,3.44643,1.21951,-4.20732,3.75
1006.48,82.1282,18.0161,0,9.83635,1.22146,1.06578,0.27439,-2.13415,0.0914634,-9.0388,-0.459844,3.48475,0.914634,-3.84146,3.90244
1006.49,82.1614,18.1297,0,9.86748,1.24541,1.03704,0.304878,-1.31098,-0.0914634,-9.06036,-0.490979,3.43206,1.06707,-3.93293,4.11585
1006.5,82.1901,18.2438,0,9.89622,1.24781,1.04662,0.121951,-0.945122,-0.182927,-9.09868,-0.445474,3.45122,1.06707,-3.23171,4.17683
1006.51,82.2159,18.3725,0,9.83156,1.25978,1.11847,0.365854,-0.701219,-0.0609756,-9.13939,-0.459844,3.57576,0.579268,-4.05488,4.32927
1006.52,82.2482,18.4913,0,9.82437,1.22146,1.04183,0.335366,0.304878,-0.182927,-9.137,-0.531694,3.559,-0.0304878,-4.42073,4.60366
1006.53,82.2796,18.5795,0,9.75731,1.23104,1.10889,0.548781,0.548781,0.0304878,-9.14418,-0.498164,3.44883,-0.548781,-5,4.66463
1006.54,82.312,18.6672,0,9.73096,1.22146,1.08015,0.670732,0.914634,0.0304878,-9.09149,-0.407153,3.44404,-0.0304878,-5.60976,4.81707
1006.55,82.3351,18.7248,0,9.70222,1.24062,1.10171,0.640244,1.34146,0.0914634,-9.0867,-0.342488,3.32189,0.670732,-5.39634,5.18293
1006.56,82.3538,18.8009,0,9.68306,1.24781,1.13763,0.579268,0.670732,0.121951,-9.0867,-0.349673,3.41051,1.12805,-4.35976,5.67073
1006.57,82.3768,18.8812,0,9.78844,1.24062,1.14242,0.609756,0.792683,0.0914634,-9.05557,-0.431104,3.42009,1.4939,-3.56707,5.54878
1006.58,82.3807,18.9701,0,9.79084,1.2981,1.21906,1.03659,0.0914634,0,-9.08191,-0.512534,3.44883,1.03659,-2.56098,5.21341
1006.59,82.3853,19.0645,0,9.83156,1.30289,1.1999,1.06707,0.426829,0.121951,-9.09389,-0.56762,3.45122,0.762195,-1.92073,5.27439
1006.6,82.3906,19.1595,0,9.86269,1.30529,1.17116,1.06707,0.182927,0.182927,-9.06275,-0.59636,3.44883,0.762195,-1.82927,5.54878
1006.61,82.3859,19.2583,0,9.83156,1.32684,1.17835,0.518293,1.0061,-0.0914634,-9.11784,-0.56283,3.47517,0.853659,-1.4939,6.09756
1006.62,82.3871,19.3479,0,9.8124,1.29571,1.14482,0.640244,1.09756,-0.304878,-9.11544,-0.55804,3.50391,0.823171,-2.0122,6.46341
1006.63,82.3854,19.4323,0,9.76689,1.27894,1.18793,0.396341,1.46341,-0.762195,-9.20166,-0.534089,3.55181,1.21951,-2.19512,6.82927
1006.64,82.3881,19.5027,0,9.76928,1.26457,1.19032,0.609756,1.4939,-0.670732,-9.18729,-0.493374,3.50152,1.25,-2.10366,6.95122
1006.65,82.3862,19.5686,0,9.76689,1.26218,1.18074,0.365854,1.0061,-1.03659,-9.16334,-0.433499,3.49912,1.12805,-2.37805,7.34756
1006.66,82.3866,19.6292,0,9.78366,1.26697,1.29331,0.27439,0.762195,-0.823171,-9.15137,-0.397573,3.47517,1.34146,-2.13415,6.82927
1006.67,82.3779,19.6982,0,9.78605,1.3005,1.20709,0.121951,0.213415,-1.03659,-9.16334,-0.368833,3.52547,1.18902,-2.16463,6.43293
1006.68,82.3727,19.7776,0,9.77886,1.26697,1.20948,0.213415,0.213415,-1.28049,-9.16095,-0.376018,3.57576,1.25,-2.13415,6.21951
1006.69,82.3553,19.8489,0,9.7597,1.34121,1.19511,-0.0914634,0.426829,-1.15854,-9.17292,-0.347278,3.57337,0.609756,-2.31707,6.12805
1006.7,82.3499,19.9176,0,9.72617,1.28134,1.18074,-0.304878,0.243902,-1.03659,-9.15616,-0.328118,3.559,0.487805,-2.10366,5.82317
1006.71,82.343,19.966,0,9.75491,1.28852,1.18314,-0.426829,0.640244,-1.12805,-9.17053,-0.330513,3.50391,0.335366,-2.19512,6.03659
1006.72,82.3435,20.0227,0,9.72378,1.24781,1.18793,-0.243902,0.731707,-1.09756,-9.12502,-0.340093,3.52547,-0.0914634,-2.19512,5.82317
1006.73,82.342,20.0701,0,9.78366,1.27415,1.17835,0.0304878,0.945122,-0.97561,-9.09628,-0.323328,3.48954,0.152439,-2.22561,6.09756
1006.74,82.3438,20.1219,0,9.8124,1.2502,1.23823,0.304878,0.853659,-1.09756,-9.10347,-0.366438,3.52307,0.0914634,-2.37805,6.34146
1006.75,82.3456,20.1615,0,9.83395,1.24781,1.16158,0.396341,1.03659,-1.15854,-9.06275,-0.352068,3.4608,0,-2.10366,6.4939
1006.76,82.3386,20.2179,0,9.81479,1.26936,1.22146,0.823171,0.731707,-1.52439,-9.07952,-0.335303,3.52786,0.243902,-1.89024,6.4939
1006.77,82.3259,20.2902,0,9.79563,1.31008,1.20469,0.853659,1.31098,-1.43293,-9.10347,-0.294587,3.61169,0.121951,-1.98171,6.28049
1006.78,82.3107,20.3526,0,9.76449,1.33163,1.20709,0.762195,1.43293,-1.28049,-9.14418,-0.337698,3.60929,-0.0304878,-2.04268,6.31098
1006.79,82.3066,20.4081,0,9.73096,1.24062,1.22386,0.609756,1.58537,-1.61585,-9.16574,-0.313748,3.60211,-0.182927,-1.98171,5.88415
1006.8,82.2977,20.4717,0,9.67348,1.26697,1.23583,0.853659,1.34146,-1.58537,-9.137,-0.296982,3.63324,-0.548781,-2.04268,5.94512
1006.81,82.2882,20.5233,0,9.73815,1.28613,1.23823,1.09756,1.34146,-1.4939,-9.11544,-0.335303,3.58774,-0.823171,-1.98171,5.91463
1006.82,82.2833,20.5786,0,9.76449,1.27176,1.2023,0.97561,1.21951,-1.37195,-9.07952,-0.265847,3.59253,-1.09756,-1.92073,6.06707
1006.83,82.2784,20.6434,0,9.72857,1.25739,1.23344,1.12805,1.09756,-1.52439,-9.09389,-0.296982,3.65001,-1.37195,-2.04268,5.91463
1006.84,82.2623,20.7152,0,9.77407,1.3005,1.17595,1.25,1.21951,-2.0122,-9.0891,-0.249082,3.7027,-1.92073,-2.37805,6.03659
1006.85,82.2412,20.7763,0,9.79803,1.346,1.19272,1.0061,0.426829,-1.95122,-9.08431,-0.306563,3.67157,-2.2561,-2.37805,5.88415
1006.86,82.2207,20.8302,0,9.78605,1.35558,1.27176,1.25,0.853659,-1.76829,-9.11544,-0.282612,3.67396,-2.56098,-2.59146,5.88415
1006.87,82.2031,20.8853,0,9.81479,1.35079,1.20948,1.55488,1.40244,-1.64634,-9.07473,-0.301772,3.67635,-3.01829,-2.77439,6.03659
1006.88,82.177,20.957,0,9.82437,1.39151,1.19032,1.64634,1.4939,-2.0122,-9.0388,-0.373623,3.73384,-3.17073,-2.59146,6.25
1006.89,82.1443,21.0046,0,9.81958,1.4442,1.18553,1.4939,1.82927,-1.98171,-9.05078,-0.399968,3.65959,-2.83537,-2.83537,6.43293
1006.9,82.126,21.0562,0,9.76689,1.36037,1.23344,1.82927,1.55488,-1.67683,-9.02443,-0.435894,3.66677,-2.31707,-2.56098,6.4939
1006.91,82.1041,21.0904,0,9.68785,1.37235,1.29092,1.95122,1.46341,-1.7378,-9.07473,-0.423918,3.62606,-2.40854,-2.46951,6.43293
1006.92,82.0842,21.1318,0,9.73096,1.39151,1.2023,2.10366,1.52439,-1.31098,-9.01485,-0.462239,3.61648,-1.89024,-1.82927,6.76829
1006.93,82.0647,21.1627,0,9.6663,1.37235,1.32684,2.34756,0.670732,-1.52439,-8.99809,-0.419128,3.58055,-1.52439,-1.82927,6.40244
1006.94,82.0452,21.1823,0,9.69504,1.39151,1.2526,2.37805,1.06707,-1.28049,-9.03641,-0.421523,3.56139,-1.31098,-1.70732,6.15854
1006.95,82.0236,21.1905,0,9.68306,1.40827,1.23344,1.95122,0.518293,-1.18902,-9.0412,-0.445474,3.52786,-1.18902,-1.55488,6.09756
1006.96,82.0024,21.2244,0,9.71659,1.42264,1.28134,1.52439,0.579268,-0.945122,-9.04838,-0.407153,3.61887,-1.12805,-1.67683,5.97561
1006.97,81.9834,21.25,0,9.67827,1.41546,1.29331,1.46341,1.09756,-0.609756,-9.03401,-0.419128,3.59253,-1.21951,-1.7378,5.57927
1006.98,81.9588,21.3042,0,9.75252,1.45617,1.33642,1.12805,0.823171,-0.304878,-9.01246,-0.364043,3.66917,-1.55488,-1.43293,5.45732
1006.99,81.9286,21.344,0,9.72857,1.47533,1.28852,1.06707,1.09756,-0.243902,-8.97893,-0.409548,3.61408,-1.40244,-1.31098,5.60976
1007,81.8989,21.3658,0,9.7597,1.48252,1.32684,0.670732,1.31098,-0.121951,-8.96456,-0.423918,3.56618,-1.18902,-1.43293,5.94512
1007.01,81.8727,21.3718,0,9.72378,1.47054,1.29092,0.121951,1.15854,0.0609756,-9.0412,-0.462239,3.55181,-1.18902,-1.03659,5.57927
1007.02,81.8549,21.3936,0,9.69504,1.47054,1.36277,-0.0304878,1.18902,0.426829,-9.14179,-0.462239,3.63803,-1.0061,-1.06707,5.70122
1007.03,81.8442,21.384,0,9.67588,1.44899,1.36516,-0.457317,0.853659,0.518293,-9.2352,-0.452659,3.58534,-0.945122,-1.40244,5.21341
1007.04,81.8337,21.3555,0,9.69504,1.43701,1.42504,-0.0914634,0.640244,0.27439,-9.1849,-0.462239,3.50152,-0.335366,-1.52439,5.42683
1007.05,81.8376,21.3428,0,9.70701,1.40588,1.36277,-0.0609756,0.579268,0.701219,-9.10826,-0.445474,3.5111,-0.548781,-2.2561,5.70122
1007.06,81.8393,21.3427,0,9.73815,1.40348,1.37953,-0.243902,0.548781,0.365854,-9.11544,-0.462239,3.559,0.152439,-2.56098,6.43293
1007.07,81.838,21.3287,0,9.71899,1.42025,1.34121,-0.121951,0.701219,0.518293,-9.18011,-0.471819,3.52547,0.0914634,-2.92683,6.25
1007.08,81.8409,21.3119,0,9.69504,1.41785,1.30768,-0.640244,0.27439,0.884146,-9.24478,-0.416733,3.53265,0.762195,-3.35366,6.21951
1007.09,81.8508,21.3019,0,9.68785,1.38672,1.38672,-0.609756,0.213415,0.97561,-9.17772,-0.399968,3.53265,0.792683,-3.59756,6.34146
1007.1,81.8651,21.3084,0,9.68306,1.35558,1.32445,-0.731707,0.243902,0.792683,-9.15376,-0.411943,3.59492,0.823171,-4.29878,6.82927
1007.11,81.8766,21.31,0,9.67588,1.37235,1.31966,-0.792683,0.335366,0.97561,-9.1849,-0.373623,3.58534,0.701219,-4.90854,6.70732
1007.12,81.8968,21.3067,0,9.70222,1.33642,1.29092,-1.09756,0.487805,1.15854,-9.2304,-0.340093,3.58055,0.518293,-5.42683,6.89024
1007.13,81.9178,21.305,0,9.73575,1.32684,1.19511,-0.792683,1.25,0.97561,-9.28789,-0.282612,3.60929,0.213415,-5.73171,6.43293
1007.14,81.9321,21.2998,0,9.75252,1.36756,1.22146,-0.945122,1.58537,1.15854,-9.37171,-0.241897,3.62366,-0.426829,-6.67683,6.52439
1007.15,81.9503,21.2953,0,9.79084,1.35079,1.24302,-0.914634,1.4939,1.21951,-9.38608,-0.251477,3.63085,-0.396341,-7.7439,6.25
1007.16,81.9722,21.2889,0,9.83874,1.32924,1.19032,-0.487805,1.76829,1.12805,-9.32621,-0.261057,3.59732,-0.945122,-8.41463,5.97561
1007.17,81.9943,21.2848,0,9.87706,1.33163,1.2023,-0.182927,2.2561,1.21951,-9.32381,-0.320933,3.6045,-0.762195,-9.63415,5.88415
1007.18,82.0179,21.2592,0,9.85072,1.31726,1.22625,0.182927,2.37805,1.25,-9.30226,-0.356858,3.49433,-1.0061,-10.4268,6.03659
1007.19,82.0454,21.2444,0,9.86269,1.29571,1.26936,0.396341,2.59146,1.40244,-9.37411,-0.411943,3.56618,-0.701219,-11.4634,6.37195
1007.2,82.0802,21.2196,0,9.90341,1.24302,1.27415,1.06707,3.62805,0.945122,-9.46512,-0.481399,3.54942,-0.182927,-12.7439,6.28049
1007.21,82.1159,21.2021,0,9.88185,1.23104,1.23583,1.15854,3.56707,1.0061,-9.49146,-0.486189,3.58774,0.487805,-14.1159,6.34146
1007.22,82.1405,21.1939,0,9.7597,1.27415,1.31726,1.7378,3.93293,1.03659,-9.45554,-0.498164,3.61408,1.0061,-15.8537,6.40244
1007.23,82.1634,21.1788,0,9.78844,1.27655,1.23823,2.04268,5,0.762195,-9.41722,-0.431104,3.56379,1.82927,-17.1037,6.70732
1007.24,82.1761,21.1648,0,9.63995,1.29571,1.27176,2.5,3.96341,0.487805,-9.45314,-0.431104,3.57816,2.46951,-18.4146,6.52439
1007.25,82.1994,21.1575,0,9.63037,1.2526,1.32205,2.62195,3.2622,0.701219,-9.40285,-0.392783,3.58774,2.53049,-19.6646,6.85976
1007.26,82.2367,21.1386,0,9.62079,1.19511,1.36516,3.04878,2.19512,0.457317,-9.3789,-0.395178,3.52068,2.53049,-20.9756,6.92073
1007.27,82.2766,21.1384,0,9.55852,1.18793,1.35079,3.07927,1.03659,0.182927,-9.37171,-0.378413,3.60211,2.68293,-22.1646,6.89024
1007.28,82.3268,21.1391,0,9.58487,1.11608,1.35798,2.92683,0.914634,-0.365854,-9.38369,-0.361648,3.60929,2.2561,-23.75,6.89024
1007.29,82.3721,21.1414,0,9.61121,1.09931,1.36516,3.65854,0.457317,-0.548781,-9.38608,-0.275427,3.61648,1.58537,-25,6.89024
1007.3,82.4009,21.1383,0,9.75252,1.10171,1.41067,3.81098,0.243902,-1.03659,-9.46751,-0.246687,3.62127,1.09756,-26.8902,6.89024
1007.31,82.409,21.1559,0,9.77886,1.17595,1.36277,3.65854,0.0304878,-1.37195,-9.53936,-0.227527,3.74581,0.396341,-28.9024,6.52439
1007.32,82.4105,21.1763,0,9.78366,1.21188,1.36037,3.62805,-1.18902,-1.40244,-9.53697,-0.268242,3.76018,-0.0304878,-30.9146,6.4939
1007.33,82.4018,21.2022,0,9.81958,1.2502,1.28134,3.59756,-0.884146,-1.76829,-9.48907,-0.328118,3.76976,-0.518293,-33.0183,6.98171
1007.34,82.3736,21.2494,0,9.74294,1.36516,1.25978,2.40854,-2.37805,-1.92073,-9.43877,-0.337698,3.85598,-0.792683,-35.2744,7.2561
1007.35,82.3434,21.2748,0,9.7597,1.38911,1.32205,0.304878,-2.34756,-1.85976,-9.41003,-0.428708,3.74581,-0.396341,-37.378,8.01829
1007.36,82.3165,21.2687,0,9.86988,1.32205,1.42264,-1.25,-3.10976,-2.80488,-9.4244,-0.426313,3.6045,0.487805,-38.5061,8.56707
1007.37,82.2932,21.2736,0,9.86988,1.28613,1.56634,-0.97561,-3.17073,-2.95732,-9.43159,-0.471819,3.65719,0.884146,-40,8.71951
1007.38,82.2709,21.2059,0,9.91538,1.26457,1.54958,-0.670732,-1.61585,-3.23171,-9.46033,-0.58678,3.32429,2.31707,-40.9451,8.5061
1007.39,82.2352,21.0921,0,9.9082,1.35319,1.4418,-0.182927,-1.0061,-3.53659,-9.40764,-0.510139,3.08,4.93902,-41.128,8.17073
1007.4,82.1902,21.103,0,9.98005,1.43941,1.36037,-1.52439,-3.32317,-3.65854,-9.6639,-0.493374,3.73863,5.67073,-43.7805,8.32317
1007.41,82.1361,21.1638,0,9.98244,1.56155,1.10171,-3.47561,-4.2378,-3.20122,-10.0303,-0.519719,4.1338,5.06098,-48.6585,7.7439
1007.42,82.0611,21.2793,0,9.88185,1.71004,0.969983,-8.17073,-5.06098,-3.47561,-10.313,-0.514929,4.55054,4.17683,-54.9085,7.53049
1007.43,82.0084,21.4331,0,10.0926,1.47773,1.02986,-10.3659,-9.42073,-4.57317,-10.2459,-0.435894,4.74693,3.78049,-61.5244,7.80488
1007.44,81.9797,21.647,0,10.3704,1.17116,1.40109,-6.15854,-15,-6.09756,-10.1118,-0.270637,5.04152,2.9878,-67.4695,9.66463
1007.45,81.9284,21.8395,0,10.4806,1.22864,1.36516,-1.55488,-20.6402,-7.95732,-9.93933,-0.287402,4.88105,2.07317,-71.6463,11.7683
1007.46,81.8646,21.9965,0,10.2148,1.17356,1.28852,0.97561,-21.0976,-9.60366,-9.69025,-0.390388,4.61041,2.07317,-72.439,13.75
1007.47,81.7977,22.2007,0,10.1142,0.998723,0.946033,2.59146,-19.6037,-11.9207,-9.43159,-0.459844,4.76369,2.80488,-72.2866,15.4268
1007.48,81.7089,22.4826,0,10.0615,1.02746,0.524509,3.2622,-24.2988,-13.9024,-9.27591,-0.526904,5.13253,3.59756,-73.2622,16.6463
1007.49,81.6042,22.82,0,9.89862,0.948428,0.541274,0.823171,-24.1463,-16.4329,-9.27112,-0.548459,5.48938,4.90854,-75.1829,17.1037
1007.5,81.5003,23.1837,0,9.8555,0.732876,0.941243,-0.213415,-25.0915,-19.0549,-9.24717,-0.464634,5.69536,6.70732,-76.1585,16.8293
1007.51,81.3724,23.5835,0,10.1166,0.787961,1.17356,1.79878,-22.3171,-21.311,-9.18011,-0.404758,5.93965,7.65244,-75.7622,16.0061
1007.52,81.2548,24.0377,0,10.7249,0.56283,0.910107,6.46341,-21.8293,-23.4756,-8.91187,-0.222737,6.16718,8.62805,-74.8476,15.1524
1007.53,81.119,24.5471,0,10.8782,0.414338,0.799937,9.81707,-27.8354,-27.2561,-8.63884,0.0191602,6.40189,8.2622,-72.8354,13.9329
1007.54,80.947,25.0853,0,10.7584,0.550855,0.560435,7.92683,-23.5976,-29.6951,-8.27719,0.160466,6.41865,7.83537,-69.5732,13.8415
1007.55,80.7852,25.7092,0,10.4878,0.280217,0.972378,10.8841,-17.5305,-31.8598,-8.0329,0.222737,6.86413,6.89024,-66.2195,13.7195
1007.56,80.6018,26.3693,0,10.3153,0.335303,1.52323,13.5061,-19.9695,-33.7195,-7.72633,0.105381,6.9743,5.60976,-61.9817,14.1463
1007.57,80.3845,27.0366,0,10.392,0.505349,1.21427,12.2561,-18.4451,-35.6707,-7.56347,-0.00958008,7.03657,4.87805,-57.9878,14.2988
1007.58,80.1259,27.7372,0,10.2914,0.785566,1.00591,10.4573,-18.2317,-37.1037,-7.3551,-0.146096,7.21859,3.35366,-53.3841,14.4512
1007.59,79.85,28.4872,0,10.3872,0.869392,0.847837,9.45122,-12.2561,-38.5366,-7.13716,-0.191602,7.5036,1.4939,-49.2988,15.0915
1007.6,79.537,29.2336,0,9.93215,1.06578,1.33163,8.59756,-15.4573,-40.1524,-7.03896,-0.155676,7.57784,0.0914634,-44.9695,15.4268
1007.61,79.2499,29.9521,0,10.2267,0.890947,1.14003,9.2378,-10.9756,-40.4878,-6.95035,-0.0934058,7.5012,-0.518293,-39.7256,16.0671
1007.62,78.9202,30.6782,0,10.0256,1.19272,1.05381,10.3354,-12.9573,-41.7378,-6.8306,0.0766406,7.61616,-1.76829,-35.5183,16.7073
1007.63,78.5406,31.353,0,9.72617,1.54479,1.07536,9.66463,-14.1159,-42.9268,-6.9264,0.217947,7.57545,-2.07317,-31.5244,17.6524
1007.64,78.092,31.9712,0,9.66869,2.04056,0.888552,9.2378,-13.9939,-44.8476,-7.01262,0.287402,7.47486,-2.19512,-27.4085,18.0793
1007.65,77.5964,32.5653,0,9.75491,2.34472,0.728086,8.53659,-14.939,-47.2866,-7.10842,0.246687,7.58503,-2.37805,-23.2012,17.561
1007.66,77.0553,33.1283,0,9.94173,2.68721,0.689766,8.07927,-18.0183,-49.6646,-7.1635,0.179626,7.597,-2.53049,-20.5183,17.2256
1007.67,76.4878,33.6751,0,9.96807,2.85247,0.687371,8.65854,-18.1707,-51.7378,-7.17308,0.100591,7.65209,-2.83537,-17.378,16.4024
1007.68,75.9023,34.2222,0,10.1022,3.09437,0.5772,10.5488,-17.8354,-52.561,-7.08926,0.153281,7.71436,-2.59146,-14.4207,15.3659
1007.69,75.3002,34.7907,0,10.1285,3.3171,0.344883,10.7317,-16.8902,-53.2012,-6.99585,0.174836,7.91314,-3.17073,-12.0122,14.9695
1007.7,74.6801,35.3476,0,9.92496,3.47757,0.421523,9.69512,-12.8659,-53.872,-7.04136,0.213157,8.04487,-4.17683,-9.54268,14.7256
1007.71,74.0739,35.9013,0,9.99202,3.4153,0.411943,11.2195,-13.872,-54.6037,-7.1156,0.263452,8.26761,-5.27439,-6.61585,14.5427
1007.72,73.4422,36.4173,0,9.75252,3.55181,0.383203,12.5915,-14.9695,-56.128,-7.28086,0.376018,8.33227,-6.52439,-4.84756,14.6646
1007.73,72.7996,36.9123,0,9.73815,3.72186,0.0407153,10.8537,-14.2073,-56.6768,-7.4054,0.481399,8.31551,-7.07317,-2.34756,14.6951
1007.74,72.1588,37.4613,0,9.82677,3.68833,-0.00239502,9.81707,-13.9634,-58.5061,-7.53234,0.493374,8.3658,-7.92683,-0.609756,15.2134
1007.75,71.4965,37.8841,0,9.80521,3.83443,0.0574805,11.7988,-17.622,-60.3963,-7.73831,0.390388,8.40891,-8.53659,1.61585,14.6037
1007.76,70.795,38.257,0,9.67588,4.07153,-0.208367,12.2866,-20.8232,-62.7744,-7.7431,0.368833,8.34185,-8.68902,3.01829,14.0854
1007.77,70.0615,38.6013,0,9.63516,4.35894,-0.285007,10.6098,-19.2683,-64.3598,-7.77663,0.301772,8.32748,-8.87195,5.21341,13.2622
1007.78,69.3215,38.9207,0,9.71659,4.4236,-0.0407153,11.3415,-21.6463,-66.25,-7.78621,0.167651,8.26282,-9.08537,7.5,12.1646
1007.79,68.5695,39.206,0,9.73815,4.58646,-0.215552,12.2561,-22.2866,-67.4695,-7.75986,-0.0215552,8.08559,-9.2378,10.3049,10.4268
1007.8,67.8029,39.4891,0,9.63277,4.78525,-0.354463,12.2561,-24.0244,-68.0488,-7.71436,-0.0886157,8.10475,-9.63415,12.2256,9.42073
1007.81,67.0202,39.7605,0,9.37411,4.9529,-0.301772,11.128,-22.3171,-68.3232,-7.67364,-0.143701,8.06164,-9.78659,13.689,8.20122
1007.82,66.2429,40.0043,0,9.38369,5.0008,-0.392783,11.7988,-23.872,-68.9634,-7.68083,-0.126936,7.95146,-10.7012,15.4573,7.83537
1007.83,65.4522,40.2331,0,9.39327,5.2882,-0.433499,10,-23.5366,-69.2073,-7.64251,-0.0646655,7.87722,-10.5183,17.1037,7.62195
1007.84,64.6582,40.4138,0,9.24238,5.40556,-0.426313,8.2622,-23.2317,-69.2378,-7.69041,0.0239502,7.66167,-10.0305,19.1768,7.92683
1007.85,63.8707,40.5605,0,9.14658,5.35047,-0.366438,9.20732,-22.8049,-70.1829,-7.6928,0.0814307,7.48683,-9.54268,21.3415,8.84146
1007.86,63.0786,40.6724,0,9.02922,5.41993,-0.531694,9.54268,-24.3598,-70.9451,-7.70478,0.0550855,7.31199,-9.39024,23.1707,9.17683
1007.87,62.2904,40.7483,0,9.03401,5.47022,-0.419128,9.42073,-24.8171,-71.7073,-7.70957,-0.0239502,7.118,-8.44512,25.4573,8.90244
1007.88,61.5019,40.8089,0,8.7993,5.46304,-0.249082,9.78659,-26.25,-72.0427,-7.72394,-0.0670605,7.05573,-7.65244,26.8902,8.68902
1007.89,60.7267,40.8528,0,8.8496,5.5301,-0.526904,8.81098,-28.8415,-71.9512,-7.64251,-0.158071,6.89526,-6.89024,28.2317,7.68293
1007.9,59.9479,40.8857,0,8.52866,5.56363,-0.481399,7.95732,-28.3841,-71.6159,-7.58024,-0.237107,6.78509,-6.98171,30.061,6.34146
1007.91,59.2053,40.9112,0,8.68913,5.53489,-0.440684,7.22561,-26.5854,-70.7927,-7.5036,-0.349673,6.6821,-6.85976,31.4634,4.84756
1007.92,58.4387,40.8893,0,8.23887,5.66183,-0.323328,4.87805,-26.9512,-70.6707,-7.45809,-0.380808,6.37554,-6.76829,33.9634,3.29268
1007.93,57.7147,40.8352,0,8.49274,5.59956,-0.699346,3.71951,-25.4268,-70.1219,-7.42217,-0.383203,6.16239,-5.97561,35.9451,1.7378
1007.94,56.9859,40.7401,0,8.29874,5.59956,-0.526904,2.9878,-24.7256,-70.8537,-7.42935,-0.411943,5.93486,-4.90854,37.7134,0.792683
1007.95,56.2523,40.6277,0,8.04487,5.66183,-0.907712,2.10366,-26.372,-70.5183,-7.39822,-0.356858,5.80074,-3.2622,39.7866,-0.0609756
1007.96,55.5338,40.5128,0,8.10954,5.59716,-0.752036,1.64634,-26.8293,-71.5549,-7.4054,-0.340093,5.772,-2.46951,41.6463,-0.579268
1007.97,54.8116,40.3818,0,7.96584,5.6259,-0.888552,0.945122,-27.4085,-72.1341,-7.43893,-0.342488,5.69057,-2.04268,42.561,-1.55488
1007.98,54.0811,40.2067,0,7.61616,5.51094,-0.665815,0.792683,-29.4817,-73.1098,-7.41977,-0.366438,5.42711,-1.67683,45,-2.59146
1007.99,53.356,40.0298,0,7.51557,5.30976,-0.890947,-0.182927,-33.7195,-75.3659,-7.3551,-0.352068,5.3385,-1.76829,47.4695,-3.75
1008,52.6495,39.8746,0,7.39343,5.01996,-0.723296,0.335366,-37.5915,-77.1341,-7.30481,-0.337698,5.37682,-2.22561,49.1159,-4.05488
1008.01,51.9526,39.6503,0,7.46049,4.71819,-0.833467,-2.37805,-36.8598,-81.4024,-7.26888,-0.342488,4.98883,-2.37805,51.3415,-4.57317
1008.02,51.257,39.415,0,7.45809,4.56012,-0.735271,-2.9878,-32.8049,-84.4512,-7.3072,-0.294587,4.92416,-2.53049,53.811,-4.66463
1008.03,50.5648,39.1671,0,8.01613,4.70142,-0.993933,-1.7378,-36.311,-87.6829,-7.34552,-0.344883,4.84991,-3.2622,56.4024,-5
1008.04,49.8638,38.8584,0,7.93709,4.61999,-1.2526,-1.18902,-32.1037,-90.3659,-7.40301,-0.383203,4.56491,-3.20122,58.2622,-5.2439
1008.05,49.1556,38.5629,0,8.15025,4.77088,-1.48012,-0.701219,-26.5854,-92.2561,-7.49402,-0.464634,4.62718,-3.5061,60.2134,-5.94512
1008.06,48.3176,38.2669,0,7.64011,6.00192,-1.36516,-0.731707,-26.6463,-91.0061,-7.60419,-0.464634,4.63915,-3.96341,60.1829,-6.37195
1008.07,47.4555,37.8948,0,7.71436,6.53122,-1.4418,-1.06707,-21.2195,-90.8841,-7.70238,-0.450264,4.29906,-4.20732,60.122,-6.52439
1008.08,46.5767,37.5315,0,7.62095,6.73958,-1.42025,-1.82927,-21.311,-91.8293,-7.71915,-0.500559,4.28469,-4.69512,62.8354,-6.89024
1008.09,45.6589,37.1344,0,7.18027,6.98867,-1.13763,-1.12805,-17.9878,-92.0122,-7.7431,-0.560435,4.0859,-4.66463,63.9329,-6.18902
1008.1,44.7515,36.7332,0,7.15632,6.97909,-1.23583,-0.518293,-17.439,-92.7134,-7.72633,-0.598755,3.9925,-3.75,65.7317,-5.91463
1008.11,43.8428,36.3367,0,6.70605,6.75156,-0.859812,0.731707,-18.0793,-92.8354,-7.67125,-0.608335,3.91825,-4.11585,67.9268,-4.69512
1008.12,42.9084,35.9323,0,6.28214,6.6845,-1.11847,0.0609756,-15.4268,-94.0854,-7.76944,-0.593965,3.86796,-4.02439,68.9939,-3.53659
1008.13,41.9558,35.5105,0,6.38752,7.3072,-1.00351,-1.79878,-17.2866,-93.6281,-7.77184,-0.64905,3.72905,-3.62805,70.7012,-2.40854
1008.14,41.0098,35.0822,0,6.46895,7.68322,-1.152,-3.71951,-17.1341,-92.7439,-7.75268,-0.656235,3.62366,-2.5,72.2561,-1.79878
1008.15,40.0852,34.601,0,6.24142,7.22098,-0.912502,-4.39024,-18.2012,-93.9939,-7.89877,-0.696951,3.40093,-1.64634,73.7195,-1.25
1008.16,39.0949,34.0939,0,5.47741,7.5012,-0.804727,-5.21341,-17.5305,-92.9878,-7.92991,-0.66821,3.23088,-1.43293,75.3659,-1.12805
1008.17,38.1859,33.663,0,5.90851,7.47486,-0.924478,-4.32927,-17.1646,-91.189,-8.00895,-0.622705,3.49673,-0.97561,75.3049,-1.12805
1008.18,37.2539,33.2039,0,5.80553,7.8389,-1.37235,-5.79268,-14.0854,-91.7073,-8.00416,-0.579595,3.30513,-0.701219,74.4207,-1.37195
1008.19,36.304,32.6934,0,5.61872,7.60898,-0.991538,-5.15244,-13.8415,-95.2744,-8.04248,-0.493374,3.03688,-0.182927,75.2439,-1.37195
1008.2,35.3484,32.2612,0,5.48459,7.70478,-1.04902,-6.46341,-13.75,-95.7622,-7.98979,-0.486189,3.25244,-0.548781,75.2744,-1.82927
1008.21,34.4034,31.7537,0,5.35287,7.03896,-2.37346,-5.30488,-2.65244,-100.305,-8.03529,-0.438289,2.89558,-1.06707,74.7866,-1.92073
1008.22,33.3921,31.2078,0,5.0511,8.12151,-0.63947,-6.89024,-9.5122,-98.0488,-7.98979,-0.431104,2.64889,0.0304878,75.7927,-2.07317
1008.23,32.3422,30.7552,0,4.38768,8.464,-1.21427,-6.09756,-12.2561,-94.9085,-7.9826,-0.404758,2.92911,0.213415,74.8476,-1.85976
1008.24,31.2889,30.2654,0,4.05716,8.39933,-1.43701,-10.6098,-9.96951,-94.0854,-7.85806,-0.502954,2.66805,0.0914634,74.1768,-1.70732
1008.25,30.2771,29.794,0,4.11704,8.11912,-1.31487,-5.15244,-12.3171,-94.2683,-7.86045,-0.416733,2.66566,0.121951,75.3354,-1.0061
1008.26,29.331,29.3417,0,4.46911,8.26042,-1.95913,-5,-15.061,-92.7439,-7.88201,-0.411943,2.67524,0.121951,75.5488,0.213415
1008.27,28.396,28.7948,0,4.46432,8.28198,-1.7292,-6.06707,-14.0854,-93.3537,-7.86285,-0.447869,2.24174,0.792683,77.1037,0.426829
1008.28,27.5205,28.326,0,4.39726,7.72154,-1.19272,-4.02439,-13.3232,-91.9207,-8.00176,-0.445474,2.49801,-0.243902,77.3476,0.609756
1008.29,26.6184,27.8054,0,4.11943,8.15025,-1.74357,-5.27439,-8.96341,-90.6098,-8.0329,-0.462239,2.23695,-1.37195,76.7988,0.518293
1008.3,25.7674,27.3043,0,4.17452,7.95386,-1.52802,-5.03049,-11.8598,-89.0244,-8.05924,-0.416733,2.23934,-2.59146,76.2195,0.335366
1008.31,24.8796,26.825,0,3.69791,7.97302,-2.05014,-3.71951,-10.2744,-88.7805,-8.13109,-0.359253,2.26569,-3.93293,74.5732,0.121951
1008.32,23.9796,26.3221,0,3.45601,8.01613,-2.17707,-2.28659,-10.3354,-88.6585,-8.03529,-0.308958,2.07648,-4.32927,73.9329,0.396341
1008.33,23.0568,25.7726,0,3.22609,8.28916,-1.66454,1.79878,-8.59756,-88.6281,-7.95146,-0.328118,1.80824,-4.2378,73.9024,1.06707
1008.34,22.1728,25.2815,0,3.52068,8.56459,-1.68849,4.35976,-9.42073,-88.75,-7.95386,-0.323328,1.94476,-4.32927,74.2988,1.95122
1008.35,21.2586,24.8049,0,3.15903,8.79691,-1.62622,1.15854,-2.80488,-88.3537,-7.9826,-0.385598,1.93278,-4.35976,73.5366,2.5
1008.36,20.3488,24.2352,0,2.79978,8.67716,-1.25499,1.95122,-2.7439,-85.9451,-7.97302,-0.541274,1.51844,-2.95732,73.5976,3.41463
1008.37,19.4661,23.6938,0,2.65129,8.81367,-1.5855,0.853659,-3.93293,-82.7134,-8.11193,-0.680186,1.56634,-1.82927,73.9024,3.62805
1008.38,18.6339,23.2332,0,2.72793,8.8017,-1.35319,-0.823171,-12.2561,-80.3354,-8.18139,-0.66342,1.80105,-1.21951,71.3719,3.87195
1008.39,17.8148,22.6714,0,2.56986,8.88552,-0.780776,3.14024,-12.2256,-78.4756,-8.16462,-0.677791,1.35079,0.701219,69.8781,4.32927
1008.4,16.9712,22.108,0,2.11241,9.34058,-0.821492,-0.182927,-15.5488,-75.7317,-8.23887,-0.737666,1.27415,1.98171,70.2439,5.03049
1008.41,16.1633,21.6048,0,1.93518,9.30944,-0.905317,-4.17683,-14.2378,-71.7683,-8.28677,-0.768801,1.42264,2.68293,68.9634,4.90854
1008.42,15.3831,21.151,0,1.66933,8.79212,-0.531694,-4.90854,-25.1829,-68.5671,-8.40652,-0.771196,1.55437,2.07317,66.5549,4.7561
1008.43,14.656,20.709,0,1.7771,8.7993,-0.665815,-3.29268,-31.0366,-66.0976,-8.49513,-0.696951,1.54479,1.46341,64.2073,3.87195
1008.44,13.9777,20.33,0,1.94715,9.04838,-1.14721,-3.32317,-36.8293,-64.0854,-8.5095,-0.555645,1.72202,1.28049,61.0671,3.9939
1008.45,13.3632,19.9309,0,2.24174,9.137,-1.65496,-8.01829,-35.3659,-62.3171,-8.47597,-0.459844,1.57832,0.548781,60.0305,4.60366
1008.46,12.8186,19.5443,0,2.49561,8.87834,-1.59029,-8.53659,-35,-60.3354,-8.53345,-0.387993,1.57592,-0.518293,59.3902,5.18293
1008.47,12.3679,19.2339,0,2.98898,8.64602,-1.62861,-6.18902,-27.5305,-58.75,-8.61489,-0.311353,1.82979,-1.46341,57.7744,6.18902
1008.48,11.9722,18.8631,0,3.19017,8.59812,-1.25739,-2.77439,-25.7927,-56.6768,-8.51669,-0.237107,1.52563,-1.64634,57.3476,6.61585
1008.49,11.6092,18.4326,0,3.18059,8.87834,-1.50407,-2.89634,-19.2988,-52.8354,-8.58136,-0.177231,1.24781,-1.46341,57.0732,7.59146
1008.5,11.2672,17.9717,0,2.84768,8.80649,-1.43701,-4.14634,-10.7622,-47.7744,-8.68195,-0.229922,1.07776,-0.945122,57.0122,8.56707
1008.51,10.9622,17.547,0,2.76864,8.92863,-1.14003,-3.65854,-4.11585,-43.2927,-8.72027,-0.189207,1.152,-0.396341,56.311,9.05488
1008.52,10.6766,17.114,0,2.6441,9.05078,-1.14482,-4.48171,-3.38415,-40,-8.78254,-0.134121,1.06099,-0.121951,55.8841,9.5122
1008.53,10.4035,16.672,0,2.53154,8.92145,-1.27655,-4.87805,-0.243902,-38.4146,-8.99809,-0.174836,0.981958,-0.518293,55.3963,9.29878
1008.54,10.1212,16.2621,0,2.36628,9.14897,-1.16637,-4.35976,3.04878,-37.1646,-9.1849,-0.244292,1.06099,-0.853659,54.2988,8.56707
1008.55,9.79265,15.8626,0,1.90883,9.38129,-1.13284,-5,8.81098,-36.3415,-9.36692,-0.220342,1.0562,-1.25,52.8049,7.7439
1008.56,9.48141,15.4416,0,1.8777,9.50823,-1.11368,-4.66463,7.46951,-34.5732,-9.5226,-0.186812,0.914897,-1.95122,51.4024,7.62195
1008.57,9.14374,15.0059,0,1.46336,9.36453,-0.831072,-3.38415,7.34756,-33.2317,-9.74773,-0.237107,0.799937,-3.41463,51.0366,6.64634
1008.58,8.8429,14.5763,0,1.62622,9.4268,-1.14242,-2.31707,13.9024,-32.0122,-9.89862,-0.258662,0.761616,-4.5122,49.3293,7.31707
1008.59,8.50954,14.1274,0,1.14721,9.62079,-0.893342,-2.16463,10.2439,-29.8476,-10.0495,-0.359253,0.61073,-5.33537,47.9573,7.83537
1008.6,8.20283,13.6483,0,1.16637,9.59205,-1.3939,-1.70732,16.0366,-28.0793,-10.1214,-0.404758,0.399968,-5.88415,47.1951,8.53659
1008.61,7.88133,13.1458,0,0.831072,9.48907,-1.33163,-0.884146,13.2317,-26.2805,-10.1381,-0.565225,0.210762,-5.73171,46.9512,9.63415
1008.62,7.57199,12.6203,0,0.775986,9.63516,-1.44899,-1.64634,9.93902,-24.878,-10.095,-0.589175,0.0191602,-5.42683,47.1037,10.2439
1008.63,7.28801,12.087,0,0.761616,9.45075,-1.41546,-1.70732,8.9939,-22.9268,-10.0591,-0.696951,-0.107776,-4.7561,47.0732,10.7317
1008.64,7.02356,11.5415,0,0.723296,9.62319,-1.49449,-0.884146,9.84756,-20.8841,-10.0902,-0.785566,-0.256267,-3.07927,47.0427,10.8232
1008.65,6.79864,11.0046,0,0.888552,9.58966,-1.50407,0.182927,11.4024,-19.4207,-10.1405,-0.819097,-0.316143,-0.884146,46.4634,10.5183
1008.66,6.58852,10.4963,0,0.843047,9.51781,-1.54239,0.487805,13.4451,-17.8963,-10.1525,-0.814307,-0.285007,1.28049,45.0915,10.122
1008.67,6.38542,9.9737,0,0.792751,9.41243,-1.41067,1.03659,11.4634,-17.1037,-10.1453,-0.881367,-0.440684,3.2622,43.2622,9.35976
1008.68,6.17179,9.44548,0,0.543669,9.44835,-1.56874,1.37195,13.8415,-15.4878,-10.1166,-0.929268,-0.55804,5.21341,42.0122,8.68902
1008.69,5.93436,8.93251,0,0.232317,9.52978,-1.38432,1.55488,12.7439,-14.4817,-10.0375,-0.847837,-0.579595,6.79878,41.1585,7.62195
1008.7,5.70429,8.43049,0,0.270637,9.50344,-1.1544,1.98171,8.17073,-14.6951,-10.004,-0.687371,-0.62031,7.31707,39.6951,7.04268
1008.71,5.46688,7.93607,0,0.0766406,9.71899,-1.16637,0.884146,4.02439,-13.5061,-10.0256,-0.57241,-0.677791,7.46951,37.8049,7.22561
1008.72,5.23869,7.46946,0,-0.00958008,9.73336,-1.22386,-0.243902,0.0914634,-12.0122,-10.0854,-0.464634,-0.646655,6.61585,36.0366,7.71341
1008.73,5.02991,7.00876,0,0.00479004,9.7118,-1.3939,-0.792683,-3.56707,-10.6707,-10.3153,-0.392783,-0.720901,5.82317,33.7195,7.43902
1008.74,4.85598,6.56434,0,0.208367,9.55852,-1.51365,-1.46341,-5.12195,-10.0305,-10.404,-0.392783,-0.737666,5.03049,31.9817,7.31707
1008.75,4.69987,6.1207,0,0.349673,9.60403,-1.50647,-0.914634,-4.48171,-10.2744,-10.4998,-0.340093,-0.823887,4.60366,30.7012,6.92073
1008.76,4.57001,5.68346,0,0.464634,9.62558,-1.54,-1.21951,-3.38415,-9.29878,-10.5501,-0.380808,-0.881367,4.32927,29.3293,6.43293
1008.77,4.46927,5.28286,0,0.65384,9.56571,-1.71004,-1.52439,-1.18902,-8.93293,-10.5429,-0.325723,-0.792751,2.28659,26.7988,6.06707
1008.78,4.37459,4.85616,0,0.646655,9.51302,-1.78429,-1.64634,-0.762195,-8.47561,-10.495,-0.330513,-0.986748,1.52439,24.4817,6.09756
1008.79,4.27261,4.45046,0,0.548459,9.52739,-1.66933,-1.52439,0.365854,-8.20122,-10.4495,-0.371228,-0.965193,0.304878,22.5305,5.88415
1008.8,4.17022,4.03511,0,0.493374,9.57768,-1.66933,-0.945122,1.89024,-7.7439,-10.4088,-0.383203,-1.08255,-0.670732,20.3049,5.51829
1008.81,4.08502,3.61603,0,0.56762,9.57529,-1.60945,-0.640244,4.11585,-7.10366,-10.3082,-0.462239,-1.16637,-1.46341,18.628,5.15244
1008.82,4.01887,3.18607,0,0.687371,9.63995,-1.5376,0.335366,5.54878,-6.7378,-10.2243,-0.445474,-1.28373,-1.46341,17.1951,4.81707
1008.83,3.95021,2.75741,0,0.541274,9.70222,-1.40827,0.640244,6.12805,-5.30488,-10.1022,-0.435894,-1.34121,-1.06707,15.3659,4.84756
1008.84,3.87438,2.33064,0,0.433499,9.77407,-1.40109,0,5.06098,-4.81707,-9.96568,-0.469424,-1.39151,-1.31098,14.3293,4.72561
1008.85,3.80284,1.90468,0,0.438289,9.79563,-1.38911,-1.43293,1.85976,-4.57317,-9.8603,-0.514929,-1.44899,-1.25,13.3232,5.30488
1008.86,3.74224,1.4856,0,0.505349,9.68546,-1.26697,-1.37195,1.31098,-4.48171,-9.83156,-0.613125,-1.4897,-1.55488,12.5305,5.36585
1008.87,3.69074,1.0563,0,0.512534,9.80042,-1.31726,-1.46341,2.19512,-3.65854,-9.84832,-0.66342,-1.61185,-1.92073,12.1341,5.06098
1008.88,3.66623,0.639808,0,0.689766,9.70701,-1.29092,-1.31098,2.28659,-3.32317,-9.83395,-0.661025,-1.62861,-1.79878,11.6463,5.06098
1008.89,3.66654,0.226899,0,0.852627,9.69025,-1.4897,-1.43293,2.77439,-3.01829,-9.77647,-0.55325,-1.67651,-1.82927,11.372,5.30488
1008.9,3.69098,-0.166472,0,1.00591,9.63995,-1.47533,-1.64634,4.17683,-2.77439,-9.81479,-0.55804,-1.66933,-1.95122,10.8537,5.70122
1008.91,3.72723,-0.524939,0,1.03704,9.58008,-1.54,-1.55488,5.15244,-2.37805,-9.85311,-0.512534,-1.59029,-2.56098,10,6.46341
1008.92,3.74969,-0.870528,0,0.898132,9.6184,-1.59029,-1.15854,6.0061,-1.95122,-9.87227,-0.519719,-1.59987,-3.20122,9.14634,6.46341
1008.93,3.77362,-1.20471,0,0.852627,9.62319,-1.51365,-1.34146,6.0061,-1.4939,-9.91059,-0.498164,-1.61664,-3.65854,8.56707,6.40244
1008.94,3.7915,-1.54983,0,0.723296,9.60403,-1.4897,-0.701219,6.52439,-0.579268,-9.98723,-0.534089,-1.73878,-4.57317,7.92683,5.7622
1008.95,3.83132,-1.8688,0,0.778381,9.65193,-1.55197,-1.21951,6.34146,-0.243902,-9.9537,-0.469424,-1.67651,-5.12195,7.40854,5.54878
1008.96,3.8895,-2.19001,0,0.826282,9.6639,-1.57353,-1.15854,6.09756,-0.0914634,-9.9082,-0.407153,-1.73399,-5.70122,6.31098,5.30488
1008.97,3.97096,-2.49714,0,0.907712,9.62798,-1.49928,-1.34146,6.21951,0.213415,-9.87467,-0.421523,-1.71962,-5.82317,5.7622,5.03049
1008.98,3.99844,-2.79964,0,0.764011,9.72138,-1.50407,-1.31098,7.0122,1.03659,-9.91059,-0.481399,-1.75315,-6.12805,4.96951,5.12195
1008.99,3.99413,-3.11336,0,0.608335,9.75731,-1.41067,-1.76829,6.55488,1.03659,-9.92017,-0.555645,-1.83938,-6.40244,4.05488,4.96951
1009,3.97862,-3.44704,0,0.534089,9.74054,-1.43462,-1.95122,5.88415,1.18902,-9.94412,-0.543669,-1.94476,-5.85366,3.20122,4.78659
1009.01,3.9537,-3.80825,0,0.469424,9.70462,-1.50886,-2.43902,5.21341,1.28049,-9.99681,-0.519719,-2.04056,-5.67073,2.34756,4.66463
1009.02,3.92649,-4.24233,0,0.524509,9.64235,-1.56155,-2.16463,4.05488,0.701219,-9.99681,-0.538879,-2.12438,-5.64024,1.34146,4.35976
1009.03,3.9179,-4.71324,0,0.593965,9.67109,-1.54479,-2.31707,3.84146,0.762195,-9.94891,-0.55325,-2.08846,-5.73171,0.884146,4.29878
1009.04,3.91097,-5.3415,0,0.61552,9.63995,-1.42743,-2.68293,3.9939,0.518293,-9.89143,-0.570015,-2.04774,-5.88415,0.121951,4.20732
1009.05,3.8859,-5.76541,0,0.58678,9.67348,-1.40109,-2.68293,3.44512,0.0609756,-9.86509,-0.5772,-2.0214,-5.94512,-0.731707,4.29878
1009.06,3.87062,-6.08439,0,0.593965,9.69743,-1.39151,-3.07927,1.64634,0.335366,-9.84114,-0.55804,-2.03337,-6.37195,-1.43293,4.60366
1009.07,3.85948,-6.35964,0,0.60115,9.67827,-1.42504,-2.89634,1.64634,0.396341,-9.81,-0.62031,-2.08367,-6.12805,-2.16463,4.5122
1009.08,3.8586,-6.6023,0,0.62989,9.72857,-1.41546,-3.2622,0.97561,0.579268,-9.84353,-0.677791,-2.05732,-5.45732,-2.46951,4.96951
1009.09,3.87259,-6.84029,0,0.682581,9.74773,-1.38193,-3.78049,1.25,0.914634,-9.81719,-0.749641,-2.09085,-5.36585,-2.62195,4.32927
1009.1,3.88646,-7.07391,0,0.684976,9.71659,-1.33403,-3.87195,0.945122,0.823171,-9.78126,-0.704136,-2.12678,-4.78659,-2.86585,4.32927
1009.11,3.90521,-7.30374,0,0.711321,9.69743,-1.38911,-4.54268,0.426829,0.640244,-9.79084,-0.692161,-2.16749,-3.90244,-3.01829,4.11585
1009.12,3.92142,-7.49668,0,0.694556,9.58487,-1.30768,-3.71951,0.304878,0.548781,-9.83156,-0.64426,-2.08846,-3.87195,-3.56707,4.29878
1009.13,3.9362,-7.67885,0,0.699346,9.65672,-1.37714,-3.75,1.03659,0.518293,-9.83635,-0.701741,-2.10283,-3.20122,-4.84756,4.45122
1009.14,3.93771,-7.87246,0,0.661025,9.65911,-1.30768,-4.39024,0.884146,0.27439,-9.90101,-0.651445,-2.20821,-2.7439,-5.67073,4.29878
1009.15,3.93084,-8.03515,0,0.64426,9.62798,-1.34361,-4.17683,-0.0914634,0,-9.92736,-0.59636,-2.11001,-2.59146,-6.15854,4.84756
1009.16,3.89961,-8.16405,0,0.5772,9.67348,-1.32445,-4.20732,-0.152439,-0.0304878,-9.96568,-0.5772,-1.99505,-2.92683,-6.98171,4.93902
1009.17,3.86081,-8.29431,0,0.536484,9.77168,-1.37953,-4.69512,-1.79878,-0.304878,-9.92736,-0.579595,-2.01661,-2.9878,-6.85976,4.72561
1009.18,3.82278,-8.43582,0,0.524509,9.74054,-1.39869,-5,-2.9878,-0.548781,-9.82916,-0.60115,-2.0693,-3.84146,-6.28049,4.7561
1009.19,3.80626,-8.57388,0,0.608335,9.69504,-1.30529,-5,-3.78049,-0.792683,-9.74294,-0.622705,-2.05972,-4.39024,-5.97561,4.78659
1009.2,3.78762,-8.70833,0,0.6251,9.7142,-1.24541,-5.36585,-4.35976,-1.55488,-9.68785,-0.63468,-2.05493,-3.93293,-5.64024,4.90854
1009.21,3.76793,-8.84181,0,0.632285,9.67588,-1.22625,-5.27439,-4.02439,-1.89024,-9.67588,-0.656235,-2.07169,-3.53659,-5.60976,5.27439
1009.22,3.75654,-8.96375,0,0.680186,9.67348,-1.26936,-5.42683,-3.9939,-1.85976,-9.69264,-0.708926,-2.04774,-3.90244,-5.60976,5.45732
1009.23,3.75522,-9.08708,0,0.778381,9.57768,-1.32924,-5.42683,-3.65854,-2.34756,-9.72857,-0.718506,-2.08367,-3.20122,-5.70122,5.54878
1009.24,3.77294,-9.19808,0,0.910107,9.54655,-1.34361,-4.90854,-2.86585,-2.37805,-9.8076,-0.718506,-2.0669,-2.89634,-5.54878,5.36585
1009.25,3.78433,-9.29244,0,0.910107,9.68067,-1.36756,-5.27439,-2.0122,-2.59146,-9.85311,-0.742456,-2.02379,-2.7439,-6.43293,4.96951
1009.26,3.78731,-9.37244,0,0.900527,9.75252,-1.40109,-5.94512,-1.58537,-3.01829,-9.81,-0.740061,-1.96871,-2.43902,-7.43902,4.48171
1009.27,3.77856,-9.45962,0,0.826282,9.70701,-1.35558,-5.73171,-0.792683,-3.2622,-9.79084,-0.740061,-2.01182,-2.2561,-7.83537,4.7561
1009.28,3.76236,-9.54321,0,0.737666,9.74773,-1.32924,-6.18902,-0.731707,-2.89634,-9.75012,-0.725691,-2.00224,-2.62195,-7.37805,4.7561
1009.29,3.75118,-9.63529,0,0.744851,9.66869,-1.2502,-6.67683,-2.2561,-2.65244,-9.71659,-0.718506,-2.04774,-2.34756,-7.13415,4.90854
1009.3,3.74007,-9.73658,0,0.778381,9.60882,-1.28852,-6.21951,-3.35366,-3.10976,-9.69504,-0.711321,-2.10043,-2.28659,-7.07317,5.09146
1009.31,3.73801,-9.82663,0,0.814307,9.6639,-1.29092,-6.76829,-3.96341,-2.71341,-9.7142,-0.730481,-2.07169,-2.56098,-6.67683,5.33537
1009.32,3.72646,-9.91014,0,0.802332,9.69264,-1.29571,-6.98171,-4.20732,-3.35366,-9.76689,-0.742456,-2.0693,-2.77439,-6.46341,5.18293
1009.33,3.71788,-9.99745,0,0.828677,9.7118,-1.29092,-6.92073,-4.54268,-3.38415,-9.71899,-0.752036,-2.09085,-3.20122,-6.46341,5.12195
1009.34,3.71194,-10.0556,0,0.871787,9.72138,-1.28134,-7.56098,-5.12195,-3.62805,-9.75252,-0.742456,-1.98308,-3.47561,-6.37195,5.03049
1009.35,3.71761,-10.1253,0,0.972378,9.65432,-1.31008,-7.34756,-5.57927,-3.78049,-9.69743,-0.704136,-2.03337,-4.11585,-6.40244,4.90854
1009.36,3.72033,-10.1746,0,1.02507,9.65432,-1.25499,-7.13415,-5.27439,-4.60366,-9.69504,-0.708926,-1.95434,-4.69512,-6.37195,5.06098
1009.37,3.72842,-10.2203,0,1.10171,9.73096,-1.31966,-7.31707,-3.9939,-4.84756,-9.67109,-0.735271,-1.94236,-5.2439,-6.25,4.90854
1009.38,3.73195,-10.2593,0,1.08494,9.72138,-1.29571,-7.31707,-3.41463,-5.09146,-9.64953,-0.706531,-1.91602,-5.82317,-6.15854,4.87805
1009.39,3.74028,-10.3059,0,1.13524,9.70462,-1.27655,-7.46951,-2.43902,-5.21341,-9.59445,-0.694556,-1.94476,-6.67683,-5.79268,4.96951
1009.4,3.75105,-10.3458,0,1.19272,9.70701,-1.35558,-7.62195,-1.43293,-5.60976,-9.57529,-0.696951,-1.91841,-6.82927,-5.30488,4.96951
1009.41,3.76148,-10.3701,0,1.22146,9.67109,-1.27415,-7.56098,-0.457317,-6.0061,-9.59445,-0.706531,-1.86093,-7.43902,-5.03049,5.03049
1009.42,3.76594,-10.3753,0,1.18314,9.65193,-1.25978,-7.68293,0.792683,-6.15854,-9.62079,-0.711321,-1.78668,-7.9878,-4.29878,4.72561
1009.43,3.77473,-10.3779,0,1.19032,9.66151,-1.31247,-8.20122,1.18902,-5.79268,-9.66869,-0.708926,-1.78429,-8.9939,-3.75,4.69512
1009.44,3.78949,-10.3918,0,1.24541,9.66151,-1.37235,-8.2622,2.19512,-5.82317,-9.65193,-0.720901,-1.8274,-9.63415,-3.29268,4.48171
1009.45,3.81585,-10.4349,0,1.32684,9.69025,-1.35798,-8.41463,3.04878,-5.54878,-9.63277,-0.675395,-1.93278,-10.5488,-2.5,4.2378
1009.46,3.85574,-10.4638,0,1.42264,9.67348,-1.30289,-8.84146,4.57317,-5.30488,-9.62079,-0.675395,-1.8777,-10.5793,-2.16463,4.48171
1009.47,3.90863,-10.4996,0,1.49449,9.68785,-1.32445,-9.5122,5.57927,-4.78659,-9.5681,-0.706531,-1.88728,-11.2195,-1.85976,4.69512
1009.48,3.99694,-10.5451,0,1.6813,9.63995,-1.24781,-9.87805,7.04268,-3.75,-9.57529,-0.742456,-1.91841,-10.9756,-1.61585,5.4878
1009.49,4.1602,-10.595,0,1.84417,9.58487,-1.2023,-9.96951,8.87195,-1.82927,-9.53697,-0.742456,-1.90644,-11.0061,-1.12805,6.0061
1009.5,4.50142,-10.6287,0,1.97589,9.5202,-1.08973,-9.57317,9.26829,0.518293,-9.58008,-0.761616,-1.88249,-11.4329,-1.12805,6.52439
1009.51,4.72011,-10.6456,0,2.21779,9.4747,-1.03704,-9.2378,9.93902,3.84146,-9.57529,-0.799937,-1.83458,-11.25,-0.701219,7.10366
1009.52,4.98107,-10.654,0,2.35909,9.36453,-0.890947,-9.02439,9.57317,7.37805,-9.62798,-0.797541,-1.8274,-11.1585,-0.518293,7.53049
1009.53,5.30845,-10.6603,0,2.57944,9.33339,-0.931663,-9.26829,9.54268,12.0427,-9.64714,-0.797541,-1.8274,-10.7012,-0.396341,7.28659
1009.54,5.70554,-10.6669,0,2.77822,9.24717,-0.883762,-9.05488,9.17683,17.2256,-9.63995,-0.816702,-1.8274,-10.3659,-0.365854,7.46951
1009.55,6.16748,-10.6502,0,2.90995,9.10826,-0.696951,-8.62805,9.35976,22.622,-9.56092,-0.752036,-1.77471,-10.3354,-0.152439,7.0122
1009.56,6.71292,-10.6298,0,3.13029,8.95019,-0.63468,-8.04878,10.5488,28.9024,-9.5705,-0.684976,-1.76752,-9.7561,-0.152439,6.98171
1009.57,7.33824,-10.5862,0,3.34824,8.84241,-0.570015,-7.28659,13.2317,35.1829,-9.48428,-0.665815,-1.71962,-9.20732,-0.0609756,6.89024
1009.58,8.03263,-10.5131,0,3.53505,8.78493,-0.469424,-5.7622,16.8902,41.0976,-9.53936,-0.61073,-1.64298,-8.93293,-0.548781,6.46341
1009.59,8.80247,-10.4505,0,3.76018,8.63405,-0.404758,-4.54268,21.0061,46.9207,-9.52739,-0.632285,-1.60945,-8.41463,-1.15854,6.18902
1009.6,9.63246,-10.4056,0,3.91346,8.63405,-0.356858,-4.05488,23.4451,52.8963,-9.44356,-0.486189,-1.62143,-7.31707,-1.43293,5.73171
1009.61,10.5126,-10.3706,0,4.03561,8.68913,-0.399968,-4.29878,25.8841,58.628,-9.35734,-0.395178,-1.61664,-6.28049,-1.79878,6.0061
1009.62,11.4271,-10.3305,0,4.04758,8.76338,-0.407153,-4.26829,28.9329,64.1768,-9.2831,-0.265847,-1.58071,-5.03049,-1.95122,6.0061
1009.63,12.3538,-10.3496,0,4.07632,9.06754,-0.613125,-3.38415,32.9268,68.4756,-9.24957,-0.237107,-1.73639,-3.68902,-1.52439,5.4878
1009.64,13.2746,-10.3852,0,4.05956,9.56092,-0.795146,-3.29268,35.061,72.2256,-9.31184,-0.239502,-1.78189,-1.67683,-1.12805,4.78659
1009.65,14.1824,-10.4709,0,4.09069,10.1764,-1.03225,-2.59146,36.8598,75.0305,-9.41722,-0.220342,-1.87291,0.518293,-0.457317,4.17683
1009.66,15.0528,-10.5748,0,4.02124,10.9261,-1.18793,-1.95122,36.7683,76.5244,-9.65432,-0.344883,-1.94476,2.9878,0,3.35366
1009.67,15.8708,-10.6562,0,3.70989,11.5368,-1.28373,-1.92073,35.0915,77.8049,-9.94173,-0.476609,-2.01421,5.64024,0.0304878,2.53049
1009.68,16.6421,-10.7213,0,3.20214,11.8769,-1.22146,-2.43902,31.6768,80.3049,-10.1573,-0.598755,-2.09325,7.59146,0.518293,2.62195
1009.69,17.3832,-10.7944,0,2.82373,11.8338,-1.01549,-3.65854,25.4878,82.1951,-10.3968,-0.641865,-2.27527,9.29878,1.85976,3.38415
1009.7,18.101,-10.8782,0,2.38544,11.5967,-0.780776,-4.42073,16.7378,85,-10.4998,-0.661025,-2.39502,9.60366,3.53659,4.72561
1009.71,18.8503,-10.9793,0,2.47885,11.1967,-0.742456,-5.30488,10.3659,87.9268,-10.5549,-0.57241,-2.51238,10.061,4.57317,7.37805
1009.72,19.6419,-11.0986,0,2.73511,10.8614,-0.749641,-5.30488,7.19512,90.3963,-10.5046,-0.397573,-2.61057,9.48171,6.03659,10.3049
1009.73,20.4574,-11.2308,0,2.98898,10.4638,-0.883762,-4.29878,9.60366,90.7622,-10.3896,-0.124541,-2.66805,8.78049,6.28049,13.2012
1009.74,21.2908,-11.3581,0,3.29076,10.0735,-0.926873,-0.518293,13.689,89.8781,-10.313,0.102986,-2.64889,7.19512,5.30488,15.1829
1009.75,22.0623,-11.4792,0,3.01533,9.9537,-0.711321,1.76829,17.3171,87.7744,-10.2076,0.342488,-2.60818,5.91463,3.81098,17.0427
1009.76,22.8006,-11.5923,0,3.25962,10.1764,-0.617915,3.93293,24.6951,84.1159,-10.2219,0.493374,-2.52914,4.7561,1.67683,17.378
1009.77,23.4549,-11.7654,0,2.9794,10.4303,-0.114961,5.33537,21.311,80.7622,-10.1716,0.574805,-2.49561,2.56098,0,17.0427
1009.78,24.0222,-11.8646,0,2.68242,10.483,0.222737,6.09756,17.8354,76.4634,-10.1214,0.65384,-2.48843,0.609756,-1.52439,16.128
1009.79,24.5281,-11.9724,0,2.72793,10.3417,0.258662,7.0122,15.1829,70.4878,-10.0423,0.670605,-2.5507,-1.82927,-2.04268,15.3659
1009.8,24.9729,-12.0926,0,2.6944,9.98723,0.229922,7.62195,11.2805,64.6341,-9.94891,0.646655,-2.58183,-3.96341,-1.89024,15.2134
1009.81,25.3712,-12.228,0,2.73032,9.45075,-0.0263452,7.16463,15.5183,58.7195,-9.88185,0.58199,-2.59141,-5.79268,-1.40244,15.4878
1009.82,25.7144,-12.3254,0,2.67763,9.13939,0.134121,8.2622,18.0183,53.4756,-9.9058,0.507744,-2.53154,-7.19512,-2.0122,15.9451
1009.83,26.0292,-12.3976,0,2.89318,8.84002,0.124541,10.9146,24.3598,47.622,-9.91778,0.383203,-2.47885,-8.47561,-2.83537,16.7073
1009.84,26.3147,-12.4486,0,3.06083,8.59093,0.0407153,12.6524,32.3171,42.2256,-9.93694,0.325723,-2.41897,-9.48171,-4.17683,16.8902
1009.85,26.6019,-12.487,0,3.33866,8.3682,-0.0718506,13.4756,40.7622,38.628,-9.81,0.289797,-2.34472,-9.78659,-5.97561,16.9207
1009.86,26.8923,-12.515,0,3.58774,8.23647,-0.0574805,13.9329,46.5244,35.8841,-9.69983,0.385598,-2.28006,-10.9146,-6.98171,16.3415
1009.87,27.1805,-12.5754,0,3.85598,8.18378,-0.174836,13.9329,51.2195,32.8049,-9.45554,0.471819,-2.37107,-11.9512,-7.56098,15.9451
1009.88,27.4288,-12.6413,0,3.80808,8.16223,-0.191602,13.3537,52.6829,29.7561,-9.31902,0.522114,-2.37107,-12.8049,-7.46951,15.0915
1009.89,27.6174,-12.689,0,3.74342,8.06164,-0.203577,13.1098,54.7256,24.3902,-9.29747,0.5772,-2.29682,-13.3841,-7.07317,14.2073
1009.9,27.7421,-12.7289,0,3.44883,8.05206,-0.0646655,13.7805,51.4024,21.7683,-9.36213,0.531694,-2.28724,-14.3293,-7.04268,13.1707
1009.91,27.8162,-12.7568,0,3.24286,8.08319,0.0742456,14.3598,47.8659,19.5732,-9.46033,0.457449,-2.26569,-14.7866,-7.2561,11.6463
1009.92,27.8657,-12.7912,0,3.14945,8.0305,0.246687,15.5183,43.2317,18.1098,-9.54655,0.431104,-2.32077,-15.7622,-7.83537,10.3659
1009.93,27.8878,-12.8215,0,3.06562,7.97062,0.306563,18.2927,38.3537,16.189,-9.57529,0.416733,-2.31598,-15.9451,-8.10976,9.81707
1009.94,27.9044,-12.8599,0,3.15664,8.01853,0.229922,20.9146,33.689,14.7561,-9.58966,0.368833,-2.36149,-16.4329,-8.87195,8.68902
1009.95,27.9163,-12.8864,0,3.24525,8.14786,-0.239502,20.5488,28.1402,13.8415,-9.63037,0.313748,-2.32556,-16.7073,-9.26829,8.35366
1009.96,27.9171,-12.9281,0,3.29794,8.21252,-0.421523,19.3902,23.3841,12.4085,-9.62558,0.241897,-2.39741,-17.1341,-9.26829,7.71341
1009.97,27.914,-12.9627,0,3.48236,8.25324,-0.407153,19.5732,21.372,9.96951,-9.63756,0.201182,-2.37586,-17.561,-9.69512,7.37805
1009.98,27.8876,-13.0165,0,3.559,8.33227,-0.107776,18.6585,20.5488,7.10366,-9.65432,0.182021,-2.47406,-18.1707,-10.2744,7.04268
1009.99,27.8167,-13.0773,0,3.58774,8.37299,-0.220342,18.4451,21.372,3.5061,-9.66151,0.174836,-2.51717,-18.1707,-10.6402,6.95122
1010,27.4005,-13.1461,0,3.55421,8.464,-0.289797,16.311,20.7622,-0.182927,-9.60642,0.227527,-2.5507,-17.8659,-10.9756,6.89024
1010.01,27.2708,-13.2199,0,3.61169,8.43765,0.162861,14.4207,17.1341,-4.05488,-9.58487,0.215552,-2.57944,-18.0488,-10.7317,7.0122
1010.02,27.1377,-13.2884,0,3.80329,8.43047,0.0694556,13.5366,16.25,-7.46951,-9.53697,0.292192,-2.55549,-18.0183,-10.1524,6.7378
1010.03,26.9741,-13.3682,0,3.87754,8.4161,0.0718506,11.8902,12.8963,-11.7988,-9.47709,0.332908,-2.60099,-18.5366,-9.14634,6.64634
1010.04,26.8037,-13.4412,0,3.98771,8.3179,0.273032,11.0671,8.93293,-14.6037,-9.43159,0.402363,-2.57225,-18.6585,-8.84146,6.85976
1010.05,26.6811,-13.5114,0,4.36612,8.05685,0.510139,11.4024,2.53049,-15.8841,-9.38608,0.517324,-2.56028,-19.0244,-8.75,6.58537
1010.06,26.5994,-13.5715,0,4.73495,7.99458,0.522114,14.6037,-2.40854,-16.4024,-9.40045,0.59157,-2.53154,-19.1768,-8.96341,6.46341
1010.07,26.5899,-13.6213,0,5.11097,7.6473,0.5772,18.5061,-5.82317,-15.5793,-9.40524,0.670605,-2.49801,-20.1829,-9.14634,6.18902
1010.08,26.6376,-13.6734,0,5.22833,7.36947,0.263452,22.1646,-7.83537,-13.0183,-9.4747,0.64426,-2.53633,-20.9146,-9.81707,5.88415
1010.09,26.7062,-13.7067,0,5.45346,7.4533,-0.129331,23.0793,-7.37805,-12.5,-9.57529,0.646655,-2.48843,-21.25,-11.0061,5.2439
1010.1,26.797,-13.7665,0,5.62111,7.43654,-0.270637,23.5061,-10.4268,-11.9207,-9.65432,0.62989,-2.63692,-20.8841,-12.0732,4.57317
1010.11,26.9248,-13.8272,0,5.83427,7.29762,-0.323328,25.6707,-12.2561,-11.128,-9.64953,0.603545,-2.65129,-20.4268,-12.7134,4.02439
1010.12,27.0486,-13.893,0,5.79355,7.25451,-0.335303,28.9939,-12.8049,-11.2195,-9.5705,0.57241,-2.66326,-20.2134,-12.6829,3.2622
1010.13,27.146,-13.9669,0,5.56363,7.25691,-0.215552,32.3476,-14.8171,-11.3415,-9.48428,0.546064,-2.68721,-19.4817,-12.1341,2.59146
1010.14,27.2386,-14.0188,0,5.47501,7.3599,0.0479004,33.5671,-14.9695,-9.93902,-9.43159,0.529299,-2.58662,-18.8415,-11.9512,2.19512
1010.15,27.3306,-14.059,0,5.5325,7.45809,0.174836,32.5,-17.378,-9.66463,-9.32381,0.510139,-2.51477,-18.4451,-12.3476,2.07317
1010.16,27.4183,-14.094,0,5.52531,7.47246,0.246687,30.2134,-19.4512,-9.72561,-9.30944,0.522114,-2.49561,-18.3841,-12.6829,1.61585
1010.17,27.513,-14.1393,0,5.65464,7.49402,0.210762,26.0976,-17.5915,-9.96951,-9.29028,0.560435,-2.54112,-18.689,-12.1341,1.03659
1010.18,27.5986,-14.1885,0,5.47741,7.24733,0.246687,23.5366,-20.2744,-10.7927,-9.32142,0.56283,-2.57465,-19.878,-11.7683,-0.457317
1010.19,27.6733,-14.2583,0,5.40556,6.97909,0.0958008,23.2012,-19.6951,-13.1098,-9.26873,0.704136,-2.65847,-21.2195,-11.0061,-2.04268
1010.2,27.6851,-14.3575,0,5.384,7.0677,-0.328118,23.689,-17.9573,-18.4451,-9.18729,0.866997,-2.77583,-23.2622,-9.57317,-3.47561
1010.21,27.6057,-14.4738,0,5.36484,7.35271,-0.462239,22.3171,-18.2622,-25.3049,-9.13939,1.06099,-2.85247,-24.878,-8.29268,-4.32927
1010.22,27.4177,-14.5946,0,5.42951,8.11433,-0.840652,19.8476,-12.9878,-31.7988,-9.1849,1.19751,-2.90516,-26.25,-7.0122,-4.63415
1010.23,27.0873,-14.6299,0,5.0511,9.1346,-1.12566,21.0061,-10.8232,-36.8293,-9.49625,1.2023,-2.63692,-27.4695,-6.98171,-4.32927
1010.24,26.5529,-14.5664,0,4.19847,10.9189,-1.11608,24.2988,-8.81098,-42.1646,-10.0136,0.874182,-2.32556,-26.4634,-9.35976,-3.47561
1010.25,25.8472,-14.4279,0,3.42488,12.8852,-0.823887,25.2134,-9.78659,-48.2012,-10.7105,0.447869,-2.10762,-22.9573,-12.9268,-1.37195
1010.26,25.1927,-14.2373,0,3.88233,13.5319,0.356858,23.0183,-17.1951,-46.7073,-11.5488,-0.191602,-1.9735,-15.9451,-16.7988,1.40244
1010.27,24.8885,-14.0036,0,6.71324,13.4696,0.886157,17.5915,-23.4146,-33.689,-12.5212,-1.14482,-1.85854,-5.7622,-21.3415,5.27439
1010.28,25.0279,-13.7854,0,10.5117,12.3966,0.0598755,23.872,-16.8293,-17.2256,-13.0265,-2.06451,-1.9711,6.09756,-22.6829,9.87805
1010.29,25.463,-13.6205,0,12.5906,11.52,-1.99745,35.8841,5.09146,-1.55488,-13.0576,-2.7423,-2.23934,16.4634,-22.2866,13.3537
1010.3,25.9827,-13.4617,0,10.9979,10.5189,-3.04646,41.4939,33.3841,10.5488,-12.5427,-2.82373,-2.14833,23.9634,-22.0122,15.7317
1010.31,26.3158,-13.3659,0,6.99825,10.1094,-3.58774,30.6098,58.9024,16.2195,-10.9979,-2.15552,-2.1651,30.061,-19.1159,19.2073
1010.32,26.2336,-13.1992,0,2.43094,9.24238,-1.9735,16.7988,69.6646,15.2439,-9.69743,-0.869392,-1.57592,32.8354,-14.7866,24.3293
1010.33,25.6491,-12.9282,0,-0.998723,8.17899,-0.919688,12.6524,66.8293,8.2622,-9.38848,0.368833,-1.0562,32.2256,-12.8354,27.439
1010.34,24.6084,-12.5491,0,-3.21651,7.73352,0.124541,14.939,37.5305,-6.43293,-9.41961,1.62143,-0.56283,27.378,-12.7134,26.4329
1010.35,23.3774,-12.4332,0,-3.56858,7.61377,-0.258662,16.0671,-3.41463,-24.1463,-8.86157,1.88009,-1.50886,21.0976,-7.7439,26.9207
1010.36,22.2042,-12.1227,0,-2.3088,7.73352,-0.835862,14.4207,-47.8659,-38.0793,-10.1621,3.5087,-0.823887,13.7805,-7.71341,24.5122
1010.37,21.368,-11.7761,0,0.450264,8.30593,-2.28724,15.5793,-76.3719,-46.3415,-11.0123,3.27399,-0.656235,7.13415,-7.80488,18.9024
1010.38,20.705,-11.345,0,2.13157,9.34297,-4.28948,13.7195,-79.8171,-50.2744,-11.8003,3.24765,-0.191602,0.426829,-8.38415,12.8049
1010.39,20.12,-10.8824,0,3.08479,10.1932,-5.00799,15.7012,-57.8354,-51.7988,-12.0709,2.57944,0.0622705,-5.60976,-8.35366,6.28049
1010.4,19.5405,-10.3831,0,3.00814,10.4782,-4.50264,17.7439,-35.0915,-50.7622,-11.6781,1.61185,0.342488,-9.35976,-9.32927,2.07317
1010.41,18.9025,-9.84763,0,2.19144,10.495,-2.97461,19.8171,-25.6707,-49.2988,-11.1512,0.464634,0.60115,-11.7988,-10.4878,-0.426829
1010.42,18.2209,-9.28376,0,1.5879,10.0639,-2.13157,18.9634,-22.1646,-49.2683,-10.6986,-0.277822,0.811912,-13.5366,-10.3963,-1.40244
1010.43,17.5325,-8.70829,0,1.41306,9.54894,-1.88009,17.561,-15.0915,-50.2439,-9.76689,-1.16398,0.888552,-14.1463,-9.78659,-0.518293
1010.44,16.8915,-8.1268,0,1.75315,9.35974,-1.94236,15.7317,-8.44512,-51.2805,-9.32142,-1.33882,0.967588,-16.3415,-9.11585,0.457317
1010.45,16.3074,-7.55818,0,2.26329,9.25436,-1.81782,15.7317,-3.2622,-53.1707,-9.31423,-1.51365,1.0083,-14.4207,-10.7317,2.53049
1010.46,15.7287,-6.96071,0,2.43813,9.33579,-2.17947,14.7561,2.68293,-55.6402,-8.97893,-1.37235,1.17835,-12.5305,-10.2439,4.93902
1010.47,15.1121,-6.40867,0,2.10522,9.27352,-2.61297,13.811,6.12805,-56.9207,-8.81128,-1.10889,1.07057,-11.372,-9.93902,7.46951
1010.48,14.4147,-5.94562,0,1.35558,9.03162,-2.80696,14.6037,7.31707,-57.7439,-8.78733,-0.838257,0.804727,-9.63415,-9.87805,9.2378
1010.49,13.6868,-5.53554,0,0.912502,8.77296,-3.36021,15.8537,7.92683,-56.9817,-8.86157,-0.598755,0.675395,-6.09756,-8.65854,10.6098
1010.5,12.9668,-5.16689,0,0.711321,8.79212,-3.59971,17.4085,5.12195,-54.9695,-9.09628,-0.514929,0.59157,-3.10976,-7.86585,10.2744
1010.51,12.2306,-4.88179,0,0.191602,8.87594,-3.44164,17.7134,-1.21951,-51.189,-9.33818,-0.579595,0.320933,0.548781,-6.55488,8.41463
1010.52,11.5547,-4.66943,0,0.229922,9.01964,-3.29315,17.1037,-7.65244,-46.9817,-9.71899,-0.740061,0.0646655,4.72561,-5,5.06098
1010.53,10.9939,-4.5141,0,0.656235,9.22562,-3.01054,15.7317,-14.1159,-41.9512,-10.0184,-0.931663,-0.227527,8.93293,-2.2561,1.12805
1010.54,10.4681,-4.37807,0,0.548459,9.3286,-2.53872,13.0183,-23.9634,-38.0793,-10.2603,-1.16877,-0.402363,13.6585,-0.823171,-3.07927
1010.55,9.99914,-4.2876,0,0.641865,9.45314,-2.39502,10.5183,-31.6463,-34.4207,-10.3776,-1.38911,-0.502954,17.622,0.853659,-6.15854
1010.56,9.58164,-4.18129,0,0.804727,9.56331,-2.42615,8.2622,-40.8841,-32.0122,-10.3369,-1.46575,-0.419128,21.4024,1.03659,-8.5061
1010.57,9.2051,-4.20727,0,0.907712,9.47949,-2.56746,6.09756,-50.0305,-30.0305,-10.2076,-1.42743,-0.835862,24.8476,1.37195,-9.05488
1010.58,8.85155,-4.25307,0,0.989143,9.50104,-2.76625,5.45732,-55.9756,-29.4207,-9.9537,-1.32924,-0.922083,27.2256,3.41463,-8.75
1010.59,8.50932,-4.26995,0,1.0107,9.30226,-2.82373,4.66463,-61.9817,-29.5122,-9.79084,-1.23823,-0.795146,28.689,3.71951,-7.37805
1010.6,8.17224,-4.28865,0,0.969983,9.14179,-2.79978,4.05488,-66.1281,-29.3902,-9.56571,-1.06818,-0.783171,29.7561,3.04878,-5.94512
1010.61,7.88439,-4.34151,0,1.37953,9.12263,-3.05125,4.29878,-65.7317,-30.2439,-9.39806,-0.936453,-0.905317,30.5793,3.47561,-4.2378
1010.62,7.58571,-4.37459,0,1.27655,9.24717,-3.09916,4.05488,-70.1829,-30.4268,-9.40764,-0.804727,-0.833467,31.0061,3.01829,-3.17073
1010.63,7.3249,-4.42729,0,1.60227,9.22083,-3.17101,2.59146,-66.7683,-31.25,-9.4268,-0.66821,-0.881367,31.0976,2.0122,-3.32317
1010.64,7.06616,-4.44041,0,1.62382,9.16813,-3.23807,1.43293,-65.3049,-31.9512,-9.51541,-0.555645,-0.761616,31.0366,0.762195,-3.20122
1010.65,6.78289,-4.4343,0,1.50886,9.22322,-3.28118,0.487805,-62.2256,-33.4451,-9.53936,-0.500559,-0.732876,30.9146,0.0609756,-3.47561
1010.66,6.50322,-4.40639,0,1.62861,9.22801,-3.29315,-1.64634,-58.2317,-35.122,-9.67348,-0.380808,-0.701741,30.061,-0.396341,-4.02439
1010.67,6.26626,-4.39642,0,1.9735,9.14418,-3.14945,-3.07927,-52.5,-35.7622,-9.74054,-0.258662,-0.718506,28.1098,-2.0122,-3.93293
1010.68,6.04496,-4.40791,0,2.10762,9.12263,-3.19017,-3.23171,-48.2622,-36.3415,-9.67588,-0.229922,-0.783171,27.2866,-1.95122,-3.62805
1010.69,5.8357,-4.42529,0,2.20102,9.15137,-3.24286,-4.29878,-42.2256,-36.6159,-9.63037,-0.239502,-0.811912,26.7073,-3.04878,-2.9878
1010.7,5.65099,-4.4383,0,2.24413,8.93821,-3.11592,-4.11585,-38.2622,-35.7012,-9.52739,-0.261057,-0.787961,26.0671,-2.89634,-2.10366
1010.71,5.46825,-4.48864,0,2.10762,8.84002,-3.21412,-3.93293,-33.75,-34.4817,-9.35734,-0.368833,-0.910107,25.7012,-2.95732,-1.58537
1010.72,5.29689,-4.55809,0,2.11001,8.95498,-3.31231,-3.47561,-32.1341,-33.3841,-9.1825,-0.433499,-0.953218,25.3659,-2.71341,-1.0061
1010.73,5.14635,-4.66223,0,2.09085,8.74901,-3.17101,-2.56098,-24.5427,-31.9817,-9.06994,-0.55325,-1.02986,25,-2.31707,-0.396341
1010.74,4.92763,-4.80489,0,1.51844,8.82565,-2.692,-0.396341,-25.7317,-31.7378,-9.06036,-0.579595,-1.09692,25.1829,-1.82927,-0.396341
1010.75,4.73469,-4.962,0,1.6837,8.8496,-2.76625,-0.731707,-22.561,-31.6159,-9.10826,-0.627495,-1.17116,24.9695,-1.82927,-0.365854
1010.76,4.52409,-5.17846,0,1.56634,8.96935,-2.66566,-0.182927,-20.8841,-32.0427,-9.14658,-0.560435,-1.22625,25.2439,-1.18902,-0.27439
1010.77,4.33727,-5.45094,0,1.68849,9.07473,-2.81894,-0.548781,-18.5671,-31.3415,-9.14418,-0.598755,-1.32684,25.3659,-1.0061,0.0609756
1010.78,4.12567,-5.85546,0,1.48252,9.01485,-2.56986,-0.121951,-18.0183,-31.7988,-9.16334,-0.56283,-1.36037,25.6098,-0.304878,0.457317
1010.79,3.89594,-6.2967,0,1.36037,9.01725,-2.46448,-0.27439,-17.8963,-32.5305,-9.15856,-0.543669,-1.40588,26.0671,-0.121951,1.40244
1010.8,3.65018,-6.71994,0,1.23823,9.01964,-2.56507,-0.609756,-17.3171,-33.0793,-9.07952,-0.447869,-1.56395,26.2195,0.518293,2.56098
1010.81,3.36542,-7.00729,0,0.900527,9.02922,-2.55549,-0.548781,-21.9817,-33.2317,-9.0412,-0.500559,-1.66933,26.372,1.34146,3.44512
1010.82,3.0844,-7.24762,0,0.938848,8.99809,-2.51238,-0.670732,-23.4756,-33.9634,-8.95977,-0.543669,-1.71483,26.311,1.89024,4.60366
1010.83,2.82316,-7.46612,0,1.09931,8.98132,-2.50759,-0.579268,-23.872,-34.6037,-8.85199,-0.543669,-1.79387,26.9207,2.62195,5.39634
1010.84,2.55654,-7.67498,0,1.07057,9.02922,-2.56267,-0.792683,-23.1098,-35.2439,-8.76817,-0.519719,-1.86093,27.4695,3.32317,6.52439
1010.85,2.29864,-7.87806,0,1.17116,9.04359,-2.60818,-0.548781,-21.0976,-36.1585,-8.73464,-0.550855,-1.86093,27.7439,3.29268,7.83537
1010.86,2.03204,-8.04353,0,1.16877,9.12502,-2.68482,0.182927,-20.3963,-37.4085,-8.71548,-0.570015,-1.76752,28.1707,3.41463,8.71951
1010.87,1.77745,-8.17553,0,1.33642,9.25675,-2.91474,0.670732,-16.2195,-38.5976,-8.66997,-0.622705,-1.65975,28.2927,3.32317,9.66463
1010.88,1.50766,-8.29932,0,1.29331,9.35255,-2.92671,1.37195,-14.4207,-39.9695,-8.52148,-0.579595,-1.64777,28.2317,3.90244,10.5793
1010.89,1.2281,-8.44305,0,1.30768,9.17053,-2.86444,2.46951,-10.7317,-42.0122,-8.40412,-0.627495,-1.76273,28.0183,6.09756,11.4329
1010.9,0.956655,-8.66673,0,1.38672,8.87115,-2.76864,4.11585,-9.02439,-43.3232,-8.30353,-0.730481,-2.07648,28.2012,10.0305,11.9512
1010.91,0.698047,-8.89985,0,1.50407,8.52866,-2.77104,5.67073,-8.87195,-44.8476,-8.39933,-0.888552,-2.16989,28.4146,13.8415,11.7988
1010.92,0.466959,-9.09462,0,1.66214,8.39933,-2.70637,6.37195,-12.5915,-45,-8.57896,-1.03225,-2.09804,28.2317,15.3659,10.9451
1010.93,0.304757,-9.27861,0,2.0669,8.41849,-2.70398,6.21951,-15.3963,-43.75,-9.04359,-1.12805,-2.19863,27.9573,15.4268,9.42073
1010.94,0.173485,-9.44327,0,2.19144,8.74182,-2.71116,4.96951,-15.7622,-41.4939,-9.40764,-0.965193,-2.23455,28.75,15.1829,8.35366
1010.95,0.0397245,-9.54822,0,1.89925,8.96216,-2.38783,3.78049,-19.5427,-37.7134,-9.84832,-0.694556,-2.09804,29.2988,13.628,8.53659
1010.96,-0.103731,-9.58452,0,1.51605,9.05078,-2.25611,3.29268,-23.1402,-33.9634,-10.2363,-0.438289,-1.88009,29.878,11.5854,9.39024
1010.97,-0.119955,-9.46636,0,2.19863,9.14658,-3.20454,2.16463,-15,-29.4512,-10.8279,-0.227527,-1.24541,29.3598,8.07927,11.4024
1010.98,-0.226962,-9.0283,0,1.13524,9.2807,-2.82133,1.85976,-35.3354,-25.3963,-11.7452,0.0191602,0.119751,27.2256,1.03659,12.439
1010.99,-0.197384,-8.43799,0,1.9711,9.44835,-4.09069,3.01829,-22.5915,-21.4939,-13.4576,0.464634,1.37474,20.7012,-9.20732,11.8902
1011,-0.0964884,-7.88755,0,2.29682,10.1381,-4.45953,5.7622,-30.6402,-16.1585,-15.1054,1.0586,1.42264,11.8293,-16.4939,9.05488
1011.01,0.0712823,-7.48027,0,2.68961,11.2758,-4.65592,5.88415,-25.2439,-10.4573,-15.7233,1.88728,0.632285,1.92073,-19.1159,5.70122
1011.02,0.216404,-7.22793,0,2.02379,11.5727,-3.95418,5.30488,-21.6768,-5.30488,-14.8731,2.55549,-0.308958,-7.31707,-16.5549,3.9939
1011.03,0.440256,-7.10097,0,2.14354,11.7548,-3.93262,5.2439,-12.8049,1.7378,-13.3522,2.13875,-0.948428,-15,-8.29268,2.68293
1011.04,0.800646,-7.00157,0,2.51238,11.8745,-3.46799,3.23171,-20.061,13.2927,-12.2338,0.376018,-0.989143,-17.3171,-6.21951,-0.304878
1011.05,1.32292,-7.06024,0,3.17819,12.6002,-3.23088,-2.10366,-21.5549,26.0366,-11.0985,-1.3963,-1.65017,-16.128,-2.77439,-5
1011.06,1.95696,-7.26196,0,3.47038,13.3043,-2.68003,-15.3049,-21.372,37.561,-10.3465,-2.65129,-2.15791,-10.2744,2.16463,-8.10976
1011.07,2.66691,-7.41199,0,3.17101,12.9187,-1.11129,-32.3476,-15.7622,48.2927,-10.5812,-3.67635,-2.05972,1.95122,4.96951,-6.7378
1011.08,3.45355,-7.39579,0,2.59381,12.296,0.462239,-45.8232,-20.061,61.4024,-11.556,-4.51461,-1.41546,14.0549,4.14634,-5.54878
1011.09,4.35069,-7.38684,0,2.47166,12.2457,1.00112,-54.3598,-25.8537,75.3049,-12.4278,-4.59844,-1.56155,26.0061,1.98171,-4.42073
1011.1,5.35561,-7.37674,0,2.42855,12.3846,1.30289,-62.5305,-31.8902,88.7805,-10.9069,-4.32062,-1.35798,37.9878,7.0122,-1.92073
1011.11,6.43274,-7.16279,0,2.29922,12.0589,1.38672,-68.75,-37.6524,98.811,-10.5812,-2.68242,-0.404758,46.6768,2.68293,4.72561
1011.12,7.55164,-6.60363,0,1.95913,11.1943,1.00591,-71.6463,-40.4878,107.043,-10.4135,-1.20948,0.502954,52.2256,0.853659,10.8841
1011.13,8.68678,-5.92968,0,1.42504,10.3704,0.105381,-70.1524,-38.0183,115.274,-9.74533,0.110171,0.682581,54.5732,1.21951,15.5793
1011.14,9.84147,-4.01833,0,0.981958,9.84832,-0.00958008,-68.5671,-38.9634,123.933,-9.30465,0.989143,1.08494,55.5183,0,17.7134
1011.15,10.9884,-3.76479,0,0.474214,9.74054,-0.364043,-67.2561,-42.8963,131.433,-7.02699,5.20677,0.301772,44.0244,15.122,23.5061
1011.16,12.1712,-3.03496,0,0.502954,10.0351,-1.0562,-65.3049,-44.2988,137.256,-9.63516,2.0214,2.48603,45.3963,-5,22.5915
1011.17,13.3968,-2.35446,0,0.993933,10.471,-1.49928,-63.9634,-51.6463,138.841,-8.92624,1.99984,1.81303,39.5122,-2.86585,19.3598
1011.18,14.6145,-1.5051,0,1.60227,10.8925,-1.96392,-60.6098,-53.811,134.512,-8.54782,2.07409,1.80105,28.0183,-2.19512,15.3963
1011.19,15.7815,-0.909523,0,2.00703,11.3835,-2.77104,-56.0976,-55.0305,128.506,-8.68913,2.06211,1.7795,15.6098,-3.29268,11.5244
1011.2,16.8589,-0.099459,0,1.94236,11.6015,-3.21891,-51.128,-55.7622,122.744,-8.64602,1.98068,1.60466,5.09146,-1.70732,8.65854
1011.21,17.8921,0.565844,0,1.98547,11.5344,-3.04886,-44.6037,-66.6768,119.909,-8.69153,1.88967,1.17835,-3.44512,-1.37195,6.89024
1011.22,18.8999,1.58461,0,1.86572,10.9812,-3.25483,-35.8537,-75.3963,119.665,-8.81128,1.75076,0.981958,-10.7927,-0.182927,7.43902
1011.23,19.8752,1.72871,0,1.57353,10.6315,-2.99377,-25.9451,-71.1281,120.915,-9.21843,1.42504,0.63947,-16.25,1.76829,9.81707
1011.24,20.8799,1.69864,0,2.04056,10.4591,-3.00096,-16.6463,-54.3598,120.549,-9.65193,1.08734,0.177231,-18.9634,3.10976,12.9573
1011.25,21.8835,1.54593,0,2.39981,10.2531,-2.8357,-8.65854,-35.9451,118.14,-9.84593,0.828677,-0.359253,-19.4817,5.09146,16.7988
1011.26,22.8817,1.40216,0,2.76625,9.85311,-2.5962,-0.823171,-13.5366,114.512,-9.81479,0.61552,-0.349673,-18.7805,6.28049,20.7622
1011.27,23.8733,1.22316,0,3.00814,9.36213,-2.42136,5.51829,9.35976,111.524,-10.1022,0.193997,-0.541274,-17.4085,5.64024,22.561
1011.28,24.8459,1.06085,0,3.20214,8.86636,-2.4046,11.5854,32.5305,107.439,-10.0208,-0.0886157,-0.490979,-15.5488,4.93902,22.4695
1011.29,25.7668,0.902889,0,3.21412,8.6556,-2.5004,16.9817,56.4024,103.11,-9.77647,-0.225132,-0.476609,-14.6037,4.20732,21.311
1011.3,26.5835,0.748581,0,2.93629,8.658,-2.48843,21.0671,74.3293,97.6829,-9.56331,-0.225132,-0.459844,-14.0854,3.71951,18.5061
1011.31,27.3201,0.582884,0,2.91713,8.69871,-2.6441,24.0549,90.1219,91.5854,-9.32381,-0.0526904,-0.426313,-14.2073,2.59146,15.9146
1011.32,27.9204,0.309964,0,2.4501,8.74422,-2.51956,26.4939,98.5976,85.061,-9.07233,0.308958,-0.301772,-15.2439,0.823171,13.8415
1011.33,28.3896,-0.0429084,0,1.99984,8.71069,-2.41897,27.561,104.482,78.4756,-8.96695,0.593965,-0.323328,-17.622,-0.457317,12.3171
1011.34,28.7338,-0.162996,0,1.61424,8.55501,-2.47166,28.2012,107.561,71.25,-8.93582,0.828677,-0.268242,-20.8537,-1.70732,11.5549
1011.35,28.9326,-0.269703,0,0.950823,8.31311,-2.0693,27.5915,106.25,65.6098,-8.90229,1.03465,-0.318538,-23.3537,-2.34756,10.9756
1011.36,29.0586,-0.359103,0,0.740061,8.14786,-2.01182,26.7988,104.085,61.311,-8.94779,1.14242,-0.347278,-26.25,-3.2622,10.5488
1011.37,29.0807,-0.499362,0,0.380808,8.05685,-1.9735,26.9817,98.5671,56.0366,-8.96216,1.17116,-0.55804,-28.7195,-3.62805,10.4268
1011.38,28.9888,-0.68951,0,-0.0407153,7.80058,-1.825,29.3293,92.3171,50.5793,-9.01006,1.09692,-0.723296,-30.7622,-3.10976,9.08537
1011.39,28.7649,-0.93769,0,-0.486189,7.66885,-1.71483,31.9512,85.5793,43.7195,-9.0867,0.958008,-0.864602,-31.9512,-2.43902,8.07927
1011.4,28.3894,-1.21863,0,-1.14003,7.597,-1.54239,33.2927,77.5915,37.8049,-9.11784,0.768801,-0.993933,-32.2561,-2.34756,6.79878
1011.41,27.8898,-1.53043,0,-1.62861,7.44612,-1.33642,34.3598,66.3415,32.1341,-9.18729,0.55325,-1.12805,-31.9207,-2.22561,4.60366
1011.42,27.2995,-1.85469,0,-1.8753,7.2593,-1.07057,36.0366,55.061,26.25,-9.25915,0.325723,-1.24541,-31.9512,-2.22561,2.28659
1011.43,26.6457,-2.16473,0,-1.91362,7.07489,-0.924478,37.0732,40.9146,19.878,-9.27112,0.261057,-1.29571,-31.2805,-2.37805,0.548781
1011.44,25.9794,-2.51782,0,-1.57592,7.0198,-0.821492,36.6463,25.7012,12.2256,-9.22801,0.222737,-1.40588,-30.5488,-2.13415,-1.12805
1011.45,24.9502,-3.01595,0,-1.20469,6.91921,-0.790356,33.9939,12.3476,4.14634,-9.17772,0.234712,-1.59029,-30.8537,-1.4939,-2.0122
1011.46,23.767,-3.85968,0,-0.878972,6.90963,-0.696951,31.9207,1.4939,-3.75,-9.12502,0.285007,-1.64059,-31.0366,-0.518293,-2.53049
1011.47,23.0511,-4.60691,0,-0.665815,7.09165,-0.5772,32.9573,-10.8841,-13.5976,-9.07233,0.344883,-1.78908,-31.0671,0.762195,-2.83537
1011.48,22.304,-4.95519,0,-0.337698,7.13716,-0.335303,36.311,-26.128,-23.6585,-9.04599,0.423918,-1.76034,-30.8841,2.2561,-2.9878
1011.49,21.5396,-5.27553,0,0.0167651,7.60179,-0.261057,41.372,-41.9512,-32.7439,-8.96935,0.459844,-1.7292,-31.8598,2.37805,-3.38415
1011.5,20.9382,-5.59193,0,1.71004,8.24845,-0.263452,40.3963,-43.7195,-41.311,-8.76577,0.411943,-1.80345,-32.439,2.89634,-4.48171
1011.51,20.5128,-5.85364,0,3.8464,8.80409,0.59157,33.9329,-28.2317,-48.8415,-8.61249,0.332908,-1.74118,-32.0427,3.75,-5.39634
1011.52,20.3167,-6.11408,0,6.66534,8.74422,1.06339,28.689,-9.11585,-54.2988,-8.45921,0.225132,-1.79147,-30.3963,4.45122,-6.28049
1011.53,20.3765,-6.36751,0,9.40524,8.01853,1.40588,30.0305,6.55488,-53.5671,-8.31551,0.170046,-1.825,-27.9878,6.06707,-6.67683
1011.54,20.6012,-6.62993,0,11.8841,8.18618,0.270637,31.9817,12.9573,-48.628,-8.3179,0.0718506,-1.91123,-24.8171,8.14024,-6.31098
1011.55,21.0128,-6.89439,0,13.278,8.0808,-2.14594,31.372,19.7561,-35.7012,-8.43765,0.0263452,-1.98787,-21.5549,10,-5.27439
1011.56,21.5538,-7.13055,0,13.3882,8.24126,-4.40923,33.2317,23.689,-21.0671,-8.82325,-0.0502954,-2.00463,-18.9939,11.5854,-3.65854
1011.57,22.1044,-7.30013,0,11.9919,8.63644,-4.83315,33.3232,37.2256,-10.5183,-9.35974,-0.0263452,-1.88009,-17.0732,11.128,-1.76829
1011.58,22.5995,-7.38971,0,9.4747,8.49034,-3.90867,40.2439,45.1829,-2.80488,-10.0208,0.0766406,-1.67891,-16.9512,10.2744,-0.335366
1011.59,23.0089,-7.4311,0,7.38145,8.58854,-3.21651,42.378,45.0915,0.97561,-10.5836,0.328118,-1.56155,-18.9634,8.38415,0.121951
1011.6,23.3088,-7.41643,0,6.48332,8.84241,-2.43573,33.1707,42.439,2.37805,-10.8925,0.747246,-1.34361,-22.439,5.94512,0.335366
1011.61,23.5737,-7.33676,0,6.14083,9.17292,-1.26218,19.4817,38.5671,5.57927,-11.0554,1.17356,-1.06818,-27.2561,2.04268,0.97561
1011.62,23.7264,-7.10703,0,5.63548,10.3297,-1.45138,11.7683,32.1341,5.27439,-11.3476,1.54479,-0.316143,-30.4878,-3.9939,2.46951
1011.63,23.4641,-6.84719,0,3.71947,14.9473,-1.74118,3.68902,39.7256,-6.85976,-11.7356,1.35798,-0.122146,-31.5549,-10.2744,5.03049
1011.64,22.8439,-6.66532,0,1.57113,17.122,1.28373,-3.04878,51.6463,-26.0976,-12.5427,0.241897,-0.507744,-30.4268,-12.8659,7.80488
1011.65,22.4122,-6.64029,0,3.12311,14.2001,2.5004,-10.5183,47.5915,-22.7439,-13.3235,-1.11847,-1.41785,-26.3415,-8.29268,9.63415
1011.66,22.4554,-6.88758,0,6.75156,11.8314,1.14721,-4.84756,34.4817,-10.4878,-13.8241,-2.43573,-3.15664,-21.311,4.05488,10.5793
1011.67,22.528,-6.83987,0,5.9612,10.4327,-1.42983,2.56098,56.4024,-7.46951,-14.8635,-2.73272,-1.47533,-16.128,2.9878,11.7988
1011.68,22.2078,-6.82656,0,2.00703,8.72266,-3.00575,16.9207,78.2012,-13.1402,-13.939,-2.25371,-1.57832,-8.5061,8.84146,15.122
1011.69,21.416,-6.6854,0,-1.21188,8.57417,-3.87514,20.8537,61.2805,-19.0549,-12.9834,-1.2526,-0.730481,-4.90854,8.44512,20.5488
1011.7,20.335,-6.40077,0,-3.1255,8.91905,-4.34457,22.0732,22.1646,-27.1951,-12.205,0.0335303,0.112566,-4.60366,5.94512,26.0061
1011.71,18.9426,-6.12959,0,-5.13971,8.76577,-3.74581,24.3293,-17.1951,-38.5671,-11.3045,0.00958008,0.0958008,-4.2378,7.95732,29.0244
1011.72,17.4214,-5.69642,0,-5.22593,8.73703,-3.77934,24.0854,-42.4085,-53.5366,-12.0637,0.984353,0.787961,-8.35366,0.579268,27.1341
1011.73,16.0221,-5.24114,0,-3.35782,9.49146,-3.62845,25.9451,-49.3598,-67.4695,-11.9535,1.50407,1.03225,-13.4146,-0.914634,22.6524
1011.74,14.8399,-4.74054,0,-1.11368,10.7393,-3.34105,22.4085,-39.2988,-75.8537,-11.6446,1.66454,1.46336,-19.6341,-2.65244,17.2256
1011.75,13.9105,-4.14471,0,1.33163,11.2494,-2.80217,17.561,-26.0366,-78.3232,-11.18,1.53042,2.02379,-26.8902,-5.88415,12.4695
1011.76,13.2028,-3.52189,0,3.37698,10.6626,-2.25371,14.3293,-10.5793,-79.6951,-10.3704,1.05381,2.1172,-34.1463,-7.56098,8.78049
1011.77,12.5939,-2.82964,0,3.96136,9.73815,-1.79147,14.4512,7.89634,-80.3659,-9.54655,0.186812,2.36388,-40.4878,-10.0915,5.45732
1011.78,11.9242,-2.22642,0,3.01054,9.08191,-1.78189,14.4207,18.872,-80.061,-8.97414,-0.165256,1.96392,-46.7073,-11.8598,3.23171
1011.79,11.0622,-1.78608,0,1.08734,8.90229,-2.02379,12.7439,20.9756,-77.8354,-8.33467,-0.55325,1.29571,-48.0488,-11.25,2.53049
1011.8,10.1077,-1.49501,0,-0.00479004,8.98132,-2.26808,11.4939,19.0549,-74.7561,-7.84608,-0.797541,0.756826,-46.25,-10.5183,3.2622
1011.81,9.16218,-1.34621,0,-0.347278,9.11065,-2.4549,9.60366,10.061,-71.4024,-7.87961,-1.24781,0.304167,-41.189,-10.0915,4.45122
1011.82,8.34143,-1.29981,0,0.198787,9.0412,-2.92432,8.93293,2.2561,-67.6219,-8.1287,-1.68849,-0.0311353,-33.5366,-8.75,5.30488
1011.83,7.68674,-1.29164,0,1.07776,8.54543,-3.41051,9.05488,0.0609756,-64.4512,-8.38496,-2.0693,-0.165256,-24.6341,-6.92073,5.57927
1011.84,7.15707,-1.33392,0,1.68849,8.25563,-3.58295,10.9146,2.68293,-61.9512,-8.6556,-2.41418,-0.344883,-15.3659,-3.81098,4.90854
1011.85,6.67064,-1.629,0,1.72681,8.27479,-3.4129,12.9573,4.02439,-59.0854,-8.95498,-2.47885,-0.507744,-6.37195,-0.0914634,3.2622
1011.86,6.16057,-1.71695,0,1.25978,8.68674,-3.02012,14.0549,1.21951,-55.2744,-9.39806,-2.43573,-0.579595,1.55488,2.59146,1.18902
1011.87,5.60875,-1.84414,0,0.589175,9.2304,-2.52675,13.5061,-6.64634,-51.189,-9.84114,-2.33035,-0.840652,7.7439,5.45732,-1.06707
1011.88,5.04905,-1.95685,0,0.165256,9.57768,-2.22258,10.122,-18.872,-47.6829,-10.21,-2.16989,-0.831072,13.0488,6.76829,-3.78049
1011.89,4.50802,-2.00823,0,0.0311353,9.8124,-2.07648,6.0061,-32.7439,-45.2744,-10.2674,-1.93757,-0.5772,16.4329,7.22561,-5.91463
1011.9,4.01893,-2.07179,0,0.241897,9.78366,-2.28964,2.22561,-45,-43.5976,-10.1142,-1.59029,-0.632285,18.0488,6.89024,-7.13415
1011.91,3.5792,-2.11415,0,0.474214,9.55134,-2.5004,0.396341,-55.7317,-42.4695,-9.89143,-1.22864,-0.536484,18.1402,7.22561,-6.92073
1011.92,3.21996,-2.13035,0,0.922083,9.12502,-2.9339,-1.40244,-62.439,-41.128,-9.68546,-1.02746,-0.421523,17.3171,5.7622,-5.94512
1011.93,2.91825,-2.12036,0,1.23583,8.87355,-3.08,-1.85976,-67.3171,-40.3963,-9.58008,-0.828677,-0.311353,15.7012,4.57317,-4.78659
1011.94,2.68376,-2.12292,0,1.60466,8.8951,-3.31471,-1.21951,-66.25,-38.8415,-9.57289,-0.673001,-0.361648,14.2378,3.29268,-3.78049
1011.95,2.48061,-2.15608,0,1.76034,8.87834,-3.45362,-1.4939,-64.9085,-38.1402,-9.51541,-0.538879,-0.459844,12.9268,2.22561,-3.56707
1011.96,2.3019,-2.22616,0,1.83219,8.87355,-3.39374,-0.945122,-61.8902,-36.9817,-9.50104,-0.5772,-0.548459,12.5915,1.58537,-3.71951
1011.97,2.17567,-2.37542,0,2.13636,8.90947,-3.44164,-1.64634,-53.8415,-35.7012,-9.54655,-0.483794,-0.55804,11.7683,-0.0304878,-4.45122
1011.98,2.04624,-2.59988,0,2.13396,8.98372,-3.32908,-2.37805,-47.1341,-36.0366,-9.47709,-0.385598,-0.761616,11.3415,-0.518293,-4.96951
1011.99,1.93113,-2.93263,0,2.32796,8.93342,-3.28597,-2.56098,-37.1951,-37.378,-9.3765,-0.376018,-0.881367,11.4634,-0.335366,-5.57927
1012,1.8195,-3.20659,0,2.43094,8.85439,-3.15185,-2.10366,-26.1585,-38.7805,-9.31423,-0.450264,-0.922083,11.5549,-0.670732,-6.67683
1012.01,1.70081,-3.37071,0,2.4525,8.8975,-2.96024,-2.10366,-15.9756,-39.8476,-9.16813,-0.538879,-0.831072,11.2805,-1.15854,-6.79878
1012.02,1.56051,-3.51748,0,2.24174,8.76577,-2.692,-1.43293,-6.12805,-40.122,-9.12263,-0.692161,-0.900527,11.4024,-1.7378,-7.13415
1012.03,1.40048,-3.73123,0,2.1651,8.87355,-2.61297,-0.182927,0.304878,-41.128,-9.01485,-0.864602,-1.02267,11.5549,-1.55488,-6.58537
1012.04,1.21015,-3.90435,0,2.01182,9.0412,-2.56986,-0.121951,6.34146,-42.1646,-8.9909,-1.02028,-1.02986,11.8598,-1.95122,-5.85366
1012.05,0.985224,-4.165,0,1.65735,8.87355,-2.48843,-0.121951,8.38415,-42.0732,-8.943,-1.16158,-1.19751,12.2866,-1.64634,-4.81707
1012.06,0.743449,-4.57298,0,1.37235,8.80888,-2.20342,0.579268,6.61585,-40.7317,-8.90229,-1.15919,-1.2502,13.0793,-0.884146,-3.35366
1012.07,0.477634,-5.36932,0,1.06578,9.01964,-2.22497,0.823171,5.85366,-39.3598,-8.8496,-1.14482,-1.36516,13.9329,0.0914634,-1.76829
1012.08,0.159625,-5.826,0,0.555645,9.18969,-2.08127,1.15854,-1.28049,-38.5366,-8.71787,-1.11129,-1.52323,14.5732,1.12805,0.426829
1012.09,-0.14722,-6.14674,0,0.593965,9.25915,-2.16031,0.792683,-1.98171,-38.4756,-8.65081,-0.972378,-1.64298,15.8232,2.07317,1.98171
1012.1,-0.469171,-6.39282,0,0.407153,9.20166,-1.95194,0.152439,-4.84756,-38.3232,-8.53585,-0.823887,-1.69807,17.1341,3.29268,4.69512
1012.11,-0.785134,-6.60529,0,0.450264,9.22322,-1.92081,0.518293,-8.04878,-38.9024,-8.47597,-0.735271,-1.6813,17.7439,4.05488,6.98171
1012.12,-1.09511,-6.82419,0,0.56762,9.29268,-2.04774,0.518293,-9.7561,-40.3659,-8.3658,-0.689766,-1.74118,18.6585,4.60366,9.14634
1012.13,-1.39275,-7.02714,0,0.761616,9.32621,-2.29203,1.18902,-9.60366,-42.1341,-8.32988,-0.65384,-1.7316,19.0549,5.27439,11.4024
1012.14,-1.68196,-7.1799,0,0.900527,9.46512,-2.53393,1.21951,-9.63415,-43.4451,-8.20534,-0.706531,-1.55197,19.2988,5.33537,13.3537
1012.15,-1.95487,-7.36327,0,1.13763,9.60882,-2.63931,2.0122,-8.17073,-45.061,-7.97781,-0.62031,-1.65735,19.5122,7.07317,15.0305
1012.16,-2.20607,-7.6085,0,1.50168,9.54655,-2.63692,4.78659,-4.5122,-47.8659,-7.75028,-0.507744,-1.86093,19.2683,10.4878,17.622
1012.17,-2.47383,-7.92579,0,1.6334,9.29507,-2.41897,7.46951,-3.44512,-52.1646,-7.69759,-0.498164,-2.14115,19.0244,15.4878,19.6037
1012.18,-2.7519,-8.27232,0,1.81782,8.97174,-2.22018,10.3354,-2.2561,-56.7988,-7.72394,-0.474214,-2.29922,18.4451,20.0915,21.6463
1012.19,-3.04206,-8.57011,0,1.88009,8.64123,-2.05732,12.7439,-2.68293,-60.2744,-8.0305,-0.62031,-2.25371,16.7683,23.4146,22.6829
1012.2,-3.29819,-8.77671,0,2.14833,8.3203,-2.09564,13.2622,-7.2561,-61.8902,-8.43286,-0.708926,-2.05014,15.5488,24.878,22.3476
1012.21,-3.47471,-8.87545,0,2.53633,8.14786,-2.2609,11.7073,-7.62195,-60.0305,-9.06994,-0.871787,-1.78908,13.811,22.5305,21.4024
1012.22,-3.55909,-8.96024,0,2.84049,8.13109,-2.49801,9.35976,-7.80488,-55,-9.68306,-0.840652,-1.86812,12.6524,19.5732,20.2134
1012.23,-3.66232,-9.09818,0,2.18186,8.48555,-2.28245,6.46341,-10.3049,-47.2256,-10.3201,-0.804727,-2.2609,13.3232,17.5305,19.5122
1012.24,-3.74438,-9.29153,0,1.7795,8.9933,-2.32317,3.9939,-7.9878,-38.689,-10.7345,-0.823887,-2.65608,15.5488,16.7683,19.939
1012.25,-3.75762,-9.38571,0,1.74118,9.4747,-2.47166,1.46341,-11.25,-30.2439,-11.1033,-0.974773,-2.27766,19.2073,15.6098,21.189
1012.26,-3.68544,-9.3108,0,1.79626,9.64714,-2.63692,0.304878,-13.9329,-21.8293,-11.544,-1.26697,-1.50647,20.5793,11.9207,22.1951
1012.27,-3.47701,-9.15828,0,2.39502,9.89383,-3.31231,0.884146,-17.0427,-14.0244,-11.9943,-1.20709,-1.13763,21.7073,8.32317,22.7439
1012.28,-3.15337,-8.80214,0,2.94348,10.5956,-3.92783,1.31098,-20.3963,-5.79268,-12.7702,-0.790356,-0.0479004,21.311,2.65244,22.561
1012.29,-2.70172,-8.44297,0,3.53265,10.9931,-4.17452,1.31098,-22.6524,1.28049,-13.7905,-0.191602,0.0479004,17.7744,-1.70732,20.3049
1012.3,-2.13267,-8.2487,0,4.54335,11.3213,-4.22002,0.152439,-24.4512,7.92683,-14.4731,0.574805,-0.907712,13.3841,-0.579268,16.6768
1012.31,-1.44213,-8.12994,0,5.25228,11.18,-4.10746,-3.78049,-13.3232,14.7561,-14.3725,1.38432,-1.31247,9.7561,6.4939,12.6829
1012.32,-0.638753,-7.8789,0,5.53729,11.1321,-3.15185,-9.90854,-3.41463,25.061,-14.5473,1.51126,-0.447869,6.09756,5.54878,9.08537
1012.33,0.252137,-7.61721,0,5.33371,11.3644,-2.25371,-18.3841,6.15854,38.2927,-13.9893,0.526904,-0.304167,3.81098,5.27439,3.65854
1012.34,1.19692,-7.40884,0,4.5194,12.0805,-1.37474,-29.5732,12.7134,55.061,-13.6061,-0.838257,-0.550855,4.05488,7.46951,-4.69512
1012.35,2.24224,-7.20027,0,4.09788,12.981,-0.632285,-42.5915,11.8293,73.3537,-12.8181,-1.75794,-0.469424,5.73171,9.05488,-12.9268
1012.36,3.39089,-6.95159,0,3.62606,13.484,0.0119751,-55.5488,8.35366,91.0671,-11.853,-2.22018,-0.182021,9.29878,8.2622,-16.7073
1012.37,4.62809,-6.73062,0,3.14466,13.187,0.543669,-66.8902,-1.37195,105.793,-11.4578,-1.18314,-0.316143,7.59146,2.16463,-14.4817
1012.38,5.92001,-6.45512,0,2.35191,12.1427,1.08494,-73.4451,-14.878,118.902,-10.5501,-2.68721,0.0143701,23.628,3.32317,-10.0305
1012.39,7.24296,-6.02449,0,1.58311,11.0842,0.56762,-74.939,-23.1402,130.488,-10.0471,-2.46208,0.335303,30.6402,1.34146,-5.09146
1012.4,8.51641,-5.47617,0,0.352068,10.5453,0.423918,-74.5427,-34.3902,140.823,-9.39087,-1.86812,0.684976,37.1037,-1.92073,-0.701219
1012.41,9.7541,-4.80779,0,-0.785566,10.6099,-0.438289,-73.0793,-40.0915,152.317,-8.58136,-1.20469,0.790356,41.0366,-2.34756,3.17073
1012.42,11.0424,-4.26493,0,-0.991538,11.0554,-0.795146,-70.4573,-50.9756,161.829,-8.56938,-0.435894,1.06099,41.6159,-3.71951,5.36585
1012.43,12.3997,0.345815,0,-0.119751,11.7356,-1.5879,-65.5183,-59.0549,162.226,-7.16111,-1.47533,0.483794,40.5488,0.396341,7.22561
1012.44,13.7008,0.778919,0,0.507744,12.5092,-2.0669,-59.6646,-66.6768,153.323,-9.39327,1.35798,1.86572,31.4024,-9.45122,7.28659
1012.45,14.8686,1.06544,0,0.831072,13.1175,-2.66805,-52.9878,-69.1463,139.726,-9.34297,1.54,1.30768,23.0793,-7.62195,7.37805
1012.46,15.9754,1.25808,0,1.02507,12.6984,-2.62255,-44.9085,-84.3598,133.872,-9.66151,2.20342,0.996328,11.4634,-6.98171,7.9878
1012.47,17.1527,1.39061,0,1.58311,11.2614,-3.28836,-34.4207,-100.61,136.402,-9.8124,2.51717,0.768801,0.518293,-3.75,9.66463
1012.48,18.3417,1.47763,0,1.56874,10.2674,-3.57097,-22.9268,-97.0427,138.598,-9.69264,2.42615,0.421523,-10.122,-0.487805,10.9756
1012.49,19.5191,1.59841,0,1.76513,10.0399,-3.34105,-11.4634,-87.5,137.226,-9.55373,2.13875,0.500559,-18.8415,0.670732,11.9207
1012.5,20.657,1.4844,0,2.18905,10.2722,-3.66917,-1.58537,-67.8963,131.402,-9.21125,1.5855,-0.0239502,-25.2134,1.58537,12.0732
1012.51,21.7645,1.33977,0,2.68482,10.186,-3.73144,4.93902,-39.6037,125.03,-9.15856,1.31008,-0.277822,-28.9024,3.29268,12.6524
1012.52,22.8704,1.15732,0,3.24286,9.72617,-3.59013,10.3963,-9.42073,119.634,-9.58487,1.0083,-0.397573,-30.4573,2.28659,13.2622
1012.53,23.9498,0.891094,0,3.39614,9.22083,-3.39374,14.9085,22.5,115.549,-9.50344,0.847837,-0.900527,-30.6707,4.84756,13.7195
1012.54,24.9886,0.589355,0,3.48236,8.74661,-3.2237,17.7439,51.25,110.579,-9.56331,0.61552,-1.11608,-30.0915,6.03659,13.4146
1012.55,25.9403,0.316063,0,3.28118,8.26282,-2.72314,23.0488,72.5305,103.902,-9.7142,0.474214,-1.06099,-30.1524,5.60976,12.3476
1012.56,26.7928,0.0691302,0,3.32189,7.93949,-3.03688,29.4207,96.7988,93.5976,-9.6184,0.330513,-0.977168,-30.9756,5,11.372
1012.57,27.4463,-0.158772,0,2.85726,7.98739,-3.11113,34.4817,109.604,81.189,-9.48667,0.198787,-0.895737,-32.0122,3.96341,9.84756
1012.58,27.8838,-0.424231,0,2.30161,7.96823,-3.29555,38.1402,122.5,67.7744,-9.31663,0.162861,-0.878972,-33.3232,2.40854,8.35366
1012.59,28.1273,-0.693214,0,1.86093,7.95386,-3.47278,41.2195,130.366,54.878,-9.26633,0.158071,-0.749641,-35.2439,1.67683,7.0122
1012.6,28.1581,-1.08549,0,1.23583,8.06643,-3.2692,40.1829,133.598,42.7744,-9.01006,0.179626,-0.843047,-37.561,1.31098,6.37195
1012.61,28.0526,-1.65399,0,0.807122,8.04248,-2.78062,37.8659,137.409,35,-8.86157,0.316143,-0.874182,-39.4817,0.792683,6.61585
1012.62,27.8173,-2.46559,0,0.330513,7.84369,-2.17228,36.4024,136.982,28.3232,-8.91666,0.455054,-0.883762,-42.1951,0.0609756,7.43902
1012.63,27.428,-3.10708,0,-0.332908,7.73831,-1.98787,38.3841,131.524,22.0732,-8.91187,0.58678,-1.14242,-44.7561,-0.609756,7.9878
1012.64,26.8778,-3.77956,0,-1.16158,7.73591,-1.77231,39.0244,121.86,17.2561,-9.02683,0.584385,-1.38193,-45.1524,-0.609756,8.32317
1012.65,26.2565,-4.31461,0,-1.50647,7.53952,-1.57592,39.4207,110.183,14.5122,-9.13221,0.579595,-1.42025,-45.3049,-0.701219,7.80488
1012.66,25.567,-4.95696,0,-1.75076,7.29762,-1.21906,42.6524,96.1585,10.7927,-9.24238,0.560435,-1.53281,-44.9085,-0.304878,6.21951
1012.67,24.7734,-5.67987,0,-1.85614,7.22817,-1.05381,47.1646,81.1585,5.73171,-9.35974,0.438289,-1.70046,-44.0854,0.0609756,4.48171
1012.68,16.0846,-6.19833,0,-1.63819,7.20901,-0.871787,49.6951,65.0915,0.701219,-9.35495,0.371228,-1.81063,-42.9573,0.548781,1.76829
1012.69,15.4761,-6.56516,0,-1.33882,7.39822,-0.701741,49.4207,50.1829,-6.15854,-9.39806,0.196392,-1.98787,-41.9207,1.37195,-0.792683
1012.7,14.9025,-6.86646,0,-0.946033,7.68562,-0.431104,45.7317,36.2195,-12.622,-9.38608,-0.00239502,-2.09804,-40.7012,2.22561,-3.5061
1012.71,14.2876,-7.15321,0,-0.862207,8.00416,-0.296982,40.3963,22.0427,-19.7866,-9.34058,-0.182021,-2.21539,-39.2683,3.04878,-5.2439
1012.72,13.6009,-7.45126,0,-0.943638,8.04248,-0.00239502,38.9634,3.96341,-27.2561,-9.22322,-0.261057,-2.33275,-37.3476,3.68902,-6.85976
1012.73,12.9084,-7.76423,0,-0.522114,8.39454,-0.00958008,35.5183,-12.9878,-35.6402,-9.06275,-0.277822,-2.44052,-35.5793,4.48171,-7.5
1012.74,12.2648,-8.08183,0,0.193997,8.67955,-0.0790356,29.2073,-22.4695,-41.9512,-8.90947,-0.222737,-2.49801,-33.3841,5.67073,-7.31707
1012.75,11.6468,-8.3823,0,0.682581,8.74422,0.387993,22.1646,-28.1098,-47.1341,-8.76338,-0.184417,-2.44292,-31.6159,6.18902,-6.98171
1012.76,11.1443,-8.65679,0,1.80345,8.74901,1.1041,23.0183,-35.7622,-51.2805,-8.70111,-0.182021,-2.37107,-30.4573,6.67683,-6.55488
1012.77,10.8067,-8.90499,0,3.58774,8.88313,1.31966,26.2805,-44.2683,-56.5854,-8.70111,-0.112566,-2.3088,-28.689,6.82927,-5.85366
1012.78,10.6745,-9.15034,0,5.66183,8.58615,1.02507,29.3598,-47.6524,-59.6037,-8.74661,-0.0838257,-2.34951,-27.0122,6.70732,-4.90854
1012.79,10.8134,-9.3791,0,7.91075,7.71915,0.114961,35.3659,-44.4512,-57.3171,-8.80888,0.0502954,-2.33993,-24.6646,7.37805,-4.29878
1012.8,11.1878,-9.54097,0,9.98005,7.33355,-0.548459,36.8598,-42.1951,-49.2988,-8.99569,0.289797,-2.14594,-20.9146,6.76829,-2.83537
1012.81,11.7006,-9.61991,0,10.5309,7.4078,-1.73878,42.1341,-44.2073,-36.8293,-9.17772,0.421523,-1.86093,-17.8049,4.81707,-1.28049
1012.82,12.2881,-9.63225,0,11.2087,8.31551,-3.78653,45.122,-24.3293,-25.2134,-9.38848,0.565225,-1.6334,-15.3963,2.62195,0.365854
1012.83,12.8878,-9.65687,0,10.2315,8.8951,-4.9553,46.311,-16.4024,-13.7195,-9.56331,0.543669,-1.70046,-13.9329,1.79878,1.89024
1012.84,13.5959,-9.6909,0,8.98611,8.38017,-5.25228,50.2134,4.11585,-0.304878,-9.64235,0.481399,-1.76752,-13.3841,2.53049,2.46951
1012.85,14.2105,-9.76436,0,7.01022,8.34664,-4.45713,50.1524,7.10366,8.78049,-9.76689,0.366438,-1.98308,-14.3902,4.14634,1.64634
1012.86,14.7998,-9.85582,0,6.38033,8.29635,-3.27639,45.8841,7.77439,12.4695,-9.82916,0.378413,-2.09564,-16.4024,6.06707,0.609756
1012.87,15.4218,-9.97071,0,6.69408,7.98979,-1.9711,40.2439,14.3598,12.1341,-9.87946,0.452659,-2.22976,-20.5183,7.16463,-1.25
1012.88,15.9947,-10.0772,0,6.65815,7.61616,-1.01309,36.7683,21.9512,5.67073,-9.92736,0.696951,-2.22258,-24.6646,7.62195,-3.5061
1012.89,16.2377,-10.1195,0,5.36005,8.34904,-1.08973,29.5427,32.2561,-9.29878,-10.107,1.06578,-1.98547,-27.7134,5.36585,-4.29878
1012.9,15.9477,-10.0561,0,3.61408,10.9644,-1.91362,24.3293,44.6341,-33.689,-10.5357,0.847837,-1.70765,-29.5427,-0.0609756,-4.57317
1012.91,15.1467,-10.005,0,2.213,17.0909,-1.16158,-0.884146,67.6219,-64.2378,-11.1776,0.208367,-1.7292,-28.4146,-5.09146,-3.78049
1012.92,14.2907,-9.91562,0,2.92432,19.0931,3.04886,-33.5366,75.6707,-74.2073,-12.3104,-0.732876,-1.6837,-25.8537,-7.92683,-1.64634
1012.93,13.9992,-9.79673,0,7.33115,16.2574,4.74453,-41.5549,69.5732,-50.122,-13.8049,-2.04295,-1.6837,-19.9085,-8.14024,2.19512
1012.94,14.3518,-9.67719,0,11.8937,12.8086,-0.0431104,-7.34756,81.0061,-22.9573,-15.1629,-2.98419,-1.81063,-11.9207,-6.34146,5.79268
1012.95,14.7603,-9.51939,0,9.73815,11.0818,-5.32652,11.6768,128.14,-13.3232,-15.3856,-3.58534,-1.5376,-6.12805,-2.7439,8.41463
1012.96,14.5867,-9.39543,0,1.67891,10.6219,-6.05461,7.19512,146.311,-5.91463,-13.7666,-3.77455,-1.55197,-0.914634,0.365854,12.5
1012.97,13.548,-9.15356,0,-3.80808,9.39806,-4.72777,4.20732,114.268,0.182927,-11.9631,-2.25371,-0.701741,2.59146,2.59146,20.9756
1012.98,12.3331,-8.71933,0,-7.24972,7.66167,-3.93262,12.439,56.7378,-7.68293,-10.9333,-0.718506,0.282612,3.5061,2.95732,28.7195
1012.99,10.7837,-8.05042,0,-10.1142,7.15392,-2.24892,11.189,-13.7195,-21.25,-10.7249,0.471819,0.974773,0.945122,1.25,31.7073
1013,9.08359,-7.56265,0,-10.5285,6.91682,-0.330513,21.0976,-79.0854,-35.7622,-9.97047,2.95785,0.747246,-7.2561,6.79878,32.2256
1013.01,7.64884,-6.95786,0,-6.65336,8.29395,-2.32796,25.9146,-120.03,-48.811,-11.2877,1.38432,1.51844,-6.76829,-9.69512,27.5
1013.02,6.70197,-6.34366,0,-2.08606,9.91778,-4.3757,17.8963,-135.396,-56.7683,-11.3021,2.41897,1.68849,-16.5244,-11.128,21.0366
1013.03,6.13659,-5.74709,0,1.52323,10.8423,-4.92416,7.07317,-125.671,-60.3354,-10.8949,2.63213,1.66214,-23.9024,-9.42073,13.3537
1013.04,5.89376,-5.14912,0,5.02236,10.8399,-4.68466,-0.518293,-90.7317,-62.9878,-10.1573,2.2106,1.66214,-30.7012,-12.0122,7.31707
1013.05,5.84375,-4.651,0,7.05812,10.2195,-3.86317,-0.731707,-36.9817,-63.75,-9.31423,1.33642,1.20469,-35.5488,-12.1037,2.43902
1013.06,5.73656,-4.26015,0,5.66183,9.55613,-2.69679,0.701219,9.90854,-61.5549,-8.96935,0.428708,0.809517,-36.8293,-12.4085,-0.365854
1013.07,5.40485,-4.00358,0,2.97222,9.64235,-1.85614,2.86585,30.0305,-57.1037,-8.84481,-0.356858,0.332908,-33.811,-12.8049,-2.22561
1013.08,4.95812,-3.87813,0,1.37474,9.38848,-2.07888,1.58537,28.9634,-51.5549,-8.88313,-1.18314,-0.138911,-27.5305,-12.1341,-2.59146
1013.09,4.54591,-3.82234,0,1.03944,8.43526,-2.53393,1.43293,25.4268,-46.2805,-9.01006,-1.81542,-0.397573,-19.9085,-11.5854,-1.7378
1013.1,4.2323,-3.77854,0,1.42743,7.6928,-2.87163,4.45122,22.6829,-44.1768,-9.22801,-2.47885,-0.445474,-12.8963,-9.57317,-1.4939
1013.11,4.00478,-3.72864,0,1.9735,7.58024,-3.32668,10.1524,23.1098,-44.3598,-9.42919,-2.74709,-0.421523,-5.4878,-8.14024,-1.82927
