time,angle1,angle2,intgangle,accX1,accY1,accZ1,gyroX1,gyroY1,gyroZ1,accX2,accY2,accZ2,gyroX2,gyroY2,gyroZ2
1073.83,88.9011,-5.2992,0,9.84353,0.162861,0.828677,-0.0914634,0.548781,-0.701219,-9.87227,-0.361648,-0.912502,0.243902,-0.0914634,6.06707
1073.84,88.9017,-5.29328,0,9.8603,0.162861,0.855022,0.182927,0.365854,-0.579268,-9.88664,-0.407153,-0.905317,0.152439,-0.396341,6.0061
1073.85,88.9062,-5.29845,0,9.86269,0.131726,0.869392,0.121951,0.365854,-0.792683,-9.91299,-0.376018,-0.929268,0.0304878,-0.365854,6.0061
1073.86,88.9009,-5.32376,0,9.86269,0.172441,0.864602,0.27439,0.609756,-0.884146,-9.88664,-0.354463,-0.960403,0.152439,-0.0914634,5.94512
1073.87,88.8958,-5.31843,0,9.86988,0.172441,0.878972,0.487805,0.548781,-0.884146,-9.89622,-0.376018,-0.912502,0,-0.213415,6.09756
1073.88,88.8971,-5.31351,0,9.86748,0.155676,0.888552,0.396341,0.701219,-0.670732,-9.9058,-0.373623,-0.912502,-0.0304878,-0.365854,6.03659
1073.89,88.8963,-5.32131,0,9.83874,0.162861,0.895737,0.396341,0.487805,-0.701219,-9.91538,-0.402363,-0.936453,0.0304878,-0.152439,5.97561
1073.9,88.8892,-5.31425,0,9.84832,0.184417,0.859812,0.457317,0.579268,-0.853659,-9.93694,-0.392783,-0.912502,-0.0304878,-0.182927,5.91463
1073.91,88.8807,-5.30134,0,9.89622,0.186812,0.871787,0.121951,0.243902,-0.97561,-9.91299,-0.366438,-0.898132,-0.0914634,-0.213415,5.70122
1073.92,88.8758,-5.27374,0,9.85311,0.184417,0.910107,0.304878,0.548781,-0.701219,-9.92496,-0.340093,-0.862207,-0.121951,-0.457317,5.7622
1073.93,88.8713,-5.25643,0,9.85072,0.184417,0.931663,0.27439,0.548781,-0.670732,-9.88664,-0.335303,-0.866997,-0.335366,-1.0061,5.64024
1073.94,88.8655,-5.27361,0,9.85311,0.193997,0.831072,0.579268,0.914634,-0.609756,-9.86509,-0.354463,-0.943638,-0.457317,-0.457317,5.94512
1073.95,88.8588,-5.29257,0,9.85072,0.196392,0.883762,0.365854,0.396341,-0.670732,-9.91538,-0.414338,-0.955613,-0.121951,-0.426829,5.73171
1073.96,88.8527,-5.26269,0,9.84593,0.191602,0.907712,0.365854,0.27439,-0.731707,-9.91299,-0.359253,-0.864602,-0.518293,-0.152439,5.45732
1073.97,88.8385,-5.25579,0,9.85072,0.220342,0.905317,0.518293,0.548781,-1.0061,-9.87706,-0.416733,-0.898132,-0.396341,-0.0914634,5.57927
1073.98,88.8351,-5.26075,0,9.87227,0.182021,0.886157,0.304878,0.27439,-0.762195,-9.90341,-0.416733,-0.919688,-0.487805,-0.0914634,5.7622
1073.99,88.8217,-5.27918,0,9.89143,0.222737,1.00591,0.182927,0.213415,-0.945122,-9.93215,-0.421523,-0.946033,-0.243902,-0.0304878,6.18902
1074,88.8109,-5.2803,0,9.87706,0.227527,0.972378,0.396341,0.0609756,-0.518293,-9.90341,-0.433499,-0.917292,-0.27439,-0.182927,5.70122
1074.01,88.803,-5.26924,0,9.88664,0.213157,0.902922,0.121951,0.152439,-0.640244,-9.89622,-0.368833,-0.893342,-0.0609756,-0.304878,5.82317
1074.02,88.7978,-5.25749,0,9.81958,0.201182,0.912502,0.0914634,0.182927,-0.640244,-9.83635,-0.366438,-0.886157,-0.243902,-0.243902,5.94512
1074.03,88.7953,-5.25877,0,9.84832,0.184417,0.874182,0,0.152439,-0.762195,-9.88664,-0.426313,-0.912502,-0.152439,-0.304878,5.94512
1074.04,88.7938,-5.27448,0,9.83395,0.193997,0.890947,-0.121951,0.426829,-0.487805,-9.86748,-0.407153,-0.936453,-0.304878,-0.182927,5.97561
1074.05,88.7932,-5.32669,0,9.84593,0.196392,0.919688,-0.335366,0.182927,-0.365854,-9.85072,-0.414338,-0.993933,0,-0.0304878,5.91463
1074.06,88.7927,-5.35217,0,9.84593,0.189207,0.883762,-0.304878,0,-0.518293,-9.84593,-0.395178,-0.962798,-0.0914634,0.182927,6.12805
1074.07,88.7928,-5.33281,0,9.84832,0.193997,0.900527,-0.27439,-0.0304878,-0.365854,-9.82437,-0.397573,-0.878972,0.0609756,0.548781,6.12805
1074.08,88.7943,-5.32037,0,9.84832,0.191602,0.910107,-0.0914634,0.0914634,-0.304878,-9.86748,-0.395178,-0.895737,-0.0304878,0.396341,5.97561
1074.09,88.7936,-5.33895,0,9.8579,0.205972,0.902922,-0.152439,-0.0609756,-0.121951,-9.87946,-0.402363,-0.960403,-0.0304878,0.548781,6.03659
1074.1,88.795,-5.3093,0,9.87706,0.184417,0.859812,-0.487805,-0.213415,-0.457317,-9.9058,-0.416733,-0.857417,0.243902,0.609756,5.97561
1074.11,88.7906,-5.29442,0,9.86988,0.213157,0.919688,0.0609756,-0.365854,-0.304878,-9.89622,-0.385598,-0.890947,0.0914634,0.27439,5.94512
1074.12,88.7864,-5.2888,0,9.8555,0.210762,0.883762,-0.121951,-0.27439,-0.365854,-9.91059,-0.416733,-0.907712,0.0304878,0.213415,6.03659
1074.13,88.7883,-5.28752,0,9.8579,0.186812,0.866997,-0.182927,0,-0.396341,-9.91778,-0.421523,-0.914897,0.0304878,0.487805,5.94512
1074.14,88.7982,-5.29959,0,9.86988,0.165256,0.881367,-0.121951,0.0914634,-0.243902,-9.91538,-0.421523,-0.941243,-0.0304878,0.304878,5.88415
1074.15,88.8082,-5.29407,0,9.8579,0.165256,0.881367,-0.152439,-0.0609756,-0.213415,-9.9561,-0.414338,-0.912502,0.365854,0.243902,5.88415
1074.16,88.8074,-5.303,0,9.88185,0.198787,0.888552,-0.152439,-0.365854,-0.27439,-9.95131,-0.399968,-0.938848,0.152439,0.182927,5.91463
1074.17,88.8072,-5.36289,0,9.84832,0.196392,0.876577,-0.304878,-0.0304878,-0.27439,-9.89383,-0.387993,-1.03944,0.121951,0.365854,6.12805
1074.18,88.7984,-5.39333,0,9.84593,0.225132,0.881367,0,-0.121951,-0.365854,-9.87946,-0.368833,-0.993933,-0.121951,0.548781,5.91463
1074.19,88.8107,-5.44743,0,9.82916,0.162861,0.910107,-0.121951,0,-0.121951,-9.9058,-0.395178,-1.04902,-0.548781,0.426829,6.0061
1074.2,88.8231,-5.60217,0,9.80281,0.136516,0.926873,-0.0914634,0.304878,-0.487805,-9.84114,-0.308958,-1.27176,-1.34146,0.518293,6.18902
1074.21,88.8586,-5.80154,0,9.84353,0.0862207,0.898132,0.0304878,0.182927,-0.0914634,-9.80521,-0.402363,-1.73639,-2.65244,2.56098,5.91463
1074.22,88.8813,-5.96388,0,9.80281,0.117356,0.955613,0.243902,-0.335366,-0.152439,-9.84593,-0.462239,-1.70765,-3.62805,5.21341,5.97561
1074.23,88.8935,-6.16909,0,9.8124,0.155676,0.943638,0.426829,-0.457317,0.0304878,-9.97047,-0.526904,-1.95673,-4.5122,8.17073,5.4878
1074.24,88.906,-6.34986,0,9.83874,0.155676,0.905317,0.27439,-0.701219,0.335366,-10.2148,-0.529299,-1.9256,-6.03659,11.7988,4.96951
1074.25,88.9273,-6.44863,0,9.91059,0.119751,0.833467,0.457317,-0.670732,0.365854,-10.471,-0.505349,-1.61664,-7.28659,13.628,4.32927
1074.26,88.9612,-6.4869,0,9.98963,0.0670605,0.883762,0.701219,-0.701219,0.182927,-10.6339,-0.550855,-1.37235,-6.7378,12.4085,3.81098
1074.27,88.9965,-6.50406,0,10.1022,0,0.857417,0.884146,-0.853659,-0.457317,-10.5788,-0.486189,-1.27415,-6.31098,10.5793,3.9939
1074.28,89.0075,-6.53414,0,10.1429,0.0311353,0.792751,0.213415,-0.335366,-1.25,-10.3585,-0.407153,-1.31247,-5.54878,8.56707,4.45122
1074.29,88.9998,-6.52872,0,10.1261,0.0287402,0.766406,-1.0061,0.182927,-2.65244,-10.0279,-0.387993,-1.11847,-5.18293,6.70732,5.09146
1074.3,88.9718,-6.50347,0,9.99442,0.0886157,0.787961,-2.40854,1.28049,-3.90244,-9.85311,-0.414338,-1.01309,-6.06707,5.30488,4.96951
1074.31,88.9424,-6.48001,0,9.83395,0.0598755,0.936453,-3.68902,2.04268,-4.42073,-9.73575,-0.390388,-1.00591,-6.0061,4.66463,4.08537
1074.32,88.9064,-6.47888,0,9.73096,0.0910107,0.967588,-4.20732,3.2622,-4.7561,-9.50823,-0.335303,-1.07057,-5.85366,5.57927,2.9878
1074.33,88.8794,-6.49274,0,9.64474,0.0479004,0.965193,-4.05488,2.9878,-4.45122,-9.26873,-0.261057,-1.1041,-6.06707,7.04268,2.77439
1074.34,88.8564,-6.48283,0,9.57289,0.0479004,0.974773,-3.38415,2.77439,-4.11585,-9.10826,-0.234712,-0.989143,-5.7622,8.9939,2.92683
1074.35,88.8321,-6.44702,0,9.53697,0.0910107,0.922083,-2.62195,1.18902,-3.78049,-9.07952,-0.246687,-0.878972,-5.09146,9.93902,3.23171
1074.36,88.8074,-6.42021,0,9.5226,0.134121,0.922083,-2.10366,0,-3.32317,-9.19209,-0.285007,-0.919688,-4.32927,11.4024,3.20122
1074.37,88.7802,-6.39228,0,9.52978,0.177231,0.888552,-1.82927,-1.31098,-3.07927,-9.23999,-0.392783,-0.914897,-2.62195,12.1646,3.38415
1074.38,88.7598,-6.34517,0,9.64953,0.148491,0.905317,-1.52439,-2.28659,-2.86585,-9.24957,-0.402363,-0.831072,-2.04268,13.8415,2.77439
1074.39,88.7416,-6.27682,0,9.75012,0.179626,0.859812,-0.884146,-2.62195,-2.31707,-9.53697,-0.455054,-0.759221,-1.58537,13.628,2.07317
1074.4,88.7297,-6.25053,0,9.87706,0.0934058,0.941243,-0.548781,-1.85976,-2.83537,-9.56092,-0.469424,-0.926873,-0.97561,15.3049,1.43293
1074.41,88.7087,-6.18298,0,9.97765,0.160466,0.955613,-0.121951,-1.43293,-2.92683,-9.69264,-0.423918,-0.756826,-0.823171,16.1585,1.06707
1074.42,88.6779,-6.10674,0,9.89622,0.246687,0.998723,0.0914634,-0.701219,-2.83537,-9.87467,-0.383203,-0.720901,-1.43293,16.6159,0.579268
1074.43,88.6433,-6.03932,0,9.97765,0.282612,0.967588,-0.762195,0.213415,-2.86585,-9.98005,-0.253872,-0.754431,-1.79878,16.4329,0.853659
1074.44,88.5943,-6.00197,0,10.004,0.407153,1.01309,-1.15854,2.0122,-2.83537,-10.016,-0.129331,-0.878972,-2.83537,16.3415,1.03659
1074.45,88.5314,-5.96521,0,9.82916,0.502954,0.914897,-1.09756,0.518293,-3.04878,-10.0806,-0.107776,-0.881367,-3.5061,15.5488,1.40244
1074.46,88.4784,-5.95749,0,9.89383,0.469424,0.881367,-0.792683,0.152439,-2.5,-10.1357,-0.122146,-1.0107,-4.84756,15.3049,1.34146
1074.47,88.4185,-5.98049,0,9.94173,0.541274,0.914897,-0.304878,-0.762195,-2.34756,-10.1908,-0.217947,-1.1544,-5.4878,15.2439,1.40244
1074.48,88.3546,-6.03584,0,9.94412,0.589175,0.874182,-0.213415,-1.03659,-2.07317,-10.2195,-0.395178,-1.31008,-5.70122,14.7561,1.4939
1074.49,88.3052,-6.11696,0,9.97047,0.507744,0.831072,-0.0914634,-0.97561,-1.25,-10.3249,-0.538879,-1.45378,-4.81707,14.0854,1.25
1074.5,88.2704,-6.25077,0,9.8579,0.421523,0.809517,0.426829,-1.43293,-1.03659,-10.2028,-0.57241,-1.69328,-3.68902,14.7256,1.03659
1074.51,88.2236,-6.3338,0,9.86509,0.459844,0.843047,1.0061,-1.4939,-0.304878,-10.5022,-0.64905,-1.53042,-2.59146,11.4024,0.97561
1074.52,88.1787,-6.39306,0,9.82677,0.452659,0.735271,1.85976,-2.62195,0.121951,-10.5381,-0.63468,-1.43941,-2.37805,10.5488,0.762195
1074.53,88.1758,-6.48223,0,9.85311,0.356858,0.780776,2.22561,-3.44512,0.701219,-10.404,-0.570015,-1.57353,-2.16463,8.96341,0.914634
1074.54,88.1827,-6.60385,0,9.89862,0.335303,0.802332,3.2622,-3.84146,1.09756,-10.301,-0.541274,-1.72681,-2.28659,6.7378,1.67683
1074.55,88.2086,-6.72479,0,9.94652,0.237107,0.852627,4.5122,-4.66463,1.31098,-10.2962,-0.524509,-1.74357,-2.07317,4.96951,2.77439
1074.56,88.2406,-6.81517,0,9.93215,0.215552,0.809517,5.97561,-5.18293,1.85976,-10.4183,-0.486189,-1.63101,-2.43902,3.07927,3.5061
1074.57,88.2709,-6.94378,0,10.0256,0.203577,0.775986,7.31707,-5.06098,1.43293,-10.4135,-0.411943,-1.61664,-3.84146,0.426829,3.90244
1074.58,88.3085,-7.05464,0,10.0208,0.155676,0.735271,9.39024,-5.4878,1.58537,-10.2627,-0.306563,-1.67172,-4.5122,-1.61585,4.08537
1074.59,88.3198,-7.1815,0,10.0232,0.299377,0.62989,8.87195,-5.33537,1.21951,-9.99681,-0.227527,-1.78908,-5.36585,-3.5061,4.69512
1074.6,88.3193,-7.32291,0,10.0016,0.320933,0.613125,8.23171,-5.42683,0.579268,-9.73575,-0.273032,-1.83458,-6.31098,-4.11585,5.36585
1074.61,88.3,-7.48821,0,9.89862,0.371228,0.63468,7.95732,-4.35976,0.27439,-9.56571,-0.457449,-1.9256,-6.61585,-4.11585,6.28049
1074.62,88.2779,-7.65388,0,9.86509,0.361648,0.689766,7.07317,-3.20122,-0.152439,-9.51302,-0.65384,-1.93757,-6.82927,-3.87195,6.85976
1074.63,88.2745,-7.84029,0,9.8076,0.270637,0.759221,6.4939,-2.31707,-0.884146,-9.50823,-0.852627,-2.02619,-6.03659,-3.2622,6.92073
1074.64,88.3096,-8.08958,0,9.80042,0.165256,0.823887,6.40244,-1.28049,-0.27439,-9.39806,-0.929268,-2.13396,-5.09146,-2.10366,6.85976
1074.65,88.3268,-8.38477,0,9.81479,0.205972,0.816702,5.94512,-0.457317,-0.457317,-9.31663,-0.967588,-2.07169,-4.32927,-1.28049,7.07317
1074.66,88.3498,-8.66719,0,9.81958,0.189207,0.835862,5.30488,0.548781,-0.365854,-9.32142,-0.912502,-2.02379,-3.53659,-1.06707,7.13415
1074.67,88.3756,-8.98839,0,9.83874,0.205972,0.883762,4.2378,1.92073,0,-9.35734,-0.855022,-2.10283,-2.62195,-0.823171,6.82927
1074.68,88.4163,-9.34458,0,9.81719,0.126936,0.893342,3.47561,2.9878,-0.27439,-9.42919,-0.783171,-2.07648,-1.06707,-0.304878,6.67683
1074.69,88.4571,-9.54743,0,9.74054,0.124541,0.981958,2.40854,3.56707,-0.27439,-9.48428,-0.807122,-1.87291,0.182927,0.182927,6.55488
1074.7,88.5296,-9.65108,0,9.80281,0.0143701,0.955613,1.34146,3.78049,-0.213415,-9.60882,-0.871787,-1.82261,0.579268,0.487805,6.12805
1074.71,88.6099,-9.68289,0,9.78366,-0.0215552,0.991538,0.579268,3.35366,-0.213415,-9.65672,-0.855022,-1.73878,1.70732,1.4939,5.4878
1074.72,88.6652,-9.71516,0,9.78366,-0.0479004,0.974773,-0.182927,3.10976,-0.792683,-9.64235,-0.823887,-1.75794,2.16463,2.10366,5.60976
1074.73,88.6747,-9.78578,0,9.84832,0.0862207,0.979563,-0.518293,1.79878,-1.46341,-9.5705,-0.708926,-1.89446,2.80488,2.34756,5.73171
1074.74,88.6573,-9.86724,0,9.82677,0.201182,0.898132,-0.792683,1.31098,-2.16463,-9.55373,-0.62989,-1.97589,2.68293,3.32317,6.28049
1074.75,88.6285,-9.8956,0,9.81479,0.273032,0.948428,-1.28049,0.945122,-2.34756,-9.65911,-0.637075,-1.79626,2.46951,3.78049,6.37195
1074.76,88.6036,-9.89163,0,9.82197,0.229922,0.965193,-1.85976,0.365854,-2.62195,-9.78126,-0.637075,-1.68609,2.13415,3.78049,6.25
1074.77,88.577,-9.88016,0,9.8076,0.275427,0.929268,-1.98171,0.27439,-2.19512,-9.87706,-0.529299,-1.66933,1.70732,3.81098,6.21951
1074.78,88.5488,-9.82845,0,9.86509,0.287402,0.931663,-2.10366,-0.0304878,-2.28659,-9.98484,-0.546064,-1.51126,1.67683,3.59756,6.82927
1074.79,88.5132,-9.77187,0,9.91299,0.308958,0.924478,-2.37805,-0.0609756,-2.89634,-10.0351,-0.550855,-1.49449,1.82927,3.07927,7.13415
1074.8,88.4761,-9.73878,0,9.94891,0.328118,0.845442,-2.40854,0.365854,-2.89634,-10.0615,-0.5772,-1.59269,2.28659,2.65244,6.95122
1074.81,88.4371,-9.71042,0,9.92496,0.356858,0.835862,-2.46951,0.914634,-2.77439,-10.0615,-0.60115,-1.61185,2.34756,2.22561,6.95122
1074.82,88.4058,-9.66321,0,9.91778,0.318538,0.795146,-2.40854,1.03659,-2.56098,-10.016,-0.574805,-1.53042,2.13415,2.07317,6.43293
1074.83,88.3766,-9.558,0,9.83635,0.311353,0.792751,-2.28659,0.701219,-2.46951,-10.0615,-0.58199,-1.3939,1.89024,1.0061,6.0061
1074.84,88.3535,-9.3883,0,9.87946,0.304167,0.747246,-2.34756,0.609756,-2.0122,-10.1573,-0.550855,-1.34121,1.46341,-0.121951,5.42683
1074.85,88.3247,-9.29087,0,9.9082,0.359253,0.711321,-2.16463,-0.0914634,-1.82927,-10.1166,-0.462239,-1.45138,0.640244,-0.243902,5.2439
1074.86,88.3036,-9.3016,0,9.97286,0.304167,0.716111,-1.89024,-0.152439,-1.98171,-9.95849,-0.450264,-1.65017,0.365854,0.121951,5.39634
1074.87,88.2723,-9.30726,0,9.96089,0.361648,0.775986,-1.52439,-0.243902,-2.28659,-9.86269,-0.426313,-1.62861,0.0304878,0.670732,6.09756
1074.88,88.2388,-9.26785,0,10.0064,0.399968,0.728086,-1.37195,0.213415,-2.04268,-9.91778,-0.493374,-1.54239,-0.762195,0.304878,5.91463
1074.89,88.2107,-9.24246,0,10.0112,0.359253,0.730481,-0.945122,0.762195,-2.16463,-10.0591,-0.5772,-1.5855,-1.06707,0.213415,5.30488
1074.9,88.1915,-9.33078,0,10.0447,0.270637,0.696951,-0.121951,1.40244,-2.53049,-10.0998,-0.646655,-1.8753,-0.731707,0.487805,4.60366
1074.91,88.1723,-9.40101,0,10.0016,0.268242,0.687371,-0.0914634,1.55488,-2.59146,-10.095,-0.65863,-1.82261,-0.243902,0.243902,4.20732
1074.92,88.1511,-9.37036,0,9.97286,0.263452,0.63468,0.121951,2.31707,-2.86585,-10.1429,-0.65863,-1.58311,0.365854,-1.0061,4.39024
1074.93,88.1257,-9.32658,0,9.90341,0.308958,0.677791,-0.152439,3.01829,-2.7439,-10.2507,-0.60594,-1.50168,0.426829,-3.07927,4.45122
1074.94,88.1118,-9.26368,0,9.84114,0.222737,0.64426,0.121951,3.29268,-2.7439,-10.3177,-0.514929,-1.40827,0.579268,-5.4878,4.20732
1074.95,88.0994,-9.21053,0,9.79084,0.234712,0.814307,0.335366,2.86585,-2.5,-10.313,-0.399968,-1.4418,-0.0304878,-7.31707,4.45122
1074.96,88.0984,-9.18281,0,9.82677,0.131726,0.768801,1.52439,2.77439,-2.71341,-10.1764,-0.335303,-1.53042,-0.640244,-8.41463,4.42073
1074.97,88.0927,-9.18478,0,9.8124,0.167651,0.699346,2.43902,1.18902,-2.71341,-10.0567,-0.311353,-1.64298,-1.34146,-9.32927,5
1074.98,88.0832,-9.1818,0,9.78605,0.191602,0.816702,3.78049,0.731707,-2.77439,-9.96807,-0.378413,-1.60706,-1.89024,-9.87805,5.39634
1074.99,88.0755,-9.18239,0,9.74773,0.162861,0.747246,4.32927,-0.396341,-2.95732,-9.88185,-0.378413,-1.60945,-2.59146,-10.8841,6.06707
1075,88.0632,-9.17167,0,9.72857,0.170046,0.735271,4.81707,-0.884146,-3.29268,-9.87706,-0.438289,-1.55916,-3.2622,-11.8902,6.76829
1075.01,88.0595,-9.18223,0,9.72378,0.150886,0.761616,5.60976,-1.52439,-2.80488,-9.91538,-0.426313,-1.65975,-3.38415,-12.9878,6.76829
1075.02,88.0574,-9.17532,0,9.79323,0.170046,0.778381,6.28049,-1.95122,-2.46951,-9.93933,-0.447869,-1.5879,-3.32317,-13.9634,6.98171
1075.03,88.0462,-9.1876,0,9.75731,0.237107,0.732876,6.70732,-1.98171,-2.46951,-9.88185,-0.467029,-1.66454,-3.23171,-15.3354,7.04268
1075.04,88.0291,-9.20072,0,9.86988,0.256267,0.787961,6.92073,-1.58537,-2.80488,-9.8555,-0.500559,-1.66693,-3.41463,-16.4024,7.04268
1075.05,88.0147,-9.19852,0,9.82677,0.253872,0.828677,6.98171,-1.67683,-2.62195,-9.80042,-0.550855,-1.59269,-3.38415,-17.2561,6.82927
1075.06,88.003,-9.20291,0,9.8579,0.251477,0.876577,6.28049,-0.762195,-2.43902,-9.78126,-0.560435,-1.61903,-4.05488,-17.9878,6.43293
1075.07,87.9781,-9.23235,0,9.83156,0.325723,0.826282,6.25,-0.548781,-2.77439,-9.77168,-0.574805,-1.7292,-3.9939,-17.9573,6.64634
1075.08,87.9619,-9.25984,0,9.81719,0.265847,0.804727,6.03659,1.0061,-2.7439,-9.72378,-0.627495,-1.71723,-3.9939,-17.9573,6.61585
1075.09,87.9375,-9.28735,0,9.82677,0.318538,0.821492,5.91463,1.34146,-2.89634,-9.75012,-0.665815,-1.72681,-3.87195,-17.8963,7.0122
1075.1,87.9106,-9.32241,0,9.81,0.337698,0.826282,5.33537,2.16463,-2.95732,-9.75012,-0.692161,-1.76513,-3.14024,-17.9573,7.04268
1075.11,87.8882,-9.32151,0,9.84593,0.328118,0.855022,4.48171,2.89634,-2.71341,-9.79084,-0.701741,-1.61903,-2.43902,-18.1707,6.92073
1075.12,87.8544,-9.28205,0,9.79803,0.383203,0.883762,3.9939,3.14024,-3.17073,-9.90101,-0.670605,-1.46575,-2.07317,-19.3902,6.92073
1075.13,87.8224,-9.22211,0,9.82916,0.380808,0.943638,4.02439,3.14024,-3.10976,-9.96568,-0.632285,-1.37714,-1.76829,-20.061,7.2561
1075.14,87.7746,-9.14616,0,9.8579,0.500559,0.953218,4.17683,3.2622,-3.29268,-9.92736,-0.536484,-1.29092,-1.67683,-21.1585,7.13415
1075.15,87.7218,-9.06088,0,9.91538,0.546064,0.902922,3.32317,4.39024,-3.38415,-9.95849,-0.483794,-1.24062,-0.792683,-21.9512,7.2561
1075.16,87.6673,-8.98582,0,9.9058,0.560435,0.974773,3.01829,4.60366,-3.5061,-9.92257,-0.488584,-1.26697,-0.762195,-22.4085,7.40854
1075.17,87.6159,-8.90361,0,9.80042,0.56762,1.01549,2.5,5.42683,-3.07927,-9.93694,-0.486189,-1.22386,-0.426829,-22.5305,7.34756
1075.18,87.5677,-8.80957,0,9.82677,0.543669,1.04423,2.59146,5.21341,-3.20122,-9.97526,-0.514929,-1.16158,-0.304878,-22.8659,7.22561
1075.19,87.5226,-8.70626,0,9.8076,0.541274,1.05141,2.62195,4.57317,-2.9878,-9.99681,-0.538879,-1.1065,-0.0609756,-23.3232,7.37805
1075.2,87.4866,-8.57436,0,9.7597,0.507744,1.12805,2.10366,4.29878,-2.5,-10.107,-0.510139,-0.972378,-0.640244,-24.2378,6.92073
1075.21,87.4223,-8.47573,0,9.78605,0.723296,1.13045,2.19512,3.53659,-2.56098,-10.107,-0.514929,-1.09931,-0.609756,-25,7.10366
1075.22,87.3789,-8.34756,0,9.82437,0.60594,1.18074,1.64634,3.14024,-2.04268,-10.1453,-0.474214,-0.953218,-0.853659,-25.9756,7.31707
1075.23,87.3448,-8.18146,0,9.83635,0.555645,1.22386,1.76829,2.68293,-1.92073,-10.1501,-0.445474,-0.761616,-0.945122,-27.8963,7.7439
1075.24,87.2945,-8.02549,0,9.86509,0.677791,1.19032,1.64634,1.70732,-1.79878,-10.2028,-0.445474,-0.783171,-0.365854,-29.6341,7.89634
1075.25,87.2615,-7.88297,0,9.93933,0.5772,1.19751,1.82927,1.43293,-1.76829,-10.1453,-0.469424,-0.811912,-0.27439,-30.0915,8.56707
1075.26,87.2283,-7.72675,0,9.91299,0.574805,1.18074,1.89024,0.762195,-1.92073,-10.0902,-0.490979,-0.720901,0.335366,-30,8.9939
1075.27,87.1831,-7.56362,0,9.89862,0.64426,1.06099,1.4939,0,-2.37805,-10.0303,-0.538879,-0.65863,0.853659,-30.2439,9.48171
1075.28,87.1426,-7.37925,0,9.87946,0.622705,1.05141,0.701219,0.487805,-2.22561,-10.0375,-0.519719,-0.536484,0.945122,-30.6402,9.32927
1075.29,87.1047,-7.20895,0,9.83635,0.622705,1.06339,0.0304878,0.426829,-1.89024,-9.99921,-0.550855,-0.565225,1.03659,-31.5854,9.32927
1075.3,87.0936,-7.02732,0,10.0902,0.531694,1.07536,-1.03659,2.22561,-0.731707,-10.1429,-0.560435,-0.493374,1.18902,-32.8354,8.78049
1075.31,87.029,-6.85758,0,9.65672,0.775986,0.934058,-0.884146,1.85976,-1.4939,-10.1884,-0.59157,-0.517324,1.0061,-33.5061,8.17073
1075.32,87.0001,-6.67413,0,9.616,0.5772,1.08494,-0.792683,-1.52439,-0.121951,-10.1405,-0.570015,-0.423918,1.43293,-34.0854,7.37805
1075.33,87.0138,-6.49573,0,9.93933,0.476609,1.08015,0.487805,-0.97561,0.152439,-10.0758,-0.538879,-0.411943,1.95122,-34.8171,6.95122
1075.34,87.0001,-6.3279,0,10.0136,0.56762,0.989143,0.823171,-2.28659,-0.243902,-9.97286,-0.524509,-0.423918,2.59146,-35.6098,7.0122
1075.35,87.0159,-6.13777,0,9.98244,0.459844,0.845442,0.487805,-2.80488,-0.152439,-9.91059,-0.474214,-0.294587,3.2622,-35.5793,7.37805
1075.36,87.0232,-5.92504,0,9.96807,0.490979,0.804727,0.640244,-2.46951,-0.0914634,-9.87227,-0.476609,-0.162861,4.5122,-36.2195,7.80488
1075.37,87.0208,-5.6774,0,10.016,0.541274,0.816702,1.15854,-1.76829,0.27439,-9.9537,-0.517324,0.0239502,4.93902,-38.5061,8.32317
1075.38,87.0408,-5.45853,0,9.97047,0.452659,0.754431,0.853659,-1.0061,0.548781,-9.8603,-0.495769,-0.0574805,6.40244,-37.1037,8.20122
1075.39,87.0636,-5.23625,0,9.98005,0.447869,0.773591,1.40244,-0.457317,1.12805,-9.89862,-0.627495,-0.00479004,7.16463,-36.8598,8.01829
1075.4,87.0966,-5.02891,0,10.0303,0.385598,0.780776,1.52439,0.335366,0.579268,-9.92736,-0.704136,-0.0311353,8.32317,-36.189,7.40854
1075.41,87.1266,-4.81899,0,9.93215,0.407153,0.804727,1.15854,0.27439,0,-9.96568,-0.787961,0.0167651,9.93902,-35.5183,6.64634
1075.42,87.1626,-4.57729,0,9.92017,0.313748,0.943638,0.884146,0.0304878,-0.579268,-10.0208,-0.775986,0.193997,11.25,-35.4268,5.64024
1075.43,87.1897,-4.30789,0,10.0064,0.263452,0.943638,1.40244,-0.487805,-1.21951,-10.0591,-0.747246,0.359253,12.0122,-36.4329,4.93902
1075.44,87.1897,-3.99116,0,9.92257,0.342488,0.862207,1.25,-0.97561,-2.07317,-10.0543,-0.64426,0.61552,12.4695,-37.8049,4.5122
1075.45,87.1775,-3.70233,0,9.85311,0.373623,0.799937,0.426829,0.27439,-2.71341,-10.0327,-0.524509,0.546064,12.6524,-37.8049,4.69512
1075.46,87.152,-3.39901,0,9.88425,0.445474,0.799937,0.0304878,0.487805,-3.14024,-9.92257,-0.390388,0.65384,12.2561,-37.8659,4.7561
1075.47,87.1285,-3.07295,0,9.75731,0.440684,0.888552,-0.0304878,0.609756,-2.9878,-9.84114,-0.241897,0.799937,11.5854,-37.9268,5.18293
1075.48,87.1074,-2.74301,0,9.68546,0.423918,0.922083,-0.213415,0.0609756,-2.9878,-9.75012,-0.143701,0.864602,10.7622,-38.628,5.30488
1075.49,87.0934,-2.41308,0,9.65193,0.337698,1.00112,-0.914634,-0.335366,-3.38415,-9.68546,-0.117356,0.914897,10.0915,-38.872,5.73171
1075.5,87.0985,-2.10455,0,9.78126,0.131726,0.974773,-1.12805,0.579268,-3.9939,-9.68306,-0.203577,0.878972,9.17683,-38.689,6.09756
1075.51,87.1102,-1.79802,0,9.82437,0.0479004,0.883762,-1.58537,0.182927,-4.29878,-9.67109,-0.282612,0.922083,8.87195,-38.2927,6.18902
1075.52,87.0906,-1.4934,0,9.86509,0.208367,0.857417,-1.70732,-0.396341,-5.45732,-9.63277,-0.335303,0.962798,8.5061,-37.7439,5.7622
1075.53,87.0674,-1.17965,0,9.87227,0.205972,0.759221,-1.7378,-0.518293,-5.88415,-9.63516,-0.332908,1.05381,8.53659,-37.9268,5.64024
1075.54,87.0375,-0.861068,0,9.87467,0.220342,0.716111,-1.28049,1.43293,-6.43293,-9.60642,-0.320933,1.12566,7.95732,-36.7988,5.33537
1075.55,87.0059,-0.54204,0,9.82437,0.205972,0.811912,-0.152439,0.335366,-6.82927,-9.60882,-0.282612,1.18314,7.2561,-35.4878,4.78659
1075.56,86.9782,-0.210118,0,9.81719,0.167651,0.847837,0.27439,1.37195,-6.95122,-9.62319,-0.294587,1.29571,6.37195,-34.6341,4.60366
1075.57,86.9245,0.137057,0,9.87227,0.311353,0.828677,1.55488,2.56098,-7.95732,-9.61361,-0.239502,1.41785,5.73171,-33.7805,4.08537
1075.58,86.8826,0.485733,0,9.89143,0.222737,0.804727,2.40854,2.40854,-7.92683,-9.63037,-0.172441,1.48731,4.84756,-32.8659,3.96341
1075.59,86.8399,0.833901,0,9.8603,0.217947,0.807122,3.65854,3.87195,-8.14024,-9.63995,-0.229922,1.54718,4.08537,-32.2866,3.78049
1075.6,86.7587,1.1687,0,9.83156,0.423918,0.716111,4.66463,4.14634,-9.69512,-9.62558,-0.222737,1.54718,3.56707,-31.7073,3.38415
1075.61,86.6832,1.49517,0,9.8076,0.390388,0.706531,5.2439,4.17683,-9.66463,-9.59205,-0.285007,1.56395,3.71951,-30.8537,3.44512
1075.62,86.6074,1.81893,0,9.88185,0.452659,0.687371,6.18902,4.78659,-9.14634,-9.56571,-0.301772,1.60466,3.84146,-29.9085,3.2622
1075.63,86.5175,2.1428,0,9.88185,0.56762,0.749641,7.10366,3.90244,-9.39024,-9.45793,-0.368833,1.64298,3.44512,-28.8415,3.35366
1075.64,86.4366,2.47263,0,9.9561,0.5772,0.802332,7.46951,4.42073,-8.59756,-9.48667,-0.419128,1.7292,3.38415,-28.5976,3.38415
1075.65,86.3393,2.83157,0,9.93454,0.684976,0.926873,7.95732,4.29878,-9.14634,-9.51781,-0.445474,1.91841,3.17073,-28.4756,3.41463
1075.66,86.2533,3.18204,0,9.77647,0.622705,0.993933,8.2622,5.30488,-8.81098,-9.49865,-0.443079,1.93997,3.38415,-27.9878,3.07927
1075.67,86.158,3.49562,0,9.79323,0.682581,0.977168,7.80488,5.91463,-9.2378,-9.50344,-0.416733,1.84177,3.47561,-26.8293,2.86585
1075.68,86.0699,3.84474,0,9.69743,0.6251,1.04183,7.65244,5.57927,-9.29878,-9.51781,-0.399968,2.05493,3.93293,-25.9451,3.10976
1075.69,85.9596,4.18949,0,9.74773,0.790356,0.972378,8.35366,6.37195,-9.81707,-9.48907,-0.337698,2.09085,3.23171,-25.122,2.86585
1075.7,85.8583,4.52359,0,9.68067,0.790356,1.09931,7.80488,4.2378,-9.05488,-9.53697,-0.368833,2.1148,3.07927,-24.939,2.92683
1075.71,85.7438,4.85062,0,9.80521,0.898132,1.2023,7.43902,4.42073,-9.45122,-9.5202,-0.387993,2.13875,2.53049,-24.3598,2.28659
1075.72,85.6527,5.17687,0,9.8076,0.845442,1.26697,6.70732,4.29878,-7.92683,-9.48428,-0.385598,2.18426,2.5,-24.2378,2.37805
1075.73,85.5175,5.49335,0,9.69264,1.1544,1.34121,6.18902,2.86585,-8.81098,-9.41243,-0.404758,2.18186,2.22561,-23.7805,1.98171
1075.74,85.4119,5.79518,0,9.74533,1.04662,1.31008,5.15244,3.41463,-7.40854,-9.33579,-0.416733,2.15552,2.19512,-23.0793,1.95122
1075.75,85.2993,6.10941,0,9.65672,1.05381,1.41785,4.11585,3.53659,-8.14024,-9.2831,-0.479004,2.24892,1.92073,-22.6524,2.10366
1075.76,85.1916,6.42089,0,9.54415,1.03465,1.47294,3.62805,1.37195,-7.95732,-9.27591,-0.543669,2.28964,1.58537,-22.1646,2.22561
1075.77,85.1186,6.7169,0,9.66869,0.912502,1.20709,2.40854,3.41463,-6.25,-9.2807,-0.584385,2.27766,2.0122,-21.5854,2.80488
1075.78,85.0063,7.01922,0,9.68785,1.17116,1.32205,2.5,0.0914634,-7.34756,-9.31902,-0.589175,2.36628,2.10366,-21.0061,2.43902
1075.79,84.9044,7.30244,0,9.76449,1.12805,1.31966,2.13415,-0.152439,-7.13415,-9.40285,-0.565225,2.3567,2.62195,-20.3354,2.43902
1075.8,84.8162,7.58667,0,9.77886,1.09931,1.22864,0.884146,0.548781,-6.31098,-9.4244,-0.555645,2.41657,2.80488,-19.8171,2.40854
1075.81,84.7262,7.87684,0,9.74533,1.14242,1.33163,1.37195,-1.79878,-6.09756,-9.4244,-0.550855,2.49322,3.17073,-19.4512,2.71341
1075.82,84.6463,8.15142,0,9.83874,1.12087,1.152,1.18902,-1.37195,-5.64024,-9.42919,-0.55804,2.47645,3.59756,-19.1768,2.62195
1075.83,84.5837,8.43386,0,9.77168,1.03944,1.14721,0.548781,-2.10366,-4.90854,-9.41961,-0.546064,2.55788,3.81098,-18.4756,2.77439
1075.84,84.5658,8.71818,0,9.74773,0.843047,1.11847,-0.121951,-2.68293,-2.89634,-9.33818,-0.574805,2.59381,3.96341,-18.2622,2.95732
1075.85,84.4944,9.00309,0,9.77168,1.16637,1.09931,0.823171,-2.04268,-4.42073,-9.28789,-0.589175,2.63213,4.11585,-18.2927,2.9878
1075.86,84.4467,9.29315,0,9.90101,0.984353,0.991538,0.853659,-2.53049,-4.5122,-9.2352,-0.570015,2.68961,3.78049,-18.2927,3.32317
1075.87,84.4144,9.58242,0,9.79323,0.895737,0.953218,0.487805,-2.13415,-3.9939,-9.19448,-0.524509,2.72553,3.84146,-17.439,4.02439
1075.88,84.3989,9.85933,0,9.81,0.821492,0.922083,0.365854,-1.46341,-3.32317,-9.19687,-0.512534,2.72314,3.53659,-16.4634,4.08537
1075.89,84.3462,10.1401,0,9.8076,1.08494,0.958008,1.03659,-1.79878,-3.87195,-9.1825,-0.486189,2.78541,3.84146,-15.2134,4.45122
1075.9,84.3041,10.4161,0,9.90341,1.0083,0.819097,0.792683,-0.640244,-3.96341,-9.19209,-0.486189,2.81654,3.56707,-14.6646,4.54268
1075.91,84.2736,10.6852,0,9.8124,0.965193,0.958008,0.27439,-1.40244,-3.29268,-9.17772,-0.488584,2.83091,2.89634,-14.2378,4.42073
1075.92,84.2675,10.9465,0,9.80281,0.845442,0.919688,0.121951,0.243902,-2.5,-9.1346,-0.519719,2.83091,2.7439,-13.0793,4.26829
1075.93,84.2417,11.2195,0,9.6184,0.979563,1.03465,0.121951,-0.518293,-2.43902,-9.12023,-0.550855,2.92432,2.31707,-12.5915,3.81098
1075.94,84.2035,11.4878,0,9.91299,1.04423,0.984353,1.06707,0.121951,-3.35366,-9.10107,-0.550855,2.94587,2.28659,-11.7683,3.71951
1075.95,84.1751,11.7406,0,9.93215,0.989143,0.931663,1.09756,1.09756,-3.14024,-9.07712,-0.546064,2.91713,2.0122,-11.0366,3.68902
1075.96,84.1476,11.9836,0,9.89143,0.965193,0.998723,1.03659,1.31098,-3.35366,-9.08431,-0.56283,2.92192,2.28659,-9.66463,4.08537
1075.97,84.1307,12.2273,0,9.75731,0.929268,1.00591,1.70732,0.579268,-2.68293,-9.14179,-0.56283,2.98659,1.76829,-8.78049,3.96341
1075.98,84.1068,12.4633,0,9.81958,0.996328,0.974773,1.58537,0.914634,-2.62195,-9.16574,-0.59157,3.00335,1.95122,-8.29268,4.11585
1075.99,84.0802,12.6927,0,9.77647,1.03225,0.967588,1.82927,0.945122,-2.40854,-9.15856,-0.60115,3.01293,1.76829,-7.5,4.05488
1076,84.0507,12.9128,0,9.72857,1.05381,0.922083,1.28049,1.28049,-2.37805,-9.14897,-0.56283,3.00814,1.64634,-6.58537,3.81098
1076.01,84.0208,13.136,0,9.78126,1.09213,0.926873,1.06707,1.43293,-1.98171,-9.14179,-0.548459,3.05604,1.40244,-5.85366,3.9939
1076.02,83.9909,13.3618,0,9.74773,1.09931,1.03465,1.15854,1.06707,-1.85976,-9.16813,-0.524509,3.11353,1.37195,-5.4878,4.2378
1076.03,84.0084,13.5805,0,9.7597,0.931663,1.0107,0.853659,1.52439,-0.579268,-9.18729,-0.55804,3.1255,1.09756,-5.12195,3.84146
1076.04,83.9519,13.7848,0,9.81,1.27415,1.00112,1.61585,1.46341,-0.945122,-9.21125,-0.510139,3.09916,0.884146,-4.48171,3.90244
1076.05,83.9263,13.9676,0,9.8603,1.13284,1.0083,1.55488,0.97561,-0.853659,-9.18969,-0.524509,3.02012,0.365854,-3.96341,3.96341
1076.06,83.8982,14.1575,0,9.88664,1.1544,0.991538,1.12805,1.79878,-0.609756,-9.23999,-0.55325,3.08239,0.0914634,-3.44512,4.42073
1076.07,83.8835,14.3561,0,9.82437,1.09213,1.04183,1.15854,0.457317,-0.487805,-9.24957,-0.555645,3.15664,-0.731707,-3.41463,4.35976
1076.08,83.8749,14.5406,0,9.80042,1.07536,1.01549,0.945122,1.37195,-0.0914634,-9.26154,-0.598755,3.14945,-0.365854,-3.71951,4.45122
1076.09,83.8679,14.7047,0,9.84114,1.07536,1.01549,0.670732,0.792683,-0.152439,-9.22801,-0.61552,3.06802,-0.853659,-3.38415,4.69512
1076.1,83.8709,14.8752,0,9.8124,1.0562,1.02028,0.396341,0.396341,0.365854,-9.21125,-0.62989,3.07281,-0.548781,-2.68293,4.93902
1076.11,83.8811,15.0608,0,9.83156,1.04183,1.01549,0.304878,0.914634,0.762195,-9.19448,-0.613125,3.08958,-0.731707,-2.10366,4.78659
1076.12,83.8986,15.2462,0,9.80042,1.00112,1.05381,0.548781,0.152439,0.670732,-9.19209,-0.617915,3.01293,-0.609756,-1.46341,5.15244
1076.13,83.9185,15.4576,0,9.80042,0.989143,1.02986,0.487805,0.152439,0.762195,-9.22083,-0.59157,3.00814,-0.548781,-0.884146,5.06098
1076.14,83.9363,15.6966,0,9.79803,0.993933,0.996328,0.0914634,0.182927,0.701219,-9.23999,-0.608335,2.96024,-0.487805,-0.27439,4.72561
1076.15,83.9561,15.8923,0,9.78126,0.981958,0.950823,0.243902,0.182927,0.792683,-9.26873,-0.622705,2.95545,-0.518293,-0.335366,4.66463
1076.16,83.9778,16.0449,0,9.80042,0.969983,0.974773,0.457317,0.518293,0.701219,-9.31663,-0.61552,2.96024,-0.487805,-0.487805,4.69512
1076.17,84.005,16.1834,0,9.86509,0.946033,1.01549,0.487805,0.457317,0.914634,-9.31423,-0.63947,2.94827,-0.518293,-0.426829,4.7561
1076.18,84.0365,16.32,0,9.85311,0.919688,0.962798,0.701219,-0.0914634,0.701219,-9.26633,-0.66342,2.89797,-0.396341,0.0914634,4.42073
1076.19,84.0689,16.3801,0,9.79803,0.907712,1.00112,0.579268,-0.152439,0.731707,-9.26154,-0.64905,2.84768,-0.396341,0.792683,4.84756
1076.2,84.0959,16.4545,0,9.79803,0.926873,0.993933,0.335366,-0.0914634,0.579268,-9.19687,-0.651445,2.88121,-0.182927,0.97561,5.21341
1076.21,84.1236,16.4948,0,9.77886,0.919688,0.996328,0.365854,0.182927,0.426829,-9.20885,-0.696951,2.84049,-0.640244,1.52439,5.36585
1076.22,84.1512,16.5192,0,9.7597,0.914897,1.04183,0.0609756,0.213415,0.396341,-9.26873,-0.673001,2.82612,-0.731707,1.79878,5.33537
1076.23,84.1841,16.5488,0,9.81958,0.890947,1.08015,0.487805,0.396341,0.426829,-9.30465,-0.713716,2.85965,-0.945122,1.79878,5.64024
1076.24,84.2171,16.5785,0,9.87706,0.895737,1.02986,0.640244,0.518293,0.121951,-9.37411,-0.687371,2.886,-0.945122,1.70732,5.94512
1076.25,84.2387,16.595,0,9.90101,0.929268,1.02986,0.518293,0.487805,0.396341,-9.39087,-0.720901,2.85486,-1.09756,1.85976,5.7622
1076.26,84.255,16.609,0,9.89862,0.941243,1.04662,0.243902,0.213415,-0.0609756,-9.41482,-0.716111,2.85486,-0.823171,1.7378,6.09756
1076.27,84.2594,16.6214,0,9.8555,0.972378,1.01549,0.365854,0.670732,-0.121951,-9.4244,-0.651445,2.85726,-0.579268,1.95122,6.28049
1076.28,84.2628,16.6293,0,9.81479,0.967588,1.0562,-0.0609756,0.853659,-0.213415,-9.38129,-0.673001,2.82852,-0.426829,1.70732,6.4939
1076.29,84.2628,16.6523,0,9.80281,0.981958,1.02267,0.0609756,0.548781,-0.0914634,-9.40764,-0.699346,2.88839,-0.243902,1.67683,6.7378
1076.3,84.2722,16.6592,0,9.8076,0.943638,1.03225,0.152439,0.792683,-0.243902,-9.40764,-0.665815,2.8381,0,1.64634,6.70732
1076.31,84.2762,16.6609,0,9.76449,0.965193,1.04902,0.243902,0.640244,-0.0609756,-9.41243,-0.704136,2.82373,0.152439,1.64634,6.55488
1076.32,84.2827,16.6508,0,9.8603,0.955613,1.02746,0.0304878,0.304878,-0.243902,-9.40045,-0.699346,2.78301,-0.0304878,1.46341,6.40244
1076.33,84.2904,16.6638,0,9.85311,0.946033,1.0083,-0.243902,0.426829,-0.304878,-9.35495,-0.735271,2.84289,0.457317,1.7378,6.31098
1076.34,84.3084,16.6675,0,9.84832,0.917292,1.06578,-0.335366,0.27439,-0.152439,-9.41243,-0.687371,2.83091,0.518293,1.58537,6.43293
1076.35,84.3259,16.6638,0,9.87706,0.902922,1.02028,-0.335366,0.640244,-0.335366,-9.38129,-0.696951,2.79738,0.457317,1.89024,6.4939
1076.36,84.3437,16.6579,0,9.81479,0.890947,1.07536,-0.487805,1.0061,-0.396341,-9.35974,-0.675395,2.78301,0.579268,1.85976,6.7378
1076.37,84.341,16.6701,0,9.79803,0.934058,1.01788,-0.243902,1.18902,-1.0061,-9.3789,-0.646655,2.85007,0.426829,1.85976,6.82927
1076.38,84.3425,16.6701,0,9.8076,0.943638,1.01549,-0.335366,1.12805,-0.548781,-9.3765,-0.63468,2.80936,0.487805,1.79878,7.10366
1076.39,84.3547,16.6684,0,9.77647,0.878972,1.03704,0.0609756,1.28049,-0.762195,-9.33818,-0.57241,2.79259,0.304878,1.55488,7.16463
1076.4,84.3514,16.6761,0,9.79084,0.924478,1.04423,-0.182927,1.15854,-1.15854,-9.33818,-0.603545,2.82373,0.121951,1.89024,7.22561
1076.41,84.3526,16.6933,0,9.78605,0.924478,1.07297,-0.0304878,1.18902,-0.823171,-9.38848,-0.574805,2.87402,0.0914634,1.85976,7.16463
1076.42,84.3535,16.713,0,9.81958,0.917292,1.09692,0.0609756,0.945122,-0.97561,-9.36692,-0.59157,2.88121,0.213415,2.0122,7.0122
1076.43,84.354,16.7132,0,9.81958,0.922083,1.08494,0.548781,0.853659,-0.945122,-9.36453,-0.560435,2.81415,-0.27439,1.92073,6.70732
1076.44,84.3544,16.7041,0,9.82916,0.926873,1.09452,0.365854,1.0061,-0.884146,-9.39806,-0.579595,2.7902,-0.457317,2.16463,6.79878
1076.45,84.3475,16.6994,0,9.81719,0.948428,1.07536,0.457317,1.06707,-1.12805,-9.3789,-0.534089,2.79978,-0.487805,1.98171,6.98171
1076.46,84.3406,16.6901,0,9.8124,0.967588,1.01309,0.0914634,1.40244,-0.792683,-9.43638,-0.57241,2.79978,-0.762195,1.89024,7.2561
1076.47,84.3294,16.6779,0,9.76449,0.979563,1.06578,0.0304878,1.31098,-0.914634,-9.39566,-0.541274,2.77822,-0.487805,1.67683,7.2561
1076.48,84.3268,16.664,0,9.82677,0.946033,1.03944,0.121951,1.4939,-0.884146,-9.40045,-0.57241,2.76864,-0.27439,2.0122,7.31707
1076.49,84.3179,16.6646,0,9.8124,0.989143,1.04662,0.0914634,1.37195,-0.579268,-9.40524,-0.613125,2.81894,-0.640244,1.76829,7.31707
1076.5,84.3068,16.6627,0,9.8124,0.989143,1.14003,0.243902,1.03659,-0.884146,-9.39327,-0.59157,2.80696,-0.548781,1.67683,7.40854
1076.51,84.303,16.6686,0,9.82916,0.974773,1.09452,0.27439,1.34146,-0.518293,-9.36932,-0.589175,2.82612,-0.609756,1.85976,7.31707
1076.52,84.2954,16.6515,0,9.76928,0.984353,1.03944,0.121951,1.31098,-0.548781,-9.35974,-0.58678,2.74469,-0.457317,1.95122,7.19512
1076.53,84.291,16.654,0,9.7597,0.967588,1.1065,0.0304878,1.12805,-0.640244,-9.32381,-0.56762,2.79978,-0.670732,2.28659,7.2561
1076.54,84.2845,16.6587,0,9.78366,0.979563,1.14242,0.121951,1.25,-0.640244,-9.36453,-0.579595,2.81894,-0.457317,1.82927,7.13415
1076.55,84.2884,16.6507,0,9.7621,0.941243,1.1065,0.396341,0.97561,-0.518293,-9.38369,-0.579595,2.78062,-0.884146,2.16463,7.34756
1076.56,84.2868,16.6524,0,9.80042,0.969983,1.11368,0.213415,0.670732,-0.426829,-9.36453,-0.56283,2.80936,-0.548781,2.53049,6.85976
1076.57,84.2799,16.6535,0,9.81719,0.991538,1.1065,0.213415,0.609756,-0.487805,-9.3789,-0.55804,2.81175,-0.823171,2.31707,6.95122
1076.58,84.2748,16.6271,0,9.76928,0.989143,1.04423,0.121951,0.426829,-0.213415,-9.37411,-0.56283,2.70398,-0.670732,2.56098,6.85976
1076.59,84.2675,16.6191,0,9.78126,0.989143,1.08973,-0.243902,0.701219,-0.548781,-9.38608,-0.55804,2.77583,-0.701219,2.07317,6.92073
1076.6,84.2738,16.6205,0,9.74773,0.938848,1.09213,-0.152439,0.853659,-0.426829,-9.39806,-0.548459,2.81175,-0.670732,1.95122,6.89024
1076.61,84.2666,16.6031,0,9.80521,0.991538,1.09452,-0.0304878,0.762195,-0.548781,-9.41482,-0.58199,2.74948,-0.731707,2.04268,7.19512
1076.62,84.2597,16.5784,0,9.80042,0.998723,1.12566,0.121951,0.670732,-0.304878,-9.38129,-0.589175,2.70877,-0.457317,2.19512,7.31707
1076.63,84.2531,16.5594,0,9.8124,1.0083,1.07536,0.121951,0.487805,0.0304878,-9.39806,-0.62989,2.73272,-0.304878,1.95122,7.2561
1076.64,84.2437,16.531,0,9.82197,1.01788,1.11608,0,0.396341,0,-9.36932,-0.617915,2.68721,-0.152439,2.04268,7.31707
1076.65,84.2253,16.503,0,9.73336,1.03944,1.14003,-0.182927,0.335366,0.0609756,-9.40045,-0.574805,2.69919,-0.426829,1.70732,7.37805
1076.66,84.2122,16.4891,0,9.79563,1.04183,1.1544,0,0.213415,0.182927,-9.43638,-0.570015,2.74948,0.0304878,1.79878,7.16463
1076.67,84.209,16.4845,0,9.78126,1.02028,1.06339,-0.152439,0.304878,0.426829,-9.4723,-0.56762,2.7902,-0.152439,1.55488,6.95122
1076.68,84.2111,16.4382,0,9.78366,0.996328,1.11129,-0.335366,0.335366,0.335366,-9.48428,-0.538879,2.67524,0,1.15854,6.79878
1076.69,84.2086,16.4139,0,9.76449,1.02028,1.06578,-0.518293,0.0304878,0.518293,-9.46512,-0.514929,2.72793,-0.121951,1.0061,6.67683
1076.7,84.209,16.3706,0,9.82916,1.01309,1.07297,-0.487805,0.121951,0.457317,-9.46512,-0.483794,2.68482,0.121951,0.762195,6.79878
1076.71,84.2116,16.3244,0,9.7621,1.01549,1.11129,-0.640244,0.213415,0.823171,-9.46033,-0.498164,2.68721,0.27439,0.396341,6.7378
1076.72,84.2182,16.2812,0,9.80042,1.00112,1.08015,-0.914634,0.518293,0.853659,-9.43877,-0.500559,2.692,0.0914634,-0.121951,6.70732
1076.73,84.2297,16.2583,0,9.78366,0.972378,1.12566,-1.31098,0.426829,0.792683,-9.42919,-0.534089,2.69919,0.121951,-0.762195,6.37195
1076.74,84.249,16.248,0,9.80042,0.950823,1.13763,-1.06707,0.609756,1.28049,-9.46751,-0.579595,2.72793,-0.0609756,-1.37195,6.09756
1076.75,84.2632,16.238,0,9.8124,0.960403,1.11368,-0.640244,0.762195,0.884146,-9.51541,-0.59157,2.73272,0.121951,-2.28659,6.15854
1076.76,84.2819,16.1791,0,9.84353,0.950823,1.08734,-0.0609756,0.853659,1.25,-9.5681,-0.565225,2.54112,0.487805,-2.86585,5.73171
1076.77,84.2977,16.1271,0,9.8124,0.981958,1.11847,0.396341,0.0609756,1.61585,-9.58726,-0.495769,2.5507,1.15854,-3.78049,6.25
1076.78,84.3016,16.0945,0,9.78605,1.03704,0.981958,0.213415,-0.0304878,1.43293,-9.63995,-0.522114,2.63452,1.09756,-5.2439,6.64634
1076.79,84.3147,16.0805,0,9.77407,1.01309,0.996328,-0.0914634,0.426829,1.92073,-9.64953,-0.512534,2.71356,0.670732,-6.7378,6.7378
1076.8,84.3393,16.0524,0,9.75491,0.931663,0.910107,-0.0609756,1.28049,1.92073,-9.74054,-0.512534,2.67045,0.304878,-8.35366,6.06707
1076.81,84.3756,16.0209,0,9.74294,0.847837,0.981958,0.396341,1.79878,1.89024,-9.79563,-0.455054,2.66326,0.152439,-9.54268,5.73171
1076.82,84.4174,15.9817,0,9.72617,0.802332,1.01549,0.823171,2.13415,1.82927,-9.80281,-0.471819,2.62255,-0.152439,-10.8232,5.09146
1076.83,84.4597,15.9467,0,9.77407,0.787961,1.09692,1.40244,1.61585,1.55488,-9.82437,-0.438289,2.63931,-0.487805,-12.1951,5.03049
1076.84,84.4995,15.907,0,9.89622,0.797541,1.03465,2.0122,1.28049,1.09756,-9.8555,-0.457449,2.61776,-0.731707,-13.5976,4.93902
1076.85,84.5327,15.8794,0,9.9537,0.835862,1.07536,2.43902,0.914634,0.304878,-9.88185,-0.495769,2.67284,-0.97561,-15.0305,5
1076.86,84.5756,15.8684,0,9.92975,0.802332,1.07776,3.20122,1.40244,0.0914634,-9.88425,-0.519719,2.74469,-0.945122,-16.9207,5.18293
1076.87,84.6115,15.8677,0,9.98005,0.807122,1.05381,4.05488,1.70732,-0.152439,-9.94173,-0.536484,2.80457,-0.97561,-19.3293,5.60976
1076.88,84.6318,15.8503,0,9.86509,0.816702,1.00591,4.57317,1.98171,-0.579268,-9.92017,-0.519719,2.71835,-0.853659,-21.0976,5.97561
1076.89,84.6419,15.8331,0,9.83395,0.828677,1.05381,4.72561,2.10366,-0.914634,-9.88185,-0.526904,2.70398,-0.457317,-23.0793,6.21951
1076.9,84.6476,15.8086,0,9.82437,0.855022,1.11368,5.45732,2.34756,-0.823171,-9.83156,-0.500559,2.65129,-0.0304878,-24.4817,6.70732
1076.91,84.6466,15.7853,0,9.78366,0.871787,1.12805,5.91463,2.40854,-1.0061,-9.82437,-0.502954,2.64889,0.27439,-26.2805,6.7378
1076.92,84.6506,15.7728,0,9.81958,0.833467,1.17835,6.28049,2.5,-1.18902,-9.79084,-0.555645,2.68482,1.0061,-27.6524,6.43293
1076.93,84.6556,15.7783,0,9.80281,0.826282,1.17356,6.25,2.10366,-1.18902,-9.75491,-0.61073,2.75427,1.79878,-29.2378,6.25
1076.94,84.6609,15.8047,0,9.82437,0.819097,1.18074,6.7378,1.64634,-1.25,-9.70941,-0.603545,2.8381,1.89024,-30.5183,5.51829
1076.95,84.6678,15.8377,0,9.76449,0.809517,1.19032,6.85976,0.945122,-1.21951,-9.65911,-0.59157,2.85726,2.53049,-32.1341,5.57927
1076.96,84.6737,15.8969,0,9.7621,0.802332,1.20709,6.95122,0.731707,-1.34146,-9.59924,-0.5772,2.96503,2.80488,-33.9329,5.36585
1076.97,84.6775,15.9805,0,9.80042,0.809517,1.21667,6.85976,0.701219,-1.40244,-9.56092,-0.58678,3.07521,3.01829,-35.8537,5.27439
1076.98,84.6629,16.0974,0,9.8076,0.912502,1.23583,5.36585,0.762195,-1.52439,-9.57768,-0.546064,3.25004,3.01829,-38.2927,5.18293
1076.99,84.6434,16.2655,0,9.79323,0.938848,1.27176,4.45122,0.0914634,-1.61585,-9.60642,-0.565225,3.52307,3.20122,-40.7622,5.06098
1077,84.6289,16.4668,0,9.84353,0.917292,1.22864,3.84146,0.884146,-1.58537,-9.60403,-0.546064,3.71228,2.53049,-43.5976,4.96951
1077.01,84.6014,16.6604,0,9.79803,0.989143,1.27415,2.5,0.731707,-1.76829,-9.54415,-0.543669,3.68833,1.82927,-45.5183,5.2439
1077.02,84.5641,16.809,0,9.78605,1.0586,1.28613,0.670732,1.21951,-1.7378,-9.46512,-0.565225,3.47996,1.82927,-46.1585,4.96951
1077.03,84.5041,16.9504,0,9.76928,1.21188,1.1065,-1.25,2.07317,-1.76829,-9.32621,-0.514929,3.42248,2.83537,-45.9451,5.42683
1077.04,84.4268,17.1116,0,9.7142,1.29571,0.986748,-3.93293,2.40854,-1.25,-9.30465,-0.445474,3.53265,4.72561,-46.6463,6.31098
1077.05,84.3808,17.2563,0,9.68306,1.11608,1.152,-5.57927,2.9878,-0.762195,-9.44117,-0.447869,3.53505,7.80488,-48.2622,6.92073
1077.06,84.3665,17.3506,0,9.74054,1.02028,1.25739,-4.05488,2.0122,0.304878,-9.58247,-0.467029,3.37219,11.0671,-50.5183,7.22561
1077.07,84.3704,17.4283,0,9.76928,0.996328,1.54718,-0.548781,-0.579268,1.03659,-9.74533,-0.531694,3.365,13.5671,-52.8963,7.19512
1077.08,84.3792,17.5052,0,9.8555,1.00351,1.51844,0.97561,-3.62805,1.43293,-9.99921,-0.608335,3.4608,14.4512,-56.4634,6.25
1077.09,84.4028,17.5574,0,9.93454,0.893342,1.35079,0.518293,-5.2439,0.304878,-10.1669,-0.708926,3.40572,14.878,-61.0976,4.7561
1077.1,84.4105,17.6142,0,9.92496,0.790356,1.54239,-2.07317,-9.26829,-1.85976,-10.2148,-0.673001,3.45122,14.1159,-65.3659,3.47561
1077.11,84.3952,17.7334,0,9.91538,0.787961,1.11368,-5.79268,-11.0366,-3.78049,-10.1022,-0.6251,3.73384,12.0427,-68.75,3.10976
1077.12,84.3689,17.8497,0,10.0663,0.706531,0.570015,-10.6098,-10.061,-5.94512,-9.81719,-0.526904,3.63564,9.5122,-70.6098,3.9939
1077.13,84.3537,18.0372,0,9.92496,0.419128,0.737666,-8.87195,-11.9207,-8.10976,-9.61121,-0.395178,3.92783,7.34756,-72.1037,6.15854
1077.14,84.3182,18.2754,0,9.92736,0.416733,0.855022,-4.39024,-21.7683,-10.2439,-9.4723,-0.376018,4.15536,6.03659,-73.9939,9.26829
1077.15,84.2883,18.5691,0,10.2746,0.328118,0.5772,0.609756,-27.5915,-10.9146,-9.46272,-0.435894,4.47629,6.76829,-75.6707,12.0427
1077.16,84.2397,18.8203,0,10.5692,0.349673,0.119751,4.84756,-26.5244,-12.7439,-9.49146,-0.481399,4.33259,8.96341,-75.9756,14.9085
1077.17,84.1528,19.1043,0,10.0447,0.627495,0.538879,-1.40244,-20.1829,-13.3232,-9.45793,-0.598755,4.53856,11.0366,-72.2866,16.0366
1077.18,84.0857,19.4747,0,10.4758,0.330513,0.622705,-6.43293,-12.7439,-15.0915,-9.50583,-0.799937,5.07744,12.2561,-70.9451,15.5793
1077.19,84.0408,19.88,0,10.792,-0.0239502,0.795146,-4.29878,-5.45732,-16.9207,-9.45075,-0.855022,5.31694,12.7439,-69.8781,13.872
1077.2,83.9896,20.2861,0,10.6674,-0.258662,1.2981,1.37195,-13.6585,-20.2134,-9.32381,-0.900527,5.34089,12.4695,-66.7683,11.0671
1077.21,83.9343,20.7599,0,10.3656,-0.411943,0.651445,6.92073,-20.3963,-22.561,-9.137,-0.895737,5.69536,10.4878,-63.5976,8.2622
1077.22,83.8016,21.3223,0,10.2219,-0.0239502,0.301772,6.92073,-21.372,-26.189,-8.87594,-0.773591,6.13604,7.68293,-61.4329,6.15854
1077.23,83.6349,21.8856,0,10.3297,-0.0383203,0.598755,8.44512,-23.811,-30.0915,-8.68434,-0.431104,6.13843,5.91463,-59.1463,5.09146
1077.24,83.3907,22.496,0,10.9237,0.474214,0.378413,7.46951,-13.0183,-32.8354,-8.43286,-0.205972,6.35878,5.45732,-56.9207,5.88415
1077.25,83.1174,23.1083,0,10.7249,0.510139,1.11608,10.061,-13.2317,-35.8232,-8.36341,0.0215552,6.46176,5.18293,-54.2073,7.53049
1077.26,82.8169,23.7295,0,10.78,0.543669,0.476609,11.6463,-12.4085,-38.811,-8.25084,0.0622705,6.57433,5.2439,-50.122,8.96341
1077.27,82.4816,24.3807,0,10.4088,0.680186,0.773591,12.0732,-12.9268,-41.25,-8.24366,0.0574805,6.90245,5.09146,-46.9817,10.0915
1077.28,82.1131,25.0524,0,10.3058,0.855022,1.06818,13.3841,-17.6829,-43.2622,-8.21492,-0.112566,7.17308,4.57317,-43.7805,10.3963
1077.29,81.7105,25.6935,0,10.4471,1.08973,1.14482,13.6585,-14.2683,-45.0305,-8.2221,-0.237107,7.15871,4.26829,-40.061,9.93902
1077.3,81.2799,26.3415,0,10.3082,1.32924,1.04183,12.7744,-14.3902,-45.8537,-8.1263,-0.361648,7.28565,3.96341,-35.8232,9.29878
1077.31,80.8457,27.0099,0,10.3968,1.37953,1.07057,11.9817,-13.2317,-46.6768,-8.01613,-0.354463,7.49162,4.02439,-32.1646,8.59756
1077.32,80.3855,27.6804,0,10.4207,1.67172,1.16158,12.2561,-15.5793,-47.0427,-7.87003,-0.285007,7.54671,2.92683,-28.7195,8.62805
1077.33,79.9052,28.35,0,10.4902,1.82979,1.1041,10.0915,-12.5915,-48.4451,-7.80776,-0.222737,7.66406,1.70732,-24.8476,9.08537
1077.34,79.3818,29.0005,0,10.3513,2.14115,1.08973,8.44512,-14.3902,-50.1524,-7.81495,-0.170046,7.72633,0.609756,-20.8537,9.69512
1077.35,78.81,29.6294,0,10.2315,2.39981,1.18793,7.0122,-16.8902,-53.0793,-7.79339,-0.0479004,7.73831,-0.365854,-16.9207,10.1524
1077.36,78.1937,30.238,0,10.1549,2.58423,0.972378,6.31098,-18.4146,-56.5854,-7.83411,-0.0526904,7.81495,-0.701219,-13.75,10.1524
1077.37,77.5213,30.8091,0,10.1237,2.85965,1.19751,4.05488,-20,-60.5183,-7.89877,-0.0359253,7.791,-0.823171,-10.6402,10.5488
1077.38,76.814,31.3477,0,10.2052,3.00575,0.823887,4.05488,-21.9512,-64.1463,-8.02811,-0.143701,7.85327,-0.487805,-7.71341,10.0305
1077.39,76.0737,31.8611,0,10.1932,3.14945,0.931663,3.81098,-23.8415,-67.4085,-8.13109,-0.256267,7.92272,-0.0609756,-5.18293,9.54268
1077.4,75.294,32.3364,0,10.3704,3.42967,0.397573,3.81098,-24.6341,-70.6402,-8.23168,-0.395178,7.86285,0.914634,-3.41463,9.02439
1077.41,74.4903,32.8209,0,10.3944,3.63803,0.510139,3.96341,-26.372,-72.6524,-8.28677,-0.498164,7.81974,1.82927,-1.28049,8.5061
1077.42,73.6454,33.3585,0,10.2219,4.01405,0.0383203,2.07317,-22.3171,-74.1159,-8.3203,-0.56283,7.88919,2.40854,0.304878,8.29268
1077.43,72.7825,33.7594,0,9.66869,4.05956,0.488584,1.12805,-27.9573,-74.939,-8.34664,-0.522114,7.75507,3.14024,1.85976,8.04878
1077.44,71.9137,34.128,0,9.84353,4.33978,-0.112566,-0.182927,-23.2622,-75.2439,-8.29156,-0.469424,7.73591,3.59756,3.96341,8.56707
1077.45,71.0417,34.4737,0,9.7597,4.47629,0.0742456,0.213415,-24.8476,-75.6098,-8.23887,-0.385598,7.64969,3.81098,6.0061,8.59756
1077.46,70.1814,34.8131,0,9.55613,4.46432,-0.205972,0.548781,-25.1524,-75.3659,-8.10954,-0.306563,7.58503,3.14024,8.59756,9.17683
1077.47,69.3339,35.1293,0,9.36932,4.46432,-0.129331,0.670732,-27.622,-74.939,-8.01374,-0.172441,7.43414,2.56098,10.8841,9.29878
1077.48,68.5076,35.4082,0,9.18011,4.44276,-0.426313,-1.15854,-29.6037,-73.7805,-7.90835,-0.0407153,7.18027,2.31707,13.0488,9.17683
1077.49,67.6962,35.6565,0,8.95498,4.42839,-0.500559,-1.55488,-33.3232,-72.9573,-7.85566,-0.00479004,7.01262,2.34756,15.6402,9.02439
1077.5,66.9074,35.8775,0,8.9909,4.44516,-0.170046,-1.03659,-33.9634,-72.3171,-7.80297,-0.00718506,6.86173,2.13415,18.2622,8.32317
1077.51,66.1278,36.0682,0,8.95498,4.48348,-0.229922,-0.548781,-33.628,-72.4085,-7.70957,-0.0119751,6.65336,2.16463,20.4268,7.89634
1077.52,65.3515,36.223,0,9.10586,4.65113,-0.399968,-0.884146,-37.9573,-72.7134,-7.67604,-0.00479004,6.46176,2.37805,22.9573,7.19512
1077.53,64.5995,36.3748,0,9.20406,4.60083,-0.589175,-1.76829,-34.6646,-72.8354,-7.59221,-0.00479004,6.41147,2.31707,24.8476,6.52439
1077.54,63.8558,36.5014,0,9.0867,4.60562,-0.316143,-3.32317,-34.878,-72.8659,-7.52755,0.0143701,6.251,2.46951,27.439,6.18902
1077.55,63.1201,36.6129,0,9.02443,4.61041,-0.311353,-2.40854,-33.3841,-73.2012,-7.46767,0.00479004,6.14802,1.85976,29.6951,5.85366
1077.56,62.384,36.7012,0,8.90229,4.64394,-0.476609,-2.68293,-33.1402,-73.75,-7.43175,-0.0455054,6.01868,1.40244,32.3171,5.57927
1077.57,61.6361,36.7269,0,8.59333,4.6631,-0.536484,-4.26829,-29.2683,-74.5427,-7.40061,-0.0431104,5.68338,1.67683,34.5427,5.33537
1077.58,60.9113,36.7554,0,8.62686,4.58167,-0.742456,-2.37805,-28.2317,-74.7561,-7.43654,-0.00958008,5.73128,1.58537,35.7012,5.39634
1077.59,60.1693,36.7392,0,8.3658,4.64394,-0.613125,-3.14024,-28.9634,-75.8232,-7.42935,-0.0526904,5.50376,2.19512,37.3171,4.81707
1077.6,59.4391,36.7222,0,8.36341,4.67747,-0.61552,-1.7378,-31.9207,-75.7622,-7.42696,-0.00718506,5.49657,1.70732,39.0244,4.69512
1077.61,58.7163,36.6487,0,8.55262,4.82117,-1.07536,-1.61585,-35.9451,-76.0976,-7.46528,-0.0335303,5.2403,1.89024,40.9756,4.11585
1077.62,57.9919,36.5642,0,8.43286,4.75651,-1.03704,-4.11585,-33.689,-77.7134,-7.44851,-0.0287402,5.16366,2.53049,43.4451,3.62805
1077.63,57.2827,36.486,0,8.20294,4.23918,-0.483794,-5.18293,-31.128,-81.9207,-7.51557,-0.0143701,5.22593,2.2561,45.1524,3.38415
1077.64,56.5699,36.3389,0,8.23168,4.09309,-0.969983,-5.94512,-28.75,-85.5488,-7.61856,-0.124541,4.94811,3.04878,47.1341,2.56098
1077.65,55.7974,36.2027,0,8.0808,4.64634,-0.874182,-5.88415,-28.1098,-86.0366,-7.7431,-0.162861,5.05589,2.34756,48.7805,1.46341
1077.66,54.9617,36.0214,0,7.61856,5.08223,-0.807122,-5.64024,-30.0305,-86.2805,-7.79579,-0.234712,4.84752,2.0122,50.6402,0.548781
1077.67,54.1131,35.8223,0,7.60898,5.26904,-0.835862,-4.81707,-30.5183,-87.2866,-7.84848,-0.220342,4.76369,1.15854,52.8659,-0.762195
1077.68,53.2847,35.6382,0,7.75028,5.14211,-1.13284,-4.20732,-27.7439,-89.2683,-7.92033,-0.234712,4.84273,0.518293,54.5122,-1.85976
1077.69,52.3933,35.4368,0,7.56826,5.92049,-1.43941,-4.2378,-29.1463,-88.2622,-7.88919,-0.234712,4.70861,-0.27439,56.0976,-2.7439
1077.7,51.5225,35.2161,0,7.62574,6.13365,-1.16637,-2.95732,-29.4817,-86.4024,-7.92512,-0.138911,4.60323,-1.0061,57.8963,-3.29268
1077.71,50.6551,34.9664,0,7.65688,6.3947,-1.64777,-4.5122,-27.3476,-85.6707,-7.9347,-0.124541,4.43558,-1.31098,59.7256,-3.2622
1077.72,49.8043,34.693,0,7.57066,6.29172,-1.41067,-2.2561,-26.7073,-86.0366,-7.97062,-0.0622705,4.30385,-2.65244,61.4024,-3.07927
1077.73,48.9761,34.4155,0,7.43414,6.19831,-1.35319,-1.06707,-27.5305,-85.2744,-8.02092,-0.0670605,4.26313,-4.08537,62.0122,-2.89634
1077.74,48.1394,34.1248,0,7.36229,6.24621,-1.67172,-1.82927,-24.9085,-86.8293,-8.04487,-0.0814307,4.16733,-4.81707,62.6524,-2.16463
1077.75,47.3047,33.7816,0,7.20182,6.24861,-1.45617,-1.85976,-23.4146,-87.0427,-8.09038,-0.138911,3.90628,-5.57927,63.2622,-2.19512
1077.76,46.4454,33.4679,0,7.00064,6.48571,-1.62622,-3.81098,-19.3598,-87.439,-8.11672,-0.165256,3.9901,-7.40854,64.6037,-1.85976
1077.77,45.6075,33.1441,0,7.02459,6.29411,-1.52563,-3.68902,-13.8415,-88.9634,-8.09277,-0.213157,3.87993,-7.56098,65.061,-1.43293
1077.78,44.7362,32.751,0,6.90005,6.55038,-1.42264,-2.40854,-14.4512,-90.7012,-8.09996,-0.285007,3.53026,-7.83537,66.9817,-1.21951
1077.79,43.8557,32.3611,0,6.76593,6.63899,-1.52084,-1.31098,-11.0061,-91.4939,-8.07361,-0.342488,3.46799,-8.81098,69.0244,-1.18902
1077.8,42.9447,31.9776,0,6.5384,6.85934,-1.54239,0.27439,-10.7012,-92.5,-8.11193,-0.438289,3.44643,-9.17683,69.1768,-1.0061
1077.81,41.9708,31.4693,0,6.17676,7.29283,-1.2526,0.457317,-14.0854,-93.9024,-8.14786,-0.543669,2.8836,-8.59756,70.3963,-1.21951
1077.82,40.9835,31.0527,0,5.97318,7.44133,-1.27176,-1.21951,-6.31098,-94.1768,-8.16941,-0.538879,3.18538,-8.59756,71.2195,-1.03659
1077.83,40.0167,30.6063,0,6.02826,7.35032,-1.16398,0,-6.43293,-95.3354,-8.15504,-0.622705,2.98898,-7.92683,70.3659,-0.518293
1077.84,39.0133,30.1164,0,5.73607,7.58503,-1.79626,-0.945122,-5.82317,-96.4329,-8.02571,-0.579595,2.69919,-7.62195,71.5854,-0.182927
1077.85,38.0163,29.6518,0,5.74805,7.92991,-1.36995,-2.10366,-4.17683,-95.4573,-7.96104,-0.541274,2.70158,-6.58537,72.7134,0.243902
1077.86,37.0576,29.2085,0,5.59237,7.41977,-1.50886,-0.365854,-3.9939,-95.7622,-7.91314,-0.548459,2.69679,-6.70732,72.8354,0.945122
1077.87,36.1317,28.6681,0,5.65704,7.39822,-1.69567,1.76829,2.9878,-95.1829,-7.85566,-0.59636,2.24174,-5.91463,73.9329,1.18902
1077.88,35.1905,28.224,0,5.45346,7.93949,-0.835862,-0.640244,-0.670732,-92.6829,-7.97302,-0.627495,2.56267,-6.09756,73.9024,1.34146
1077.89,34.2495,27.8055,0,5.12774,7.7431,-1.42025,0.914634,2.68293,-92.5915,-8.05924,-0.60594,2.62015,-5.91463,71.5549,0.97561
1077.9,33.2624,27.3468,0,4.61281,8.00176,-1.11368,-1.46341,6.70732,-91.9817,-8.08798,-0.62031,2.40699,-5.73171,70.5488,0.609756
1077.91,32.291,26.8806,0,4.67747,8.15025,-1.38193,-2.5,1.52439,-92.1646,-8.05206,-0.593965,2.29682,-5.73171,70.2439,0.548781
1077.92,31.32,26.4201,0,4.34696,7.92751,-1.09931,-2.34756,-1.18902,-91.8293,-8.05445,-0.555645,2.24892,-6.12805,70.3659,1.03659
1077.93,30.3497,25.9221,0,4.32541,7.98021,-1.45378,0.396341,0.884146,-93.1707,-8.04966,-0.486189,2.03577,-6.25,70.1524,1.52439
1077.94,29.413,25.4414,0,4.66789,8.1766,-1.16158,2.10366,3.71951,-94.2988,-8.06882,-0.438289,2.03098,-6.25,69.8476,2.65244
1077.95,28.4847,24.965,0,4.51222,8.22689,-1.09213,3.35366,0.609756,-93.3537,-7.99458,-0.471819,1.95673,-6.15854,69.2683,3.93293
1077.96,27.5415,24.5207,0,4.25834,8.464,-1.75555,0,6.98171,-92.6219,-8.1263,-0.428708,2.03816,-6.64634,67.5305,5.2439
1077.97,26.6155,24.0741,0,4.00687,8.35383,-1.14242,-2.28659,3.68902,-90.5793,-8.16462,-0.428708,1.9711,-7.0122,66.5854,6.37195
1077.98,25.7124,23.6073,0,3.73384,8.16462,-1.2526,-1.46341,5.88415,-87.9878,-8.21971,-0.399968,1.83938,-7.5,66.0366,6.76829
1077.99,24.8138,23.1514,0,3.45362,8.19576,-1.52084,-2.56098,-0.884146,-85.8537,-8.27479,-0.352068,1.82261,-8.17073,65.9451,6.67683
1078,23.9157,22.6938,0,3.18298,8.44005,-1.44659,-1.92073,2.95732,-83.1707,-8.33946,-0.344883,1.76034,-9.29878,65.5488,6.61585
1078.01,23.0247,22.2136,0,2.99856,8.76817,-1.42264,-2.31707,5.36585,-80.6402,-8.32988,-0.289797,1.60227,-9.93902,64.9695,6.98171
1078.02,22.1757,21.7989,0,3.05844,8.87594,-1.36516,-2.53049,5.64024,-78.4451,-8.3682,-0.189207,1.78668,-10.2744,62.6829,7.37805
1078.03,21.4119,21.3614,0,3.48954,8.67955,-1.38911,-3.29268,-3.84146,-77.3781,-8.34904,-0.170046,1.63101,-10.122,60.8841,7.80488
1078.04,20.6015,20.9377,0,2.75906,8.27,-0.65863,2.19512,-11.7073,-76.6463,-8.48316,-0.225132,1.64298,-9.90854,60.6402,7.86585
1078.05,19.7972,20.5232,0,2.44531,8.69153,-1.62143,0.853659,-12.3171,-72.1037,-8.55022,-0.294587,1.62622,-9.69512,60.3049,7.77439
1078.06,19.0905,20.0892,0,2.77343,8.64123,-1.77471,-0.640244,-15.6098,-68.0183,-8.62446,-0.445474,1.49928,-10.122,60.2134,6.95122
1078.07,18.4221,19.6813,0,2.97222,8.86397,-1.65735,-1.85976,-11.7073,-67.0732,-8.77056,-0.58678,1.55916,-9.54268,58.75,5.73171
1078.08,17.7951,19.2312,0,3.03449,8.67476,-1.1041,0.640244,-4.20732,-65.7317,-8.68195,-0.65384,1.31247,-8.9939,56.8902,4.90854
1078.09,17.1683,18.7477,0,2.85726,8.99809,-1.20469,-0.213415,-7.71341,-63.5976,-8.69632,-0.735271,1.11368,-8.68902,55.8841,3.9939
1078.1,16.5696,18.2668,0,2.82612,8.86636,-1.27655,-1.37195,-9.60366,-62.1341,-8.73703,-0.716111,1.05381,-7.95732,55.4573,3.62805
1078.11,15.964,17.8116,0,2.63452,9.00767,-1.79387,1.58537,-8.53659,-61.25,-8.80649,-0.699346,1.08734,-7.53049,53.872,3.78049
1078.12,15.3953,17.3321,0,2.79738,9.04599,-1.90644,0.579268,-5.18293,-60.5183,-8.87834,-0.773591,0.926873,-6.40244,51.9512,4.35976
1078.13,14.7929,16.8534,0,2.37825,9.15137,-1.33642,1.37195,-2.19512,-59.7866,-9.01485,-0.790356,0.866997,-5.88415,50.3963,4.72561
1078.14,14.1966,16.4146,0,2.1651,9.16574,-1.55676,3.10976,-0.731707,-57.7744,-9.02922,-0.720901,0.950823,-5.06098,48.2012,5.57927
1078.15,13.6112,15.9768,0,2.03337,8.96935,-1.32445,3.32317,-4.60366,-56.8293,-9.14897,-0.761616,0.895737,-4.29878,47.0732,6.18902
1078.16,13.0625,15.5524,0,2.10762,9.0412,-0.979563,4.08537,-8.87195,-55,-9.12502,-0.740061,0.876577,-3.04878,46.0061,7.5
1078.17,12.5364,15.1509,0,1.98547,9.19448,-1.0586,3.01829,-7.53049,-51.8902,-9.18011,-0.773591,0.905317,-1.98171,44.0549,7.28659
1078.18,12.081,14.7635,0,2.30401,9.26394,-1.12805,1.31098,-5.64024,-49.3902,-9.16574,-0.766406,0.895737,-0.579268,43.0183,7.56098
1078.19,11.6643,14.387,0,2.39981,9.33579,-1.08973,-2.10366,-1.06707,-47.2866,-9.14179,-0.749641,0.874182,0.396341,41.9512,6.95122
1078.2,11.2586,14.0192,0,2.19863,9.34537,-0.833467,-3.47561,-2.59146,-44.6037,-9.08191,-0.692161,0.843047,0.853659,41.0061,6.37195
1078.21,10.9101,13.6453,0,2.40699,9.06754,-0.742456,-2.04268,0.396341,-42.9268,-9.06515,-0.744851,0.756826,1.34146,39.7256,6.55488
1078.22,10.5243,13.2917,0,1.82979,9.09868,-0.64426,0.243902,-0.609756,-40.3049,-9.25436,-0.831072,0.795146,1.64634,39.1463,6.37195
1078.23,10.114,12.9117,0,1.30289,9.62319,-1.27655,-1.79878,3.04878,-36.128,-9.22562,-0.809517,0.627495,2.13415,39.4817,5.73171
1078.24,9.69255,12.4991,0,1.02267,9.7597,-1.29092,-1.79878,-3.38415,-34.5732,-9.29747,-0.766406,0.435894,2.5,38.9939,5.36585
1078.25,9.26995,12.0779,0,0.902922,9.77168,-1.6837,-4.08537,-4.87805,-34.1159,-9.41482,-0.718506,0.337698,2.13415,38.628,5.15244
1078.26,8.84962,11.658,0,0.869392,9.50823,-1.51605,-5.2439,-7.40854,-34.6341,-9.44835,-0.598755,0.275427,2.13415,39.2683,5.45732
1078.27,8.50179,11.261,0,1.41546,9.40045,-1.7292,-4.7561,-4.93902,-34.9085,-9.53218,-0.498164,0.304167,1.95122,39.2378,5.45732
1078.28,8.16494,10.8727,0,1.29092,9.19927,-1.62143,-4.45122,-7.5,-33.3232,-9.66869,-0.371228,0.277822,1.64634,38.9024,5.64024
1078.29,7.88423,10.5091,0,1.57832,9.137,-1.57592,-3.53659,-5.45732,-31.9817,-9.78126,-0.352068,0.320933,0.701219,37.6524,6.28049
1078.3,7.62544,10.1407,0,1.64059,9.17532,-1.66693,-3.01829,-2.7439,-31.0061,-10.0064,-0.407153,0.241897,0.213415,36.1585,6.15854
1078.31,7.41144,9.76608,0,1.71483,9.0891,-1.3939,-1.82927,-1.15854,-28.0793,-10.1645,-0.380808,0.150886,0,34.4817,6.21951
1078.32,7.24109,9.39654,0,1.84417,9.1849,-1.55676,-2.40854,3.29268,-25.4268,-10.3704,-0.447869,0.107776,0.457317,32.5305,6.18902
1078.33,7.10103,9.04032,0,1.82261,9.18969,-1.3484,-1.40244,5.88415,-22.4085,-10.4662,-0.517324,0.100591,1.12805,30.2439,6.18902
1078.34,6.9242,8.69177,0,1.24062,9.43398,-1.37235,-1.82927,5.06098,-18.8415,-10.5596,-0.550855,0.0694556,1.67683,27.9268,6.12805
1078.35,6.75761,8.33434,0,1.02028,9.69983,-1.45857,-3.96341,2.77439,-15.122,-10.6459,-0.555645,-0.0383203,2.19512,25.8537,5.97561
1078.36,6.57396,7.95668,0,0.570015,9.71899,-1.07536,-3.96341,-4.42073,-11.7988,-10.6435,-0.60115,-0.201182,3.53659,24.2073,5.79268
1078.37,6.42421,7.58229,0,0.522114,9.8076,-1.29092,-5,-7.83537,-8.07927,-10.6004,-0.59157,-0.256267,3.84146,22.7439,5.79268
1078.38,6.30137,7.17381,0,0.55804,9.77168,-1.26697,-4.96951,-13.4451,-6.06707,-10.4016,-0.59157,-0.476609,5.15244,22.1341,6.03659
1078.39,6.23608,6.75364,0,0.874182,9.65432,-1.2526,-5.18293,-16.311,-4.29878,-10.2052,-0.58199,-0.593965,6.12805,21.311,5.70122
1078.4,6.19526,6.32092,0,0.950823,9.62558,-1.30289,-5.70122,-16.5549,-2.80488,-9.99681,-0.584385,-0.711321,7.34756,20.9451,5.27439
1078.41,6.17791,5.87281,0,1.00591,9.58008,-1.30289,-6.09756,-17.3476,-1.06707,-9.87946,-0.661025,-0.845442,8.81098,20.9756,5.06098
1078.42,6.25612,5.41466,0,1.23823,9.49865,-1.36037,-6.85976,-17.4695,-0.0609756,-9.70941,-0.62989,-0.950823,9.20732,20.9146,4.5122
1078.43,6.37067,4.96307,0,1.42264,9.42201,-1.40348,-6.55488,-16.311,0.579268,-9.63995,-0.58199,-0.993933,9.84756,20.6707,4.2378
1078.44,6.42687,4.51988,0,1.27894,9.57289,-1.37474,-5.12195,-14.2073,2.92683,-9.67827,-0.404758,-1.03944,10.1829,19.939,4.02439
1078.45,1.44461,4.09754,0,-0.313748,6.62702,2.47885,-2.43902,-42.4695,0.152439,-9.7118,-0.280217,-1.02986,9.93902,18.628,3.93293
1078.46,1.71765,3.66549,0,2.87402,11.6063,-3.55181,-6.43293,6.67683,1.89024,-9.83635,-0.172441,-1.15919,9.5122,18.5061,4.42073
1078.47,2.05265,3.27755,0,1.21427,9.47709,-0.165256,-0.365854,-16.5549,-0.243902,-9.94173,-0.0934058,-1.05141,9.14634,18.9634,4.35976
1078.48,2.19284,2.93493,0,1.48731,9.65672,-1.53521,-1.67683,-2.19512,-2.19512,-10.0136,-0.205972,-0.926873,6.92073,17.439,4.2378
1078.49,2.25858,2.54692,0,0.931663,9.88904,-0.991538,-3.62805,-4.81707,-1.7378,-10.0279,-0.172441,-1.19272,5.39634,16.25,3.84146
1078.5,2.31544,2.156,0,0.864602,9.74773,-0.967588,-3.29268,-2.53049,-1.79878,-10.0926,-0.150886,-1.28373,4.63415,15.3049,4.11585
1078.51,2.39957,1.77434,0,1.07776,9.95849,-1.40109,-5.36585,-3.78049,-1.61585,-10.0926,-0.102986,-1.31247,4.26829,14.6951,4.2378
1078.52,2.48566,1.40218,0,1.11368,9.46033,-1.01309,-4.48171,-0.609756,-2.28659,-10.095,-0.162861,-1.33882,3.68902,13.9634,4.81707
1078.53,2.58031,1.02097,0,1.27415,9.62558,-1.152,-3.10976,-1.7378,-2.46951,-10.0902,-0.296982,-1.44659,3.59756,13.2317,4.96951
1078.54,2.63532,0.635616,0,1.11368,9.67348,-1.07057,-2.19512,-1.95122,-3.20122,-10.1237,-0.364043,-1.54,3.32317,12.2866,5.09146
1078.55,2.68311,0.255603,0,1.11847,9.65193,-1.32445,-2.07317,0.426829,-3.65854,-10.0423,-0.462239,-1.57353,3.23171,11.1585,5.33537
1078.56,2.69139,-0.122656,0,0.847837,9.63277,-1.14003,-1.34146,-0.27439,-4.11585,-10.0064,-0.483794,-1.62861,3.07927,10.4573,5.70122
1078.57,2.69612,-0.493974,0,0.766406,9.73336,-1.22386,-1.64634,0.152439,-3.44512,-9.98484,-0.474214,-1.66214,3.14024,9.54268,5.82317
1078.58,2.69265,-0.826586,0,0.771196,9.73575,-1.10889,-2.37805,-1.92073,-4.20732,-9.98484,-0.543669,-1.55437,2.86585,8.62805,6.28049
1078.59,2.68807,-1.15616,0,0.754431,9.75252,-0.946033,-2.62195,-2.92683,-4.11585,-9.98244,-0.493374,-1.59987,2.62195,8.17073,6.03659
1078.6,2.70753,-1.47275,0,0.972378,9.68306,-1.0562,-1.98171,-2.7439,-4.39024,-9.98005,-0.476609,-1.59987,2.2561,7.56098,6.03659
1078.61,2.73561,-1.77399,0,1.04662,9.67588,-1.0586,-1.85976,-3.56707,-4.39024,-9.91059,-0.447869,-1.57592,2.2561,7.19512,6.18902
1078.62,2.75777,-2.05822,0,1.02267,9.63037,-1.09692,-1.64634,-2.07317,-4.66463,-9.90341,-0.423918,-1.55197,2.2561,6.98171,6.03659
1078.63,2.79151,-2.32558,0,1.1065,9.61361,-1.14482,-0.640244,-1.98171,-4.5122,-9.90341,-0.455054,-1.52563,2.07317,6.21951,5.97561
1078.64,2.81811,-2.58109,0,1.03944,9.71659,-1.32924,-1.40244,-0.945122,-4.2378,-9.87706,-0.459844,-1.51365,2.34756,5.64024,5.18293
1078.65,2.83639,-2.8279,0,1.03465,9.64953,-1.37714,-2.68293,-0.182927,-4.96951,-9.87467,-0.443079,-1.51126,2.22561,4.72561,4.78659
1078.66,2.84502,-3.07144,0,0.962798,9.65672,-1.24541,-2.68293,-0.457317,-5.03049,-9.88185,-0.493374,-1.52802,1.67683,4.05488,4.48171
1078.67,2.84729,-3.32228,0,0.946033,9.63516,-1.22146,-1.98171,-0.792683,-5.45732,-9.86269,-0.514929,-1.5879,1.79878,3.71951,3.9939
1078.68,2.84449,-3.55956,0,0.917292,9.63995,-1.16637,-1.18902,-0.579268,-5.60976,-9.86269,-0.505349,-1.56634,1.09756,3.53659,3.87195
1078.69,2.83575,-3.79616,0,0.886157,9.65193,-1.27894,-0.670732,-0.243902,-5.82317,-9.80281,-0.517324,-1.55197,0.243902,2.89634,4.05488
1078.7,2.83299,-4.02627,0,0.919688,9.68067,-1.27894,-0.884146,-0.823171,-5.60976,-9.8124,-0.447869,-1.52084,0,2.40854,4.20732
1078.71,2.82809,-4.27456,0,0.893342,9.65432,-1.32684,-1.52439,-0.518293,-5.54878,-9.82916,-0.498164,-1.59987,-0.426829,2.13415,4.48171
1078.72,2.83359,-4.53668,0,0.991538,9.68546,-1.27176,-2.07317,-0.365854,-5.64024,-9.88185,-0.536484,-1.58311,-0.396341,1.46341,4.54268
1078.73,2.84382,-4.8136,0,0.998723,9.66869,-1.23104,-2.28659,-0.121951,-5.27439,-9.9082,-0.5772,-1.55916,-0.548781,0.97561,4.60366
1078.74,2.85913,-5.1261,0,1.00591,9.65193,-1.19511,-2.34756,-0.0914634,-4.87805,-9.93694,-0.60594,-1.5376,-0.518293,-0.426829,4.17683
1078.75,2.87428,-5.33862,0,0.986748,9.69264,-1.21427,-2.62195,-0.792683,-4.60366,-9.97526,-0.57241,-1.54,-0.701219,-1.12805,3.71951
1078.76,2.88036,-5.52179,0,0.950823,9.7118,-1.21667,-2.65244,-0.884146,-5,-10.004,-0.598755,-1.60227,-1.37195,-1.79878,3.56707
1078.77,2.88695,-5.6804,0,0.946033,9.63995,-1.24302,-2.53049,0.121951,-4.96951,-9.99442,-0.58678,-1.62143,-1.4939,-2.77439,3.65854
1078.78,2.89363,-5.8294,0,0.926873,9.64714,-1.28852,-2.59146,0,-4.72561,-9.92257,-0.589175,-1.62143,-1.89024,-3.41463,3.87195
1078.79,2.89585,-5.97197,0,0.917292,9.64235,-1.22625,-2.46951,0.121951,-5.03049,-9.9058,-0.6251,-1.62861,-2.10366,-3.87195,4.08537
1078.8,2.90844,-6.10672,0,1.07057,9.63277,-1.32205,-2.71341,0.914634,-5.79268,-9.89622,-0.608335,-1.62382,-2.59146,-4.20732,4.29878
1078.81,2.91558,-6.22773,0,1.06818,9.58487,-1.31487,-3.14024,1.76829,-6.34146,-9.87227,-0.65384,-1.59029,-2.77439,-4.90854,4.2378
1078.82,2.92289,-6.33143,0,1.11847,9.55134,-1.29571,-2.95732,3.65854,-6.95122,-9.82197,-0.677791,-1.52802,-2.95732,-5.03049,4.2378
1078.83,2.91862,-6.45431,0,1.03704,9.5705,-1.20709,-2.68293,5.06098,-7.10366,-9.77407,-0.62989,-1.62382,-3.53659,-5.27439,4.39024
1078.84,2.90098,-6.57654,0,0.965193,9.58008,-1.22864,-2.22561,5.27439,-7.59146,-9.74773,-0.677791,-1.6358,-3.9939,-4.93902,4.42073
1078.85,2.88329,-6.69961,0,0.993933,9.62079,-1.23583,-2.68293,5.18293,-7.92683,-9.78605,-0.718506,-1.66933,-4.57317,-5.18293,4.26829
1078.86,2.85527,-6.8068,0,0.922083,9.60403,-1.24302,-2.37805,6.64634,-8.17073,-9.82916,-0.749641,-1.62861,-4.93902,-5.21341,4.35976
1078.87,2.82983,-6.89185,0,0.953218,9.69504,-1.41306,-3.04878,7.59146,-8.23171,-9.87706,-0.797541,-1.55916,-6.0061,-5.64024,4.42073
1078.88,2.80502,-6.98948,0,1.00591,9.69983,-1.35558,-3.81098,7.77439,-8.84146,-9.84353,-0.847837,-1.62622,-6.64634,-6.28049,4.02439
1078.89,2.77645,-7.08424,0,0.955613,9.68785,-1.34121,-4.32927,8.78049,-8.68902,-9.80042,-0.866997,-1.62382,-6.89024,-6.43293,4.02439
1078.9,2.73684,-7.17608,0,0.876577,9.62798,-1.28373,-4.20732,8.81098,-8.9939,-9.74294,-0.902922,-1.61903,-7.04268,-7.07317,4.42073
1078.91,2.69195,-7.25304,0,0.821492,9.67348,-1.37953,-5.09146,7.2561,-8.90244,-9.70941,-0.934058,-1.56395,-7.2561,-6.95122,4.45122
1078.92,2.64095,-7.33123,0,0.725691,9.63037,-1.38911,-5.4878,5.36585,-8.5061,-9.67588,-1.02267,-1.57592,-7.92683,-6.18902,4.45122
1078.93,2.5912,-7.37726,0,0.730481,9.63516,-1.55197,-5.64024,4.14634,-8.53659,-9.74054,-1.02507,-1.45857,-8.5061,-5.82317,4.60366
1078.94,2.56159,-7.40382,0,0.874182,9.65672,-1.69807,-5.85366,3.87195,-8.29268,-9.77407,-1.05381,-1.38672,-9.42073,-6.03659,4.54268
1078.95,2.53955,-7.44888,0,0.938848,9.65911,-1.70286,-5.82317,5.18293,-8.35366,-9.83395,-0.986748,-1.48252,-10.3963,-6.76829,4.60366
1078.96,2.52388,-7.5217,0,1.04183,9.64953,-1.5855,-5.79268,4.93902,-8.9939,-9.83395,-0.986748,-1.61424,-10.6098,-7.31707,4.35976
1078.97,2.50479,-7.60438,0,1.01788,9.67588,-1.65975,-6.25,6.79878,-9.05488,-9.87946,-1.01549,-1.67891,-11.372,-7.46951,4.5122
1078.98,2.46588,-7.69699,0,0.826282,9.59684,-1.49689,-6.40244,6.85976,-8.90244,-9.82916,-0.989143,-1.7292,-11.6768,-7.43902,4.42073
1078.99,2.40148,-7.81287,0,0.58678,9.66869,-1.41785,-7.0122,5.70122,-8.62805,-9.81719,-1.18074,-1.84656,-12.4085,-6.85976,4.39024
1079,2.33432,-7.92615,0,0.593965,9.76689,-1.42264,-7.71341,3.87195,-9.05488,-9.8124,-1.27176,-1.85375,-12.8963,-6.43293,3.71951
1079.01,2.27336,-8.0209,0,0.665815,9.79803,-1.47294,-8.41463,1.98171,-9.39024,-9.77168,-1.29092,-1.78429,-13.3537,-6.79878,3.71951
1079.02,2.22603,-8.11475,0,0.792751,9.73096,-1.41306,-8.9939,0.335366,-9.69512,-9.74054,-1.23583,-1.79147,-13.6585,-6.92073,3.68902
1079.03,2.19285,-8.20072,0,0.912502,9.69504,-1.43941,-9.32927,-0.762195,-9.81707,-9.68785,-1.22146,-1.76273,-13.5061,-6.52439,4.42073
1079.04,2.17736,-8.27582,0,1.05141,9.68067,-1.50647,-10,-1.43293,-9.7561,-9.67827,-1.23344,-1.7292,-13.689,-7.16463,4.60366
1079.05,2.18718,-8.34562,0,1.22625,9.69504,-1.4921,-10.5488,-1.03659,-9.26829,-9.70462,-1.27655,-1.72441,-13.2622,-7.77439,4.60366
1079.06,2.22169,-8.41421,0,1.35798,9.69504,-1.48731,-11.1585,-0.0609756,-8.29268,-9.65432,-1.27655,-1.72202,-13.1402,-7.56098,4.5122
1079.07,2.28986,-8.46285,0,1.56155,9.6663,-1.54239,-12.0427,0.853659,-7.2561,-9.64714,-1.23344,-1.64538,-13.2012,-7.62195,4.45122
1079.08,2.39806,-8.49268,0,1.78189,9.60642,-1.58071,-12.7134,1.40244,-5.82317,-9.62798,-1.1999,-1.56874,-13.2317,-7.80488,4.90854
1079.09,2.56583,-8.52511,0,2.04056,9.5226,-1.43941,-12.8659,1.64634,-3.65854,-9.62798,-1.19032,-1.5855,-13.3537,-8.10976,4.87805
1079.1,2.939,-8.54575,0,2.31598,9.46751,-1.32445,-11.8902,2.80488,-1.0061,-9.59924,-1.14961,-1.53521,-13.4756,-8.14024,5.27439
1079.11,3.24503,-8.5619,0,2.55788,9.35495,-1.24302,-10.6402,2.65244,2.77439,-9.60642,-1.12326,-1.52084,-13.7805,-8.62805,5.67073
1079.12,3.60503,-8.56784,0,2.80936,9.21603,-1.15919,-9.35976,1.15854,8.75,-9.54894,-1.08015,-1.47054,-13.9329,-8.68902,6.09756
1079.13,4.04174,-8.55925,0,3.01772,9.25436,-1.13524,-8.44512,1.58537,15.061,-9.60642,-1.02267,-1.41785,-14.0854,-9.05488,6.34146
1079.14,4.57303,-8.53344,0,3.25483,9.21843,-0.943638,-9.11585,2.77439,22.7744,-9.76689,-1.08973,-1.36516,-14.0549,-10,6.52439
1079.15,5.20979,-8.50444,0,3.47996,9.00527,-0.778381,-9.5122,3.53659,31.189,-9.81,-1.09213,-1.35319,-13.2927,-10.6402,6.28049
1079.16,5.96062,-8.4687,0,3.76497,8.8496,-0.565225,-8.78049,5.12195,40.2134,-9.79563,-1.06099,-1.31726,-12.5915,-11.4939,6.18902
1079.17,6.82046,-8.41082,0,3.97573,8.66518,-0.373623,-8.78049,7.92683,49.6037,-9.69743,-0.989143,-1.2023,-11.372,-12.2256,6.40244
1079.18,7.79754,-8.33024,0,4.21523,8.43286,-0.246687,-8.75,10.5488,59.4207,-9.54655,-0.888552,-1.07776,-10.2134,-13.1402,7.22561
1079.19,8.8933,-8.21302,0,4.45713,8.23647,-0.177231,-8.65854,11.128,69.7256,-9.40764,-0.752036,-0.895737,-9.39024,-13.9329,7.92683
1079.2,10.0926,-8.11189,0,4.6655,8.07601,-0.514929,-10.4573,15.5183,79.2683,-9.21364,-0.57241,-0.924478,-8.38415,-14.2073,8.07927
1079.21,11.3326,-8.015,0,4.57449,7.99218,-0.244292,-7.56098,16.0366,86.3415,-9.0867,-0.414338,-0.912502,-7.65244,-14.0549,8.41463
1079.22,12.5804,-7.92635,0,4.52659,8.35143,-0.608335,-4.29878,26.0976,92.3781,-8.98611,-0.182021,-0.919688,-7.0122,-13.5671,7.65244
1079.23,13.7341,-7.86158,0,3.96615,8.44723,-0.256267,-5.12195,20.3963,92.0732,-8.96935,0.0239502,-0.998723,-7.04268,-12.7134,6.58537
1079.24,14.8973,-7.84382,0,4.75411,9.69504,-1.26697,-1.40244,41.9207,93.4146,-9.1346,0.114961,-1.19751,-6.79878,-11.2195,5.06098
1079.25,15.9272,-7.85097,0,4.30864,11.1177,-1.60466,0.396341,33.5671,92.2561,-9.43877,0.112566,-1.33882,-7.31707,-9.84756,3.90244
1079.26,16.8427,-7.87328,0,3.9446,12.0086,-1.40827,2.40854,33.2317,88.811,-9.96807,-0.00239502,-1.48252,-7.22561,-9.11585,2.40854
1079.27,17.6985,-7.90324,0,3.9901,12.3583,-1.70525,2.92683,33.9329,85.1829,-10.471,-0.0862207,-1.59748,-7.16463,-8.96341,0.884146
1079.28,18.5183,-7.92327,0,3.84401,12.0901,-1.70286,2.10366,28.5976,83.7805,-10.8423,-0.158071,-1.61185,-6.95122,-9.48171,1.0061
1079.29,19.3857,-7.95184,0,4.21284,11.3548,-1.62622,2.77439,23.4146,84.7561,-11.0267,-0.182021,-1.68609,-7.19512,-9.90854,2.68293
1079.3,20.3345,-7.98233,0,4.95051,10.8303,-1.83458,7.07317,26.8902,86.25,-11.0195,-0.201182,-1.70046,-7.68293,-10.2134,5.54878
1079.31,21.3487,-8.0543,0,5.51813,10.5213,-1.88728,13.5061,34.0244,88.5061,-10.9261,-0.203577,-1.89686,-8.23171,-9.93902,9.02439
1079.32,22.357,-8.15954,0,5.61393,10.4567,-1.70046,19.3293,42.1646,88.8415,-10.6267,-0.124541,-2.019,-8.5061,-9.26829,12.4085
1079.33,23.1415,-8.29501,0,2.13157,10.119,0.0670605,33.4756,40.5488,101.402,-10.2722,0.0407153,-2.11241,-8.75,-8.2622,15.6707
1079.34,24.1683,-8.45498,0,5.75763,10.9357,-2.33993,27.8659,86.0671,95.3354,-10.0735,0.275427,-2.20821,-9.57317,-6.92073,17.439
1079.35,24.8998,-8.62685,0,2.63931,10.9357,-0.565225,23.2012,80.8841,96.2805,-9.87227,0.409548,-2.24653,-10.1524,-6.64634,17.9878
1079.36,25.6041,-8.77996,0,3.16382,10.8423,-0.651445,20.4268,90.061,89.4817,-9.86988,0.385598,-2.19144,-10.8841,-6.61585,17.7134
1079.37,26.2352,-8.9177,0,3.83443,10.6004,-0.356858,17.7134,80.7317,76.0671,-9.93933,0.296982,-2.1627,-10.8841,-5.97561,16.5549
1079.38,26.7319,-9.03793,0,4.0859,10.6219,-0.316143,13.2012,76.1281,61.2805,-9.98244,0.167651,-2.1172,-11.0671,-6.06707,15.8841
1079.39,27.0333,-9.14936,0,2.52675,10.1549,0.239502,11.5244,70.0305,56.7988,-9.99921,0.0862207,-2.10043,-11.189,-5.45732,15.9451
1079.4,27.1884,-9.22061,0,1.16158,9.44117,1.79147,14.7256,52.3171,56.6768,-9.98005,0.0550855,-1.93278,-11.4939,-5.18293,16.2195
1079.41,27.3721,-9.26449,0,1.55916,9.19927,1.3963,22.6524,49.878,54.6037,-9.96568,0.0191602,-1.82021,-11.5854,-5.64024,17.5305
1079.42,27.5752,-9.30705,0,1.95194,9.09149,1.152,25.6707,39.5427,51.8598,-9.93933,0.0359253,-1.81782,-10.9756,-5.91463,18.4451
1079.43,27.8472,-9.35009,0,2.60099,8.90229,0.524509,28.4146,44.0854,50.7927,-9.89622,-0.0287402,-1.82021,-9.96951,-6.31098,19.1768
1079.44,28.1525,-9.40526,0,2.98659,8.93103,0.0263452,27.0732,48.7195,50.2439,-9.79323,-0.0598755,-1.86333,-8.65854,-6.58537,19.4207
1079.45,28.4929,-9.44666,0,3.50391,8.9933,-0.0838257,24.4817,56.2195,48.75,-9.65672,-0.0455054,-1.78668,-7.80488,-6.82927,18.6585
1079.46,28.8429,-9.47274,0,3.80808,9.04359,0.0502954,20.6402,60.3659,47.2561,-9.50823,0.00718506,-1.70046,-6.76829,-7.16463,17.9573
1079.47,29.1395,-9.49174,0,3.559,9.01246,0.407153,16.2195,59.1768,45.1524,-9.39327,0.148491,-1.65496,-5.82317,-8.07927,16.7378
1079.48,29.3995,-9.48911,0,3.37937,8.72745,0.57241,12.4085,56.9817,42.8049,-9.39087,0.196392,-1.56634,-5.70122,-8.93293,15.7622
1079.49,29.6109,-9.47858,0,3.16622,8.42568,0.704136,9.39024,52.1646,39.5427,-9.34537,0.232317,-1.52563,-5.18293,-9.81707,14.5427
1079.5,29.7785,-9.45988,0,2.97461,8.19815,0.819097,7.43902,45.2744,36.8293,-9.36213,0.273032,-1.4921,-5.82317,-9.87805,12.9878
1079.51,29.9057,-9.42547,0,2.82133,7.96823,0.740061,5.67073,39.4512,33.9634,-9.26873,0.332908,-1.40827,-6.0061,-9.72561,12.7439
1079.52,29.967,-9.41944,0,2.53154,7.96823,0.684976,4.84756,29.7561,31.311,-9.2831,0.316143,-1.52323,-6.40244,-9.14634,12.4085
1079.53,30.0167,-9.40959,0,2.58662,7.72394,0.538879,4.96951,21.372,28.4451,-9.34776,0.285007,-1.51605,-7.5,-8.35366,12.5915
1079.54,30.0816,-9.40394,0,2.8381,7.43414,0.608335,7.34756,12.1037,25.2439,-9.44117,0.265847,-1.54718,-7.59146,-7.9878,12.1951
1079.55,30.1665,-9.41012,0,3.15185,7.34552,0.677791,10.4573,5.79268,22.6524,-9.53457,0.282612,-1.61185,-7.95732,-7.22561,11.7683
1079.56,30.2969,-9.43415,0,3.77934,7.36708,0.479004,11.7073,4.42073,19.4512,-9.62319,0.349673,-1.70525,-8.71951,-6.70732,11.6768
1079.57,30.4653,-9.46316,0,4.45713,7.3599,0.294587,12.6524,6.03659,15.3354,-9.66869,0.438289,-1.73878,-9.66463,-6.25,11.4634
1079.58,30.6068,-9.50232,0,4.79243,7.48204,0.0359253,11.8293,8.44512,10,-9.72617,0.565225,-1.79866,-10.6707,-5.97561,10.9756
1079.59,30.6969,-9.55135,0,4.78525,7.46288,-0.117356,11.8598,14.7561,4.81707,-9.76449,0.61552,-1.85614,-12.1341,-5.82317,10.8841
1079.6,30.8332,-9.61412,0,4.6655,7.51318,0.0694556,11.7073,19.7561,0.0609756,-9.77886,0.61073,-1.92799,-13.8415,-5.51829,10.5183
1079.61,30.7813,-9.68333,0,4.43079,7.52755,0.304167,11.9207,20.8841,-4.54268,-9.78605,0.665815,-1.96871,-15.7927,-5.33537,10
1079.62,30.6498,-9.77928,0,4.33499,7.73352,0.258662,12.0732,20.2744,-10.3354,-9.75731,0.716111,-2.09325,-17.1646,-5.12195,9.96951
1079.63,30.451,-9.85509,0,4.28469,7.89877,0.409548,9.81707,16.8293,-15.8537,-9.79084,0.723296,-2.02619,-18.4451,-4.78659,9.84756
1079.64,30.2039,-9.92285,0,4.13141,7.73112,0.538879,9.02439,11.7073,-20.4573,-9.74533,0.775986,-1.99505,-20.0305,-4.90854,9.69512
1079.65,29.9231,-10.0116,0,4.06195,7.36947,0.313748,9.02439,6.28049,-25.9146,-9.72857,0.843047,-2.09804,-21.7073,-5.18293,9.60366
1079.66,29.6346,-10.1129,0,4.23918,7.08686,0.371228,9.32927,3.23171,-31.4024,-9.70701,0.919688,-2.1627,-22.8659,-4.87805,9.5122
1079.67,29.3878,-10.2254,0,4.35894,6.53361,0.435894,15.5183,-1.67683,-33.5061,-9.6663,0.991538,-2.22258,-24.0244,-5.06098,9.42073
1079.68,29.2352,-10.3019,0,4.73974,5.97318,0.457449,24.3598,-12.0122,-34.0244,-9.62079,1.09931,-2.07648,-24.878,-6.0061,9.2378
1079.69,29.1763,-10.3579,0,5.41514,5.71212,0.220342,32.8659,-25.7012,-35.061,-9.54415,1.16877,-1.98547,-24.9695,-7.71341,8.84146
1079.7,29.1311,-10.388,0,6.03066,5.81032,-0.0167651,41.7683,-41.5549,-39.0854,-9.45793,1.15919,-1.86572,-25.1829,-8.44512,8.23171
1079.71,29.1124,-10.3861,0,6.26058,5.85582,-0.512534,48.0488,-46.25,-38.2012,-9.35734,1.09931,-1.71483,-25.9451,-8.9939,7.65244
1079.72,29.0924,-10.4018,0,6.09772,5.97318,-0.325723,53.5366,-51.6159,-35.6707,-9.27831,1.01788,-1.77471,-27.1341,-9.11585,6.40244
1079.73,29.0402,-10.4512,0,6.03784,6.43302,-0.119751,56.128,-52.8354,-34.0854,-9.21843,0.986748,-1.90644,-29.3293,-7.59146,5.33537
1079.74,28.9954,-10.5013,0,6.29411,6.91203,-0.335303,57.439,-52.0732,-31.6768,-9.25436,1.06578,-1.9232,-32.3476,-6.09756,3.93293
1079.75,29.0067,-10.5964,0,6.98388,7.46049,-0.692161,53.8415,-49.4817,-27.6524,-9.35734,1.22864,-2.13636,-34.7866,-4.42073,3.07927
1079.76,29.1079,-10.7723,0,7.78381,7.7431,-0.780776,46.9512,-41.9207,-22.622,-9.46751,1.34121,-2.46927,-36.4329,-2.83537,2.31707
1079.77,29.3164,-11.0103,0,8.40891,7.41259,-0.732876,42.2561,-32.561,-18.5061,-9.67827,1.49928,-2.59381,-38.6585,-1.21951,1.92073
1079.78,29.5577,-11.2821,0,8.43765,7.0198,-0.962798,40.7927,-24.2073,-18.0793,-9.80281,1.55916,-2.53633,-40.5793,-0.27439,1.40244
1079.79,29.7177,-11.3119,0,8.27719,7.36708,-1.19032,43.4451,-15.5183,-21.9817,-10.1094,1.45857,-2.12917,-42.2866,-1.46341,0.487805
1079.8,29.5796,-11.2135,0,7.791,9.85311,-1.73399,44.2683,-7.16463,-31.6768,-10.7081,1.07057,-1.66933,-40.061,-6.0061,-0.213415
1079.81,29.0774,-11.0172,0,7.12039,13.5893,-1.67412,38.4451,6.85976,-47.3171,-11.6637,0.253872,-1.29331,-33.1402,-14.3902,-0.884146
1079.82,28.419,-10.7868,0,7.2593,16.9998,-0.423918,25.4268,13.7805,-55.0305,-13.0026,-1.04423,-1.20948,-21.8293,-22.8963,-0.945122
1079.83,28.0173,-10.6696,0,9.35495,17.292,0.730481,3.96341,26.4634,-40.9756,-13.9342,-2.52914,-1.94476,-9.14634,-24.2073,-0.640244
1079.84,28.1841,-10.5642,0,13.0409,14.7581,-0.00958008,3.84146,49.7561,-10.4268,-14.6695,-4.06674,-2.09325,1.95122,-22.8354,-0.640244
1079.85,28.7558,-10.5232,0,14.0157,12.0948,-2.23695,16.8902,92.0732,15.4268,-13.9366,-4.92177,-2.36388,15.5183,-19.7561,-1.25
1079.86,29.3126,-10.4451,0,9.75491,10.5477,-3.1758,16.8293,127.591,28.2317,-11.6685,-3.5087,-1.77231,21.9512,-17.0427,2.89634
1079.87,29.3075,-10.3432,0,2.36867,9.16334,-2.36628,1.55488,126.22,29.7256,-9.53697,-1.83458,-1.32924,26.6768,-12.7134,10.9146
1079.88,28.4258,-10.1035,0,-3.66677,7.55868,-0.960403,-6.03659,95.6098,22.6524,-8.39454,-0.237107,-0.637075,24.2073,-9.02439,18.6585
1079.89,26.9168,-9.77527,0,-7.68083,6.22705,0.213157,0.426829,34.9085,8.14024,-8.42328,1.13524,-0.296982,19.4817,-5.82317,23.1098
1079.9,25.0725,-9.5092,0,-8.86157,5.17564,0.876577,15.2744,-42.5915,-11.4024,-7.8389,0.162861,-0.490979,11.6159,-5.15244,27.1646
1079.91,23.2254,-8.91137,0,-6.48571,5.25228,-0.0981958,27.6524,-121.037,-33.2317,-10.4183,3.09197,1.0083,5.85366,-5.7622,26.3415
1079.92,22.0897,-8.41401,0,-0.981958,6.55517,-3.27878,31.5549,-161.067,-51.0976,-10.9764,2.89797,0.682581,-0.426829,-4.32927,23.5061
1079.93,21.5166,-7.90956,0,3.59732,8.53106,-6.5408,30.6098,-155.945,-60.061,-12.1308,2.98419,0.910107,-5.73171,-5.54878,16.9817
1079.94,21.1591,-7.35653,0,7.6952,12.0493,-7.83171,27.5,-108.384,-59.0244,-12.5882,2.28964,1.32684,-8.29268,-7.77439,8.68902
1079.95,20.9386,-6.74164,0,9.67588,14.327,-6.52643,17.7744,-33.2622,-48.7805,-11.9703,0.993933,1.71004,-11.189,-8.04878,2.34756
1079.96,20.7575,-6.05863,0,7.24014,11.9607,-2.77822,10.122,18.1402,-39.3902,-11.259,0.0167651,2.07888,-12.9878,-8.84146,-1.25
1079.97,20.3962,-5.50751,0,3.71228,9.68306,-1.10889,10.7622,34.1463,-37.3171,-10.3489,-1.63819,1.42025,-13.3232,-7.40854,-4.02439
1079.98,19.7422,-4.89006,0,0.962798,8.58136,-1.00112,13.4146,33.2317,-38.1707,-9.54415,-2.019,1.68609,-13.3537,-6.76829,-5.2439
1079.99,18.9586,-4.30553,0,0.155676,7.98979,-1.35319,16.4329,16.9817,-41.9512,-8.87594,-2.27048,1.49689,-12.378,-5.18293,-4.17683
1080,18.2416,-3.71548,0,0.828677,7.91075,-2.34951,19.2073,6.79878,-46.6768,-8.39694,-2.03098,1.46575,-10.9756,-4.78659,-1.34146
1080.01,17.6017,-3.16395,0,1.63819,8.42807,-3.3171,20.5183,1.64634,-50.5183,-8.19336,-1.71004,1.40109,-8.93293,-5.33537,2.56098
1080.02,16.9636,-2.67435,0,1.78908,8.78493,-3.58295,20.061,3.65854,-52.6829,-8.38496,-1.31726,1.31966,-6.40244,-5.88415,7.07317
1080.03,16.2823,-2.25269,0,1.50886,9.08431,-3.84161,19.6646,10.1829,-54.1463,-8.87834,-1.11608,1.21906,-4.14634,-5.88415,9.54268
1080.04,15.5413,-1.9234,0,0.929268,9.29747,-3.4608,18.7805,10.2744,-54.0244,-9.35255,-1.17356,0.917292,-1.21951,-3.90244,10.0915
1080.05,14.7984,-1.66112,0,0.670605,9.40764,-3.01533,18.1402,5.09146,-52.4085,-9.96328,-1.06339,0.701741,1.79878,-2.65244,8.44512
1080.06,14.0764,-1.4442,0,0.447869,9.42919,-2.65368,16.311,-6.52439,-49.0244,-10.3369,-1.1544,0.464634,5.2439,-1.31098,5.4878
1080.07,13.4089,-1.19108,0,0.464634,9.40764,-2.49082,14.3293,-19.0244,-45.1524,-10.4854,-1.08494,0.435894,8.20122,-0.335366,1.61585
1080.08,12.7919,-1.14311,0,0.483794,9.35255,-2.39502,11.7378,-31.7988,-41.6463,-10.3513,-1.05381,-0.00958008,11.0366,2.65244,-2.07317
1080.09,12.2313,-1.13111,0,0.684976,9.26394,-2.5004,8.9939,-42.1037,-39.7256,-10.198,-1.09692,-0.148491,14.2073,3.47561,-5.27439
1080.1,11.7209,-1.13604,0,0.890947,9.14658,-2.63452,7.13415,-50.4878,-38.4756,-9.92257,-1.11608,-0.213157,16.4939,4.69512,-7.5
1080.11,11.2406,-1.15803,0,1.02028,9.2304,-2.91713,5.45732,-55,-37.9573,-9.67588,-1.08255,-0.280217,18.3537,5.91463,-8.41463
1080.12,10.7969,-1.17271,0,1.34361,9.29747,-3.05365,4.63415,-58.811,-39.1159,-9.55373,-1.08734,-0.249082,19.939,6.98171,-8.10976
1080.13,10.3764,-1.16481,0,1.6334,9.30705,-2.95785,3.78049,-64.2073,-41.189,-9.51302,-1.07297,-0.155676,20.6707,7.28659,-7.22561
1080.14,10.0317,-1.15828,0,2.34233,9.19209,-3.28597,2.53049,-63.0183,-43.1707,-9.51302,-1.02267,-0.160466,21.1585,6.85976,-6.0061
1080.15,9.71749,-1.15858,0,2.5986,9.00288,-3.3674,2.7439,-59.0549,-44.4512,-9.56092,-0.926873,-0.189207,21.372,6.4939,-4.32927
1080.16,9.42435,-1.16753,0,2.86444,8.90708,-3.40572,2.92683,-51.7988,-46.4634,-9.53457,-0.744851,-0.225132,20.9146,6.18902,-2.65244
1080.17,9.079,-1.1709,0,2.44292,8.8496,-3.05365,2.2561,-48.5061,-47.5,-9.52499,-0.5772,-0.203577,20.7317,5.51829,-1.61585
1080.18,8.6781,-1.18283,0,1.88967,8.98611,-2.8357,2.2561,-42.8049,-46.6159,-9.51302,-0.488584,-0.239502,20.3963,5.06098,-1.18902
1080.19,8.29088,-1.24102,0,1.88488,9.03401,-2.92911,0.853659,-42.439,-45.8537,-9.49625,-0.510139,-0.431104,20.8841,4.87805,-1.31098
1080.2,7.93253,-1.30993,0,1.92799,8.8951,-2.90755,-0.914634,-38.5061,-44.6037,-9.51541,-0.502954,-0.486189,21.6159,4.93902,-1.95122
1080.21,7.60244,-1.40225,0,1.99984,8.83044,-2.96264,-1.95122,-37.7439,-43.5366,-9.43159,-0.524509,-0.58678,23.2622,4.69512,-2.92683
1080.22,7.23915,-1.4875,0,1.67412,8.95258,-2.96264,-1.09756,-37.4085,-43.1707,-9.3286,-0.55804,-0.565225,24.4207,4.60366,-3.41463
1080.23,6.89863,-1.58566,0,1.78189,9.02204,-3.0297,-1.37195,-37.3476,-42.7744,-9.25915,-0.64426,-0.622705,25.6098,4.39024,-3.87195
1080.24,6.63075,-1.68206,0,2.22737,8.95258,-3.03928,-0.823171,-34.3598,-41.7683,-9.22322,-0.744851,-0.632285,26.6463,4.66463,-4.35976
1080.25,6.27463,-1.81406,0,1.30289,9.10826,-2.62015,-0.792683,-44.0244,-39.4207,-9.16574,-0.840652,-0.792751,27.1951,5.54878,-3.96341
1080.26,5.93283,-1.96802,0,1.36277,9.26633,-2.86684,-1.4939,-42.1037,-39.1463,-9.08191,-0.900527,-0.898132,28.8415,6.4939,-4.26829
1080.27,5.61569,-2.13907,0,1.48012,9.38848,-2.46927,-2.40854,-47.439,-38.5366,-9.00527,-0.857417,-0.984353,30.7012,7.10366,-3.62805
1080.28,5.32391,-2.33149,0,1.6334,9.30705,-2.54351,-3.35366,-42.6829,-38.628,-8.99569,-0.843047,-1.09692,32.2256,8.35366,-2.59146
1080.29,4.99588,-2.53271,0,1.28373,9.29268,-2.46927,-3.81098,-46.6768,-38.6585,-8.98611,-0.893342,-1.16158,33.689,9.11585,-0.945122
1080.3,4.72886,-2.7245,0,1.73878,9.34297,-2.56507,-4.90854,-41.3415,-38.5671,-8.95977,-0.852627,-1.152,35.3049,9.66463,0.243902
1080.31,4.49187,-2.91503,0,1.84896,9.12981,-2.6441,-5.36585,-39.3902,-37.8963,-8.8951,-1.01309,-1.16877,36.6768,9.96951,1.25
1080.32,4.25648,-3.15366,0,1.75076,9.00048,-2.56986,-4.93902,-36.4329,-37.3171,-8.88313,-0.989143,-1.38911,38.872,10.7012,2.10366
1080.33,4.06982,-3.37949,0,2.12199,9.01964,-2.77583,-5,-30.7012,-37.378,-8.81846,-0.816702,-1.36516,39.8171,11.311,2.9878
1080.34,3.87834,-3.61099,0,2.08606,8.90468,-2.71116,-5.06098,-28.9634,-38.1402,-8.82804,-0.732876,-1.42504,40.0915,11.189,4.08537
1080.35,3.66758,-3.87869,0,1.95673,8.77775,-2.61297,-4.02439,-24.4512,-39.2378,-8.80409,-0.646655,-1.60227,40.5793,11.372,5.33537
1080.36,3.42031,-4.15596,0,1.66693,8.7514,-2.53872,-3.71951,-20.9756,-39.7561,-8.77056,-0.632285,-1.67651,41.9817,11.8598,6.21951
1080.37,3.14943,-4.44139,0,1.50647,8.85439,-2.47645,-2.95732,-19.2378,-40.3659,-8.74901,-0.550855,-1.74836,42.9573,12.6524,6.79878
1080.38,2.86596,-4.74485,0,1.38193,8.83523,-2.42376,-3.10976,-18.3841,-40.6402,-8.68195,-0.55325,-1.85135,43.1402,13.5671,7.46951
1080.39,2.54647,-5.0506,0,1.11847,8.86157,-2.33514,-2.59146,-18.6585,-41.4329,-8.63165,-0.502954,-1.89686,43.628,14.4817,8.65854
1080.4,2.19623,-5.32732,0,0.919688,9.00767,-2.37586,-2.5,-22.0732,-42.439,-8.64363,-0.55325,-1.83219,43.3537,14.2378,9.08537
1080.41,1.85993,-5.52314,0,1.13763,9.11065,-2.63931,-2.95732,-20.8841,-44.3598,-8.63405,-0.488584,-1.55437,42.5915,13.4756,10.0305
1080.42,1.52344,-5.60637,0,1.13045,9.29268,-2.56507,-1.79878,-22.6524,-44.6951,-8.63644,-0.397573,-1.14721,40.3659,11.7988,11.4634
1080.43,1.21016,-5.68229,0,1.35079,9.43398,-2.5962,-0.335366,-21.6768,-45.4878,-8.64123,-0.457449,-1.13284,37.622,11.0366,12.4085
1080.44,0.901131,-5.86031,0,1.50647,9.28789,-2.69679,1.67683,-20.7927,-47.8659,-8.61968,-0.483794,-1.5376,35.6402,12.8049,12.9268
1080.45,0.593098,-6.09074,0,1.5879,9.01964,-2.70637,3.32317,-22.1951,-49.9695,-8.76338,-0.560435,-1.79866,33.811,16.2805,12.7439
1080.46,0.266435,-6.32828,0,1.43941,8.77775,-2.87163,4.08537,-28.7805,-51.128,-9.00767,-0.536484,-1.91362,32.1951,19.2683,12.5
1080.47,0.000494866,-6.54409,0,1.79387,8.78254,-2.86684,3.65854,-34.4512,-50.1524,-9.39566,-0.433499,-1.94236,31.4329,19.7866,12.9268
1080.48,-0.193105,-6.76335,0,2.05253,8.71548,-2.89318,1.70732,-38.7805,-46.7988,-9.84832,-0.464634,-2.09085,31.5854,19.1159,13.5671
1080.49,-0.32093,-6.96651,0,2.18186,8.81846,-2.7902,-0.518293,-41.0061,-41.7988,-10.3034,-0.529299,-2.15312,31.9207,18.2622,14.2073
1080.5,-0.374465,-7.09266,0,2.23455,8.84241,-2.57704,-3.23171,-42.9268,-35.061,-10.7872,-0.735271,-1.91602,31.4939,16.189,14.2378
1080.51,-0.444938,-7.0849,0,1.60706,8.88792,-2.22976,-4.39024,-49.2073,-28.872,-11.3668,-0.859812,-1.36277,31.0061,12.1646,14.1159
1080.52,-0.378706,-6.88232,0,2.33514,9.1346,-3.20693,-4.63415,-43.0793,-23.4146,-12.0589,-0.883762,-0.409548,29.6341,5.60976,13.3841
1080.53,-0.209366,-6.369,0,2.81175,9.40285,-3.63085,-4.66463,-42.4695,-17.4695,-13.2564,-0.423918,1.40348,25.4878,-3.71951,11.9207
1080.54,0.0281901,-5.87543,0,3.03688,9.78605,-3.98052,-0.487805,-47.439,-11.372,-14.4276,0.337698,1.52563,18.2622,-11.8598,10.3659
1080.55,0.399981,-5.54439,0,4.14817,10.9548,-4.8547,2.46951,-35.7927,-4.39024,-15.0503,1.41785,0.637075,11.4939,-12.1646,8.47561
1080.56,0.837443,-5.36796,0,4.52419,11.6302,-4.83075,1.46341,-26.7073,1.58537,-14.9258,2.11959,-0.294587,4.2378,-8.41463,5.91463
1080.57,1.30981,-5.3228,0,4.30146,11.6829,-4.24637,0.823171,-21.6463,8.65854,-13.8528,1.96631,-1.02746,-2.31707,-2.10366,2.04268
1080.58,1.93046,-5.33179,0,4.83315,11.853,-3.71468,-2.43902,-17.3171,20.7317,-12.4781,0.969983,-1.20948,-4.14634,1.89024,-3.53659
1080.59,2.71025,-5.36071,0,5.26904,12.2481,-2.44292,-12.1951,-23.2317,36.0061,-11.5512,-0.361648,-1.22146,-4.7561,4.84756,-8.9939
1080.6,3.57946,-5.33775,0,4.93374,12.5882,-1.67651,-26.8293,-19.7866,50.5488,-11.5727,-1.66454,-0.962798,-2.31707,5.27439,-12.7744
1080.61,4.44609,-5.26664,0,3.49912,12.5715,-1.04662,-40.1829,-15.9451,63.9939,-12.217,-2.81894,-0.752036,1.03659,4.45122,-15.4878
1080.62,5.35576,-5.0903,0,2.70637,12.3679,-0.258662,-51.4329,-18.9024,76.7073,-12.7463,-3.52307,-0.186812,6.43293,2.07317,-16.7378
1080.63,6.3616,-4.83038,0,2.57465,12.4517,0.177231,-60.8232,-23.4146,89.7256,-12.7128,-3.38177,0.304167,11.5244,-1.55488,-15.4268
1080.64,7.46988,-4.71076,0,2.42376,12.1835,1.07297,-67.9878,-31.6768,103.11,-11.3213,-3.11113,-0.364043,15.5488,-6.12805,-10.5793
1080.65,8.62955,-4.24042,0,1.97589,11.3093,0.859812,-70.3963,-35.4573,113.354,-10.2579,-1.35798,1.28134,19.2683,-6.98171,-2.65244
1080.66,9.80447,-3.68713,0,1.36516,10.3489,-0.622705,-65.3049,-23.0793,122.165,-9.64235,-0.55804,1.64538,22.5915,-8.41463,4.54268
1080.67,10.9802,-3.06096,0,0.699346,9.97286,-0.754431,-58.628,-20.9451,131.799,-9.05796,0.220342,1.93757,22.561,-9.66463,10.2134
1080.68,12.1694,-2.25482,0,0.550855,10.289,-1.13763,-55.122,-27.8049,137.5,-9.53697,1.68609,2.95545,17.2561,-15.7622,15.3659
1080.69,13.3703,-1.71634,0,0.696951,10.768,-1.90404,-51.8293,-37.8963,139.817,-8.55501,1.1999,1.70765,16.0061,-10.7927,17.6829
1080.7,14.5459,-1.14973,0,0.905317,11.1895,-2.23455,-48.4146,-46.0366,137.805,-8.58375,1.56874,1.90883,9.02439,-10.7317,17.622
1080.71,15.6968,-0.65274,0,1.4921,11.2518,-2.48603,-43.0793,-47.4085,131.707,-8.77296,1.58071,1.76034,2.31707,-10.8232,15.8537
1080.72,16.8304,-0.231579,0,2.00703,11.0051,-2.72314,-36.6159,-45.9146,126.616,-8.87834,1.51844,1.55437,-5.15244,-10.2744,12.4695
1080.73,17.9,0.101122,0,1.85135,10.6602,-2.75906,-29.2988,-42.1951,123.384,-8.92863,1.47054,1.27415,-12.3476,-8.78049,9.08537
1080.74,18.9239,0.357361,0,1.81782,10.4111,-2.84768,-21.9817,-37.5915,120.793,-8.91905,1.34361,1.01788,-17.7439,-6.89024,6.55488
1080.75,19.8836,0.527343,0,1.50407,10.2315,-2.75188,-14.9085,-40.122,119.482,-8.98132,1.09452,0.692161,-21.6159,-4.32927,5.4878
1080.76,20.9222,0.619191,0,2.28724,10.2722,-2.47645,-8.41463,-42.5305,120.945,-9.05557,0.838257,0.330513,-23.5061,-2.13415,5.12195
1080.77,22.0439,0.538322,0,3.38895,10.0998,-2.69679,-0.27439,-29.4207,119.299,-9.16574,0.787961,0.00239502,-24.6341,-0.396341,6.58537
1080.78,23.0944,0.388753,0,3.42248,9.82437,-2.95066,6.82927,3.14024,112.988,-9.1825,1.02507,-0.162861,-25.6707,0.884146,10.1829
1080.79,24.059,0.346812,0,3.17819,9.55613,-2.67045,14.9695,39.1768,108.018,-9.40524,0.843047,-0.0311353,-26.7073,1.25,13.5366
1080.8,24.9408,0.256515,0,3.10634,9.49386,-2.78541,23.2317,67.4695,102.104,-9.42201,0.608335,-0.256267,-27.4085,2.71341,15.3659
1080.81,25.7278,0.175709,0,2.90037,9.67109,-3.04167,28.8415,88.3537,97.1341,-9.37411,0.411943,-0.270637,-28.9329,3.96341,16.311
1080.82,26.4068,0.105557,0,2.50759,9.5202,-2.87402,32.1646,98.0488,91.6768,-9.33339,0.265847,-0.246687,-30.6707,4.5122,15.3049
1080.83,26.979,0.0436833,0,2.07648,9.48428,-2.8357,34.5122,103.049,87.0732,-9.26873,0.160466,-0.225132,-32.3476,4.81707,14.0549
1080.84,27.4329,-0.0269754,0,1.59029,9.51302,-2.56028,35.2134,103.689,82.0122,-9.19927,0.148491,-0.265847,-34.7866,4.60366,12.7439
1080.85,27.8715,-0.0708375,0,1.79147,9.0412,-2.45969,36.128,106.372,77.8659,-9.09868,0.191602,-0.165256,-36.6463,4.02439,11.7073
1080.86,28.2223,-0.139312,0,1.49928,8.76577,-2.3064,37.5,99.4207,72.8659,-9.01006,0.304167,-0.258662,-38.5366,3.93293,11.5244
1080.87,28.4939,-0.215201,0,1.26936,8.47358,-2.14354,38.2927,94.7561,67.9268,-9.01485,0.421523,-0.296982,-40.7317,3.93293,11.4329
1080.88,28.7117,-0.29912,0,1.27655,8.51908,-1.99984,37.9878,94.6646,62.9878,-9.12263,0.519719,-0.340093,-42.9268,3.71951,11.7683
1080.89,28.8706,-0.42361,0,1.06339,8.56459,-1.84417,35.8841,92.5305,60.3659,-9.25196,0.510139,-0.517324,-44.2073,3.78049,11.7378
1080.9,28.9712,-0.550348,0,0.965193,8.58854,-1.75076,35.0305,90.7927,56.0976,-9.33339,0.469424,-0.560435,-44.3902,4.02439,11.2195
1080.91,28.9733,-0.698026,0,0.57241,8.86157,-1.79626,33.872,84.5122,51.7988,-9.41961,0.455054,-0.65384,-44.7866,3.5061,10.7317
1080.92,28.9329,-0.863392,0,0.433499,8.74661,-1.54,31.9207,77.1341,49.2073,-9.43877,0.308958,-0.754431,-44.5427,3.62805,9.69512
1080.93,28.8514,-1.02528,0,0.301772,8.57177,-1.2526,31.9207,67.8354,46.6159,-9.41482,0.141306,-0.773591,-44.4512,3.84146,8.56707
1080.94,28.7403,-1.21158,0,0.280217,8.48076,-1.05381,32.0427,57.6524,43.689,-9.36213,-0.0359253,-0.898132,-44.6951,4.05488,7.46951
1080.95,28.618,-1.41535,0,0.426313,8.35622,-0.905317,31.7683,47.5305,40.2134,-9.29268,-0.0431104,-0.977168,-45.061,3.81098,6.09756
1080.96,28.4801,-1.61855,0,0.665815,8.06403,-0.773591,30.6098,37.5305,34.6951,-9.27112,-0.0670605,-1.00351,-45.1829,3.78049,5.39634
1080.97,28.3178,-1.83386,0,0.934058,7.83411,-0.677791,28.3841,28.4451,27.6829,-9.2352,-0.0574805,-1.07776,-45.3354,3.78049,4.66463
1080.98,28.1113,-2.08013,0,1.03225,7.77184,-0.495769,26.6463,22.9268,21.2805,-9.27352,-0.189207,-1.26936,-45.4878,4.35976,4.26829
1080.99,27.8869,-2.33501,0,1.38911,7.58263,-0.459844,23.7195,19.5732,13.2927,-9.33579,-0.167651,-1.37235,-45,4.93902,3.68902
1081,27.5357,-2.63261,0,1.69567,7.48204,-0.304167,21.8293,17.5,4.05488,-9.34058,-0.256267,-1.60706,-43.4756,5.85366,3.23171
1081.01,27.0423,-2.9368,0,1.80105,7.56108,-0.428708,19.0244,17.2866,-3.17073,-9.36932,-0.170046,-1.69567,-42.2866,6.82927,2.40854
1081.02,26.674,-3.23075,0,2.01661,7.71675,-0.337698,15.9756,17.1341,-12.2866,-9.28789,-0.100591,-1.68849,-41.9817,6.85976,1.76829
1081.03,26.2593,-3.55037,0,2.23216,7.63532,-0.464634,14.3902,17.8963,-21.128,-9.19927,-0.0646655,-1.82979,-41.3415,7.31707,1.7378
1081.04,25.7626,-3.85724,0,2.14354,7.52515,-0.62031,15.6098,18.7805,-29.5427,-9.07712,-0.0646655,-1.80584,-40.8232,8.35366,1.40244
1081.05,25.2452,-4.1719,0,2.44771,7.63532,-0.495769,13.5366,23.1402,-36.4939,-8.943,0.0790356,-1.86093,-40.122,9.05488,1.18902
1081.06,24.7318,-4.48438,0,2.61297,7.52755,-0.263452,12.8049,27.5,-39.939,-8.78972,0.201182,-1.87051,-39.3902,9.29878,0.640244
1081.07,24.2611,-4.78882,0,3.1255,7.60179,-0.0814307,13.628,33.1402,-43.1707,-8.69871,0.356858,-1.86812,-39.0854,10.122,0.27439
1081.08,23.8346,-5.09142,0,3.63085,7.8389,0.0790356,16.8598,33.872,-44.7256,-8.6556,0.433499,-1.89925,-38.811,10.8232,-0.121951
1081.09,23.5164,-5.41401,0,4.53617,7.8365,-0.220342,20.1829,26.25,-45.1829,-8.62207,0.462239,-2.019,-37.7744,11.6768,-0.884146
1081.1,23.3315,-5.71517,0,5.88456,7.73112,-0.713716,20.9146,23.2927,-46.9512,-8.62686,0.536484,-1.98547,-36.4634,11.7073,-1.12805
1081.11,23.2286,-6.00138,0,6.5408,7.66885,-0.922083,15.4268,25.7622,-45.4573,-8.658,0.522114,-1.98068,-34.4817,11.4329,-1.31098
1081.12,23.2648,-6.27459,0,7.17787,7.4533,-0.984353,9.5122,23.2317,-38.5366,-8.70829,0.550855,-1.98547,-31.7988,11.4024,-0.731707
1081.13,23.4301,-6.54579,0,7.57305,7.36947,-1.40588,8.56707,12.0122,-29.0854,-8.86397,0.498164,-2.05732,-29.7256,11.2805,0.0304878
1081.14,23.6708,-6.81646,0,7.83171,7.71915,-2.13396,8.9939,-1.25,-20.3049,-9.13221,0.395178,-2.1627,-26.9817,11.5549,0.823171
1081.15,23.963,-7.07129,0,7.77663,8.05206,-2.17228,10.6098,-11.7988,-11.6768,-9.46033,0.253872,-2.21779,-24.9695,11.7073,1.34146
1081.16,24.2835,-7.32213,0,7.43654,8.4161,-1.82979,14.1463,-15.061,-3.47561,-9.70941,0.138911,-2.30401,-23.8415,11.372,1.25
1081.17,24.5904,-7.60262,0,6.87371,8.83523,-1.40827,16.2195,-24.2988,2.34756,-9.86988,0.155676,-2.52435,-22.561,11.7988,1.61585
1081.18,24.8942,-7.88645,0,6.65336,8.84002,-0.852627,18.5366,-28.0183,5.70122,-9.91538,0.210762,-2.60339,-21.9817,11.7988,2.5
1081.19,25.1709,-8.12952,0,6.48811,8.98611,-0.754431,19.2683,-28.4146,5.88415,-10.0399,0.335303,-2.49801,-20.9451,10.6098,4.35976
1081.2,25.3363,-8.2813,0,6.12646,9.92017,-0.589175,19.7256,-28.4146,3.41463,-10.5956,0.404758,-2.23695,-18.4756,8.14024,6.7378
1081.21,25.2269,-8.30408,0,5.3864,12.6697,-1.36756,24.3293,-22.1951,-6.46341,-11.8122,0.0455054,-1.83458,-12.3476,1.92073,10.0915
1081.22,24.7606,-8.319,0,4.08111,16.4969,-0.457449,16.8293,-21.6159,-24.4512,-13.3834,-0.797541,-2.05014,-1.15854,-5.73171,13.9024
1081.23,24.291,-8.36718,0,4.64394,16.4586,1.67651,-4.2378,-13.1098,-29.5427,-15.1293,-2.18426,-2.55549,12.8354,-10.4268,17.2866
1081.24,24.3446,-8.52049,0,8.92145,13.0097,1.04662,-4.87805,-8.59756,-15.2439,-15.8814,-4.03561,-3.45122,24.9085,-4.42073,18.1707
1081.25,24.8915,-8.65049,0,12.5451,9.29986,-2.26808,15.7317,18.8415,-3.59756,-15.285,-4.6631,-3.19017,33.5061,2.71341,17.0732
1081.26,25.4138,-8.77276,0,10.2794,7.71436,-5.36484,29.3293,78.7195,-4.32927,-12.5715,-3.93262,-2.60578,40.6098,5.51829,18.689
1081.27,25.2584,-8.76209,0,3.32189,8.79212,-5.4319,23.9939,122.134,-6.21951,-10.1812,-1.88009,-1.51365,44.5427,9.5122,25.2439
1081.28,24.4863,-8.55344,0,-1.80584,9.62319,-3.90149,9.93902,110.488,-5.12195,-9.20646,-0.373623,-0.555645,45.4573,8.62805,32.2561
1081.29,23.3059,-8.07546,0,-4.82836,9.07233,-2.07648,7.37805,61.25,-13.2927,-10.2124,0.874182,0.421523,42.1646,2.46951,35.122
1081.3,21.8073,-7.59482,0,-6.18394,8.04487,-2.78062,15.6098,0,-28.7195,-11.4793,1.85854,0.732876,37.8354,-2.22561,32.2256
1081.31,20.2073,-7.15406,0,-5.17324,7.61616,-4.54575,20.6707,-51.8902,-48.9939,-11.7116,2.74469,0.725691,35.3659,5.06098,31.4329
1081.32,18.8008,-6.60904,0,-2.76625,8.63644,-4.8092,19.1768,-70.2439,-66.0366,-13.8504,0.816702,1.59508,32.5305,-7.9878,27.7439
1081.33,17.6741,-6.08878,0,-0.443079,10.3177,-3.88712,20.8537,-62.2866,-71.5854,-12.7942,1.84417,1.45617,20.5183,-6.98171,18.5976
1081.34,16.8289,-5.53544,0,1.71483,11.4482,-2.96264,19.3293,-48.75,-67.561,-11.7428,2.07648,1.61664,13.9634,-4.93902,10.3049
1081.35,16.2,-4.92549,0,3.08239,10.6698,-1.84656,15.3659,-33.628,-62.7134,-11.2135,1.42983,1.93997,8.35366,-10.5183,3.78049
1081.36,15.5728,-4.3163,0,2.68482,9.99681,-1.09931,13.9939,-16.7988,-61.6159,-10.2651,0.507744,1.88488,4.57317,-10.7012,-0.731707
1081.37,14.8294,-3.69208,0,1.38911,9.4268,-1.27415,14.5427,-11.4024,-61.189,-9.64714,-0.332908,1.94236,1.0061,-12.7134,-4.11585
1081.38,14.0367,-3.13849,0,0.725691,9.35974,-1.8274,13.1098,-17.8659,-59.6646,-9.41482,-0.524509,1.69567,-1.61585,-15.6402,-5.91463
1081.39,13.263,-2.69186,0,0.64426,9.42201,-2.28724,9.84756,-22.3171,-58.2927,-8.67476,-1.10171,1.23104,-0.792683,-12.7439,-5.27439
1081.4,12.5892,-2.35855,0,1.19032,9.10107,-2.97701,7.43902,-23.6585,-56.8902,-8.43286,-1.22386,0.835862,2.68293,-12.9878,-2.16463
1081.41,11.9852,-2.04871,0,1.59987,8.75619,-3.19256,7.9878,-18.7805,-57.0732,-8.2221,-1.31247,0.778381,5.64024,-11.4939,2.37805
1081.42,11.4561,-1.86025,0,1.97589,8.44723,-3.4632,7.95732,-11.4634,-56.4024,-8.24845,-1.4442,0.383203,9.90854,-9.72561,6.0061
1081.43,10.9923,-1.75114,0,2.28485,8.44244,-3.47517,8.90244,-3.87195,-54.8476,-8.40891,-1.52084,0.124541,14.1159,-7.77439,8.68902
1081.44,10.5497,-1.68532,0,2.29203,8.40173,-3.41769,10.6098,2.43902,-53.872,-8.64123,-1.53042,-0.0215552,19.2988,-5.91463,9.69512
1081.45,10.0799,-1.67393,0,1.88249,8.52148,-3.31231,12.5915,2.31707,-51.8293,-8.99569,-1.45138,-0.225132,22.9573,-4.29878,8.75
1081.46,9.54445,-1.6923,0,1.12087,8.80649,-3.07042,12.8659,-5.88415,-48.872,-9.38848,-1.41067,-0.332908,25.7317,-2.07317,7.07317
1081.47,8.99566,-1.77046,0,0.766406,9.07473,-2.94348,9.84756,-15.9451,-46.372,-9.8579,-1.44659,-0.490979,28.7195,-0.853659,3.59756
1081.48,8.44209,-1.84808,0,0.411943,9.15856,-2.45729,7.16463,-35.2134,-43.3841,-10.0615,-1.30768,-0.481399,29.4512,0.304878,0.365854
1081.49,7.95065,-1.93163,0,0.59636,9.31184,-2.31838,3.29268,-50.8537,-40.3963,-10.0519,-1.04423,-0.63947,29.878,2.13415,-2.0122
1081.5,7.53444,-2.01188,0,0.955613,9.55852,-2.5483,-2.13415,-63.0488,-37.8963,-9.89622,-0.912502,-0.670605,29.6646,3.9939,-3.14024
1081.51,7.21159,-2.11074,0,1.43941,9.36692,-2.74948,-6.15854,-70.2134,-35.3963,-9.75252,-0.855022,-0.761616,29.3598,5.85366,-3.65854
1081.52,6.93886,-2.25769,0,1.66693,9.18011,-2.88839,-6.52439,-73.8415,-34.1159,-9.58726,-0.845442,-0.969983,29.1159,6.55488,-3.56707
1081.53,6.70628,-2.40121,0,1.79147,8.93342,-2.9794,-5.94512,-74.7866,-32.7134,-9.57768,-0.747246,-0.979563,29.0854,7.0122,-3.10976
1081.54,6.45082,-2.5546,0,1.56634,8.87594,-3.04167,-5.54878,-77.0122,-32.8049,-9.45793,-0.795146,-1.03225,29.2073,6.61585,-2.7439
1081.55,6.2227,-2.69566,0,1.7771,8.8951,-3.09197,-6.37195,-76.0671,-33.1707,-9.36453,-0.735271,-0.996328,29.6341,7.04268,-2.16463
1081.56,6.0017,-2.8268,0,1.85135,8.97893,-3.1255,-7.19512,-75.5793,-33.628,-9.38608,-0.771196,-0.974773,28.9634,5.15244,-2.0122
1081.57,5.79929,-3.03258,0,2.019,9.03401,-3.32189,-8.47561,-70.8537,-34.1159,-9.34058,-0.66821,-1.28373,30.122,4.39024,-1.98171
1081.58,5.6108,-3.24207,0,2.04056,8.86876,-3.23807,-9.26829,-64.4817,-33.8415,-9.38848,-0.785566,-1.31966,31.9207,3.78049,-1.92073
1081.59,5.44453,-3.44033,0,2.23216,8.9933,-3.26202,-10.061,-53.4451,-33.9634,-9.35734,-0.766406,-1.29331,33.4756,3.56707,-2.16463
1081.6,5.27574,-3.63974,0,2.24653,8.97653,-3.00096,-9.20732,-46.6463,-34.7866,-9.34776,-0.807122,-1.30768,34.5122,3.23171,-2.0122
1081.61,5.11423,-3.84533,0,2.37586,9.01246,-3.08479,-8.84146,-36.8598,-35.8537,-9.30944,-0.900527,-1.33882,35.5793,3.01829,-1.79878
1081.62,4.88883,-4.04324,0,1.83938,8.96695,-2.76864,-7.89634,-29.2683,-36.2195,-9.21843,-0.898132,-1.36516,36.2195,3.56707,-1.4939
1081.63,4.60378,-4.25768,0,1.32684,9.01964,-2.72553,-6.7378,-28.689,-36.189,-9.09149,-0.862207,-1.41067,36.7378,3.29268,-0.640244
1081.64,4.30115,-4.47925,0,1.26697,9.26394,-2.75427,-7.04268,-27.5305,-37.378,-9.00288,-0.840652,-1.51365,37.622,4.2378,0.121951
1081.65,3.98811,-4.71854,0,1.16637,9.22801,-2.53393,-7.95732,-28.628,-37.8659,-8.87834,-0.831072,-1.62143,38.2012,5.12195,1.34146
1081.66,3.69677,-4.97854,0,1.36995,9.1849,-2.43334,-6.85976,-28.75,-38.9024,-8.80888,-0.799937,-1.74597,39.1463,6.55488,2.43902
1081.67,3.4085,-5.22759,0,1.25739,9.1346,-2.47885,-7.28659,-28.75,-37.8659,-8.80649,-0.823887,-1.74597,39.7256,7.37805,3.53659
1081.68,3.15871,-5.47084,0,1.55916,9.05317,-2.60339,-7.2561,-29.0854,-38.4756,-8.72027,-0.802332,-1.74597,39.9695,8.35366,4.78659
1081.69,2.91749,-5.75357,0,1.76752,9.05796,-2.72553,-7.28659,-24.4817,-40.7012,-8.69632,-0.742456,-1.93757,40.5488,9.60366,6.28049
1081.7,2.59709,-6.05237,0,1.27894,8.97414,-2.52435,-7.68293,-26.311,-43.2927,-8.52866,-0.546064,-2.00703,40.4268,11.372,8.41463
1081.71,2.23188,-6.36352,0,1.13284,9.16813,-2.47406,-7.46951,-24.5732,-46.3415,-8.57896,-0.66821,-2.1148,39.9695,12.4695,9.57317
1081.72,1.87227,-6.70667,0,1.29331,9.06036,-2.60578,-7.56098,-22.9268,-48.7195,-8.49513,-0.696951,-2.27048,39.7561,13.1707,10.4268
1081.73,1.50102,-7.04949,0,1.30289,9.02683,-2.50759,-7.2561,-23.0793,-50.8232,-8.36341,-0.593965,-2.28724,39.0549,13.811,11.8902
1081.74,1.12341,-7.39067,0,1.35798,9.04359,-2.61297,-6.95122,-19.9695,-52.8963,-8.28677,-0.56762,-2.31359,38.9329,13.2927,12.9573
1081.75,0.764064,-7.70926,0,1.54718,9.07712,-2.60818,-6.18902,-18.5976,-54.1159,-8.20534,-0.498164,-2.25611,38.4451,12.439,14.7561
1081.76,0.423521,-7.95076,0,1.76513,9.1825,-2.57225,-5.09146,-16.0366,-55.3963,-8.13109,-0.407153,-1.99026,38.1707,10.6707,16.0671
1081.77,0.115077,-8.13538,0,2.04295,9.2807,-2.50519,-2.71341,-14.1768,-55.9451,-8.09277,-0.395178,-1.80345,36.4329,8.81098,17.622
1081.78,-0.170541,-8.34578,0,2.23455,9.03641,-2.3543,-0.548781,-11.4329,-57.2561,-8.01374,-0.222737,-1.90883,34.7256,9.14634,19.2988
1081.79,-0.435995,-8.61864,0,2.31598,8.59812,-2.04535,1.58537,-13.5671,-58.2012,-8.14067,-0.263452,-2.20821,33.1402,11.9817,20.5488
1081.8,-0.619418,-8.89714,0,2.74948,8.13588,-2.09085,2.31707,-13.9329,-57.7134,-8.44005,-0.450264,-2.35191,31.1585,16.2195,20.1829
1081.81,-0.689671,-9.11155,0,3.26681,7.81016,-2.23934,1.40244,-15.2134,-54.7561,-8.87115,-0.706531,-2.24892,28.3232,17.4085,18.1402
1081.82,-0.673963,-9.24174,0,3.51349,7.75028,-2.5483,-0.762195,-17.8963,-49.5732,-9.48907,-0.953218,-2.07169,26.0671,16.8598,15.8232
1081.83,-0.564651,-9.39792,0,3.7985,7.81734,-3.26441,-2.95732,-15.122,-43.1098,-10.2124,-1.21427,-2.37825,24.1159,15.4268,12.2256
1081.84,-0.485505,-9.59156,0,3.18777,8.0808,-3.45601,-5.09146,-19.0854,-37.0122,-10.7129,-1.29331,-2.71356,23.5061,14.9085,8.59756
1081.85,-0.408462,-9.83261,0,2.75906,8.30353,-3.40572,-6.61585,-13.5671,-30.6402,-10.8159,-1.04423,-3.02012,24.1463,15.6402,7.22561
1081.86,-0.330608,-9.991,0,2.37586,8.5095,-3.05365,-6.52439,-22.439,-24.7256,-10.8015,-0.883762,-2.6441,24.9695,15.6402,8.32317
1081.87,-0.256091,-9.99135,0,2.019,8.95737,-2.79738,-5.67073,-29.6341,-18.9939,-10.8662,-0.773591,-1.90404,23.9329,12.3476,9.63415
1081.88,-0.0846564,-9.83548,0,2.46927,9.30705,-3.15424,-3.17073,-33.7195,-13.3537,-11.1871,-0.59636,-1.18074,20.8232,6.61585,9.96951
1081.89,0.153174,-9.41797,0,2.73511,9.67109,-3.54223,-0.945122,-42.6524,-8.14024,-12.0565,-0.352068,0.100591,15.5488,-2.28659,8.35366
1081.9,0.472567,-9.00432,0,2.92192,10.1261,-3.66438,2.04268,-47.0427,-2.07317,-13.2037,0.141306,0.225132,5.85366,-10.2744,3.81098
1081.91,0.848481,-8.71864,0,3.49433,11.0386,-4.26074,2.22561,-48.0793,3.2622,-14.1594,1.22386,-0.457449,-2.46951,-12.1646,-1.12805
1081.92,1.34138,-8.57129,0,4.31582,11.8218,-4.12422,-1.58537,-49.939,11.0976,-14.4875,2.2609,-1.27655,-8.5061,-7.65244,-4.5122
1081.93,2.01999,-8.51117,0,5.64746,11.7524,-3.42967,-7.83537,-41.7683,19.6037,-14.0779,2.34472,-1.74836,-13.628,-0.182927,-7.04268
1081.94,2.80997,-8.44657,0,6.01629,11.9392,-2.11241,-16.7073,-22.7744,30.1524,-13.357,1.26936,-1.60466,-17.5,6.0061,-11.6768
1081.95,3.6767,-8.28945,0,5.578,12.2146,-1.23344,-26.9512,-3.35366,44.0854,-12.7152,-0.428708,-0.989143,-18.7805,6.34146,-17.7134
1081.96,4.6115,-8.04414,0,4.60802,12.2505,-0.359253,-36.7683,2.28659,60.8232,-12.6888,-1.65017,-0.464634,-18.8415,3.44512,-23.4451
1081.97,5.60671,-7.80381,0,3.76018,12.7295,-0.0934058,-44.5732,3.38415,77.3781,-12.7511,-2.34951,-0.464634,-15.0915,1.43293,-26.9817
1081.98,6.70792,-7.54935,0,3.3171,13.2037,0.0215552,-55.8537,-3.81098,95.0305,-12.5739,-2.65129,-0.404758,-9.02439,0.182927,-26.5244
1081.99,7.90767,-7.26812,0,2.87402,12.9355,0.474214,-65.061,-16.9207,110.549,-12.1691,-2.45729,-0.174836,-1.55488,-0.97561,-22.7439
1082,9.19364,-6.72682,0,2.41418,12.0493,0.105381,-67.1951,-20.061,124.238,-11.6566,-1.3939,1.29092,2.68293,-4.08537,-14.7256
1082.01,10.5102,-6.38634,0,1.50886,11.041,-0.170046,-63.689,-16.6463,137.226,-10.3752,-1.81063,0.323328,17.7744,-4.87805,-6.43293
1082.02,11.8461,-5.92502,0,0.725691,10.5812,0.114961,-59.8476,-18.2317,149.756,-9.55373,-1.31966,0.864602,23.5671,-6.03659,1.34146
1082.03,13.2034,-5.38512,0,0.148491,10.756,-0.0143701,-55.061,-24.8476,161.067,-9.29986,-0.792751,1.2502,27.5915,-8.10976,5.85366
1082.04,14.5853,-4.80558,0,0.0239502,11.6254,-0.589175,-49.5732,-36.5854,167.713,-9.03641,-0.0263452,1.46336,26.128,-9.60366,8.07927
1082.05,15.9271,-4.10936,0,0.155676,12.6457,-1.55437,-45.8537,-48.872,165.244,-9.73336,1.06339,2.19144,24.2683,-17.622,10.8841
1082.06,17.1509,-3.62575,0,0.234712,13.4337,-2.23216,-40.2134,-62.622,155.335,-8.93821,1.4418,1.26457,12.378,-8.96341,11.5244
1082.07,18.2651,-3.13165,0,0.622705,13.539,-2.42615,-32.5,-75.3049,143.323,-9.58966,1.86333,1.48491,4.32927,-9.66463,11.1585
1082.08,19.284,-2.73849,0,0.507744,12.9786,-2.34712,-21.6768,-87.561,136.677,-9.73096,2.16989,1.152,-6.12805,-7.77439,10.6707
1082.09,20.3519,-2.46946,0,1.01788,12.1332,-1.75076,-12.9878,-102.317,138.537,-9.8603,2.23455,0.689766,-15.7012,-6.0061,10.122
1082.1,21.5562,-2.25284,0,2.09564,11.0626,-2.33275,-3.93293,-103.232,142.53,-9.63756,1.96152,0.455054,-23.2927,-3.56707,9.93902
1082.11,22.7678,-2.15109,0,2.5028,10.4926,-2.58183,5.12195,-75.8841,140.244,-9.33818,1.59987,-0.00479004,-28.3232,-2.92683,10.4268
1082.12,23.9878,-2.11906,0,3.35542,10.3417,-2.78301,12.5915,-33.2622,134.268,-9.2304,1.28613,-0.253872,-31.1585,-2.13415,12.1037
1082.13,25.1576,-2.21221,0,3.78413,10.1237,-2.8357,17.439,2.40854,126.494,-9.29747,0.881367,-0.524509,-31.6463,-1.0061,13.628
1082.14,26.2116,-2.38775,0,3.45362,9.71659,-2.36388,24.2988,33.5366,118.963,-9.43638,0.593965,-0.63947,-30.8841,-0.487805,14.7866
1082.15,27.1813,-2.70516,0,3.40811,9.45314,-2.5004,29.878,61.25,111.982,-9.4747,0.395178,-0.929268,-29.3293,0.548781,15.3354
1082.16,28.0679,-2.87267,0,3.13748,9.07473,-2.45729,36.0366,78.0488,107.012,-9.42201,0.268242,-0.864602,-28.0488,1.43293,14.7561
1082.17,28.8551,-2.98393,0,2.79738,9.01725,-2.57465,42.5915,94.4512,102.439,-9.3286,0.268242,-0.831072,-27.8049,2.46951,14.1159
1082.18,29.5249,-3.06878,0,2.51956,8.88073,-2.73272,47.0732,111.22,94.9085,-9.18729,0.378413,-0.742456,-28.5061,2.46951,13.2622
1082.19,29.9939,-3.13325,0,1.75076,8.87355,-2.56507,51.0366,119.085,85.3354,-9.02683,0.483794,-0.651445,-29.7866,2.07317,13.0488
1082.2,30.3076,-3.19437,0,1.36756,8.89989,-2.64889,51.0366,126.006,75.3963,-8.9454,0.512534,-0.632285,-32.439,1.89024,13.1098
1082.21,30.4617,-3.23296,0,0.799937,8.68434,-2.38304,48.5366,124.543,66.8293,-8.92384,0.467029,-0.56283,-35.3354,1.25,12.7439
1082.22,30.4914,-3.35609,0,0.409548,8.32748,-2.2585,45.2134,122.378,59.4512,-8.88552,0.483794,-0.761616,-38.75,1.70732,11.9817
1082.23,30.3952,-3.42091,0,0.0479004,7.95865,-1.94476,43.1707,117.713,51.7073,-8.93821,0.58678,-0.62989,-42.561,1.15854,10.8537
1082.24,30.1924,-3.64443,0,-0.323328,7.69041,-1.92799,40.5793,113.78,46.25,-8.86876,0.680186,-0.795146,-46.8293,0.701219,9.78659
1082.25,29.8924,-4.08014,0,-0.579595,7.39582,-1.80584,42.3171,109.939,40.1524,-8.91905,0.780776,-0.929268,-49.6341,0.121951,8.65854
1082.26,29.5052,-4.53439,0,-0.716111,7.38385,-1.79147,45.7012,102.409,32.8049,-9.05796,0.821492,-1.13045,-51.189,-0.27439,6.46341
1082.27,29.0421,-4.88109,0,-0.773591,7.48204,-1.79147,48.4756,92.439,25,-9.31902,0.754431,-1.27655,-52.0732,-0.518293,4.42073
1082.28,28.4901,-5.2773,0,-1.01788,7.58982,-1.5879,49.6646,78.6585,18.5366,-9.4268,0.617915,-1.45138,-52.0122,-0.457317,1.95122
1082.29,27.8817,-5.71101,0,-1.03704,7.67604,-1.28852,48.4451,65.9451,11.7683,-9.61121,0.390388,-1.51844,-52.1037,-0.0609756,-0.609756
1082.3,27.2038,-6.15357,0,-0.843047,7.86045,-0.924478,45.3049,55.1829,5.18293,-9.5705,0.198787,-1.61185,-51.5854,0.121951,-3.29268
1082.31,25.5382,-6.49408,0,-0.431104,8.04248,-0.502954,40.4878,42.8354,-1.89024,-9.616,0.0383203,-1.71244,-51.128,0.548781,-4.87805
1082.32,24.9367,-6.87552,0,0.0431104,8.06164,-0.234712,36.4329,33.0183,-9.84756,-9.63995,-0.153281,-1.69807,-50.8537,-0.121951,-5.91463
1082.33,24.3113,-7.31665,0,0.450264,7.95625,-0.170046,36.0976,20.3963,-19.5427,-9.54415,-0.277822,-1.79626,-50.6707,-0.0914634,-6.06707
1082.34,23.6564,-7.8245,0,0.890947,8.15265,-0.193997,35.9451,12.5,-29.939,-9.36692,-0.306563,-1.8753,-50.5183,-0.121951,-5.57927
1082.35,22.9994,-8.38731,0,1.50407,8.34664,-0.0407153,32.8963,7.22561,-39.6037,-9.16334,-0.354463,-1.93039,-50.4573,0.182927,-4.39024
1082.36,22.3327,-8.85514,0,1.91123,8.3179,0.318538,32.4695,1.34146,-47.5,-8.98851,-0.311353,-2.05493,-51.2195,0.762195,-3.44512
1082.37,21.7213,-9.15088,0,2.83091,8.43765,-0.00958008,35.5183,-2.40854,-54.6646,-8.89031,-0.213157,-2.14833,-51.4634,1.89024,-2.68293
1082.38,21.1103,-9.40569,0,3.64522,8.9933,-0.239502,35.5488,1.06707,-63.0488,-8.83762,-0.158071,-2.29682,-51.8902,3.04878,-2.86585
1082.39,20.4953,-9.65405,0,4.17931,9.31423,0.0670605,28.1402,14.6646,-68.9939,-8.8017,0.0239502,-2.42136,-51.7073,4.45122,-3.01829
1082.4,19.9405,-9.87988,0,4.96009,9.24717,0.61073,18.9634,30.5793,-72.3476,-8.81367,0.102986,-2.39981,-50.8537,5.39634,-3.62805
1082.41,19.4619,-10.1138,0,5.57082,8.86397,0.56762,13.0488,36.5244,-73.75,-8.80649,0.193997,-2.47645,-49.5427,6.12805,-3.59756
1082.42,19.1186,-10.3439,0,6.25579,8.34664,0.63947,9.90854,41.5244,-70.5183,-8.85199,0.337698,-2.51717,-47.1341,7.10366,-3.44512
1082.43,18.9321,-10.5822,0,6.60307,7.5491,-0.196392,16.4634,39.6951,-64.0549,-8.83762,0.445474,-2.58662,-45.0915,8.23171,-2.43902
1082.44,18.8549,-10.8188,0,6.51206,7.25212,-1.3484,22.2256,29.4207,-54.7866,-8.8975,0.488584,-2.63692,-41.8293,9.78659,-1.12805
1082.45,18.8756,-11.0323,0,6.65815,7.43414,-2.66087,23.4756,15.061,-44.8171,-9.06036,0.411943,-2.62494,-38.5671,10.5488,0.0304878
1082.46,18.9604,-11.21,0,6.56954,7.7431,-3.14706,25.0305,2.2561,-35.0915,-9.31423,0.203577,-2.57704,-35.7927,10.8232,0.426829
1082.47,19.0374,-11.3512,0,6.12646,8.51669,-3.03449,25.122,-5.88415,-26.372,-9.59924,0,-2.52196,-32.9878,11.2195,-0.152439
1082.48,19.1679,-11.4417,0,5.88456,8.79691,-2.38065,27.378,-8.9939,-16.7683,-9.80281,-0.146096,-2.36867,-31.5854,10.5183,-0.853659
1082.49,19.3757,-11.4926,0,6.0594,9.10826,-1.98547,27.5,-15.8537,-8.32317,-9.98244,-0.301772,-2.24653,-30.3354,9.26829,-1.64634
1082.5,19.6675,-11.4866,0,6.61504,9.63995,-1.57353,22.3476,-19.7866,-2.07317,-10.2339,-0.404758,-2.04535,-29.5122,7.40854,-2.68293
1082.51,19.9463,-11.2881,0,6.87371,10.8087,-1.18314,19.2073,-22.1037,-0.0304878,-10.7704,-0.526904,-1.26457,-27.8963,2.65244,-2.71341
1082.52,19.9382,-11.0293,0,6.01629,14.3557,-1.36516,9.96951,-17.0427,-6.52439,-11.5129,-0.871787,-0.977168,-24.3598,-3.2622,-1.7378
1082.53,19.6312,-10.7619,0,4.06435,15.9101,0.831072,-1.76829,-6.61585,-19.878,-12.3224,-1.346,-0.931663,-18.5366,-9.63415,1.43293
1082.54,19.469,-10.5797,0,4.77567,12.8134,1.59748,-7.0122,-10.7927,-18.2012,-12.7942,-2.1651,-1.3939,-11.2195,-11.4939,6.37195
1082.55,19.6769,-10.4566,0,7.34313,10.2076,0.105381,-4.20732,-14.4207,-11.9817,-12.9163,-2.88839,-1.70286,-6.28049,-7.62195,10.1524
1082.56,20.047,-10.3509,0,7.80058,8.51669,-1.61424,2.43902,12.0427,-8.78049,-12.2697,-2.8381,-1.6837,-3.68902,-3.35366,13.4146
1082.57,20.2256,-10.259,0,5.06786,7.58742,-3.42488,9.32927,60.0915,-9.72561,-11.3308,-2.1148,-1.64059,-0.731707,1.12805,17.9268
1082.58,19.91,-10.0161,0,1.45617,7.70238,-3.78174,18.9634,82.8963,-12.7744,-10.8351,-1.04423,-0.917292,0.823171,1.58537,22.8049
1082.59,19.2591,-9.66343,0,-0.761616,8.72506,-3.44404,19.3293,66.5549,-15.6098,-10.7057,0.347278,-0.361648,-0.548781,2.04268,25.3049
1082.6,18.4462,-9.27646,0,-1.76992,9.63995,-4.15296,13.9024,32.7744,-22.4085,-11.6206,1.40348,-0.0119751,-3.53659,-2.92683,23.628
1082.61,17.4628,-8.82937,0,-2.36628,9.95849,-4.30625,15.2134,8.38415,-35.4268,-12.2338,2.56028,0.225132,-7.59146,0.365854,22.1951
1082.62,16.3626,-8.47139,0,-2.62973,10.1621,-3.98531,17.0122,2.10366,-47.0122,-12.811,1.26218,0.0359253,-6.12805,-10.061,18.5671
1082.63,15.3331,-7.93715,0,-1.59029,10.574,-3.37698,19.2683,6.15854,-54.2073,-13.1822,1.7292,1.14721,-15.8537,-9.26829,12.3476
1082.64,14.4346,-7.46036,0,-0.258662,10.7896,-2.45729,17.0122,6.4939,-57.5915,-11.4697,1.49928,0.814307,-23.6585,-8.2622,8.01829
1082.65,13.6335,-6.88018,0,0.728086,10.4806,-1.47294,14.5427,8.65854,-60.3963,-10.9907,0.713716,1.37235,-30.7317,-14.8171,6.03659
1082.66,12.8775,-6.31877,0,1.03465,10.1046,-0.914897,14.1463,11.3415,-61.25,-10.1525,-0.0838257,1.28613,-36.8598,-15.5793,5.33537
1082.67,12.1338,-5.79289,0,0.917292,9.97047,-0.981958,10.0915,11.7378,-60.3354,-9.49386,-0.878972,1.14482,-40.4573,-17.1951,4.32927
1082.68,11.3883,-5.39667,0,0.641865,9.79084,-0.907712,6.92073,9.17683,-58.9634,-8.83762,-1.52323,0.637075,-41.0366,-18.1098,4.42073
1082.69,10.6467,-5.46303,0,0.347278,9.90341,-1.28134,5.60976,3.20122,-56.5244,-8.06882,-2.20821,-1.01549,-40.2134,-20.3354,5.30488
1082.7,9.9772,-5.29341,0,0.447869,9.65432,-1.95913,2.92683,-4.54268,-52.0122,-8.42328,-2.05253,-0.186812,-30.9756,-18.3537,6.55488
1082.71,9.43364,-5.22504,0,0.931663,8.90947,-2.85247,2.28659,-8.04878,-47.2866,-8.62446,-2.43094,-0.550855,-20.8537,-17.7134,8.62805
1082.72,9.01245,-5.17031,0,1.48252,8.28916,-3.49194,4.72561,-7.86585,-44.4207,-8.83523,-2.61297,-0.60594,-12.1646,-16.2195,9.66463
1082.73,8.66028,-5.13682,0,1.825,8.24366,-4.04998,9.11585,-5.30488,-43.0183,-9.09628,-2.7423,-0.699346,-3.56707,-14.5122,9.84756
1082.74,8.30137,-5.12392,0,1.66214,8.49034,-3.97813,12.3171,-3.96341,-41.5549,-9.35974,-2.75188,-0.797541,4.14634,-12.0122,9.14634
1082.75,7.93882,-5.07565,0,1.46336,8.96935,-3.58774,10.9756,-5.36585,-38.9634,-9.70222,-2.61536,-0.670605,11.0976,-9.84756,7.65244
1082.76,7.61978,-5.07376,0,1.5376,9.38848,-3.19256,9.02439,-5.79268,-35.3354,-10.0615,-2.4549,-0.890947,16.0976,-6.55488,5.36585
1082.77,7.31009,-5.05752,0,1.32924,9.82916,-2.85247,5.82317,-16.0061,-31.7683,-10.4207,-2.17468,-0.855022,19.9085,-4.93902,2.43902
1082.78,7.03202,-5.03353,0,1.32205,9.71659,-2.74709,3.56707,-22.4085,-29.2683,-10.5405,-1.83458,-0.826282,21.9512,-3.59756,-0.335366
1082.79,6.73973,-4.97499,0,1.04902,9.46272,-2.90276,2.0122,-31.2805,-28.3841,-10.4447,-1.46336,-0.66342,21.5854,-3.01829,-1.31098
1082.8,6.46801,-4.93804,0,1.11368,9.3286,-3.01772,1.18902,-39.6341,-27.8659,-9.92975,-1.52084,-0.732876,20.7012,-1.92073,-1.28049
1082.81,6.22292,-4.87355,0,1.31487,9.19687,-3.13748,-0.457317,-46.4329,-28.4146,-9.91778,-1.08494,-0.60594,18.0793,-2.62195,-1.09756
1082.82,5.99062,-4.81885,0,1.37953,9.06754,-3.14706,-2.89634,-50.7012,-28.6585,-9.91299,-0.711321,-0.632285,16.0671,-2.68293,-0.792683
1082.83,5.76942,-4.75077,0,1.46815,9.08191,-3.09197,-3.75,-50.7927,-29.0854,-9.59684,-0.632285,-0.538879,12.9573,-3.68902,-0.365854
1082.84,5.53615,-4.73109,0,1.38432,9.18969,-2.91713,-3.44512,-55.2134,-29.5122,-9.51541,-0.584385,-0.713716,11.189,-4.5122,-0.0609756
1082.85,5.33728,-4.73498,0,1.59269,9.19209,-2.92671,-4.32927,-55.061,-29.0549,-9.42201,-0.641865,-0.799937,10.9146,-5.09146,-0.0609756
1082.86,5.16819,-4.73817,0,1.77231,9.11784,-2.87402,-4.78659,-55.2744,-28.811,-9.44835,-0.694556,-0.799937,11.25,-5.06098,-0.304878
1082.87,5.03863,-4.76237,0,2.0693,9.14658,-2.88121,-4.87805,-52.5915,-28.689,-9.46751,-0.871787,-0.888552,11.7988,-4.87805,-0.640244
1082.88,4.92143,-4.81637,0,2.10762,9.14179,-2.92192,-5.7622,-47.8049,-28.1707,-9.44356,-1.02507,-1.01309,13.0793,-4.84756,-0.701219
1082.89,4.83795,-4.8645,0,2.22976,8.97414,-2.87402,-5.91463,-42.8659,-26.9512,-9.41722,-1.17595,-0.993933,14.2073,-4.63415,-0.731707
1082.9,4.78182,-4.95543,0,2.49561,8.94061,-2.84528,-5.45732,-32.9268,-27.6829,-9.331,-1.36516,-1.16637,15.7012,-4.63415,-0.335366
1082.91,4.72964,-5.07338,0,2.50759,8.98851,-2.8381,-5.18293,-23.5671,-27.378,-9.20646,-1.41067,-1.26697,17.1646,-4.26829,0.518293
1082.92,4.65221,-5.20074,0,2.51717,9.0867,-2.71595,-4.66463,-15.6098,-29.8476,-9.02204,-1.45138,-1.27415,18.9024,-3.65854,2.40854
1082.93,4.54935,-5.34672,0,2.39023,8.95737,-2.41657,-3.75,-7.34756,-31.4939,-8.93342,-1.48491,-1.32445,20.8232,-3.2622,4.05488
1082.94,4.4365,-5.5181,0,2.29203,8.99569,-2.41418,-3.23171,-2.80488,-31.4024,-8.90229,-1.42983,-1.35079,22.9878,-2.5,5.91463
1082.95,4.27104,-5.7917,0,1.84417,9.09628,-2.28964,-1.85976,-1.70732,-31.2195,-8.8975,-1.39869,-1.46815,24.8476,-1.58537,7.83537
1082.96,4.0808,-6.25281,0,1.67412,9.27112,-2.38544,-1.79878,2.10366,-31.5854,-8.93582,-1.346,-1.48252,26.4634,-0.518293,9.60366
1082.97,3.83767,-6.57275,0,1.17116,9.26154,-2.24174,-2.95732,1.31098,-31.189,-8.97414,-1.25739,-1.5376,28.2317,1.0061,11.25
1082.98,3.55506,-6.77003,0,0.835862,9.23999,-2.12678,-2.28659,-0.243902,-31.5549,-9.00288,-1.19751,-1.61424,29.939,2.22561,12.5305
1082.99,3.23499,-6.89557,0,0.62989,9.46991,-2.33035,-3.10976,-2.10366,-33.1707,-9.03641,-1.06339,-1.50886,30.7012,3.07927,13.6585
1083,2.88831,-6.99813,0,0.479004,9.59924,-2.33035,-5.03049,-7.68293,-34.6037,-9.08431,-0.924478,-1.46575,31.25,3.2622,14.878
1083.01,2.54803,-7.08604,0,0.617915,9.64235,-2.42376,-6.25,-11.128,-36.311,-9.12502,-0.799937,-1.4418,31.8293,3.41463,16.311
1083.02,2.24491,-7.21056,0,0.955613,9.63756,-2.61057,-6.89024,-12.0427,-37.2866,-8.99809,-0.706531,-1.60227,32.5305,4.63415,17.5305
1083.03,1.96684,-7.35659,0,1.14003,9.59445,-2.64889,-6.46341,-12.5,-37.622,-8.8975,-0.526904,-1.70046,33.628,5.70122,18.6585
1083.04,1.72523,-7.47934,0,1.46096,9.62079,-2.82133,-6.79878,-9.7561,-38.2622,-8.87594,-0.529299,-1.63101,34.2683,8.07927,19.939
1083.05,1.50399,-7.61418,0,1.64777,9.59924,-2.89318,-6.12805,-9.17683,-38.9329,-9.01246,-0.457449,-1.72441,34.7561,10.5183,20.6402
