time,angle1,angle2,intgangle,accX1,accY1,accZ1,gyroX1,gyroY1,gyroZ1,accX2,accY2,accZ2,gyroX2,gyroY2,gyroZ2
878.177,91.2592,-4.64662,0,9.82916,-0.241897,-0.792751,-0.243902,-0.518293,-0.548781,-9.93933,-0.347278,-0.833467,0.121951,0.121951,5.57927
878.187,91.2539,-4.64337,0,9.81719,-0.208367,-0.828677,-0.0304878,-0.243902,-0.335366,-9.92736,-0.347278,-0.799937,-0.121951,0.365854,5.33537
878.197,91.2597,-4.65036,0,9.80281,-0.246687,-0.840652,-0.213415,-0.182927,-0.335366,-9.87227,-0.328118,-0.816702,0.0914634,0.579268,5.27439
878.207,91.2615,-4.64908,0,9.81,-0.239502,-0.814307,-0.243902,-0.396341,-0.457317,-9.86988,-0.342488,-0.799937,-0.0609756,0.396341,5.45732
878.217,91.2657,-4.66389,0,9.8124,-0.244292,-0.799937,-0.121951,-0.213415,-0.365854,-9.87227,-0.330513,-0.835862,-0.0304878,0.640244,5.60976
878.227,91.2749,-4.65794,0,9.79803,-0.253872,-0.799937,-0.0609756,-0.243902,-0.213415,-9.8555,-0.337698,-0.790356,0.0609756,0.609756,5.67073
878.237,91.2812,-4.68246,0,9.79323,-0.251477,-0.780776,-0.0914634,-0.0914634,-0.335366,-9.88185,-0.328118,-0.857417,0.121951,0.518293,5.73171
878.247,91.2857,-4.67782,0,9.80281,-0.237107,-0.799937,-0.365854,0,-0.121951,-9.86269,-0.344883,-0.797541,0.152439,0.518293,5.94512
878.257,91.2937,-4.67978,0,9.7597,-0.251477,-0.799937,-0.518293,-0.0304878,-0.213415,-9.87946,-0.342488,-0.811912,0.0914634,0.335366,5.67073
878.267,91.2937,-4.66755,0,9.78605,-0.234712,-0.759221,-0.0609756,-0.121951,-0.396341,-9.88185,-0.313748,-0.783171,0.0304878,0.457317,5.97561
878.277,91.294,-4.68296,0,9.77407,-0.237107,-0.785566,-0.152439,-0.27439,-0.426829,-9.86988,-0.296982,-0.843047,0.182927,0.823171,5.82317
878.287,91.304,-4.68254,0,9.78366,-0.265847,-0.807122,-0.0609756,0.243902,-0.304878,-9.90341,-0.277822,-0.809517,0,0.792683,5.67073
878.297,91.2963,-4.69124,0,9.81719,-0.217947,-0.807122,-0.0304878,-0.0304878,-0.670732,-9.89622,-0.292192,-0.831072,0.0304878,0.762195,5.42683
878.307,91.3022,-4.71006,0,9.8076,-0.251477,-0.785566,-0.152439,0.152439,-0.27439,-9.92736,-0.292192,-0.864602,0.182927,0.97561,5.67073
878.317,91.3114,-4.70912,0,9.81,-0.258662,-0.761616,-0.0914634,0.0609756,-0.182927,-9.92257,-0.318538,-0.814307,0,0.914634,5.79268
878.327,91.3145,-4.70694,0,9.8124,-0.258662,-0.783171,-0.152439,0.243902,-0.548781,-9.92736,-0.320933,-0.811912,0.0304878,0.701219,5.7622
878.337,91.3073,-4.68696,0,9.78605,-0.215552,-0.807122,-0.152439,0.0609756,-0.518293,-9.94412,-0.311353,-0.771196,-0.365854,0.640244,5.64024
878.347,91.3065,-4.69446,0,9.79323,-0.227527,-0.819097,0,0.243902,-0.213415,-9.92017,-0.342488,-0.828677,-0.243902,0.426829,5.7622
878.357,91.3012,-4.69743,0,9.80042,-0.217947,-0.773591,0.0304878,0.365854,-0.396341,-9.93454,-0.313748,-0.821492,0.0304878,0.335366,5.51829
878.367,91.2926,-4.70706,0,9.77168,-0.205972,-0.795146,-0.121951,0.0304878,-0.457317,-9.93454,-0.361648,-0.833467,-0.27439,0.121951,5.7622
878.377,91.2966,-4.74997,0,9.80521,-0.244292,-0.771196,-0.121951,0.0304878,-0.27439,-9.92975,-0.301772,-0.905317,-0.304878,0.365854,5.91463
878.387,91.2924,-4.76601,0,9.79563,-0.217947,-0.773591,0.243902,-0.182927,-0.335366,-9.90101,-0.320933,-0.852627,-0.548781,0.243902,5.64024
878.397,91.2879,-4.80661,0,9.77647,-0.220342,-0.761616,0,0.182927,-0.457317,-9.92017,-0.337698,-0.898132,-0.579268,-0.0914634,5.73171
878.407,91.2893,-4.84454,0,9.81,-0.239502,-0.684976,0.0304878,-0.152439,-0.396341,-9.89383,-0.330513,-0.898132,-0.182927,0.121951,5.79268
878.417,91.3017,-4.86009,0,9.79803,-0.282612,-0.778381,-0.0914634,0,-0.426829,-9.89383,-0.352068,-0.866997,-0.365854,0.213415,5.70122
878.427,91.2993,-4.85888,0,9.79084,-0.229922,-0.787961,0.213415,-0.27439,-0.457317,-9.94173,-0.328118,-0.843047,-0.243902,0.121951,5.7622
878.437,91.2942,-4.86055,0,9.79803,-0.215552,-0.797541,0.121951,0.152439,-0.335366,-9.93933,-0.328118,-0.847837,-0.182927,0.152439,5.85366
878.447,91.2939,-4.85284,0,9.78844,-0.232317,-0.749641,0.0609756,0.27439,-0.365854,-9.87706,-0.340093,-0.826282,-0.213415,0.152439,5.88415
878.457,91.2978,-4.86444,0,9.79563,-0.251477,-0.811912,0.0304878,-0.213415,-0.426829,-9.90101,-0.332908,-0.859812,-0.27439,0.0304878,5.67073
878.467,91.297,-4.84319,0,9.79084,-0.239502,-0.740061,0.121951,0.182927,-0.548781,-9.89622,-0.325723,-0.802332,-0.0914634,0.243902,5.4878
878.477,91.2957,-4.88352,0,9.77647,-0.237107,-0.783171,-0.27439,-0.182927,-0.548781,-9.87706,-0.313748,-0.907712,-0.243902,0.152439,5.70122
878.487,91.3044,-4.90734,0,9.78605,-0.270637,-0.780776,-0.182927,0.243902,-0.457317,-9.89622,-0.296982,-0.888552,-0.152439,0.182927,5.67073
878.497,91.3168,-4.89645,0,9.7597,-0.282612,-0.754431,-0.243902,0.152439,-0.426829,-9.91299,-0.330513,-0.831072,-0.396341,0.182927,6.03659
878.507,91.3176,-4.88232,0,9.76689,-0.265847,-0.780776,0.0609756,0.0609756,-0.853659,-9.88904,-0.323328,-0.814307,-0.121951,0.640244,5.88415
878.517,91.3217,-4.88026,0,9.76689,-0.263452,-0.821492,0.0609756,0.213415,-0.579268,-9.92017,-0.316143,-0.843047,-0.335366,0.304878,5.82317
878.527,91.3153,-4.87142,0,9.80042,-0.225132,-0.792751,0.0914634,0.304878,-0.640244,-9.91059,-0.337698,-0.828677,-0.182927,0.304878,5.85366
878.537,91.3213,-4.86163,0,9.77168,-0.270637,-0.759221,0.182927,0,-0.579268,-9.90101,-0.313748,-0.826282,-0.335366,0.152439,5.45732
878.547,91.3189,-4.88095,0,9.79084,-0.256267,-0.737666,0,-0.0609756,-0.914634,-9.89622,-0.325723,-0.876577,-0.304878,0.182927,5.64024
878.557,91.3125,-4.85937,0,9.81479,-0.227527,-0.723296,-0.0914634,-0.0304878,-0.701219,-9.89622,-0.318538,-0.809517,0.0914634,0.0304878,5.7622
878.567,91.3106,-4.8631,0,9.78844,-0.241897,-0.732876,0.182927,0.121951,-0.640244,-9.86748,-0.311353,-0.845442,-0.335366,0.213415,5.60976
878.577,91.3082,-4.88061,0,9.82197,-0.232317,-0.752036,-0.0609756,0.121951,-0.457317,-9.88904,-0.332908,-0.876577,-0.213415,0.396341,5.67073
878.587,91.3094,-4.88661,0,9.79084,-0.241897,-0.778381,0.152439,0.121951,-0.396341,-9.90341,-0.354463,-0.857417,-0.152439,0.365854,6.0061
878.597,91.3042,-4.8938,0,9.77407,-0.229922,-0.756826,-0.0304878,0.243902,-0.701219,-9.90101,-0.335303,-0.859812,-0.152439,0.243902,5.64024
878.607,91.3085,-4.8785,0,9.80042,-0.251477,-0.778381,0.152439,0.27439,-0.365854,-9.91778,-0.335303,-0.821492,-0.27439,0.152439,5.79268
878.617,91.2999,-4.89288,0,9.80042,-0.205972,-0.775986,-0.0304878,0.426829,-0.396341,-9.9058,-0.330513,-0.869392,0.0609756,0.0304878,5.88415
878.627,91.3002,-4.89823,0,9.79323,-0.229922,-0.780776,-0.121951,0.182927,-0.213415,-9.88425,-0.328118,-0.855022,0.152439,0.0609756,5.91463
878.637,91.3012,-4.89433,0,9.79084,-0.244292,-0.823887,-0.182927,0.243902,-0.487805,-9.91299,-0.337698,-0.843047,-0.0304878,-0.0304878,5.88415
878.647,91.2958,-4.88953,0,9.77647,-0.222737,-0.744851,0.0304878,0.243902,-0.579268,-9.91778,-0.352068,-0.840652,0.121951,0.121951,5.88415
878.657,91.2961,-4.89503,0,9.77886,-0.227527,-0.732876,0.304878,-0.121951,-0.182927,-9.91538,-0.342488,-0.857417,0.0304878,0.0304878,5.64024
878.667,91.2999,-4.88265,0,9.79803,-0.246687,-0.775986,-0.0609756,-0.0609756,-0.335366,-9.91299,-0.356858,-0.828677,0.0304878,0,5.85366
878.677,91.303,-4.8689,0,9.81,-0.246687,-0.759221,-0.121951,-0.365854,-0.365854,-9.92017,-0.349673,-0.823887,0.152439,0.0609756,5.67073
878.687,91.2963,-4.86181,0,9.82916,-0.215552,-0.790356,-0.182927,-0.304878,-0.487805,-9.88185,-0.332908,-0.828677,0.182927,0.213415,5.97561
878.697,91.2973,-4.86838,0,9.8076,-0.229922,-0.802332,-0.121951,-0.152439,-0.152439,-9.89862,-0.318538,-0.852627,0.152439,0,5.82317
878.707,91.2942,-4.85639,0,9.77407,-0.232317,-0.752036,-0.213415,0.121951,-0.609756,-9.89143,-0.359253,-0.819097,0.304878,0.304878,5.82317
878.717,91.2899,-4.86704,0,9.78126,-0.220342,-0.742456,-0.213415,-0.304878,-0.426829,-9.92257,-0.328118,-0.862207,0,0.152439,5.67073
878.727,91.2877,-4.89084,0,9.78126,-0.220342,-0.740061,-0.213415,-0.121951,-0.243902,-9.89862,-0.359253,-0.883762,0,0.0914634,5.64024
878.737,91.2978,-4.89534,0,9.80521,-0.268242,-0.823887,-0.121951,-0.182927,-0.335366,-9.89862,-0.328118,-0.855022,-0.0914634,0.182927,5.7622
878.747,91.3028,-4.88445,0,9.78605,-0.249082,-0.775986,-0.0609756,0.0914634,-0.304878,-9.89862,-0.332908,-0.828677,-0.121951,0.121951,5.94512
878.757,91.3098,-4.87644,0,9.78844,-0.265847,-0.792751,-0.27439,-0.243902,-0.457317,-9.89622,-0.352068,-0.831072,-0.0609756,0.182927,6.0061
878.767,91.3106,-4.88058,0,9.79084,-0.251477,-0.785566,0.0609756,-0.0304878,-0.609756,-9.92257,-0.371228,-0.855022,-0.0914634,0.457317,6.0061
878.777,91.3146,-4.92176,0,9.8076,-0.263452,-0.814307,-0.152439,-0.0304878,-0.579268,-9.88664,-0.352068,-0.919688,-0.243902,0.213415,5.91463
878.787,91.3193,-4.92033,0,9.81719,-0.277822,-0.795146,0.0304878,0.0914634,-0.731707,-9.87946,-0.325723,-0.847837,0.0914634,0.27439,5.91463
878.797,91.3233,-4.91687,0,9.81958,-0.253872,-0.785566,-0.0914634,-0.152439,-0.365854,-9.89862,-0.328118,-0.845442,0,0.243902,5.60976
878.807,91.3251,-4.92648,0,9.81479,-0.258662,-0.833467,0.27439,-0.213415,-0.609756,-9.87706,-0.337698,-0.866997,-0.0304878,0.213415,6.0061
878.817,91.3298,-4.94766,0,9.77407,-0.258662,-0.780776,-0.0914634,0,-0.426829,-9.89383,-0.354463,-0.888552,-0.487805,-0.0609756,5.64024
878.827,91.3422,-4.94982,0,9.75252,-0.280217,-0.732876,0.152439,0.0304878,-0.335366,-9.86269,-0.320933,-0.857417,-0.121951,0.152439,5.88415
878.837,91.3493,-4.94541,0,9.7621,-0.275427,-0.809517,-0.121951,-0.213415,-0.518293,-9.87467,-0.352068,-0.847837,-0.121951,-0.0914634,5.94512
878.847,91.3467,-4.92726,0,9.78844,-0.251477,-0.754431,-0.121951,0.396341,-0.762195,-9.86748,-0.328118,-0.823887,-0.27439,0.0609756,6.12805
878.857,91.3498,-4.91272,0,9.75491,-0.263452,-0.773591,0.121951,0.27439,-0.579268,-9.91059,-0.328118,-0.828677,-0.213415,0.121951,5.79268
878.867,91.3499,-4.93185,0,9.79323,-0.253872,-0.795146,0.182927,0.335366,-0.579268,-9.86748,-0.330513,-0.883762,-0.213415,0.27439,5.85366
878.877,91.3454,-4.93242,0,9.77886,-0.249082,-0.790356,-0.182927,0.121951,-0.884146,-9.89862,-0.330513,-0.855022,-0.0914634,0.213415,5.97561
878.887,91.3464,-4.92033,0,9.79803,-0.253872,-0.823887,0.0914634,0.0304878,-0.518293,-9.91778,-0.330513,-0.831072,-0.396341,0.365854,5.85366
878.897,91.3408,-4.93846,0,9.78844,-0.229922,-0.799937,0.0304878,0.426829,-0.579268,-9.90101,-0.344883,-0.888552,-0.152439,0.365854,5.91463
878.907,91.3388,-4.94233,0,9.78605,-0.241897,-0.766406,-0.213415,0.304878,-0.548781,-9.91538,-0.347278,-0.864602,-0.335366,0.457317,5.57927
878.917,91.3311,-4.94176,0,9.8124,-0.220342,-0.797541,0.0304878,0.426829,-0.579268,-9.89862,-0.361648,-0.855022,-0.426829,0.0304878,5.79268
878.927,91.3277,-4.90931,0,9.82916,-0.251477,-0.799937,0.0609756,0.335366,-0.853659,-9.91538,-0.376018,-0.799937,-0.152439,0.121951,5.82317
878.937,91.3181,-4.91295,0,9.78126,-0.220342,-0.792751,0.182927,0.365854,-0.853659,-9.93454,-0.359253,-0.859812,0.0304878,-0.0914634,6.12805
878.947,91.3098,-4.88826,0,9.79084,-0.213157,-0.775986,0,0.0609756,-0.548781,-9.9082,-0.332908,-0.797541,-0.0609756,-0.548781,5.97561
878.957,91.305,-4.86384,0,9.76449,-0.225132,-0.744851,0.27439,0.152439,-0.548781,-9.9058,-0.335303,-0.799937,-0.182927,-0.304878,5.94512
878.967,91.2988,-4.85753,0,9.79563,-0.222737,-0.759221,0.335366,0.0609756,-0.640244,-9.9058,-0.332908,-0.831072,-0.0914634,-0.27439,5.79268
878.977,91.2963,-4.85007,0,9.81719,-0.225132,-0.740061,0.243902,0.0609756,-0.335366,-9.92017,-0.311353,-0.828677,-0.335366,0.243902,5.7622
878.987,91.296,-4.83878,0,9.8124,-0.241897,-0.804727,0.182927,0.121951,-0.548781,-9.87227,-0.318538,-0.819097,-0.396341,-0.0609756,5.70122
878.997,91.2974,-4.83968,0,9.79803,-0.239502,-0.759221,0.121951,-0.121951,-0.365854,-9.88185,-0.347278,-0.838257,-0.182927,-0.152439,6.0061
879.007,91.3018,-4.83835,0,9.78844,-0.265847,-0.768801,0.0304878,0.213415,-0.640244,-9.89862,-0.364043,-0.835862,-0.213415,-0.152439,6.06707
879.017,91.3126,-4.85173,0,9.79803,-0.270637,-0.764011,0.27439,0.27439,-0.304878,-9.91538,-0.349673,-0.862207,-0.365854,-0.0609756,5.97561
879.027,91.3133,-4.86939,0,9.79563,-0.251477,-0.740061,-0.365854,0.304878,-0.609756,-9.9058,-0.325723,-0.871787,-0.0304878,0.121951,6.09756
879.037,91.3145,-4.89816,0,9.80042,-0.253872,-0.783171,-0.182927,0.121951,-0.609756,-9.88664,-0.325723,-0.895737,0,0.243902,6.28049
879.047,91.3157,-4.93479,0,9.79563,-0.253872,-0.775986,-0.0609756,0.304878,-0.609756,-9.88904,-0.342488,-0.910107,-0.0609756,0.0914634,6.0061
879.057,91.3142,-4.97518,0,9.77886,-0.249082,-0.790356,0.121951,0,-0.731707,-9.87227,-0.337698,-0.924478,0.152439,0.182927,5.88415
879.067,91.3128,-4.99499,0,9.81958,-0.239502,-0.780776,-0.121951,-0.0914634,-0.518293,-9.91299,-0.335303,-0.898132,-0.152439,-0.121951,5.7622
879.077,91.3178,-4.99561,0,9.78844,-0.256267,-0.754431,0.152439,-0.335366,-0.396341,-9.9082,-0.335303,-0.866997,-0.243902,0.0304878,6.06707
879.087,91.3188,-4.9888,0,9.78605,-0.244292,-0.768801,-0.0304878,-0.426829,-0.426829,-9.92736,-0.340093,-0.855022,0.121951,0.182927,5.88415
879.097,91.3201,-5.00332,0,9.79803,-0.258662,-0.780776,-0.121951,-0.27439,-0.670732,-9.89862,-0.352068,-0.888552,-0.0914634,0.0609756,5.85366
879.107,91.3245,-5.03602,0,9.77886,-0.249082,-0.797541,0,-0.0914634,-0.27439,-9.91059,-0.344883,-0.924478,-0.0914634,0.0914634,6.06707
879.117,91.3197,-5.01968,0,9.81,-0.244292,-0.773591,-0.182927,0.27439,-0.884146,-9.91538,-0.347278,-0.845442,-0.0914634,-0.0914634,6.12805
879.127,91.3172,-5.03714,0,9.78844,-0.239502,-0.847837,0.0304878,0.121951,-0.609756,-9.91778,-0.328118,-0.900527,-0.182927,-0.0304878,5.91463
879.137,91.3181,-5.01587,0,9.80521,-0.244292,-0.775986,-0.27439,0.0609756,-0.426829,-9.88185,-0.352068,-0.833467,-0.0914634,0.152439,6.06707
879.147,91.3249,-5.00626,0,9.78605,-0.273032,-0.735271,-0.213415,0.0609756,-0.548781,-9.89862,-0.325723,-0.852627,-0.152439,-0.0609756,5.85366
879.157,91.3208,-4.98988,0,9.78126,-0.232317,-0.802332,0,0.0304878,-0.579268,-9.89383,-0.340093,-0.838257,-0.182927,-0.121951,5.82317
879.167,91.3253,-4.99834,0,9.77647,-0.253872,-0.761616,0.152439,0.121951,-0.365854,-9.89862,-0.325723,-0.878972,0.213415,0.121951,6.03659
879.177,91.3222,-4.9914,0,9.81,-0.244292,-0.795146,0,-0.152439,-0.731707,-9.9058,-0.340093,-0.855022,-0.0914634,0,5.82317
879.187,91.3223,-4.99331,0,9.81719,-0.251477,-0.775986,0.152439,-0.121951,-0.609756,-9.88904,-0.335303,-0.866997,0.0914634,0.213415,5.7622
879.197,91.3162,-4.99685,0,9.82916,-0.229922,-0.787961,0.182927,-0.0914634,-0.701219,-9.9058,-0.330513,-0.871787,0,0.182927,5.85366
879.207,91.3147,-4.98835,0,9.78605,-0.239502,-0.764011,0.0609756,0.0914634,-0.548781,-9.89143,-0.344883,-0.850232,-0.0914634,0.0914634,6.09756
879.217,91.307,-4.95599,0,9.8124,-0.232317,-0.799937,0,0.0914634,-0.945122,-9.92017,-0.335303,-0.809517,0.182927,0.0914634,5.88415
879.227,91.3054,-4.94545,0,9.79563,-0.244292,-0.761616,0.152439,-0.0304878,-0.670732,-9.89862,-0.320933,-0.840652,-0.152439,-0.0609756,5.91463
879.237,91.3052,-4.93378,0,9.79803,-0.241897,-0.783171,-0.0609756,0,-0.518293,-9.87946,-0.304167,-0.835862,0.0609756,-0.0304878,5.85366
879.247,91.3055,-4.92369,0,9.78605,-0.246687,-0.742456,-0.0914634,-0.182927,-0.579268,-9.88185,-0.335303,-0.835862,-0.152439,0.0914634,5.88415
879.257,91.3034,-4.92755,0,9.81719,-0.239502,-0.799937,0.182927,-0.0609756,-0.609756,-9.87706,-0.323328,-0.857417,-0.213415,0.121951,5.85366
879.267,91.3074,-4.91501,0,9.79323,-0.263452,-0.771196,0.0304878,0.0914634,-0.609756,-9.87467,-0.342488,-0.826282,-0.243902,0.365854,5.88415
879.277,91.3101,-4.92504,0,9.79084,-0.244292,-0.773591,-0.152439,0,-0.335366,-9.91778,-0.344883,-0.874182,-0.182927,0.487805,5.70122
879.287,91.3066,-4.92052,0,9.79323,-0.225132,-0.802332,-0.0304878,0,-0.396341,-9.93215,-0.359253,-0.847837,0.0914634,0.0914634,6.0061
879.297,91.3088,-4.90734,0,9.77407,-0.249082,-0.771196,0.121951,-0.0304878,-0.487805,-9.92736,-0.342488,-0.831072,-0.0609756,0.121951,5.82317
879.307,91.3029,-4.89417,0,9.79803,-0.225132,-0.787961,0,-0.243902,-0.640244,-9.89143,-0.323328,-0.826282,0.0609756,0.121951,5.70122
879.317,91.2987,-4.89075,0,9.78844,-0.217947,-0.754431,0.0609756,0.182927,-0.304878,-9.91778,-0.311353,-0.843047,-0.213415,-0.213415,6.0061
879.327,91.2919,-4.87978,0,9.78844,-0.222737,-0.761616,-0.152439,-0.0304878,-0.731707,-9.91299,-0.292192,-0.828677,-0.0304878,-0.152439,5.73171
879.337,91.2876,-4.88871,0,9.80521,-0.225132,-0.790356,-0.0304878,0.152439,-0.548781,-9.88185,-0.311353,-0.859812,-0.152439,-0.182927,5.91463
879.347,91.295,-4.88895,0,9.79803,-0.263452,-0.799937,-0.0914634,0.152439,-0.426829,-9.9082,-0.323328,-0.847837,-0.0914634,0.0304878,5.7622
879.357,91.2944,-4.89298,0,9.77886,-0.239502,-0.804727,-0.121951,0.27439,-0.548781,-9.87946,-0.318538,-0.852627,-0.0914634,0.335366,5.73171
879.367,91.2975,-4.87926,0,9.81719,-0.261057,-0.771196,-0.121951,0.121951,-0.640244,-9.91299,-0.292192,-0.823887,-0.27439,0.152439,5.79268
879.377,91.3056,-4.89219,0,9.78605,-0.273032,-0.759221,-0.0304878,-0.182927,-0.518293,-9.88185,-0.349673,-0.866997,-0.609756,0.213415,5.57927
879.387,91.298,-4.89499,0,9.81,-0.213157,-0.764011,0.365854,-0.0914634,-0.518293,-9.90101,-0.354463,-0.852627,-0.396341,0.304878,5.54878
879.397,91.2987,-4.90766,0,9.79323,-0.253872,-0.799937,0.152439,0,-0.701219,-9.93454,-0.376018,-0.876577,-0.487805,0.365854,6.0061
879.407,91.2975,-4.92374,0,9.81719,-0.234712,-0.737666,0.0609756,-0.0914634,-0.457317,-9.92496,-0.344883,-0.883762,-0.243902,0.304878,5.91463
879.417,91.2977,-4.94014,0,9.8076,-0.249082,-0.787961,0,-0.182927,-0.640244,-9.89383,-0.344883,-0.881367,0,0.152439,5.82317
879.427,91.295,-4.92396,0,9.81479,-0.237107,-0.773591,0.0304878,-0.0914634,-0.640244,-9.88904,-0.347278,-0.823887,-0.304878,0.27439,5.91463
879.437,91.3003,-4.91999,0,9.81,-0.261057,-0.840652,0.0304878,0.182927,-0.487805,-9.89143,-0.325723,-0.845442,0.365854,0.0609756,5.88415
879.447,91.303,-4.97143,0,9.82916,-0.253872,-0.768801,-0.0304878,-0.0609756,-0.518293,-9.92736,-0.337698,-0.943638,-0.396341,-0.0609756,6.03659
879.457,91.3062,-4.98075,0,9.84832,-0.261057,-0.797541,0.121951,-0.213415,-0.579268,-9.91059,-0.328118,-0.878972,-0.152439,0.182927,5.85366
879.467,91.3089,-4.97571,0,9.8124,-0.241897,-0.797541,0,0.121951,-0.27439,-9.90101,-0.325723,-0.852627,-0.243902,0.335366,5.60976
879.477,91.3156,-4.98737,0,9.81479,-0.263452,-0.775986,0.152439,-0.0914634,-0.396341,-9.90101,-0.354463,-0.883762,-0.365854,0.243902,5.97561
879.487,91.3197,-5.01996,0,9.80521,-0.241897,-0.752036,-0.121951,0.335366,-0.121951,-9.90101,-0.347278,-0.917292,-0.213415,0,5.85366
879.497,91.318,-5.03613,0,9.79563,-0.227527,-0.821492,-0.121951,0.243902,-0.243902,-9.91059,-0.349673,-0.900527,-0.426829,0.213415,5.85366
879.507,91.314,-5.05254,0,9.77168,-0.220342,-0.826282,0.0609756,0.426829,-0.27439,-9.90341,-0.328118,-0.900527,-0.396341,0.0609756,5.82317
879.517,91.3191,-5.06749,0,9.78605,-0.237107,-0.783171,0.152439,0.182927,0.0914634,-9.92017,-0.349673,-0.905317,-0.182927,-0.213415,5.60976
879.527,91.3191,-5.07361,0,9.79323,-0.232317,-0.764011,0.27439,0.152439,-0.213415,-9.92975,-0.373623,-0.890947,0,-0.0304878,5.73171
879.537,91.3275,-5.08148,0,9.80281,-0.251477,-0.816702,0.243902,0.335366,-0.0304878,-9.93454,-0.376018,-0.895737,-0.304878,-0.0609756,5.7622
879.547,91.3295,-5.07019,0,9.79563,-0.244292,-0.790356,0.487805,0.213415,-0.304878,-9.93454,-0.378413,-0.862207,0.213415,-0.213415,5.73171
879.557,91.3306,-5.0685,0,9.77647,-0.234712,-0.790356,0.243902,0.640244,-0.152439,-9.94173,-0.337698,-0.878972,0.182927,-0.27439,5.94512
879.567,91.3409,-5.03505,0,9.81,-0.265847,-0.799937,0.396341,0.335366,-0.152439,-9.9561,-0.359253,-0.809517,-0.0914634,-0.487805,5.97561
879.577,91.3439,-5.01724,0,9.76689,-0.256267,-0.797541,0.396341,0.396341,-0.457317,-9.92975,-0.323328,-0.828677,-0.152439,-0.914634,5.85366
879.587,91.3435,-5.01091,0,9.79084,-0.241897,-0.795146,0.487805,0.396341,-0.396341,-9.89622,-0.299377,-0.852627,-0.0914634,-1.0061,6.15854
879.597,91.3481,-5.02244,0,9.81479,-0.263452,-0.797541,0.518293,0.670732,-0.426829,-9.92017,-0.328118,-0.902922,0,-1.06707,5.85366
879.607,91.3528,-5.02624,0,9.78605,-0.268242,-0.795146,0.457317,0.365854,-0.518293,-9.93454,-0.299377,-0.883762,-0.27439,-0.884146,5.88415
879.617,91.3648,-5.03085,0,9.79084,-0.270637,-0.823887,0.548781,0.304878,-0.0914634,-9.89622,-0.299377,-0.881367,0.0609756,-0.609756,5.67073
879.628,91.3683,-5.03568,0,9.81719,-0.253872,-0.799937,0.365854,0.396341,-0.243902,-9.9058,-0.318538,-0.886157,-0.213415,-1.03659,5.79268
879.637,91.3741,-5.06823,0,9.82916,-0.265847,-0.833467,0.823171,0.731707,-0.304878,-9.91299,-0.323328,-0.965193,-0.182927,-1.06707,5.82317
879.647,91.391,-5.07604,0,9.79323,-0.318538,-0.749641,0.731707,0.884146,-0.487805,-9.91059,-0.349673,-0.902922,0,-1.21951,5.91463
879.657,91.3932,-5.06639,0,9.78366,-0.253872,-0.795146,0.426829,0.762195,-0.27439,-9.89383,-0.332908,-0.852627,0.121951,-1.12805,5.67073
879.667,91.3939,-5.08293,0,9.78126,-0.268242,-0.766406,0.518293,0.945122,-0.670732,-9.94891,-0.328118,-0.929268,-0.152439,-1.03659,5.7622
879.677,91.3928,-5.09484,0,9.77647,-0.258662,-0.785566,0.670732,1.03659,-0.640244,-9.93694,-0.304167,-0.922083,-0.243902,-1.37195,5.91463
879.687,91.4007,-5.09774,0,9.78605,-0.296982,-0.804727,0.335366,0.884146,-0.640244,-9.91778,-0.308958,-0.893342,0.182927,-1.09756,5.97561
879.697,91.4064,-5.11289,0,9.76928,-0.280217,-0.807122,0.426829,1.06707,-0.518293,-9.97286,-0.337698,-0.941243,-0.457317,-1.55488,5.91463
879.707,91.4119,-5.13922,0,9.70941,-0.275427,-0.783171,0.365854,0.731707,-0.487805,-9.94891,-0.340093,-0.979563,-0.396341,-1.61585,5.64024
879.717,91.4134,-5.21131,0,9.69264,-0.292192,-0.809517,0.152439,0.518293,-1.0061,-9.93454,-0.342488,-1.11847,-0.304878,-1.34146,5.70122
879.727,91.4148,-5.29547,0,9.74054,-0.277822,-0.771196,0.609756,0.487805,-0.762195,-9.95849,-0.306563,-1.18314,-0.27439,-1.46341,5.51829
879.737,91.4197,-5.39611,0,9.77168,-0.287402,-0.852627,0.945122,0.426829,-0.640244,-9.98005,-0.330513,-1.21906,-0.670732,-1.06707,5.57927
879.747,91.4201,-5.58135,0,9.8076,-0.270637,-0.850232,1.03659,0.670732,-0.640244,-10.0303,-0.349673,-1.42983,-1.06707,-0.670732,5.73171
879.757,91.4203,-5.78868,0,9.78605,-0.292192,-0.797541,1.18902,1.34146,-1.0061,-10.1214,-0.328118,-1.44899,-1.31098,0.213415,5.42683
879.767,91.4128,-5.9721,0,9.76928,-0.273032,-0.881367,1.40244,1.89024,-1.34146,-10.1501,-0.354463,-1.60945,-1.79878,1.03659,5.60976
879.777,91.4044,-6.22452,0,9.71659,-0.299377,-0.819097,1.12805,2.19512,-1.82927,-10.2315,-0.361648,-2.22018,-0.823171,4.35976,5.2439
879.787,91.3903,-6.43851,0,9.63277,-0.352068,-0.828677,1.18902,2.22561,-3.01829,-10.2674,-0.359253,-2.10522,-0.457317,7.86585,4.72561
879.797,91.3613,-6.5178,0,9.65911,-0.306563,-0.902922,1.12805,2.53049,-3.87195,-10.5764,-0.299377,-1.56155,-1.15854,8.38415,3.78049
879.807,91.3178,-6.50107,0,9.78366,-0.179626,-0.941243,2.9878,2.80488,-3.78049,-10.9572,-0.308958,-1.16398,-2.10366,6.4939,2.83537
879.817,91.2687,-6.49326,0,9.8603,-0.119751,-0.819097,3.93293,1.40244,-3.68902,-11.1009,-0.256267,-1.22386,-2.53049,3.2622,1.95122
879.827,91.2272,-6.57433,0,9.82677,-0.258662,-0.651445,3.90244,0.731707,-4.72561,-10.8039,-0.234712,-1.50647,-2.56098,0.457317,1.7378
879.837,91.189,-6.61781,0,9.81,-0.347278,-0.64426,3.04878,-0.884146,-5.54878,-10.4183,-0.227527,-1.39151,-2.92683,-2.56098,2.62195
879.847,91.1434,-6.62516,0,9.8579,-0.356858,-0.622705,3.17073,-1.89024,-6.46341,-10.2746,-0.342488,-1.23104,-3.35366,-5.91463,3.44512
879.857,91.0897,-6.60345,0,9.90341,-0.306563,-0.682581,3.29268,-1.95122,-6.76829,-10.3082,-0.421523,-1.1041,-3.84146,-7.34756,4.26829
879.867,91.0382,-6.64491,0,9.92975,-0.304167,-0.61552,3.01829,-1.06707,-6.61585,-9.94891,-0.450264,-1.34361,-3.23171,-8.32317,4.96951
879.877,90.989,-6.67009,0,9.98005,-0.277822,-0.656235,2.62195,0.457317,-6.15854,-9.83395,-0.483794,-1.26457,-2.80488,-9.48171,5.2439
879.887,90.9551,-6.67629,0,9.97526,-0.349673,-0.725691,2.5,2.10366,-5.54878,-9.62079,-0.423918,-1.15919,-2.2561,-8.81098,5.7622
879.897,90.9208,-6.67001,0,9.97286,-0.318538,-0.730481,2.65244,3.44512,-5.30488,-9.54176,-0.423918,-1.09692,-1.67683,-8.14024,6.0061
879.907,90.8988,-6.6088,0,9.93215,-0.311353,-0.589175,3.04878,2.92683,-4.08537,-9.50823,-0.395178,-0.859812,-1.95122,-8.44512,6.15854
879.917,90.8856,-6.53748,0,9.75731,-0.347278,-0.675395,3.81098,2.16463,-3.78049,-9.53697,-0.397573,-0.809517,-2.04268,-8.78049,6.0061
879.927,90.8794,-6.50535,0,9.67827,-0.364043,-0.701741,3.81098,2.77439,-3.41463,-9.52978,-0.469424,-0.962798,-1.82927,-8.56707,6.0061
879.937,90.8675,-6.43095,0,9.54655,-0.371228,-0.622705,2.7439,3.84146,-4.08537,-9.46991,-0.428708,-0.773591,-1.34146,-8.59756,5.60976
879.947,90.8475,-6.35585,0,9.54415,-0.366438,-0.65863,2.31707,3.35366,-4.81707,-9.47709,-0.438289,-0.759221,-0.701219,-9.17683,5.79268
879.957,90.822,-6.31281,0,9.57289,-0.383203,-0.759221,2.9878,3.5061,-5.57927,-9.55373,-0.452659,-0.888552,0.27439,-8.93293,5.57927
879.967,90.7923,-6.226,0,9.56571,-0.404758,-0.754431,3.20122,2.95732,-6.31098,-9.59684,-0.409548,-0.699346,0.823171,-9.48171,5.39634
879.977,90.7411,-6.1179,0,9.6663,-0.256267,-0.696951,2.80488,2.95732,-6.70732,-9.70701,-0.402363,-0.60115,1.67683,-9.5122,5.18293
879.987,90.6889,-6.01561,0,9.74533,-0.217947,-0.63468,2.28659,1.76829,-6.43293,-9.79084,-0.399968,-0.613125,1.85976,-9.72561,5.18293
879.997,90.6265,-5.91857,0,9.77168,-0.155676,-0.656235,2.34756,1.40244,-6.82927,-9.82437,-0.395178,-0.62031,1.79878,-9.60366,4.87805
880.007,90.5577,-5.83128,0,9.7621,-0.0981958,-0.720901,1.98171,1.95122,-6.92073,-9.79803,-0.421523,-0.64426,1.79878,-9.57317,5.09146
880.017,90.4856,-5.73533,0,9.78844,-0.0718506,-0.64426,1.58537,2.22561,-7.07317,-9.87706,-0.469424,-0.59636,2.07317,-9.42073,4.78659
880.027,90.4059,-5.62767,0,9.82197,-0.00958008,-0.682581,1.61585,2.43902,-7.2561,-9.98244,-0.481399,-0.534089,1.70732,-9.17683,4.45122
880.037,90.3275,-5.48259,0,9.87227,0.0311353,-0.699346,1.61585,2.59146,-6.79878,-10.1525,-0.431104,-0.356858,1.40244,-9.84756,3.9939
880.047,90.2447,-5.34606,0,9.91059,0.0958008,-0.692161,2.0122,2.31707,-6.64634,-10.1693,-0.323328,-0.371228,1.4939,-11.25,4.05488
880.057,90.1536,-5.19049,0,9.9537,0.170046,-0.713716,2.16463,2.40854,-6.79878,-10.2028,-0.308958,-0.263452,1.09756,-12.4695,4.35976
880.067,90.0743,-5.0258,0,9.92496,0.129331,-0.684976,1.82927,3.17073,-6.25,-10.2124,-0.296982,-0.196392,1.25,-14.1463,4.93902
880.077,89.9865,-4.88535,0,9.88185,0.227527,-0.682581,1.92073,3.35366,-6.09756,-10.1477,-0.273032,-0.275427,1.06707,-15.3049,4.84756
880.087,89.9014,-4.7306,0,9.92496,0.294587,-0.689766,2.19512,2.83537,-5.21341,-10.0998,-0.294587,-0.186812,1.09756,-16.5549,4.84756
880.097,89.8202,-4.57053,0,9.9561,0.344883,-0.656235,2.22561,2.43902,-4.35976,-10.0998,-0.304167,-0.136516,0.945122,-17.4085,5.03049
880.107,89.7503,-4.40416,0,9.9537,0.304167,-0.64905,2.19512,2.07317,-3.81098,-10.1309,-0.364043,-0.0814307,0.731707,-18.4146,4.72561
880.117,89.691,-4.26364,0,9.96807,0.285007,-0.661025,2.2561,3.07927,-2.9878,-10.1237,-0.402363,-0.167651,0.396341,-18.7805,4.42073
880.127,89.6518,-4.09901,0,9.92975,0.177231,-0.59157,2.19512,2.92683,-2.28659,-10.1094,-0.409548,-0.0359253,0.548781,-19.6951,4.17683
880.137,89.6217,-3.95434,0,9.86269,0.114961,-0.603545,2.0122,2.7439,-2.31707,-10.0375,-0.378413,-0.0958008,0.0914634,-20.4268,4.2378
880.147,89.6053,-3.78263,0,9.86988,0.0359253,-0.56283,2.04268,2.71341,-2.10366,-10.0878,-0.347278,0.0479004,0.365854,-22.1341,4.14634
880.157,89.5819,-3.61753,0,9.81,0.0838257,-0.62031,2.19512,2.37805,-2.16463,-10.0447,-0.313748,0.0479004,-0.426829,-22.8963,4.32927
880.167,89.5555,-3.48096,0,9.82197,0.112566,-0.63947,2.40854,1.82927,-2.10366,-9.99681,-0.304167,-0.0502954,-0.426829,-24.1463,4.60366
880.177,89.5313,-3.32839,0,9.79803,0.0910107,-0.60594,2.56098,1.46341,-2.2561,-9.89143,-0.304167,0.0431104,-0.609756,-24.6951,4.5122
880.187,89.5134,-3.20331,0,9.82437,0.105381,-0.62031,2.37805,1.61585,-1.40244,-9.83156,-0.383203,-0.0502954,-1.09756,-24.878,4.54268
880.197,89.5043,-3.06324,0,9.82197,0.0574805,-0.637075,2.31707,1.58537,-1.40244,-9.81479,-0.440684,0.0359253,-1.43293,-25.0915,4.66463
880.207,89.504,-2.93484,0,9.82677,0.0287402,-0.61073,2.2561,1.79878,-1.12805,-9.87946,-0.428708,0.00958008,-1.12805,-24.9695,4.81707
880.217,89.513,-2.81485,0,9.83395,-0.0287402,-0.598755,2.68293,2.04268,-1.21951,-9.92257,-0.428708,-0.00479004,-1.03659,-24.8476,4.66463
880.227,89.5266,-2.69959,0,9.82437,-0.0455054,-0.500559,2.13415,2.28659,-1.12805,-9.98723,-0.423918,-0.00479004,-1.21951,-24.878,4.45122
880.237,89.5381,-2.57366,0,9.83635,-0.0718506,-0.59157,1.7378,2.34756,-1.46341,-10.0112,-0.402363,0.0622705,-1.43293,-25.0915,4.05488
880.247,89.5466,-2.45133,0,9.81958,-0.0862207,-0.684976,2.2561,2.53049,-1.76829,-9.93933,-0.431104,0.0670605,-1.46341,-26.0061,3.53659
880.257,89.5466,-2.31289,0,9.8124,-0.0359253,-0.708926,2.0122,3.23171,-1.79878,-9.89862,-0.416733,0.158071,-1.12805,-26.25,3.38415
880.267,89.5338,-2.17973,0,9.84114,0.0119751,-0.65863,1.21951,3.9939,-2.2561,-9.90341,-0.433499,0.158071,-1.43293,-27.3171,2.9878
880.277,89.5407,-2.07422,0,9.78366,-0.0550855,-0.56283,0.762195,3.90244,-1.58537,-9.86988,-0.457449,0.0598755,-1.21951,-27.6829,3.04878
880.287,89.5335,-1.94581,0,9.81,0.00718506,-0.500559,0.426829,3.96341,-1.85976,-9.82916,-0.529299,0.177231,-0.762195,-27.378,3.20122
880.297,89.5378,-1.80236,0,9.86748,-0.0910107,-0.536484,0.243902,3.17073,-2.07317,-9.89622,-0.58199,0.265847,-1.0061,-27.8659,3.56707
880.307,89.5338,-1.6496,0,9.88904,-0.0287402,-0.58678,1.0061,2.62195,-2.0122,-9.94891,-0.589175,0.332908,-0.579268,-28.0488,3.23171
880.317,89.5145,-1.48536,0,9.87946,0.0694556,-0.435894,0.884146,3.20122,-2.13415,-10.004,-0.579595,0.411943,-0.365854,-28.2622,3.53659
880.327,89.5005,-1.32557,0,9.81719,0.0479004,-0.445474,-0.243902,3.78049,-1.98171,-9.97047,-0.500559,0.419128,-0.0609756,-28.7805,3.29268
880.337,89.4757,-1.17064,0,9.74533,0.110171,-0.459844,-0.731707,4.72561,-2.16463,-9.93215,-0.438289,0.423918,-0.152439,-28.8415,3.29268
880.347,89.4644,-1.01109,0,9.71659,0.0431104,-0.431104,-0.670732,5.42683,-1.89024,-9.90101,-0.428708,0.469424,0.152439,-29.0854,3.23171
880.357,89.4696,-0.820561,0,9.69025,-0.0862207,-0.435894,-0.487805,5.60976,-2.16463,-9.86269,-0.404758,0.62989,-0.365854,-29.5122,3.41463
880.367,89.4635,-0.659588,0,9.57768,-0.0886157,-0.555645,-0.426829,5.67073,-3.04878,-9.87227,-0.455054,0.534089,0.0609756,-29.8476,3.23171
880.377,89.4463,-0.48679,0,9.63037,-0.112566,-0.502954,-0.548781,5.03049,-4.29878,-9.86509,-0.459844,0.613125,0.121951,-29.8171,3.10976
880.387,89.4224,-0.282996,0,9.65672,-0.117356,-0.407153,-0.426829,3.71951,-5.03049,-9.90101,-0.519719,0.780776,0.0304878,-30.4268,3.04878
880.397,89.382,-0.0832424,0,9.71899,-0.00718506,-0.352068,-1.28049,3.29268,-5.39634,-9.98244,-0.493374,0.804727,0.152439,-30.7927,3.2622
880.407,89.3543,0.101485,0,9.83395,-0.134121,-0.435894,-0.945122,2.5,-5.70122,-9.98963,-0.507744,0.773591,0.396341,-31.0061,3.38415
880.417,89.3123,0.313227,0,9.81958,-0.0479004,-0.411943,-0.27439,1.55488,-6.18902,-9.92496,-0.459844,0.919688,0.304878,-31.189,3.44512
880.427,89.2717,0.496017,0,9.89622,-0.0431104,-0.395178,-0.396341,1.21951,-6.06707,-9.86509,-0.452659,0.823887,0.213415,-31.3415,3.81098
880.437,89.2142,0.711884,0,9.88425,0.0670605,-0.390388,-0.701219,-0.182927,-6.55488,-9.81958,-0.447869,0.996328,-0.487805,-31.0366,3.90244
880.447,89.1646,0.95356,0,9.9561,0.0383203,-0.457449,-1.06707,-0.457317,-6.21951,-9.78844,-0.490979,1.14242,-1.03659,-31.8902,4.02439
880.457,89.1111,1.17827,0,9.96089,0.0838257,-0.502954,-0.121951,0.426829,-6.18902,-9.77647,-0.498164,1.10889,-1.55488,-31.7378,4.7561
880.467,89.0609,1.38649,0,9.87227,0.0814307,-0.531694,0.579268,1.18902,-5.97561,-9.70462,-0.490979,1.06818,-1.46341,-31.3415,4.90854
880.477,88.9972,1.61168,0,9.77168,0.153281,-0.421523,0.396341,1.31098,-6.58537,-9.67109,-0.526904,1.17356,-1.37195,-31.128,5.27439
880.487,88.9331,1.8499,0,9.79084,0.170046,-0.292192,0.0609756,0.0914634,-6.55488,-9.67588,-0.548459,1.26936,-0.97561,-31.0366,6.03659
880.497,88.8473,2.07528,0,9.71899,0.289797,-0.256267,-0.670732,0.0304878,-7.43902,-9.71899,-0.593965,1.25978,-0.0914634,-31.4634,6.12805
880.507,88.7682,2.30478,0,9.75252,0.244292,-0.308958,-1.92073,-1.18902,-7.5,-9.74054,-0.665815,1.31966,1.25,-31.372,6.40244
880.517,88.704,2.53686,0,9.80281,0.138911,-0.507744,-1.28049,-2.40854,-7.40854,-9.6639,-0.694556,1.36037,2.59146,-30.8537,5.85366
880.527,88.621,2.76757,0,9.76928,0.253872,-0.340093,-0.213415,-3.10976,-8.07927,-9.65911,-0.756826,1.3939,4.11585,-30.5183,5.79268
880.537,88.5438,3.00282,0,9.78844,0.172441,-0.347278,-0.548781,-3.47561,-8.62805,-9.62558,-0.819097,1.44899,5.60976,-29.7866,5.51829
880.547,88.4519,3.23409,0,9.84832,0.313748,-0.402363,-0.914634,-3.81098,-8.62805,-9.45075,-0.840652,1.44659,7.22561,-28.3841,5.7622
880.557,88.3623,3.48744,0,9.82437,0.277822,-0.371228,-0.853659,-3.53659,-8.9939,-9.39327,-0.871787,1.57113,8.20122,-27.561,5.39634
880.567,88.2937,3.73734,0,9.82677,0.172441,-0.476609,-1.21951,-4.5122,-8.29268,-9.36692,-0.833467,1.59508,8.62805,-27.0427,5.79268
880.577,88.2147,4.0142,0,9.69743,0.244292,-0.414338,-0.335366,-5.27439,-8.59756,-9.34297,-0.764011,1.74836,8.56707,-26.1585,5.64024
880.587,88.1391,4.3182,0,9.74773,0.227527,-0.399968,-0.304878,-6.03659,-8.62805,-9.34058,-0.66821,1.91123,7.9878,-25.7012,6.09756
880.597,88.0631,4.63539,0,9.75731,0.241897,-0.457449,-0.579268,-5.82317,-8.65854,-9.36932,-0.59636,2.02619,7.34756,-25.3049,6.12805
880.607,87.9787,4.91612,0,9.77407,0.318538,-0.493374,-0.945122,-5.36585,-8.75,-9.41243,-0.500559,1.93278,6.64634,-24.3598,6.03659
880.617,87.9095,5.21197,0,9.91538,0.253872,-0.617915,-1.58537,-5.15244,-8.20122,-9.46033,-0.423918,2.05732,6.40244,-23.8415,6.0061
880.627,87.8191,5.52366,0,9.81958,0.392783,-0.61552,-1.18902,-5.15244,-8.81098,-9.47709,-0.354463,2.18186,5.91463,-23.811,6.15854
880.637,87.7326,5.82823,0,9.87946,0.416733,-0.59636,-1.64634,-4.32927,-8.35366,-9.42919,-0.364043,2.19384,5.21341,-23.6585,6.34146
880.647,87.6559,6.13963,0,9.86269,0.404758,-0.696951,-1.46341,-4.08537,-7.65244,-9.42201,-0.380808,2.27527,4.7561,-23.3841,6.15854
880.657,87.5608,6.43388,0,9.76928,0.538879,-0.665815,-0.884146,-3.84146,-8.04878,-9.35734,-0.435894,2.23934,4.45122,-22.561,6.15854
880.667,87.4725,6.72916,0,9.78126,0.514929,-0.742456,-1.18902,-3.17073,-7.83537,-9.34297,-0.505349,2.29203,4.39024,-21.5549,6.0061
880.677,87.3996,7.00428,0,9.77886,0.459844,-0.785566,-0.792683,-3.84146,-7.10366,-9.36213,-0.55804,2.2609,4.57317,-20.2439,5.54878
880.687,87.315,7.28032,0,9.79803,0.560435,-0.65384,-0.701219,-3.10976,-7.2561,-9.38369,-0.584385,2.31838,4.84756,-19.6341,5.12195
880.697,87.2547,7.55562,0,9.79084,0.407153,-0.749641,-0.670732,-3.10976,-6.76829,-9.39327,-0.61552,2.36628,4.78659,-18.75,5.15244
880.707,87.21,7.8473,0,9.88425,0.313748,-0.797541,-0.182927,-2.65244,-6.46341,-9.40764,-0.584385,2.49082,5.12195,-18.5366,5.36585
880.717,87.1387,8.13839,0,9.75012,0.479004,-0.704136,0.609756,-2.34756,-7.22561,-9.38608,-0.555645,2.53393,4.78659,-18.2012,5.60976
880.727,87.0762,8.42332,0,9.88185,0.445474,-0.783171,0.609756,-2.10366,-6.95122,-9.35974,-0.474214,2.5507,4.57317,-18.1098,6.0061
880.737,87.0231,8.70722,0,9.84593,0.404758,-0.876577,1.37195,-1.67683,-6.58537,-9.35734,-0.404758,2.5962,3.84146,-17.378,6.34146
880.747,86.9505,9.00067,0,9.82916,0.570015,-0.732876,1.55488,-0.701219,-6.70732,-9.29268,-0.371228,2.67045,3.35366,-17.0427,6.52439
880.757,86.9,9.2794,0,9.95131,0.450264,-0.764011,1.37195,1.06707,-6.09756,-9.31423,-0.301772,2.66326,2.86585,-16.5854,6.67683
880.767,86.8298,9.54785,0,9.8579,0.603545,-0.778381,1.67683,0.670732,-6.34146,-9.26633,-0.352068,2.65368,2.22561,-15.7622,6.40244
880.777,86.7629,9.82326,0,9.87467,0.61073,-0.766406,1.98171,1.12805,-6.06707,-9.26873,-0.349673,2.73272,1.4939,-15.2439,6.46341
880.787,86.7342,10.0863,0,9.99681,0.397573,-0.797541,2.07317,1.46341,-4.90854,-9.26394,-0.364043,2.72553,1.18902,-14.6037,6.28049
880.797,86.6692,10.3472,0,9.82916,0.641865,-0.704136,2.80488,1.58537,-5.67073,-9.24478,-0.433499,2.75667,0.823171,-13.9939,6.55488
880.807,86.6169,10.6104,0,9.83395,0.570015,-0.682581,2.7439,1.40244,-5.36585,-9.21603,-0.447869,2.80457,0.762195,-13.5976,6.28049
880.817,86.5909,10.85,0,9.8603,0.428708,-0.720901,2.34756,0.792683,-4.5122,-9.18969,-0.438289,2.7399,0.670732,-12.3476,6.40244
880.827,86.5266,11.0868,0,9.72138,0.673001,-0.622705,3.29268,0.792683,-5.42683,-9.16334,-0.486189,2.76146,0.457317,-11.6159,6.43293
880.837,86.4715,11.3318,0,9.75012,0.617915,-0.62031,3.20122,0.762195,-5.30488,-9.12742,-0.452659,2.82852,0.670732,-11.2805,6.82927
880.847,86.4453,11.5648,0,9.81719,0.493374,-0.704136,3.17073,-0.27439,-4.05488,-9.15856,-0.488584,2.82852,0.762195,-10.8537,6.95122
880.857,86.3816,11.7941,0,9.78366,0.771196,-0.529299,3.75,0.121951,-4.5122,-9.20166,-0.476609,2.86684,0.792683,-9.90854,6.7378
880.867,86.3202,12.0104,0,9.82437,0.756826,-0.512534,3.20122,1.09756,-4.63415,-9.2328,-0.481399,2.85965,0.426829,-9.2378,6.82927
880.877,86.2667,12.224,0,9.8603,0.732876,-0.58199,3.32317,1.15854,-4.26829,-9.23999,-0.414338,2.88839,0.670732,-8.71951,6.70732
880.887,86.2382,12.4499,0,9.8555,0.646655,-0.550855,2.86585,0.365854,-2.86585,-9.2328,-0.392783,2.9794,0.365854,-7.89634,6.43293
880.897,86.1915,12.656,0,9.68785,0.761616,-0.543669,3.47561,0.518293,-3.14024,-9.1825,-0.397573,2.91474,0.304878,-7.10366,6.55488
880.907,86.1416,12.8379,0,9.73336,0.799937,-0.414338,2.43902,0.792683,-3.10976,-9.1825,-0.385598,2.84049,0.426829,-5.88415,6.28049
880.917,86.1012,13.0332,0,9.79084,0.773591,-0.476609,2.13415,-0.0609756,-2.59146,-9.20406,-0.409548,2.93869,0.0914634,-5.7622,6.4939
880.927,86.0696,13.2207,0,9.81719,0.728086,-0.479004,2.04268,-0.731707,-2.40854,-9.22801,-0.419128,2.94587,-0.0304878,-5.73171,6.21951
880.937,86.0446,13.3951,0,9.83156,0.716111,-0.447869,1.7378,-0.853659,-1.95122,-9.23759,-0.450264,2.91713,-0.182927,-4.84756,6.37195
880.947,86.0205,13.5773,0,9.89383,0.728086,-0.495769,1.34146,-1.21951,-1.79878,-9.25436,-0.483794,2.9794,-0.0609756,-4.29878,6.09756
880.957,85.9999,13.7503,0,9.88425,0.740061,-0.536484,1.34146,-1.06707,-1.15854,-9.26633,-0.481399,2.96743,-0.365854,-3.96341,6.18902
880.967,85.9844,13.9128,0,9.88185,0.725691,-0.58199,1.15854,-1.37195,-0.884146,-9.26394,-0.512534,2.94348,0.0914634,-3.68902,6.28049
880.977,85.964,14.0677,0,9.82437,0.752036,-0.517324,1.15854,-1.7378,-0.548781,-9.2807,-0.524509,2.91953,-0.0914634,-3.07927,6.61585
880.987,85.952,14.2109,0,9.80042,0.720901,-0.548459,0.945122,-1.82927,-0.457317,-9.23759,-0.479004,2.85965,0.121951,-2.71341,6.55488
880.997,85.9479,14.3687,0,9.74054,0.687371,-0.512534,0.396341,-1.95122,-0.487805,-9.26394,-0.490979,2.91234,0.518293,-2.2561,6.55488
881.007,85.9589,14.5217,0,9.77647,0.651445,-0.584385,0.426829,-2.31707,-0.182927,-9.24717,-0.476609,2.91234,0.579268,-2.22561,6.64634
881.017,85.9751,14.6665,0,9.80281,0.627495,-0.505349,0.0609756,-2.65244,-0.27439,-9.2352,-0.488584,2.86684,0.426829,-1.89024,6.70732
881.027,85.999,14.8061,0,9.81479,0.617915,-0.58199,-0.213415,-2.86585,-0.0304878,-9.25436,-0.464634,2.79978,0.304878,-1.28049,6.55488
881.037,86.0158,14.9772,0,9.79803,0.617915,-0.66821,-0.243902,-2.9878,-0.27439,-9.25436,-0.481399,2.85247,0.365854,-0.945122,6.46341
881.047,86.0361,15.1231,0,9.81719,0.603545,-0.58678,-0.548781,-2.7439,-0.27439,-9.27831,-0.447869,2.81654,0.0609756,-0.853659,6.43293
881.057,86.0587,15.3286,0,9.80521,0.61073,-0.699346,-0.548781,-2.40854,0.152439,-9.29268,-0.450264,2.82852,-0.0914634,-0.121951,6.06707
881.067,86.0771,15.5009,0,9.79803,0.62031,-0.720901,-0.670732,-1.98171,0.182927,-9.29986,-0.435894,2.79978,-0.243902,0.0304878,5.88415
881.077,86.0947,15.6222,0,9.77407,0.62031,-0.752036,-0.762195,-1.61585,0.487805,-9.30944,-0.433499,2.80936,-0.182927,0.426829,5.79268
881.087,86.1146,15.6942,0,9.79563,0.608335,-0.756826,-0.670732,-1.28049,0.335366,-9.36453,-0.479004,2.7902,-0.182927,0.823171,5.7622
881.097,86.1371,15.7781,0,9.80042,0.59636,-0.723296,-0.640244,-0.914634,0.27439,-9.37171,-0.479004,2.8381,-0.0914634,0.853659,5.82317
881.107,86.1691,15.8371,0,9.80521,0.565225,-0.759221,-0.762195,-0.914634,-0.0304878,-9.37411,-0.467029,2.80457,-0.182927,1.03659,5.91463
881.117,86.1957,15.8869,0,9.81958,0.56283,-0.773591,-0.579268,-0.518293,-0.182927,-9.36932,-0.450264,2.79738,-0.27439,1.18902,6.46341
881.127,86.2143,15.9198,0,9.8555,0.59636,-0.759221,-0.304878,-0.853659,-0.0304878,-9.35974,-0.471819,2.76385,0,1.43293,6.34146
881.137,86.2351,15.9565,0,9.8124,0.58678,-0.754431,-0.182927,-0.213415,0.0914634,-9.3789,-0.471819,2.7902,-0.182927,1.4939,6.43293
881.147,86.2608,15.9848,0,9.79563,0.565225,-0.725691,-0.152439,0.152439,0.243902,-9.41243,-0.467029,2.77583,-0.0914634,1.31098,6.09756
881.157,86.2864,16.0239,0,9.76928,0.55804,-0.732876,-0.152439,0.213415,-0.0914634,-9.42919,-0.445474,2.8381,-0.365854,1.82927,6.09756
881.167,86.3049,16.0568,0,9.73575,0.579595,-0.711321,0.0304878,0.365854,0.0914634,-9.41961,-0.464634,2.80936,-0.396341,1.46341,6.18902
881.177,86.3143,16.0753,0,9.75491,0.59636,-0.718506,0.0914634,0.0914634,-0.152439,-9.4268,-0.447869,2.77343,-0.152439,1.52439,6.15854
881.187,86.3182,16.1065,0,9.78366,0.613125,-0.680186,0.213415,0.182927,-0.152439,-9.43398,-0.421523,2.81415,-0.335366,1.34146,6.09756
881.197,86.3375,16.0956,0,9.8076,0.570015,-0.749641,0.243902,0.213415,-0.0609756,-9.45314,-0.411943,2.69679,-0.213415,1.46341,6.03659
881.207,86.3498,16.0886,0,9.78605,0.584385,-0.711321,0.27439,0.426829,-0.121951,-9.45314,-0.443079,2.70877,-0.152439,1.18902,6.0061
881.217,86.3638,16.0665,0,9.78366,0.565225,-0.692161,0.27439,0.304878,-0.304878,-9.45075,-0.428708,2.65847,0.152439,1.46341,5.91463
881.227,86.3713,16.0805,0,9.80281,0.589175,-0.718506,0.152439,0,-0.243902,-9.42201,-0.421523,2.75667,0.0609756,1.34146,5.88415
881.237,86.3757,16.0852,0,9.77407,0.58678,-0.692161,0.0304878,0.0914634,-0.457317,-9.39566,-0.421523,2.72314,-0.0609756,1.28049,5.97561
881.247,86.3738,16.0949,0,9.79323,0.613125,-0.65384,0.335366,-0.152439,-0.396341,-9.44356,-0.419128,2.75427,0.396341,1.43293,6.03659
881.257,86.3886,16.1119,0,9.78366,0.56283,-0.632285,0.182927,0.0304878,-0.243902,-9.40285,-0.428708,2.76864,0.213415,1.55488,6.21951
881.267,86.3855,16.1214,0,9.75491,0.608335,-0.61073,0.213415,0.152439,-0.518293,-9.35734,-0.433499,2.73272,0.0304878,1.46341,5.97561
881.277,86.396,16.1184,0,9.76449,0.56283,-0.673001,0.335366,0.0609756,-0.426829,-9.35734,-0.402363,2.69679,-0.0304878,1.55488,6.09756
881.287,86.4022,16.1102,0,9.80042,0.574805,-0.661025,-0.0609756,0.213415,-0.487805,-9.4268,-0.385598,2.69919,-0.304878,1.58537,5.7622
881.297,86.4077,16.1077,0,9.78844,0.579595,-0.598755,-0.121951,-0.0914634,-0.426829,-9.46751,-0.399968,2.72793,-0.548781,1.4939,5.82317
881.307,86.4104,16.096,0,9.80281,0.58678,-0.61552,0.0609756,-0.304878,-0.487805,-9.51062,-0.443079,2.70877,0,1.64634,6.0061
881.317,86.417,16.0846,0,9.80281,0.56283,-0.64426,0.121951,-0.884146,-0.609756,-9.52739,-0.462239,2.71356,-0.27439,1.46341,5.85366
881.327,86.4106,16.0685,0,9.79803,0.603545,-0.641865,-0.152439,-0.487805,-0.884146,-9.51781,-0.481399,2.70158,0.121951,0.97561,6.09756
881.337,86.4099,16.0646,0,9.8076,0.58678,-0.651445,-0.304878,-0.853659,-0.731707,-9.45075,-0.469424,2.71356,-0.152439,0.762195,6.28049
881.347,86.4075,16.0465,0,9.79803,0.589175,-0.651445,-0.426829,-0.609756,-0.823171,-9.4268,-0.457449,2.67524,-0.182927,0.640244,6.52439
881.357,86.4015,16.0477,0,9.76449,0.60594,-0.694556,-0.457317,-0.762195,-0.792683,-9.35495,-0.459844,2.6944,-0.243902,0.945122,6.34146
881.367,86.4001,16.0502,0,9.78605,0.60115,-0.749641,-0.27439,-0.853659,-0.518293,-9.38369,-0.443079,2.70637,-0.27439,0.945122,6.06707
881.377,86.3986,16.0429,0,9.79803,0.60115,-0.656235,-0.518293,-0.670732,-0.548781,-9.3765,-0.486189,2.68003,-0.121951,0.945122,6.06707
881.387,86.401,16.0499,0,9.78366,0.60115,-0.651445,-0.426829,-0.670732,-0.213415,-9.3789,-0.474214,2.71595,-0.27439,1.0061,6.15854
881.397,86.407,16.0329,0,9.78366,0.579595,-0.670605,-0.640244,-0.579268,-0.396341,-9.44117,-0.452659,2.67284,0.152439,0.97561,6.21951
881.407,86.4085,16.0461,0,9.8124,0.59157,-0.754431,-0.426829,-0.0609756,-0.487805,-9.45075,-0.467029,2.75188,0.0609756,1.0061,6.09756
881.417,86.4012,16.0544,0,9.78844,0.61552,-0.737666,-0.579268,-0.243902,-0.731707,-9.4723,-0.440684,2.74709,0.426829,0.945122,6.06707
881.427,86.4006,16.0516,0,9.80521,0.59157,-0.735271,-0.609756,-0.487805,-0.670732,-9.48428,-0.435894,2.72314,0.548781,0.792683,5.94512
881.437,86.4,16.0557,0,9.84353,0.59157,-0.749641,-0.396341,-0.579268,-0.701219,-9.45314,-0.440684,2.73032,0.365854,0.762195,5.94512
881.447,86.3948,16.0425,0,9.79803,0.61073,-0.696951,-0.304878,-0.335366,-0.670732,-9.40764,-0.476609,2.67763,0.243902,0.762195,5.97561
881.457,86.3932,16.0417,0,9.81719,0.603545,-0.708926,-0.457317,-0.213415,-0.548781,-9.4244,-0.467029,2.70877,0.27439,0.823171,5.79268
881.467,86.3919,16.0208,0,9.82916,0.593965,-0.768801,-0.304878,0.0914634,-0.731707,-9.4244,-0.474214,2.66566,0.182927,0.579268,5.88415
881.477,86.3932,16.0096,0,9.80281,0.598755,-0.754431,-0.0914634,0.304878,-0.396341,-9.43159,-0.452659,2.68482,0.457317,0.548781,6.03659
881.487,86.3933,16.0475,0,9.79563,0.598755,-0.752036,0,0.335366,-0.487805,-9.4268,-0.419128,2.79738,0.426829,0.792683,5.97561
881.497,86.3833,16.0854,0,9.7621,0.63947,-0.795146,0.152439,0.304878,-0.335366,-9.38608,-0.428708,2.77583,0.365854,0.457317,6.46341
881.507,86.3845,16.0753,0,9.7597,0.598755,-0.749641,0.365854,0.121951,-0.396341,-9.36692,-0.378413,2.68003,0.0609756,0.640244,6.03659
881.517,86.3924,16.0838,0,9.80281,0.589175,-0.706531,0.396341,0.27439,-0.152439,-9.36692,-0.361648,2.71835,-0.0914634,0.670732,5.67073
881.527,86.3928,16.1078,0,9.76689,0.59636,-0.687371,0.518293,0.0914634,-0.487805,-9.41482,-0.371228,2.76864,-0.365854,0.640244,5.36585
881.537,86.3963,16.1032,0,9.78605,0.60115,-0.711321,0.701219,0.304878,-0.152439,-9.46033,-0.387993,2.72314,-0.640244,0.396341,5.33537
881.547,86.4048,16.1181,0,9.80281,0.58678,-0.689766,0.518293,0.365854,-0.121951,-9.47949,-0.390388,2.76385,-1.03659,-0.213415,5.36585
881.557,86.4154,16.1166,0,9.78605,0.574805,-0.735271,0.518293,0.304878,-0.182927,-9.56092,-0.402363,2.75906,-1.25,-0.457317,5.70122
881.567,86.4156,16.1285,0,9.79084,0.60115,-0.730481,0.487805,1.0061,-0.335366,-9.5202,-0.450264,2.77822,-1.31098,-0.609756,5.73171
881.577,86.4226,16.1183,0,9.82677,0.589175,-0.708926,0.701219,0.731707,-0.121951,-9.47709,-0.435894,2.71116,-1.12805,-1.09756,6.15854
881.587,86.4228,16.0963,0,9.81,0.603545,-0.764011,0.579268,0.914634,-0.27439,-9.43877,-0.435894,2.66087,-1.31098,-1.34146,5.7622
881.597,86.4224,16.089,0,9.83156,0.613125,-0.747246,0.731707,1.03659,-0.0914634,-9.45075,-0.459844,2.70158,-1.55488,-1.64634,5.73171
881.607,86.4169,16.0722,0,9.82437,0.622705,-0.706531,0.670732,1.06707,-0.335366,-9.48667,-0.464634,2.67524,-1.21951,-1.89024,5.60976
881.617,86.413,16.0559,0,9.79803,0.617915,-0.728086,0.579268,1.09756,-0.27439,-9.54176,-0.469424,2.68482,-1.25,-2.22561,5.45732
881.627,86.4216,16.0541,0,9.79803,0.5772,-0.696951,0.731707,1.31098,-0.243902,-9.56331,-0.479004,2.7423,-1.21951,-2.9878,5.36585
881.637,86.415,16.0311,0,9.80281,0.632285,-0.725691,1.43293,1.25,0,-9.5705,-0.512534,2.65368,-1.09756,-3.17073,5.21341
881.647,86.4263,16.0087,0,9.82437,0.58199,-0.680186,1.40244,1.46341,0,-9.59205,-0.476609,2.65608,-0.853659,-3.41463,5.64024
881.657,86.4373,15.9878,0,9.79803,0.56283,-0.699346,1.52439,1.40244,-0.304878,-9.57529,-0.507744,2.65129,-0.487805,-3.96341,6.0061
881.667,86.4504,15.9708,0,9.82916,0.541274,-0.723296,1.70732,1.58537,-0.487805,-9.56571,-0.541274,2.66087,-0.579268,-4.57317,5.82317
881.677,86.4664,15.9519,0,9.79323,0.534089,-0.713716,1.89024,1.64634,-0.396341,-9.57768,-0.524509,2.65129,-0.121951,-5,5.85366
881.687,86.4737,15.9323,0,9.79323,0.531694,-0.759221,1.79878,1.82927,-0.853659,-9.54176,-0.534089,2.63452,0.579268,-5.45732,5.60976
881.697,86.4737,15.9312,0,9.77407,0.541274,-0.64426,1.67683,1.37195,-1.18902,-9.52499,-0.543669,2.70877,0.823171,-6.12805,5.67073
881.707,86.4706,15.9304,0,9.78844,0.560435,-0.64905,1.55488,0.97561,-1.15854,-9.50823,-0.579595,2.70398,0.884146,-6.95122,6.06707
881.717,86.4702,15.9276,0,9.79803,0.555645,-0.58678,1.64634,0.579268,-1.03659,-9.51541,-0.6251,2.69679,1.85976,-7.40854,5.79268
881.727,86.4682,15.9064,0,9.81479,0.55804,-0.58199,1.55488,0.27439,-1.12805,-9.5681,-0.584385,2.62734,2.59146,-7.56098,5.88415
881.737,86.4593,15.8792,0,9.8603,0.593965,-0.510139,1.28049,-0.335366,-1.18902,-9.60163,-0.59636,2.60578,3.38415,-7.43902,5.97561
881.747,86.4417,15.8522,0,9.94173,0.65384,-0.57241,1.06707,-0.396341,-1.09756,-9.62798,-0.589175,2.60818,4.69512,-8.07927,5.88415
881.757,86.4205,15.8428,0,9.90341,0.682581,-0.502954,0.548781,-0.152439,-0.731707,-9.62558,-0.5772,2.68242,5.64024,-9.05488,5.60976
881.767,86.3931,15.8423,0,9.81958,0.704136,-0.543669,0.152439,0.0609756,-0.457317,-9.55134,-0.543669,2.69919,6.12805,-9.87805,5.33537
881.777,86.3732,15.8518,0,9.78605,0.675395,-0.524509,-0.0914634,0.182927,-0.121951,-9.49625,-0.435894,2.72793,6.15854,-11.2195,5.30488
881.787,86.3486,15.8716,0,9.75491,0.694556,-0.498164,-0.670732,-0.243902,0.0914634,-9.44835,-0.282612,2.76146,5.91463,-12.1646,5.4878
881.797,86.3379,15.9203,0,9.80042,0.694556,-0.447869,-1.21951,-0.152439,0.609756,-9.45075,-0.261057,2.89558,5.03049,-13.2622,6.12805
881.807,86.3335,15.9625,0,9.81479,0.692161,-0.500559,-2.07317,-0.0304878,0.914634,-9.55373,-0.306563,2.90516,4.20732,-14.4817,5.82317
881.817,86.3348,15.9874,0,9.79323,0.689766,-0.598755,-1.95122,-0.365854,1.28049,-9.59684,-0.373623,2.84528,3.53659,-15.7622,5.54878
881.827,86.3432,16.0335,0,9.82437,0.670605,-0.60115,-2.37805,-0.121951,1.55488,-9.55613,-0.330513,2.9339,2.92683,-16.9207,5.70122
881.837,86.356,16.0859,0,9.82677,0.64426,-0.641865,-2.2561,0.335366,1.58537,-9.59205,-0.342488,2.9818,2.80488,-18.0183,5.64024
881.847,86.3616,16.1115,0,9.80521,0.675395,-0.684976,-2.28659,0.609756,1.46341,-9.6184,-0.404758,2.87402,2.7439,-19.4817,5.51829
881.857,86.3755,16.128,0,9.72378,0.60594,-0.701741,-2.43902,1.09756,1.18902,-9.62558,-0.380808,2.8381,2.71341,-20,5.57927
881.867,86.398,16.169,0,9.74294,0.550855,-0.886157,-3.07927,2.62195,0.213415,-9.65672,-0.426313,2.96264,2.77439,-21.5244,5.88415
881.877,86.425,16.2055,0,9.6639,0.517324,-0.809517,-0.884146,2.04268,-0.243902,-9.68785,-0.428708,2.95785,3.01829,-23.0793,5.70122
881.887,86.437,16.2534,0,9.68067,0.505349,-0.843047,-0.182927,1.37195,-0.97561,-9.71659,-0.428708,3.02491,3.47561,-24.6646,5.4878
881.897,86.4541,16.2835,0,9.79323,0.471819,-0.852627,0.365854,1.0061,-1.03659,-9.72138,-0.409548,2.95066,3.65854,-26.0366,5.51829
881.907,86.4624,16.3093,0,9.90101,0.483794,-0.850232,0.731707,1.25,-1.37195,-9.74054,-0.419128,2.94108,3.53659,-27.0427,5
881.917,86.468,16.3473,0,9.97526,0.481399,-0.852627,1.06707,1.70732,-1.55488,-9.69025,-0.361648,2.98659,3.38415,-28.1402,4.7561
881.927,86.4724,16.3747,0,9.96328,0.476609,-0.869392,1.09756,2.37805,-1.67683,-9.65911,-0.356858,2.9339,3.10976,-29.2073,4.78659
881.937,86.4803,16.4283,0,9.88185,0.455054,-0.845442,1.25,3.32317,-1.64634,-9.60163,-0.356858,3.04167,2.77439,-30.1524,4.69512
881.947,86.4867,16.4804,0,9.81479,0.438289,-0.771196,0.792683,4.05488,-1.89024,-9.58008,-0.337698,3.03688,2.92683,-31.3415,4.78659
881.957,86.5061,16.5163,0,9.78844,0.366438,-0.735271,1.03659,4.48171,-1.76829,-9.54655,-0.385598,2.96024,2.7439,-32.561,4.87805
881.967,86.5109,16.5559,0,9.76689,0.366438,-0.766406,1.03659,4.78659,-2.65244,-9.50823,-0.457449,2.96982,2.83537,-34.2073,5.12195
881.977,86.5047,16.6105,0,9.73575,0.404758,-0.754431,0.853659,4.84756,-3.10976,-9.51062,-0.498164,3.04646,2.80488,-35.2439,5.42683
881.987,86.4957,16.6675,0,9.74294,0.378413,-0.684976,0.640244,4.84756,-3.65854,-9.52499,-0.543669,3.07042,2.71341,-36.5549,5.4878
881.997,86.4815,16.748,0,9.8124,0.404758,-0.766406,0.396341,5.03049,-3.87195,-9.53457,-0.517324,3.19256,2.77439,-37.9878,5.64024
882.007,86.4595,16.8529,0,9.8124,0.445474,-0.771196,-0.701219,6.55488,-4.17683,-9.51062,-0.507744,3.31231,3.23171,-39.6037,6.06707
882.017,86.4344,16.9728,0,9.85311,0.467029,-0.737666,-1.06707,7.19512,-4.29878,-9.5705,-0.445474,3.42248,3.56707,-41.0366,6.25
882.027,86.4041,17.0687,0,9.91299,0.490979,-0.701741,-0.762195,6.95122,-4.60366,-9.52739,-0.392783,3.31471,4.05488,-42.6829,6.61585
882.037,86.3809,17.1888,0,9.88664,0.440684,-0.589175,0.548781,7.46951,-4.54268,-9.54894,-0.337698,3.45362,4.39024,-44.1463,6.67683
882.047,86.3492,17.3326,0,9.8076,0.483794,-0.498164,1.37195,7.53049,-4.87805,-9.54415,-0.354463,3.58534,4.66463,-46.189,7.0122
882.057,86.3043,17.4987,0,9.75252,0.55804,-0.452659,0.701219,7.22561,-5.36585,-9.62558,-0.376018,3.7506,5.03049,-48.4451,6.70732
882.067,86.257,17.6547,0,9.77168,0.514929,-0.486189,-0.518293,5.82317,-6.21951,-9.59445,-0.447869,3.71947,5.36585,-50.0305,6.15854
882.077,86.1924,17.8234,0,9.97047,0.5772,-0.59157,-0.945122,3.71951,-7.46951,-9.61361,-0.469424,3.81766,6.03659,-51.9207,5.85366
882.087,86.1244,18.0142,0,10.016,0.613125,-0.759221,-1.0061,4.08537,-7.56098,-9.51781,-0.512534,3.91825,6.34146,-53.811,5.2439
882.097,86.0516,18.2264,0,9.96328,0.661025,-0.579595,-0.945122,6.25,-7.59146,-9.54655,-0.593965,4.07153,6.64634,-55.4573,5
882.107,85.9767,18.4316,0,9.81479,0.632285,-0.684976,-1.70732,12.2561,-8.17073,-9.5226,-0.64426,4.06674,7.19512,-57.0427,4.93902
882.117,85.9021,18.6398,0,9.7118,0.550855,-0.431104,-2.71341,13.9634,-9.20732,-9.48667,-0.670605,4.10506,7.92683,-58.5976,4.7561
882.127,85.8043,18.8806,0,9.77168,0.60115,-0.160466,-2.28659,9.63415,-11.1585,-9.31663,-0.61073,4.232,8.96341,-59.1463,5.09146
882.137,85.7074,19.1329,0,9.86509,0.517324,-0.335303,-0.640244,5.36585,-12.3171,-9.28549,-0.579595,4.32062,9.39024,-60.0305,5.51829
882.147,85.609,19.4114,0,9.93215,0.455054,-0.275427,-0.426829,5.60976,-13.4451,-9.16334,-0.500559,4.44276,9.90854,-60.8841,5.57927
882.157,85.4856,19.6841,0,10.2291,0.5772,-0.514929,1.64634,8.59756,-14.9695,-9.07233,-0.423918,4.4236,10.0305,-61.3415,5.88415
882.167,85.3317,19.9961,0,10.5046,0.826282,-0.766406,2.71341,6.70732,-15.7317,-8.98851,-0.347278,4.62957,10.7622,-62.8354,5.60976
882.177,85.17,20.3406,0,10.016,0.821492,-0.498164,1.7378,5.94512,-16.4634,-8.89271,-0.328118,4.80441,11.6463,-63.5061,6.12805
882.187,85.0303,20.6547,0,9.69983,0.502954,-0.193997,-1.64634,4.26829,-18.0488,-8.86157,-0.282612,4.70382,12.2561,-63.5061,6.25
882.197,84.8927,20.9862,0,9.64714,0.282612,-0.342488,-1.34146,1.15854,-20.7622,-8.83283,-0.222737,4.83794,11.9817,-63.3841,6.52439
882.207,84.7347,21.3605,0,9.79323,0.282612,-0.534089,0.914634,1.0061,-23.1707,-8.77535,-0.249082,5.09181,12.2866,-63.6585,7.10366
882.217,84.5453,21.7981,0,10.0327,0.409548,-0.574805,1.06707,3.10976,-25.3049,-8.77775,-0.280217,5.50376,12.1037,-65.1219,7.89634
882.227,84.3487,22.2528,0,10.0112,0.282612,-0.64426,1.79878,3.44512,-27.8963,-8.74661,-0.337698,5.66901,11.7073,-67.1341,8.5061
882.237,84.1361,22.7348,0,10.1477,0.335303,-0.811912,3.90244,3.04878,-29.3598,-8.53585,-0.287402,5.77679,11.6463,-67.7134,9.02439
882.247,83.8841,23.2643,0,9.8555,0.55325,-0.883762,0.884146,3.90244,-31.128,-8.32269,-0.129331,5.99713,11.7988,-67.0122,9.26829
882.257,83.6566,23.8161,0,9.60403,0.241897,-1.01549,3.2622,0.579268,-32.7439,-8.18618,0.00479004,6.14083,12.4085,-65.061,10.1829
882.267,83.4084,24.3915,0,9.65193,0.268242,-0.737666,7.22561,-4.72561,-35.0305,-7.99218,0.136516,6.2534,12.2256,-61.9207,10.8232
882.277,83.1206,24.9974,0,9.94891,0.517324,-0.182021,8.5061,-6.58537,-36.7378,-7.84369,0.234712,6.4426,11.2805,-58.9939,11.6768
882.287,82.8118,25.6237,0,10.0639,0.694556,-0.0431104,7.28659,-8.81098,-37.5,-7.78621,0.253872,6.65815,10.122,-56.25,11.7073
882.297,82.473,26.2583,0,10.4519,0.950823,-0.732876,7.92683,-9.84756,-38.628,-7.75268,0.213157,6.8306,8.65854,-53.9329,11.311
882.307,82.1167,26.901,0,10.3728,1.2023,-0.689766,11.0061,-10.8232,-38.2317,-7.64011,0.205972,6.93598,7.40854,-51.4939,10.2439
882.317,81.7441,27.5563,0,10.0878,1.37474,-0.105381,8.23171,-9.93902,-38.2622,-7.57066,0.253872,7.11081,6.03659,-48.9329,9.29878
882.327,81.3888,28.239,0,10.3106,1.30768,-0.162861,5.57927,-9.42073,-38.3537,-7.46528,0.390388,7.35271,4.72561,-46.7988,8.75
882.337,81.023,28.935,0,10.4351,1.45378,-0.141306,3.9939,-7.5,-38.7195,-7.41259,0.440684,7.56826,3.35366,-44.5122,8.68902
882.347,80.6603,29.6223,0,10.3465,1.46575,0.00479004,4.63415,-9.45122,-38.872,-7.34073,0.486189,7.62335,1.85976,-41.9207,9.02439
882.357,80.2605,30.2893,0,9.98005,1.69807,0.210762,1.15854,-10.4268,-40.1524,-7.26409,0.411943,7.59461,0.548781,-38.7805,9.11585
882.367,79.8686,30.9505,0,10.083,1.78429,0.119751,0.518293,-12.5,-39.3902,-7.15871,0.364043,7.62574,-0.762195,-36.0061,9.2378
882.377,79.4936,31.6031,0,10.0615,1.74118,-0.256267,0.0914634,-13.5976,-38.9024,-7.03896,0.378413,7.61856,-2.04268,-33.3232,9.11585
882.387,79.1139,32.266,0,9.84593,1.87291,-0.114961,0.0914634,-15.0305,-38.2012,-6.83539,0.378413,7.64251,-2.53049,-30.5793,8.96341
882.397,78.7043,32.9085,0,9.78844,2.10043,-0.0646655,-2.56098,-15.2134,-39.2988,-6.73,0.285007,7.56826,-3.04878,-27.6524,8.90244
882.407,78.2783,33.5294,0,9.82437,2.25132,-0.174836,-2.22561,-15.1524,-40.1829,-6.64618,0.186812,7.5036,-3.90244,-23.9939,8.68902
882.417,77.834,34.1383,0,10.0447,2.46448,-0.402363,-2.56098,-14.939,-41.128,-6.65815,0.143701,7.60658,-4.48171,-20.6098,8.47561
882.427,77.3842,34.7394,0,10.0567,2.51717,-0.459844,-2.34756,-13.0488,-42.0427,-6.6366,0.126936,7.69759,-5.2439,-17.3476,8.56707
882.437,76.9161,35.3329,0,9.93215,2.56507,-0.514929,-3.56707,-8.93293,-43.9634,-6.65815,0.150886,7.8365,-5.60976,-15.7012,8.96341
882.447,76.4398,35.9013,0,10.1309,2.66566,-0.816702,-1.89024,-7.77439,-45.2134,-6.70845,0.170046,7.8868,-6.0061,-14.1463,9.42073
882.457,75.9259,36.4291,0,9.97047,2.9315,-0.385598,-2.71341,-6.37195,-46.6768,-6.77312,0.119751,7.8389,-6.67683,-12.0122,10.2439
882.467,75.3903,36.9489,0,10.1285,3.15664,-0.61073,-4.35976,-5.06098,-48.0488,-6.82102,0.0862207,7.98739,-7.37805,-10.5183,10.2744
882.477,74.825,37.4579,0,9.85072,3.42967,-0.474214,-2.5,-8.04878,-48.3232,-6.90963,0.0838257,8.16223,-7.43902,-9.87805,10.4573
882.487,74.2531,37.9116,0,9.86748,3.51349,-0.675395,-2.7439,-7.71341,-49.3293,-6.99825,0.0455054,8.01374,-7.68293,-9.17683,9.7561
882.497,73.669,38.3251,0,9.62079,3.57337,-0.65863,-2.86585,-7.28659,-50.1524,-7.10123,0.0838257,7.97302,-7.07317,-8.35366,9.45122
882.507,73.0772,38.7215,0,9.55134,3.61887,-0.787961,-2.04268,-9.26829,-51.372,-7.10123,-0.00239502,7.96823,-7.16463,-7.37805,9.29878
882.517,72.4816,39.0806,0,9.65911,3.71228,-0.869392,-1.82927,-10.1829,-52.4085,-7.12518,-0.0694556,7.84369,-6.58537,-6.85976,8.9939
882.527,71.8979,39.4265,0,9.83395,3.71468,-0.917292,-1.25,-8.96341,-53.0793,-7.0701,-0.136516,7.78621,-6.37195,-5.79268,9.05488
882.537,71.309,39.7926,0,9.82197,3.86796,-0.826282,-2.37805,-5.79268,-53.1707,-6.98388,-0.210762,7.92512,-6.31098,-5.57927,9.11585
882.547,70.7216,40.1274,0,9.72617,3.87754,-0.737666,-1.7378,-5.2439,-53.7195,-6.91442,-0.205972,7.70717,-6.18902,-4.35976,9.26829
882.557,70.1229,40.4698,0,9.52499,3.93981,-0.821492,-2.53049,-5.82317,-54.5732,-6.82341,-0.304167,7.55629,-5.45732,-2.53049,9.35976
882.567,69.5321,40.898,0,9.45314,3.95897,-0.847837,-1.85976,-6.46341,-54.4817,-6.76354,-0.301772,7.61616,-5.21341,-1.31098,9.26829
882.577,68.9263,41.5063,0,9.11784,4.07393,-0.637075,-2.53049,-6.89024,-54.4512,-6.73719,-0.368833,7.55868,-5.18293,-0.27439,9.08537
882.587,68.3105,41.9262,0,8.97414,4.14817,-1.02028,-4.48171,-7.89634,-55.2134,-6.72521,-0.361648,7.58263,-5.27439,0.97561,8.96341
882.597,67.7107,42.2078,0,9.11784,4.1362,-1.02028,-3.96341,-8.53659,-55.6707,-6.73719,-0.366438,7.48923,-4.63415,2.19512,8.23171
882.607,67.1037,42.4066,0,9.07712,4.32062,-0.637075,-5.54878,-10.5183,-55.4878,-6.71324,-0.376018,7.23535,-4.7561,4.45122,7.16463
882.617,66.5157,42.624,0,9.27591,4.3757,-0.924478,-6.61585,-10.3963,-55.1829,-6.67013,-0.387993,7.38145,-4.5122,5.82317,6.98171
882.627,65.9262,42.7845,0,9.06994,4.44037,-0.883762,-7.62195,-7.19512,-54.8476,-6.6845,-0.395178,7.09165,-3.9939,6.31098,6.12805
882.637,65.361,42.9296,0,9.06515,4.33259,-0.874182,-6.09756,-8.44512,-54.6646,-6.64857,-0.431104,7.00304,-3.90244,8.07927,5.7622
882.647,64.7701,43.0825,0,8.80409,4.58167,-0.814307,-7.56098,-9.78659,-54.4817,-6.63899,-0.493374,7.07728,-3.53659,8.56707,5.67073
882.657,64.1998,43.2064,0,8.90947,4.55772,-1.24302,-7.0122,-8.07927,-54.3902,-6.55756,-0.510139,6.85215,-2.83537,9.5122,5.18293
882.667,63.6195,43.3146,0,8.73464,4.77088,-0.747246,-8.62805,-7.34756,-53.4146,-6.51924,-0.486189,6.74917,-2.22561,11.0061,5.12195
882.677,63.0542,43.4198,0,8.67716,4.79962,-0.998723,-12.1341,-7.86585,-52.439,-6.47374,-0.529299,6.71084,-1.15854,11.8902,4.96951
882.687,62.5356,43.5121,0,8.65321,4.50024,-1.26457,-9.90854,-8.62805,-51.8293,-6.47134,-0.574805,6.65815,-0.792683,13.3232,4.60366
882.697,62.0099,43.6152,0,8.56699,4.65831,-0.943638,-9.02439,-9.32927,-51.4634,-6.46176,-0.522114,6.7348,-0.27439,14.0549,3.78049
882.707,61.5115,43.6791,0,8.68434,4.59844,-0.922083,-7.86585,-13.7805,-51.0366,-6.44979,-0.526904,6.51924,0.243902,15.3963,3.32317
882.717,61.0235,43.7247,0,8.59333,4.65831,-0.64426,-8.2622,-15.2134,-49.8476,-6.43302,-0.490979,6.41386,0.97561,17.4085,3.29268
882.727,60.5597,43.757,0,8.59093,4.6655,-1.22864,-9.48171,-11.0671,-48.2927,-6.42105,-0.445474,6.33962,1.4939,18.811,3.23171
882.737,60.0829,43.7692,0,8.24366,4.79483,-0.708926,-11.9207,-6.79878,-47.1341,-6.41147,-0.409548,6.22705,1.7378,19.7256,2.89634
882.747,59.6353,43.7853,0,8.27,4.75651,-0.802332,-13.0183,-6.12805,-45.7012,-6.42105,-0.385598,6.26058,1.4939,20.2744,2.65244
882.757,59.2115,43.8118,0,8.13828,4.60802,-1.0083,-14.2683,-5.09146,-44.9695,-6.36357,-0.361648,6.26537,1.03659,20.4268,2.31707
882.767,58.7805,43.8175,0,8.03529,4.77806,-0.804727,-14.9085,-5.64024,-44.0854,-6.30848,-0.349673,6.1049,1.25,21.128,2.22561
882.777,58.374,43.8131,0,8.02571,4.65592,-0.931663,-14.4817,-7.95732,-43.7195,-6.32764,-0.376018,6.07137,1.43293,22.1037,2.19512
882.787,57.9398,43.7819,0,7.85806,4.96488,-1.0107,-14.4512,-9.90854,-42.9573,-6.38752,-0.344883,5.98515,2.40854,22.6524,2.0122
882.797,57.5314,43.7571,0,7.87482,4.86668,-1.32924,-14.0549,-9.90854,-42.378,-6.41386,-0.301772,6.03784,2.22561,22.8963,1.95122
882.807,57.1519,43.6973,0,8.09996,4.91458,-0.931663,-11.4634,-10.8232,-41.2195,-6.49529,-0.328118,5.92288,2.2561,23.0793,1.55488
882.817,56.7479,43.6063,0,7.84608,5.18043,-0.835862,-14.2988,-10.6402,-40.0305,-6.47374,-0.332908,5.73128,2.19512,24.4512,1.15854
882.827,56.3973,43.5551,0,8.08798,5.0511,-0.958008,-12.7744,-10.5488,-38.3537,-6.47613,-0.289797,5.92049,1.79878,24.2683,1.12805
882.837,56.0333,43.5069,0,7.78381,5.22593,-0.63468,-14.0549,-8.62805,-36.5854,-6.53361,-0.270637,5.97797,1.18902,23.6585,0.640244
882.847,55.687,43.4088,0,7.74549,5.17085,-0.890947,-15.6707,-10.8537,-35.8232,-6.52882,-0.251477,5.70494,1.09756,23.9939,0.701219
882.857,55.3688,43.3194,0,7.71436,5.02715,-0.835862,-12.622,-9.54268,-34.9695,-6.51924,-0.213157,5.7217,1.06707,24.5427,0.853659
882.867,55.0373,43.2315,0,7.63532,5.26904,-1.10171,-15,-7.95732,-33.872,-6.45937,-0.205972,5.65943,0.396341,24.7561,0.609756
882.877,54.7493,43.1362,0,7.67604,5.06307,-1.14003,-12.9268,-9.69512,-32.561,-6.4426,-0.201182,5.58998,-0.0609756,24.878,0.853659
882.887,54.4645,43.0466,0,7.7431,5.26665,-1.13284,-14.5427,-7.19512,-31.1585,-6.40189,-0.198787,5.56363,-0.914634,24.1159,0.640244
882.897,54.2034,42.9717,0,7.70717,5.18282,-0.852627,-16.25,-3.53659,-29.939,-6.36357,-0.167651,5.58519,-1.61585,23.7805,0.640244
882.907,53.9719,42.8742,0,7.72873,5.09421,-1.22864,-17.4085,-2.40854,-28.5366,-6.32285,-0.217947,5.42472,-2.04268,23.628,0.152439
882.917,53.7698,42.8007,0,7.61377,4.99841,-0.972378,-14.0854,-0.396341,-26.2195,-6.33483,-0.215552,5.5325,-2.68293,22.9878,0.304878
882.927,53.5521,42.6929,0,7.43175,5.12055,-0.804727,-13.5976,-1.70732,-25.6098,-6.35159,-0.241897,5.36484,-2.86585,21.9817,-0.27439
882.937,53.3279,42.5939,0,7.14434,5.10618,-1.35798,-11.8598,-1.98171,-24.6951,-6.31806,-0.275427,5.35766,-3.14024,21.128,-0.152439
882.947,53.0801,42.511,0,6.93119,5.32173,-0.65863,-10.6707,-5.36585,-23.5671,-6.28453,-0.306563,5.3864,-2.92683,20.0305,-0.0914634
882.957,52.8225,42.4157,0,6.99825,5.56124,-0.795146,-12.7134,-6.70732,-23.1098,-6.30848,-0.344883,5.33131,-2.95732,19.5732,0.243902
882.967,52.6138,42.3088,0,7.27367,5.55405,-1.35558,-12.5,-7.68293,-20.9146,-6.32764,-0.323328,5.27383,-2.68293,18.7805,0.335366
882.977,52.45,42.2283,0,7.4557,5.58279,-0.991538,-8.59756,-8.29268,-17.8659,-6.37075,-0.328118,5.41514,-2.65244,18.2012,0.518293
882.987,52.284,42.1641,0,7.37906,5.72889,-0.917292,-11.6463,-4.63415,-16.372,-6.4929,-0.347278,5.58279,-3.17073,16.4024,0.640244
882.997,52.1645,42.0862,0,7.51557,5.50854,-0.974773,-11.25,-5.06098,-15.2134,-6.61504,-0.352068,5.60435,-3.44512,15.0305,0.762195
883.007,52.0588,42.0071,0,7.34792,5.35766,-1.26218,-10.8232,-5.60976,-14.3293,-6.68689,-0.347278,5.64267,-3.38415,14.1768,0.762195
883.017,51.9718,41.9267,0,7.42456,5.28581,-1.11129,-5.79268,-4.2378,-13.9634,-6.77791,-0.349673,5.69536,-3.87195,12.6524,0.823171
883.027,51.8498,41.8154,0,7.24733,5.57561,-1.01549,-6.61585,-4.66463,-13.3841,-6.89287,-0.316143,5.61632,-4.39024,11.6768,0.945122
883.037,51.7556,41.6773,0,7.48923,5.51094,-1.76752,-3.90244,-5.67073,-13.2927,-6.97909,-0.289797,5.52771,-4.48171,10.3659,1.34146
883.047,51.6479,41.504,0,7.44372,5.77679,-0.955613,0.853659,-6.55488,-11.8598,-7.0677,-0.210762,5.39358,-4.2378,8.9939,1.55488
883.057,51.538,41.3534,0,7.3599,5.93965,-1.12326,-0.243902,-3.04878,-10.0915,-7.06291,-0.0838257,5.46783,-3.93293,8.17073,2.28659
883.067,51.4252,41.2394,0,7.41019,6.15041,-0.986748,-4.29878,5.82317,-8.9939,-7.12039,-0.0479004,5.66901,-4.05488,6.34146,3.23171
883.077,51.3751,41.0669,0,7.66167,5.90372,-1.42983,-3.81098,8.41463,-7.07317,-7.22817,-0.150886,5.44627,-3.71951,5.33537,3.53659
883.087,51.3147,40.932,0,7.53952,6.12167,-0.479004,-0.487805,6.7378,-5.2439,-7.19703,-0.229922,5.56842,-2.92683,5.82317,3.68902
883.097,51.2362,40.8192,0,7.20422,6.15041,-0.65384,-1.92073,6.0061,-4.17683,-7.3096,-0.349673,5.75523,-2.62195,4.39024,3.62805
883.107,51.1819,40.6685,0,7.24014,5.95881,-0.929268,1.03659,-2.13415,-4.05488,-7.35032,-0.462239,5.58279,-2.65244,4.2378,3.01829
883.117,51.1443,40.5514,0,7.5036,6.10011,-1.07776,4.20732,-10.0915,-3.20122,-7.4533,-0.565225,5.79355,-2.80488,4.14634,1.85976
883.127,51.0933,40.3951,0,7.44851,6.21268,-1.03944,4.72561,-8.10976,-3.01829,-7.54192,-0.56762,5.68817,-3.14024,3.20122,1.61585
883.137,51.0273,40.2655,0,7.29762,6.18394,-0.792751,2.22561,-3.75,-3.78049,-7.53234,-0.476609,5.79595,-3.53659,2.83537,1.58537
883.147,51.0003,40.1712,0,7.54192,6.10251,-1.02267,2.10366,0.792683,-2.7439,-7.52994,-0.404758,6.01389,-4.20732,1.67683,2.53049
883.157,50.9687,40.016,0,7.59221,6.13604,-0.938848,-1.28049,6.98171,-3.35366,-7.61856,-0.433499,5.95641,-4.66463,1.0061,3.35366
883.167,50.9585,39.8676,0,7.78621,6.06898,-1.17356,-0.365854,8.04878,-3.41463,-7.77184,-0.514929,5.97797,-4.69512,1.31098,3.84146
883.177,50.9067,39.6396,0,7.61137,6.30609,-0.775986,-0.0914634,5.67073,-4.02439,-7.92512,-0.493374,5.86061,-3.90244,0.97561,4.45122
883.187,50.8171,39.4438,0,7.41019,6.42823,-0.831072,0.701219,3.29268,-5.33537,-8.01134,-0.421523,5.9157,-3.10976,1.12805,5
883.197,50.7223,39.2793,0,7.56347,6.56475,-0.874182,0.609756,-0.457317,-6.03659,-8.13828,-0.443079,6.25579,-3.41463,-0.0304878,5.03049
883.207,50.6564,39.0828,0,7.84608,6.4905,-1.41067,3.17073,-2.62195,-6.06707,-8.26042,-0.512534,6.11448,-3.47561,-0.426829,4.90854
883.217,50.5668,38.8477,0,7.75507,6.65336,-0.6251,5.12195,-5.36585,-6.52439,-8.32988,-0.534089,5.9636,-3.44512,0.579268,4.14634
883.227,50.4612,38.6291,0,7.64969,6.8761,-0.443079,2.95732,-6.06707,-5.60976,-8.28677,-0.498164,5.91809,-3.44512,0.701219,3.93293
883.237,50.3751,38.4079,0,7.41977,6.43302,-0.986748,1.67683,0.731707,-5.94512,-8.15265,-0.490979,5.92288,-3.56707,-0.27439,3.78049
883.247,50.2851,38.308,0,7.4054,6.43302,-0.670605,0.457317,-0.579268,-6.40244,-7.99937,-0.574805,5.95641,-3.53659,-1.28049,4.17683
883.257,50.2154,38.1857,0,7.55389,6.29651,-0.826282,-1.0061,0.945122,-6.92073,-7.96104,-0.656235,5.83666,-3.81098,-1.28049,4.17683
883.267,50.1389,37.9761,0,7.60419,6.31806,-0.66342,-0.365854,1.61585,-7.92683,-7.96344,-0.708926,5.73128,-3.35366,-0.487805,4.45122
883.277,50.0494,37.9094,0,7.77184,6.57433,-0.708926,-4.02439,3.5061,-8.38415,-7.95625,-0.656235,6.02108,-2.9878,-0.518293,4.48171
883.287,49.9835,37.8675,0,7.92991,6.44979,-0.898132,-1.46341,3.07927,-8.41463,-8.06643,-0.694556,6.09772,-2.5,-1.55488,4.69512
883.297,49.905,37.79,0,7.97542,6.64618,-0.809517,0.152439,0.731707,-8.44512,-8.16702,-0.66821,6.01629,-2.40854,-1.46341,5.30488
883.307,49.8125,37.7189,0,7.97781,6.81862,-0.608335,-1.67683,1.03659,-8.56707,-8.20534,-0.65384,6.07377,-1.82927,-1.15854,5.42683
883.317,49.7075,37.6435,0,7.84608,6.84976,-0.998723,-2.28659,2.71341,-8.81098,-8.23887,-0.608335,6.07137,-1.52439,-1.06707,5.2439
883.327,49.6049,37.5806,0,7.57784,6.55277,-1.18553,-0.0609756,2.92683,-9.32927,-8.21252,-0.603545,6.04742,-0.914634,-1.64634,5.7622
883.337,49.4606,37.5368,0,7.36229,6.74917,-0.534089,-1.15854,5,-10.3963,-8.2245,-0.56283,6.12406,-0.884146,-1.70732,6.09756
883.347,49.3389,37.519,0,7.66167,6.55038,-0.711321,-4.45122,2.77439,-12.439,-8.26042,-0.63468,6.25579,-0.945122,-1.95122,6.4939
883.357,49.223,37.4727,0,7.78381,6.53601,-1.03465,-0.731707,1.34146,-13.1402,-8.27958,-0.720901,6.13365,-0.884146,-1.79878,6.85976
883.367,49.0747,37.3782,0,7.75028,6.77072,-0.61552,-1.58537,1.43293,-14.3902,-8.3203,-0.728086,6.0115,-0.365854,-0.945122,6.70732
883.377,48.8955,37.362,0,7.57545,6.87371,-0.464634,-1.25,0.945122,-15.6402,-8.32269,-0.720901,6.27735,0.304878,-1.7378,7.46951
883.387,48.7052,37.3419,0,7.51557,6.95753,-0.828677,-1.58537,2.89634,-15.9756,-8.37299,-0.720901,6.27735,0.792683,-3.14024,7.71341
883.397,48.5103,37.3138,0,7.61377,7.04136,-1.00112,-2.92683,2.9878,-16.8902,-8.44244,-0.744851,6.27735,0.914634,-3.62805,7.83537
883.407,48.2864,37.2771,0,7.48444,7.1659,-0.790356,-3.23171,1.09756,-18.2317,-8.53106,-0.66821,6.28453,1.76829,-4.14634,7.86585
883.417,48.0461,37.2269,0,7.4533,7.23535,-0.931663,-3.87195,2.53049,-19.5427,-8.47118,-0.59636,6.15999,2.2561,-3.65854,8.32317
883.427,47.7927,37.2122,0,7.4054,7.28804,-0.955613,-4.14634,3.23171,-20.5793,-8.45442,-0.505349,6.33483,2.28659,-3.96341,8.56707
883.437,47.5393,37.2157,0,7.31678,7.18506,-0.795146,-3.78049,5.64024,-21.2195,-8.44963,-0.505349,6.43063,1.4939,-5.03049,8.68902
883.447,47.2949,37.1735,0,7.41738,7.14434,-0.651445,-4.08537,3.35366,-21.9512,-8.46639,-0.536484,6.18155,1.06707,-4.96951,8.32317
883.457,47.0598,37.1623,0,7.56826,7.14674,-0.792751,-2.89634,2.56098,-22.6524,-8.42807,-0.543669,6.32046,0.701219,-4.96951,7.9878
883.467,46.8029,37.1547,0,7.35271,7.17069,-0.744851,-4.54268,2.89634,-23.4756,-8.32509,-0.536484,6.26058,0.213415,-5.60976,7.53049
883.477,46.5561,37.1554,0,7.28565,6.98867,-0.852627,-2.92683,2.59146,-23.9329,-8.20534,-0.502954,6.21508,-0.762195,-5.88415,7.83537
883.487,46.2914,37.1995,0,7.17308,7.03896,-0.613125,-3.32317,1.67683,-24.939,-8.08559,-0.464634,6.37075,-0.853659,-6.40244,7.65244
883.497,46.0465,37.2156,0,7.26888,6.80665,-0.934058,-3.75,-2.2561,-26.189,-8.02092,-0.500559,6.17197,-0.884146,-5.79268,8.2622
883.507,45.7778,37.2299,0,7.10602,6.97909,-1.01549,-1.15854,-2.04268,-26.3415,-7.9826,-0.507744,6.13604,-0.945122,-4.96951,8.17073
883.517,45.4932,37.2512,0,7.03896,6.9743,-1.07536,-3.96341,-0.762195,-27.9878,-7.99697,-0.526904,6.18873,-0.884146,-5.2439,8.32317
883.527,45.1937,37.2764,0,6.89287,6.94556,-0.874182,-3.29268,3.41463,-29.1159,-7.87243,-0.522114,6.11928,-0.97561,-5.33537,8.23171
883.537,44.9126,37.2985,0,7.13476,6.95753,-0.55804,-5.09146,1.67683,-29.7561,-7.81734,-0.493374,6.06419,-1.18902,-4.69512,7.92683
883.547,44.6398,37.2987,0,7.14913,6.97909,-0.737666,-6.09756,3.14024,-29.4207,-7.75507,-0.490979,5.90372,-1.28049,-4.54268,7.80488
883.557,44.3751,37.2911,0,7.05812,6.77312,-0.902922,-6.09756,4.72561,-30.1524,-7.6928,-0.502954,5.8175,-1.06707,-3.71951,7.77439
883.567,44.0951,37.3052,0,7.03417,6.97669,-0.826282,-5.85366,4.42073,-30.3354,-7.64251,-0.524509,5.88696,-1.06707,-3.47561,7.80488
883.577,43.8152,37.3325,0,6.95753,6.84736,-0.907712,-4.84756,4.69512,-31.3415,-7.60419,-0.579595,5.92528,-1.64634,-3.35366,8.41463
883.587,43.5374,37.3755,0,6.91203,6.85455,-0.555645,-3.96341,1.89024,-31.25,-7.55629,-0.58199,5.9612,-2.19512,-2.80488,8.65854
883.597,43.2533,37.3877,0,6.89287,6.96472,-0.723296,-5.51829,2.10366,-31.372,-7.55629,-0.538879,5.81511,-2.16463,-1.76829,8.96341
883.607,42.9792,37.3639,0,6.86892,6.75635,-0.943638,-6.4939,3.75,-32.5,-7.51078,-0.486189,5.69296,-1.92073,-0.518293,9.81707
883.617,42.7035,37.4875,0,6.88089,6.82341,-0.919688,-4.66463,4.93902,-32.7439,-7.51078,-0.433499,5.93486,-2.31707,0.0609756,10.061
883.627,42.4065,37.5307,0,6.7348,6.95514,-0.680186,-3.71951,4.48171,-33.1098,-7.54431,-0.409548,5.89414,-2.83537,0.762195,9.96951
883.637,42.0956,37.5116,0,6.66055,7.00304,-0.766406,-4.63415,4.45122,-34.0854,-7.55389,-0.395178,5.72889,-3.23171,2.13415,9.90854
883.647,41.7805,37.5017,0,6.53122,6.924,-0.723296,-3.38415,3.2622,-34.6646,-7.55868,-0.356858,5.75763,-3.14024,3.44512,9.72561
883.657,41.4772,37.5105,0,6.6366,6.93358,-1.14242,-3.65854,0.670732,-34.9695,-7.5515,-0.387993,5.84385,-3.65854,4.02439,9.32927
883.667,41.1867,37.5039,0,6.64618,6.87131,-0.866997,-0.365854,0.884146,-34.878,-7.54431,-0.428708,5.76242,-4.45122,5.30488,8.90244
883.677,40.8793,37.5225,0,6.73,7.19943,-0.522114,-2.19512,4.66463,-35.2134,-7.5491,-0.471819,5.89893,-5.06098,6.4939,8.47561
883.687,40.5789,37.5299,0,6.7803,7.23056,-0.656235,-5.06098,4.66463,-35.3049,-7.52036,-0.469424,5.82229,-5.67073,8.07927,8.53659
883.697,40.3172,37.5111,0,6.98867,7.04375,-0.991538,-1.64634,1.31098,-35.2744,-7.53473,-0.512534,5.70015,-5.67073,10.3049,8.41463
883.707,40.0161,37.4814,0,6.63899,7.20661,-0.766406,-1.52439,2.43902,-35.4878,-7.56826,-0.555645,5.66662,-5.91463,12.6829,8.17073
883.717,39.695,37.4475,0,6.34201,7.2138,-0.385598,-1.7378,-0.243902,-35.4268,-7.597,-0.538879,5.66183,-5.70122,14.5427,8.56707
883.727,39.3632,37.3873,0,6.22705,7.21619,-0.507744,-3.41463,-1.12805,-36.0976,-7.67125,-0.541274,5.57561,-5.18293,16.4329,8.5061
883.737,38.9759,37.3362,0,6.26058,7.60419,-0.62989,-5.67073,0.182927,-39.7256,-7.75986,-0.603545,5.6762,-4.7561,17.8963,8.47561
883.747,38.6165,37.275,0,6.55517,7.66646,-0.857417,-7.62195,0.609756,-39.8476,-7.84848,-0.617915,5.67859,-4.7561,19.4512,8.23171
883.757,38.2674,37.206,0,6.55756,7.97781,-0.423918,-4.29878,-2.0122,-37.2561,-7.8844,-0.617915,5.65225,-5.03049,21.128,8.04878
883.767,38.0608,37.1129,0,8.05445,8.1742,-2.87881,0.823171,15.1829,-33.9634,-7.83411,-0.62031,5.4798,-4.78659,23.689,8.20122
883.777,38.0119,37.0296,0,8.37059,7.48923,0.205972,-0.365854,-0.365854,-25.6402,-7.78621,-0.56283,5.4798,-4.87805,25.8232,8.38415
883.787,37.6892,36.9545,0,6.38273,7.14913,-1.31247,-15.6707,8.68902,-40.5793,-7.791,-0.56283,5.51094,-5.21341,27.9878,8.68902
883.797,37.4431,36.84,0,6.65097,6.72761,-2.00703,-2.31707,8.23171,-39.3598,-7.85566,-0.63468,5.34089,-5.18293,30.122,8.29268
883.807,37.0701,36.7167,0,6.13843,7.62814,-0.100591,-5.88415,0.487805,-40.8841,-7.89159,-0.6251,5.30018,-4.93902,32.1951,8.17073
883.817,36.7117,36.5793,0,6.3492,7.76465,-1.33403,-8.23171,6.98171,-41.0671,-7.96823,-0.60115,5.25707,-5.33537,33.7805,8.23171
883.827,36.3716,36.4199,0,6.04982,6.86173,-1.08973,-7.68293,6.0061,-44.2683,-7.98979,-0.56762,5.13492,-5.54878,35.5793,8.35366
883.837,35.9902,36.2361,0,6.26777,7.3575,-1.23344,-7.83537,2.19512,-47.1951,-8.01374,-0.565225,5.0008,-5.7622,37.378,8.59756
883.847,35.6093,36.0612,0,6.38033,7.85087,-1.05381,-2.95732,8.71951,-45.2134,-8.0305,-0.55325,5.01996,-5.73171,38.5671,8.68902
883.857,35.1983,35.8787,0,5.97797,8.27719,-0.529299,-5.39634,4.72561,-42.4085,-8.00416,-0.538879,4.93374,-6.15854,40.0915,9.26829
883.867,34.7922,35.6548,0,5.80792,8.26282,-0.510139,-5.60976,2.65244,-41.25,-8.01853,-0.570015,4.711,-6.03659,42.1951,9.2378
883.877,34.3988,35.453,0,5.59477,8.17181,-0.507744,-4.69512,2.53049,-39.3293,-8.06643,-0.526904,4.80441,-6.43293,44.2988,9.32927
883.887,34.0134,35.2368,0,5.48459,7.96104,-0.828677,-6.0061,3.32317,-39.6646,-8.11193,-0.486189,4.72537,-7.10366,46.128,9.42073
883.897,33.6349,34.9611,0,5.61153,7.85566,-1.03225,-3.9939,6.31098,-41.7378,-8.15983,-0.507744,4.43318,-6.7378,48.5671,9.20732
883.907,33.2148,34.7103,0,5.38161,7.83411,-0.548459,-5.4878,5.70122,-44.6037,-8.23887,-0.455054,4.54335,-6.70732,50.1829,9.42073
883.917,32.7875,34.4537,0,5.52291,7.73112,-0.608335,-6.52439,4.81707,-48.3537,-8.24126,-0.522114,4.4715,-6.4939,50.6402,9.57317
883.927,32.3553,34.1511,0,5.71212,7.82213,-0.708926,-6.95122,4.5122,-50.9451,-8.24366,-0.584385,4.21284,-6.70732,51.7683,9.5122
883.937,31.9073,33.8532,0,5.74805,7.76226,-0.58199,-8.87195,10.8232,-54.2073,-8.27958,-0.637075,4.19847,-6.76829,52.7744,9.57317
883.947,31.4694,33.5731,0,5.9636,7.82213,-0.807122,-9.32927,17.0427,-55.7317,-8.22929,-0.675395,4.20086,-7.43902,53.1402,9.48171
883.957,30.9761,33.2512,0,5.46304,7.97062,-0.58678,-8.10976,14.7256,-56.372,-8.16702,-0.728086,3.93262,-7.16463,54.3598,9.17683
883.967,30.4513,32.9495,0,5.17803,8.00176,-0.428708,-8.14024,14.0549,-57.5,-8.16941,-0.694556,3.96855,-7.10366,55.9146,8.78049
883.977,29.8768,32.6164,0,4.75411,8.14307,-0.229922,-9.5122,16.0061,-58.2622,-8.18139,-0.598755,3.78413,-7.43902,57.5305,9.11585
883.987,29.3057,32.2377,0,4.74453,8.52148,-0.299377,-12.0427,16.7683,-56.7073,-8.25563,-0.613125,3.56379,-7.19512,59.3598,8.96341
883.997,28.7889,31.8882,0,4.93374,9.30465,-0.467029,-8.01829,15.1524,-49.939,-8.39215,-0.589175,3.68594,-7.43902,60.8537,8.9939
884.007,28.2945,31.4978,0,4.67508,9.49625,-0.119751,-8.5061,9.54268,-45.1829,-8.45921,-0.560435,3.47517,-7.5,61.189,8.81098
884.017,27.7549,31.11,0,4.01166,8.33227,-0.344883,-10.3963,10.7622,-49.7866,-8.51429,-0.56762,3.44164,-7.77439,61.5244,8.53659
884.027,27.2275,30.7273,0,4.11464,8.40173,-0.481399,-8.62805,12.8963,-50.4268,-8.54782,-0.58678,3.41051,-7.7439,61.8902,8.5061
884.037,26.7025,30.3073,0,4.15536,8.87594,-0.282612,-7.19512,14.8171,-49.2073,-8.51908,-0.613125,3.1734,-6.85976,62.378,8.81098
884.047,26.2825,29.8954,0,4.7613,8.89031,-0.699346,-5.57927,18.4451,-45.8537,-8.59093,-0.682581,3.16382,-6.61585,63.2012,8.9939
884.057,25.7502,29.4873,0,3.80808,8.49753,0.347278,-5.4878,10.0305,-49.939,-8.66279,-0.711321,3.13748,-6.58537,64.2683,9.60366
884.067,25.2648,29.0886,0,4.17212,9.09149,0.0311353,-7.7439,9.81707,-47.2866,-8.7514,-0.725691,3.13987,-6.89024,64.2073,9.60366
884.077,24.7244,28.6468,0,3.64043,8.68913,-0.0670605,-10.7927,10.4268,-49.9695,-8.78014,-0.754431,2.89558,-6.61585,64.8476,9.66463
884.087,24.2309,28.1925,0,4.1817,8.85439,-0.486189,-12.439,11.372,-51.4939,-8.8951,-0.843047,2.80457,-6.06707,65.7622,9.90854
884.097,23.7073,27.7618,0,3.80569,9.05796,-0.148491,-9.14634,4.26829,-50.4878,-8.97174,-0.797541,2.85247,-5.94512,64.9695,9.66463
884.107,23.2331,27.3175,0,4.1338,9.69504,-0.447869,-9.14634,2.68293,-47.1341,-9.01006,-0.728086,2.73032,-5.21341,63.9024,9.29878
884.117,22.7725,26.8738,0,3.95418,9.34297,-0.325723,-11.6463,2.5,-46.4024,-8.98611,-0.66342,2.64889,-5.06098,63.0183,9.32927
884.127,22.3023,26.404,0,3.70749,8.658,-0.498164,-12.1037,3.23171,-48.811,-9.01246,-0.675395,2.46927,-4.7561,62.8354,9.84756
884.137,21.87,25.9354,0,3.92304,8.7538,-0.529299,-8.07927,6.43293,-47.8659,-8.96216,-0.670605,2.38304,-4.93902,64.4817,9.81707
884.147,21.5203,25.4703,0,4.29187,8.71787,-0.761616,-5.03049,14.7256,-44.5427,-8.93821,-0.711321,2.31359,-4.5122,65.0305,9.7561
884.157,21.1235,24.9973,0,3.83203,9.00767,-0.56762,-1.79878,13.1098,-43.5976,-9.02443,-0.728086,2.22497,-4.11585,65.6707,9.39024
884.167,20.6472,24.5599,0,3.54223,9.28549,-0.0790356,-9.72561,15.9756,-48.1098,-9.08191,-0.706531,2.31119,-4.2378,65.5793,8.87195
884.177,20.1572,24.077,0,3.47517,8.82325,-0.680186,-10.5793,16.9207,-51.7378,-9.08431,-0.706531,2.04535,-3.87195,65.6402,8.84146
884.187,19.6095,23.598,0,3.12071,9.16095,-0.0407153,-5.21341,11.7073,-53.1402,-8.9909,-0.689766,1.96152,-3.59756,65.9451,8.84146
884.197,19.0076,23.0867,0,2.59381,9.50104,0.65863,-8.01829,8.75,-52.561,-9.06515,-0.744851,1.76513,-2.19512,66.9207,8.90244
884.207,18.4377,22.5907,0,2.66566,9.15376,0.119751,-11.6159,11.7988,-52.5,-9.07952,-0.764011,1.74836,-1.55488,68.0488,8.81098
884.217,17.8402,22.1541,0,2.24413,9.26394,0.105381,-6.58537,6.61585,-51.128,-9.12981,-0.704136,1.9232,-0.640244,67.1037,8.78049
884.227,17.236,21.7079,0,2.03816,9.25915,0.704136,-6.4939,-1.0061,-50.5793,-9.19687,-0.63468,1.82261,-0.365854,64.8781,9.29878
884.237,16.7282,21.2407,0,2.49801,9.59205,0.158071,-5.06098,1.58537,-46.4329,-9.2807,-0.656235,1.67412,-0.152439,63.9024,9.2378
884.247,16.2315,20.8263,0,2.46927,9.29986,-0.0862207,-5.60976,2.9878,-46.8902,-9.36453,-0.617915,1.83458,-0.0914634,62.1951,8.81098
884.257,15.712,20.3591,0,2.2585,9.59445,0.469424,-5.33537,1.58537,-46.9207,-9.27831,-0.58199,1.52563,0.121951,62.622,8.53659
884.267,15.168,19.862,0,2.019,9.4747,1.06099,-12.1951,0.0304878,-47.9878,-9.29747,-0.570015,1.32684,0.487805,63.9024,8.32317
884.277,14.6362,19.4147,0,1.98068,9.06275,0.538879,-12.8963,-1.43293,-48.4756,-9.29747,-0.483794,1.45378,1.21951,64.6037,8.41463
884.287,14.1744,19.0048,0,2.43813,9.48188,0.287402,-10,-3.68902,-46.6768,-9.2328,-0.479004,1.52563,1.25,64.2378,8.5061
884.297,13.7375,18.5778,0,2.31598,9.60642,0.536484,-8.65854,-4.42073,-43.3232,-9.22083,-0.399968,1.38432,1.03659,64.2378,8.59756
884.307,13.286,18.1603,0,2.02858,9.31423,0.383203,-13.811,-1.98171,-43.1098,-9.29986,-0.344883,1.36516,1.55488,63.628,8.78049
884.317,12.887,17.758,0,2.38065,8.8496,-0.0383203,-13.1098,2.19512,-44.3293,-9.41482,-0.373623,1.37474,2.31707,61.8293,8.56707
884.327,12.5645,17.3112,0,2.76385,9.60642,0.483794,-8.53659,1.15854,-39.3598,-9.45075,-0.383203,1.12326,2.68293,61.4939,8.62805
884.337,12.2529,16.8912,0,2.43813,9.64953,0.58678,-11.5854,-0.945122,-35.0915,-9.56331,-0.464634,1.17595,3.14024,61.4329,7.89634
884.347,11.9635,16.4822,0,2.4549,9.4723,0.258662,-11.4939,6.09756,-34.1768,-9.62558,-0.421523,1.15919,3.20122,61.2805,7.37805
884.357,11.6722,16.0505,0,2.22497,9.7118,0.387993,-7.80488,8.5061,-31.6463,-9.62319,-0.428708,0.991538,2.5,61.0061,6.76829
884.367,11.3647,15.6438,0,1.82261,9.74773,0.689766,-9.26829,6.82927,-29.1768,-9.6639,-0.395178,1.02986,2.13415,61.189,7.07317
884.377,11.0248,15.2414,0,1.61903,9.38608,0.677791,-11.0366,4.69512,-31.4634,-9.69743,-0.332908,0.981958,1.34146,60.6707,7.16463
884.387,10.7009,14.8207,0,1.84656,9.47709,0.593965,-12.4085,4.57317,-33.0488,-9.75012,-0.308958,0.838257,1.06707,59.7866,7.2561
884.397,10.3575,14.3982,0,1.56395,9.1849,0.481399,-9.72561,5.4878,-32.9268,-9.79803,-0.296982,0.761616,0.609756,59.4512,7.89634
884.407,10.0091,13.9685,0,1.62861,9.52739,0.380808,-10.0915,9.78659,-34.2073,-9.77647,-0.287402,0.656235,0.0304878,59.1463,7.83537
884.417,9.69652,13.5462,0,1.74597,9.67348,0.529299,-7.34756,9.14634,-32.3476,-9.79323,-0.289797,0.61552,-0.518293,58.9024,7.71341
884.427,9.38543,13.1225,0,1.71962,9.61361,0.847837,-7.71341,10.3659,-32.6524,-9.79563,-0.217947,0.536484,-0.457317,58.3537,8.14024
884.438,9.11313,12.7095,0,1.83938,9.57529,0.701741,-6.58537,15.2439,-30.8232,-9.81,-0.234712,0.510139,0.0914634,56.9817,8.35366
884.447,8.8612,12.2917,0,1.71483,9.63037,0.922083,-3.23171,17.1646,-27.7134,-9.85311,-0.270637,0.419128,0.487805,56.0976,8.65854
884.457,8.57779,11.8812,0,1.3005,9.41243,0.962798,-3.71951,19.3293,-26.8902,-9.86988,-0.378413,0.378413,1.7378,54.8476,8.81098
884.467,8.28406,11.4446,0,1.06578,9.59924,0.795146,-1.55488,18.628,-25.3963,-9.89383,-0.457449,0.193997,2.65244,53.75,8.38415
884.477,7.97874,11.0168,0,0.792751,9.99202,0.689766,-0.884146,17.4085,-23.5061,-9.89383,-0.490979,0.155676,3.9939,52.5305,8.10976
884.487,7.60981,10.5593,0,0.179626,9.66151,0.689766,-2.59146,15.2439,-23.5366,-9.88904,-0.502954,-0.0479004,4.84756,52.0732,7.40854
884.497,7.23566,10.0989,0,0.0910107,9.65672,0.589175,-2.16463,10.0305,-23.75,-9.9537,-0.450264,-0.141306,5.88415,51.6463,6.85976
884.507,6.84606,9.64564,0,-0.129331,9.99202,0.795146,-1.89024,3.87195,-23.4756,-10.0232,-0.313748,-0.191602,6.55488,50.7317,6.85976
884.517,6.43046,9.18455,0,-0.467029,10.0711,1.02746,-5.60976,-4.63415,-23.0183,-10.1261,-0.270637,-0.308958,7.07317,50.5793,7.10366
884.527,6.05828,8.71587,0,-0.189207,10.0471,1.17356,-5.57927,-10.122,-22.6524,-10.2172,-0.330513,-0.428708,7.80488,50.1524,7.65244
884.537,5.7097,8.23481,0,-0.162861,10.0519,1.48731,-6.7378,-14.2073,-21.311,-10.3273,-0.311353,-0.574805,7.68293,49.7561,7.5
884.547,5.42469,7.7557,0,0.172441,9.97765,1.08734,-8.17073,-13.2317,-19.4512,-10.4088,-0.368833,-0.65863,8.07927,49.1463,8.44512
884.557,5.16064,7.27138,0,0.241897,9.93215,1.0083,-8.29268,-12.2866,-18.7195,-10.4159,-0.414338,-0.771196,8.20122,48.5366,8.81098
884.567,4.90593,6.75658,0,0.273032,9.97765,0.953218,-9.57317,-12.2866,-18.6585,-10.4351,-0.479004,-1.00351,8.59756,47.5915,9.32927
884.577,4.66663,6.25021,0,0.332908,9.93454,0.876577,-9.69512,-11.5549,-18.3232,-10.5549,-0.431104,-1.07297,9.17683,45.6402,10.3354
884.587,4.43612,5.75081,0,0.316143,9.94412,0.965193,-9.29878,-10.9146,-17.7134,-10.6123,-0.390388,-1.14242,9.42073,43.7805,11.128
884.597,4.21256,5.30928,0,0.306563,9.90101,0.919688,-7.9878,-9.81707,-17.378,-10.8063,-0.289797,-0.981958,9.78659,41.7988,11.6768
884.607,4.02312,4.85637,0,0.560435,9.8076,0.795146,-7.92683,-7.56098,-17.4085,-10.5692,-0.378413,-1.09931,9.14634,38.3537,12.0427
884.617,3.86878,4.41471,0,0.732876,9.68306,0.63468,-6.98171,-4.29878,-16.372,-10.5046,-0.265847,-1.12805,8.01829,33.7805,12.2256
884.627,3.7148,3.96533,0,0.641865,9.616,0.560435,-4.7561,-1.92073,-15.6098,-10.3872,-0.215552,-1.23583,8.14024,30,11.8902
884.637,3.56784,3.49221,0,0.593965,9.77407,0.828677,-4.08537,-1.67683,-14.5122,-10.2483,-0.227527,-1.41306,8.29268,26.5549,10.9451
884.647,3.42329,3.04328,0,0.471819,9.82437,0.680186,-4.54268,-1.31098,-13.0793,-10.1285,-0.150886,-1.37474,9.02439,23.2317,10.3963
884.657,3.28712,2.62107,0,0.457449,9.99681,0.687371,-4.87805,-2.56098,-12.2561,-10.1261,-0.0646655,-1.33642,9.05488,20.2744,10.1524
884.667,3.15297,2.22288,0,0.371228,10.0184,0.785566,-5.73171,-4.45122,-11.311,-10.1405,-0.0550855,-1.30768,9.29878,17.378,10
884.677,3.02872,1.84039,0,0.373623,10.1429,0.823887,-5.73171,-5.45732,-10.5488,-10.21,-0.0742456,-1.31966,8.71951,14.3902,9.60366
884.687,2.91263,1.44379,0,0.395178,10.1549,0.902922,-6.52439,-7.22561,-10.2134,-10.2483,-0.165256,-1.46096,8.38415,12.4085,8.75
884.697,2.81678,1.04108,0,0.526904,9.93694,0.725691,-5.64024,-7.89634,-10.0305,-10.3297,-0.198787,-1.57592,7.92683,10.3354,7.65244
884.707,2.76088,0.626299,0,0.742456,9.75252,0.752036,-5.91463,-6.89024,-8.84146,-10.3417,-0.170046,-1.71004,8.20122,8.41463,6.28049
884.717,2.75709,0.219708,0,0.977168,9.61361,0.790356,-4.5122,-7.13415,-6.61585,-10.3273,-0.155676,-1.74597,7.86585,6.79878,5.30488
884.727,2.78111,-0.178147,0,1.03704,9.64235,0.65863,-4.2378,-7.19512,-4.60366,-10.2962,-0.150886,-1.76513,8.07927,4.93902,4.63415
884.737,2.81461,-0.600902,0,1.0107,9.69504,0.55804,-3.29268,-7.16463,-3.47561,-10.1908,-0.210762,-1.70046,8.20122,2.07317,4.26829
884.747,2.88954,-1.07759,0,1.03465,9.79084,0.646655,-2.7439,-7.40854,-1.55488,-10.0926,-0.280217,-1.6837,8.04878,-1.28049,4.11585
884.757,3.02282,-1.45339,0,1.0083,9.82916,0.704136,-3.10976,-6.95122,-0.335366,-9.95131,-0.292192,-1.74836,7.92683,-3.04878,4.02439
884.767,3.12804,-1.8186,0,1.05141,9.80281,0.63947,-1.98171,-4.78659,1.34146,-9.9082,-0.325723,-1.84417,7.56098,-4.48171,4.29878
884.777,3.22096,-2.1786,0,1.06578,9.90101,0.759221,-2.59146,-4.81707,2.28659,-9.91059,-0.344883,-1.89446,7.37805,-4.78659,4.20732
884.787,3.28604,-2.53643,0,0.864602,9.8076,0.694556,-3.75,-5.73171,1.92073,-9.88664,-0.270637,-1.94236,6.82927,-4.69512,4.08537
884.797,3.32898,-2.88302,0,0.720901,9.74533,0.761616,-3.81098,-5.73171,1.85976,-9.82677,-0.0910107,-1.93757,6.0061,-4.48171,4.32927
884.807,3.3656,-3.21371,0,0.692161,9.74294,0.919688,-3.62805,-6.4939,1.70732,-9.83635,0.0574805,-1.93039,4.5122,-4.45122,4.66463
884.817,3.39328,-3.53887,0,0.646655,9.69983,0.943638,-4.42073,-6.03659,1.4939,-9.84832,0.0958008,-1.97829,2.9878,-4.93902,4.32927
884.827,3.43402,-3.82907,0,0.713716,9.67588,0.888552,-4.5122,-5.21341,0.701219,-9.82916,0.0694556,-1.88249,2.19512,-5.42683,3.96341
884.837,3.49317,-4.10303,0,0.819097,9.71659,0.869392,-4.05488,-3.14024,0.914634,-9.78844,-0.00958008,-1.86093,1.03659,-6.61585,3.29268
884.847,3.56689,-4.37802,0,0.864602,9.73336,0.790356,-3.01829,-0.945122,0.548781,-9.74294,-0.100591,-1.90644,0.243902,-7.04268,2.5
884.857,3.62224,-4.61929,0,0.855022,9.76689,0.948428,-3.04878,1.06707,-0.548781,-9.69025,-0.148491,-1.79626,-0.396341,-7.5,2.16463
884.867,3.64442,-4.86017,0,0.826282,9.83874,1.0083,-3.9939,2.80488,-1.31098,-9.69025,-0.273032,-1.83698,-1.09756,-7.62195,1.43293
884.877,3.64443,-5.10229,0,0.768801,9.75731,0.807122,-5.09146,5.4878,-2.16463,-9.74054,-0.416733,-1.89446,-1.64634,-7.56098,0.518293
884.887,3.62229,-5.35488,0,0.637075,9.77407,0.792751,-3.93293,8.17073,-2.46951,-9.82916,-0.409548,-2.00224,-1.31098,-7.65244,-0.0609756
884.897,3.57605,-5.60804,0,0.471819,9.84353,0.855022,-3.81098,8.87195,-2.71341,-9.86509,-0.426313,-2.05732,-0.640244,-7.53049,0.335366
884.907,3.50409,-5.85336,0,0.285007,9.81719,0.761616,-4.05488,8.04878,-3.10976,-9.89383,-0.464634,-2.07409,-0.457317,-8.01829,0.182927
884.917,3.43035,-6.0705,0,0.292192,9.78366,0.931663,-4.11585,5.54878,-3.68902,-9.8579,-0.493374,-1.98308,-0.121951,-8.07927,0.701219
884.927,3.36348,-6.27152,0,0.364043,9.50583,1.10889,-2.83537,0.792683,-4.20732,-9.82197,-0.486189,-1.94236,-0.548781,-8.38415,1.0061
884.937,3.28811,-6.46863,0,0.179626,10.1573,1.16637,-6.12805,-3.07927,-1.52439,-9.80042,-0.488584,-1.95673,-0.304878,-8.71951,1.58537
884.947,3.2027,-6.65169,0,0.126936,9.60882,0.704136,-6.98171,-2.56098,-2.83537,-9.78126,-0.452659,-1.9256,-0.243902,-9.39024,2.16463
884.957,3.16216,-6.82099,0,0.486189,9.90101,1.31008,-7.62195,-9.35976,-3.29268,-9.8555,-0.493374,-1.91123,-0.701219,-9.78659,2.86585
884.967,3.17718,-6.95492,0,0.864602,9.73575,0.855022,-11.6463,-8.53659,-2.83537,-9.92975,-0.546064,-1.79626,-1.03659,-10.2744,2.68293
884.977,3.21737,-7.08067,0,1.01788,9.50104,0.852627,-10.061,-6.55488,-2.80488,-9.90341,-0.474214,-1.7795,-2.0122,-11.311,2.37805
884.987,3.29223,-7.20878,0,1.03225,9.64714,1.19032,-9.66463,-7.86585,-1.37195,-9.85072,-0.483794,-1.80345,-2.7439,-11.9512,2.34756
884.997,3.48786,-7.29742,0,1.09452,9.63516,0.955613,-10.3963,-6.70732,-0.0304878,-9.79323,-0.380808,-1.64059,-2.9878,-12.7134,2.04268
885.007,3.61746,-7.38175,0,1.19272,9.67109,0.967588,-11.0061,-6.64634,1.09756,-9.72378,-0.416733,-1.62622,-4.32927,-13.5976,2.37805
885.017,3.74382,-7.45931,0,1.32205,9.67348,0.771196,-10.9756,-7.28659,1.95122,-9.65193,-0.467029,-1.59987,-5.67073,-14.3902,2.40854
885.027,3.87097,-7.55239,0,1.41306,9.86988,0.65863,-9.63415,-6.61585,3.56707,-9.60882,-0.546064,-1.67412,-6.52439,-14.8476,2.5
885.037,3.99129,-7.66371,0,1.35798,10.0064,0.395178,-9.60366,-3.44512,4.2378,-9.62319,-0.5772,-1.77231,-7.59146,-14.5122,2.62195
885.047,4.07278,-7.82061,0,1.11129,10.0567,0.246687,-8.71951,0.579268,3.35366,-9.68785,-0.725691,-2.00463,-8.32317,-13.1098,2.10366
885.057,4.14004,-8.02478,0,1.04902,10.1309,0.323328,-7.7439,3.38415,2.80488,-9.6639,-0.811912,-2.23695,-8.71951,-11.4329,1.61585
885.067,4.19054,-8.25134,0,0.953218,10.0232,0.452659,-7.0122,3.84146,1.95122,-9.60882,-0.866997,-2.35909,-8.47561,-9.81707,1.43293
885.077,4.23598,-8.49026,0,0.914897,9.86988,0.64426,-6.0061,2.2561,1.25,-9.50104,-0.890947,-2.42615,-8.23171,-8.56707,1.70732
885.087,4.29385,-8.72623,0,0.972378,9.83156,0.790356,-6.52439,-0.518293,0.884146,-9.46512,-1.04183,-2.44292,-7.56098,-6.92073,2.13415
885.097,4.37121,-8.95428,0,1.05381,9.83156,0.694556,-7.56098,-3.23171,0.640244,-9.37171,-1.15919,-2.41897,-7.68293,-5.70122,3.01829
885.107,4.49642,-9.14378,0,1.14482,9.80521,0.718506,-8.93293,-4.63415,0.0609756,-9.39566,-1.19032,-2.29203,-7.95732,-5.18293,3.87195
885.117,4.63887,-9.31257,0,1.24781,9.80042,0.775986,-9.63415,-5.36585,-0.121951,-9.46272,-1.21188,-2.24653,-7.92683,-4.72561,4.35976
885.127,4.79785,-9.47087,0,1.42264,9.91299,0.732876,-10.2439,-5.2439,-0.213415,-9.54655,-1.22146,-2.25132,-8.23171,-4.72561,4.69512
885.137,4.9942,-9.60911,0,1.58071,9.89622,0.696951,-11.0671,-4.2378,-0.182927,-9.60882,-1.14003,-2.19623,-8.38415,-4.02439,4.54268
885.147,5.23827,-9.75212,0,1.65017,9.79803,0.63468,-11.6159,-1.4939,-0.0304878,-9.616,-1.04183,-2.23695,-8.5061,-3.75,4.7561
885.157,5.46144,-9.90983,0,1.71004,9.64235,0.517324,-11.25,0.640244,0.457317,-9.58008,-0.953218,-2.29443,-8.53659,-3.17073,4.78659
885.167,5.62792,-10.0697,0,1.62143,9.68306,0.431104,-10.7012,2.5,0.701219,-9.56092,-0.946033,-2.28724,-8.38415,-2.56098,4.93902
885.177,5.76489,-10.2011,0,1.5879,9.6663,0.337698,-10.7927,3.78049,1.03659,-9.616,-1.00351,-2.17468,-8.87195,-1.98171,4.96951
885.187,5.87432,-10.3148,0,1.57353,9.6639,0.270637,-10.7012,3.53659,1.89024,-9.60882,-1.04902,-2.14833,-9.02439,-2.19512,4.2378
885.197,5.99374,-10.4261,0,1.70286,9.67348,0.208367,-10.6707,3.29268,2.83537,-9.62558,-1.02507,-2.14354,-9.14634,-1.92073,3.90244
885.207,6.14213,-10.534,0,1.88967,9.61121,0.205972,-10.4573,1.98171,4.42073,-9.57768,-1.06099,-2.12917,-9.20732,-1.82927,3.38415
885.217,6.33117,-10.6236,0,2.08846,9.52739,0.366438,-9.96951,1.09756,6.55488,-9.60642,-1.06578,-2.09325,-8.75,-1.82927,3.32317
885.227,6.58553,-10.6832,0,2.38304,9.41243,0.507744,-8.9939,0.670732,9.87805,-9.58487,-1.10889,-1.99266,-8.41463,-1.67683,3.29268
885.237,6.90957,-10.7247,0,2.62973,9.31423,0.59636,-7.46951,-1.7378,14.3293,-9.61121,-1.12566,-1.95913,-7.95732,-1.95122,3.47561
885.247,7.32541,-10.7324,0,2.96503,9.18729,0.682581,-5.88415,-4.39024,20.0305,-9.6639,-1.16877,-1.86333,-7.92683,-2.71341,3.65854
885.257,7.83156,-10.7254,0,3.24046,9.00048,0.716111,-3.9939,-6.95122,26.189,-9.71659,-1.14242,-1.81542,-7.13415,-3.17073,3.75
885.267,8.44805,-10.6969,0,3.73144,8.88073,0.675395,-1.46341,-8.44512,32.378,-9.76689,-1.04423,-1.7292,-6.43293,-4.66463,4.02439
885.277,9.15477,-10.6605,0,4.01645,8.76577,0.512534,0,-8.23171,39.1159,-9.75012,-0.953218,-1.68609,-5.82317,-6.0061,4.7561
885.287,9.95011,-10.6032,0,4.24637,8.56219,0.457449,1.67683,-7.04268,46.0061,-9.77886,-0.890947,-1.59269,-5,-6.98171,5.33537
885.297,10.8198,-10.5378,0,4.43558,8.42328,0.373623,3.38415,-6.43293,52.378,-9.71899,-0.804727,-1.5376,-3.65854,-7.77439,6.21951
885.307,11.7509,-10.4593,0,4.49785,8.30114,0.423918,5.54878,-5.18293,59.0244,-9.63037,-0.708926,-1.45617,-2.19512,-8.29268,6.82927
885.317,12.7436,-10.3951,0,4.62478,8.31311,0.490979,7.37805,-4.17683,65.9146,-9.45554,-0.63468,-1.47773,-0.945122,-8.56707,7.56098
885.327,13.7915,-10.3073,0,4.81399,8.55262,0.570015,9.72561,-2.59146,72.9878,-9.29986,-0.488584,-1.34361,0.609756,-8.87195,7.7439
885.337,14.8824,-10.2283,0,5.06547,8.97653,0.62031,12.378,-0.548781,79.3902,-9.25675,-0.383203,-1.36037,1.67683,-9.29878,8.53659
885.347,16.0032,-10.1661,0,5.3361,9.6184,0.514929,15.6402,2.71341,85.5183,-9.30944,-0.325723,-1.42504,2.46951,-9.39024,8.47561
885.357,17.1297,-10.1286,0,5.51813,10.3441,0.385598,18.3841,5.30488,90.3049,-9.49865,-0.273032,-1.54958,3.62805,-9.39024,7.9878
885.367,18.2201,-10.1214,0,5.39119,11.0913,0.402363,19.6646,8.29268,93.3232,-9.78844,-0.268242,-1.72441,4.42073,-8.87195,7.59146
885.377,19.2919,-10.1248,0,5.1948,11.4242,0.651445,18.5366,11.1585,96.6463,-10.0279,-0.227527,-1.81303,5.54878,-8.17073,7.04268
885.387,20.3323,-10.1399,0,4.86428,11.1919,0.819097,18.628,13.0488,97.5915,-10.1812,-0.201182,-1.89446,6.34146,-7.2561,6.98171
885.397,21.3745,-10.1813,0,4.83554,11.0889,1.20709,20.1524,11.3415,99.7561,-10.1812,-0.124541,-2.019,6.52439,-6.43293,8.07927
885.407,22.4383,-10.2274,0,4.85231,10.962,1.46575,19.7256,8.32317,103.445,-10.1118,0.0191602,-2.03337,6.7378,-5.79268,10.061
885.417,23.4786,-10.2946,0,4.41881,10.4998,1.2526,21.311,6.79878,105.366,-10.0974,0.162861,-2.13157,5.57927,-4.32927,12.4695
885.427,24.4923,-10.3807,0,4.31582,10.3561,1.06339,24.5427,7.65244,105.183,-10.0184,0.318538,-2.20821,4.26829,-3.84146,14.9085
885.437,25.4865,-10.5086,0,4.24876,10.6243,0.972378,25.4268,10.5183,106.951,-10.0303,0.543669,-2.4022,2.10366,-3.14024,16.5244
885.447,26.4583,-10.6503,0,4.13859,10.5836,0.898132,24.5122,17.9573,107.591,-10.0184,0.728086,-2.49561,0.243902,-3.53659,17.439
885.457,27.3621,-10.8058,0,3.78174,10.586,1.22146,23.689,23.2622,106.098,-10.0447,0.934058,-2.60099,-1.95122,-3.93293,18.3537
885.467,28.1727,-10.9851,0,3.45841,10.7584,1.6334,24.939,22.0427,102.195,-10.083,1.08734,-2.75667,-3.9939,-4.2378,17.8354
885.477,28.8846,-11.1652,0,3.16622,10.8566,2.0214,28.0793,14.4207,96.9512,-10.2627,1.02746,-2.84768,-6.03659,-4.35976,17.0427
885.487,29.4896,-11.3269,0,2.83331,10.8638,2.51477,30.3659,3.35366,90.8537,-10.4399,0.900527,-2.84528,-7.37805,-4.66463,15.5183
885.497,30.0306,-11.4814,0,2.79499,10.6219,2.55788,30.2134,-5,85.3049,-10.4638,0.673001,-2.84289,-8.29268,-4.02439,15.4573
885.507,30.4653,-11.6295,0,2.46448,10.0878,2.51956,28.9634,-8.35366,77.6219,-10.4135,0.522114,-2.81894,-8.84146,-3.38415,15.8537
885.517,30.8626,-11.744,0,2.72793,9.78366,2.18186,26.8598,-4.84756,70.9146,-10.3441,0.364043,-2.67045,-8.44512,-3.59756,17.622
885.527,31.2612,-11.8581,0,3.13987,9.27352,1.70525,25.0915,1.06707,65.4878,-10.2124,0.227527,-2.65608,-8.56707,-3.71951,19.0549
885.537,31.7085,-11.9261,0,3.74342,8.83044,1.07057,26.5854,7.19512,62.561,-10.083,0.131726,-2.43813,-7.92683,-5.30488,20.5793
885.547,32.1933,-11.9636,0,4.18649,8.63644,0.917292,29.5732,13.5671,61.4024,-9.9082,0.158071,-2.27048,-6.64634,-7.07317,21.7073
885.557,32.6793,-11.9944,0,4.40444,8.52148,0.948428,28.628,22.8659,59.5122,-9.6663,0.227527,-2.19384,-5.60976,-9.26829,21.8902
885.567,33.1408,-12.0109,0,4.35415,8.25324,0.852627,26.7988,32.9878,57.0122,-9.44835,0.275427,-2.08846,-4.78659,-10.9756,21.5549
885.577,33.5645,-12.0195,0,4.20565,7.81495,0.871787,25.9451,42.378,53.1402,-9.25915,0.411943,-2.01661,-3.90244,-11.8293,20.7012
885.587,33.905,-11.994,0,3.8488,7.78142,1.02028,25.3049,46.128,49.5427,-9.19448,0.56283,-1.86093,-3.62805,-13.1402,19.3598
885.597,34.1881,-11.9592,0,3.69073,7.52036,0.979563,25.2744,43.811,44.7256,-9.13221,0.689766,-1.80584,-4.32927,-14.3293,18.3232
885.607,34.4261,-11.9191,0,3.6548,7.38145,0.869392,25.1829,39.1768,40.3049,-9.14897,0.742456,-1.78189,-5.51829,-15.2744,17.0122
885.617,34.6394,-11.8925,0,3.68833,7.14674,0.63468,25.7012,35.9146,36.311,-9.11065,0.855022,-1.825,-6.58537,-16.189,16.128
885.627,34.8204,-11.871,0,3.63564,6.98148,0.548459,28.0183,34.0244,33.0183,-9.12023,0.934058,-1.84417,-7.43902,-16.372,15.7012
885.638,34.9668,-11.8597,0,3.68594,6.96472,0.383203,30.5488,33.8415,29.0854,-9.18729,0.969983,-1.89686,-9.05488,-16.0061,15.061
885.647,35.0714,-11.8604,0,3.68833,6.92161,0.490979,34.0244,31.8902,24.7866,-9.32142,0.922083,-1.9735,-10.8537,-15.7012,14.9085
885.657,35.1257,-11.8744,0,3.76497,7.11081,0.687371,36.0671,28.9939,20.1829,-9.38848,0.871787,-2.04535,-12.7134,-15.122,14.0549
885.667,35.1299,-11.9261,0,3.90867,7.37427,0.804727,33.2012,25.4878,15.122,-9.5202,0.828677,-2.24174,-13.9939,-14.5427,13.3537
885.677,35.1285,-12.0103,0,4.19368,7.36708,0.780776,29.4817,22.3171,11.0366,-9.54894,0.821492,-2.4022,-15.3963,-13.5366,12.3171
885.687,35.1223,-12.0896,0,4.33499,7.15153,0.488584,29.1768,19.3293,7.37805,-9.62079,0.864602,-2.41178,-16.7683,-12.5305,11.7073
885.697,35.0711,-12.1659,0,4.24876,6.87371,0.208367,31.7683,21.2195,3.68902,-9.69504,0.934058,-2.43094,-18.689,-11.7378,11.0061
885.707,34.8272,-12.2438,0,3.9901,6.75156,0.62031,33.2622,22.5,1.98171,-9.71899,0.941243,-2.45729,-20.3354,-11.6159,10.0305
885.717,34.6383,-12.3106,0,3.77455,6.98867,0.752036,35.7927,22.0427,-4.96951,-9.69025,0.941243,-2.41418,-21.7683,-11.4939,8.75
885.727,34.3782,-12.381,0,4.28948,8.00895,1.85854,27.6829,25.6098,-13.3537,-9.6663,0.931663,-2.43573,-23.628,-11.4939,7.59146
885.737,34.073,-12.4636,0,4.33259,7.84129,1.79626,17.6829,25.4573,-20,-9.59684,0.912502,-2.48603,-25.4573,-11.25,6.58537
885.747,33.7421,-12.5446,0,4.232,7.26409,1.1065,17.9268,27.2256,-25.9146,-9.60642,0.953218,-2.49561,-26.7683,-10.8841,5.64024
885.757,33.3895,-12.6371,0,4.426,6.86892,1.29331,19.8171,28.689,-34.0549,-9.54655,0.948428,-2.54591,-28.1707,-10.6402,4.48171
885.767,33.062,-12.7137,0,4.90979,6.75635,1.40588,16.6159,27.9573,-38.75,-9.48188,1.05381,-2.47406,-29.2988,-10.4878,3.84146
885.777,32.7837,-12.7608,0,5.07505,6.05461,0.955613,17.622,22.7439,-42.5,-9.48188,1.15679,-2.3567,-30.5793,-11.128,3.23171
885.787,32.5704,-12.798,0,5.52531,5.89654,0.708926,16.8598,9.39024,-42.8963,-9.45554,1.26457,-2.31598,-31.8598,-12.5915,2.83537
885.797,32.3532,-12.8006,0,6.04503,6.00671,0.661025,18.2927,-4.60366,-47.8963,-9.46991,1.32684,-2.17468,-32.5305,-13.689,2.04268
885.807,32.1219,-12.8125,0,6.46895,6.1073,0.354463,19.3598,-16.3415,-52.7744,-9.48667,1.26697,-2.22018,-33.1402,-14.6037,1.21951
885.817,31.9435,-12.7899,0,6.79946,5.87977,-0.0574805,23.4451,-28.0183,-52.9573,-9.50583,1.25499,-2.07648,-34.0549,-16.0366,-0.121951
885.827,31.7488,-12.7811,0,6.73958,5.99713,-0.124541,28.2012,-34.1463,-53.3232,-9.41243,1.18793,-2.11241,-34.6037,-16.8902,-1.67683
885.837,31.5275,-12.8364,0,6.86892,6.5863,0.105381,29.2683,-36.0061,-52.0732,-9.2831,1.28373,-2.35909,-35.2439,-16.2195,-3.04878
885.847,31.3009,-12.9599,0,7.03417,7.30481,0.469424,29.1463,-36.2805,-48.4146,-9.19927,1.23823,-2.64171,-36.2805,-13.689,-4.08537
885.857,31.1032,-13.0971,0,7.43893,7.98499,0.713716,24.5427,-32.9878,-43.9939,-9.22083,1.2981,-2.72793,-37.2866,-11.0976,-5.45732
885.867,30.9862,-13.2079,0,7.9826,7.97302,0.299377,22.5,-29.1768,-40.3659,-9.40524,1.32445,-2.68721,-38.0488,-10.1829,-6.43293
885.877,30.9283,-13.2155,0,8.72506,8.42089,-0.0981958,22.8354,-26.6159,-36.5854,-9.79084,1.37235,-2.34233,-39.0244,-11.189,-6.52439
885.887,30.8335,-13.0704,0,9.11544,10.0998,0.179626,26.4024,-20.7012,-32.4085,-10.4638,1.16398,-1.77471,-37.561,-14.9085,-6.40244
885.897,30.6341,-12.7512,0,8.65081,12.3703,1.17835,25.122,-9.84756,-28.7805,-11.6254,0.60594,-1.04183,-33.2317,-22.439,-6.0061
885.907,30.3232,-12.4565,0,8.05445,15.0838,2.24653,19.1159,1.70732,-26.5549,-12.8445,-0.447869,-1.22625,-24.6341,-29.2378,-5.33537
885.917,30.1214,-12.2129,0,8.76577,15.3569,3.61169,6.15854,10.5793,-19.3598,-14.0133,-1.85614,-1.5879,-13.0488,-32.1951,-6.12805
885.927,30.2316,-12.0421,0,11.429,15.2706,4.21523,-4.08537,23.2927,-2.40854,-14.5138,-3.20933,-2.05014,-1.55488,-28.628,-7.19512
885.937,30.7866,-12.0536,0,13.4696,13.1558,1.98787,-9.32927,27.3171,25.122,-13.8073,-4.53377,-3.04646,11.6159,-21.8598,-8.29268
885.947,31.7568,-11.838,0,12.3128,9.23759,-2.4501,14.0854,36.9512,53.4146,-12.6074,-3.15424,-1.48252,17.378,-19.7256,-5.30488
885.957,32.6454,-11.7605,0,7.25212,7.7431,-3.66438,42.8049,62.3171,67.4695,-10.3441,-2.06451,-1.81063,22.7134,-9.90854,0.792683
885.967,32.5221,-11.579,0,-0.488584,8.45921,-0.802332,47.7744,68.75,60.7927,-9.19687,-0.222737,-1.19032,20.3659,-4.45122,8.68902
885.977,31.4004,-11.0975,0,-7.15871,8.47358,1.70525,34.6037,30.5488,33.9329,-9.2304,1.09213,-0.397573,14.6341,-2.28659,14.4207
885.987,29.5422,-10.8691,0,-11.6853,7.69041,2.39262,23.5976,-40.3659,-9.90854,-9.4747,3.22849,-0.878972,8.87195,7.19512,19.0549
885.997,27.2258,-10.2491,0,-11.623,7.65209,1.31008,9.39024,-109.207,-60.4878,-10.6339,2.26329,0.119751,4.05488,-0.640244,18.9329
886.007,24.9407,-9.72888,0,-6.63899,8.77296,-1.26936,-1.58537,-145.64,-101.86,-12.2697,3.20214,0.61073,-3.56707,-4.45122,16.5854
886.017,23.2988,-9.19695,0,0.0143701,10.5836,-3.75779,-3.10976,-132.226,-116.799,-12.8349,3.03928,0.823887,-7.86585,-5.33537,11.7073
886.027,22.3346,-8.59232,0,6.26298,12.3799,-5.35766,10.6098,-82.3781,-105.61,-12.3703,2.10043,1.30768,-11.7073,-7.22561,7.2561
886.037,21.8331,-7.93394,0,10.5333,13.642,-3.24765,26.189,-21.2195,-82.4695,-11.5176,0.888552,1.61664,-15.1524,-8.59756,4.08537
886.047,21.6453,-7.23498,0,11.4338,12.5188,-0.155676,23.1402,27.4695,-61.1585,-11.0985,0.665815,1.88488,-22.3476,-15.7317,2.59146
886.057,21.5385,-6.60045,0,8.21252,10.083,0.943638,21.4634,55.0305,-46.6463,-9.94652,-1.45617,1.52802,-17.8049,-11.0061,0.365854
886.067,21.1237,-6.01289,0,3.40811,9.05557,1.37235,22.378,60.6402,-40.4573,-9.3789,-2.00224,1.3484,-17.378,-11.1585,-0.182927
886.077,20.297,-5.45785,0,0.292192,9.10586,1.39151,15.2744,42.1341,-45,-8.69392,-2.02379,1.21427,-14.9085,-9.02439,0.426829
886.087,19.3694,-4.99966,0,-0.0455054,9.21364,0.423918,4.72561,23.1098,-52.6524,-8.2724,-1.83938,0.876577,-11.4024,-8.17073,2.86585
886.097,18.5106,-4.60018,0,0.522114,9.20885,-0.869392,0.0914634,11.5854,-54.7256,-8.15744,-1.59508,0.716111,-6.43293,-7.89634,6.12805
886.107,17.7122,-4.28019,0,0.859812,9.18969,-2.019,1.82927,9.69512,-54.6037,-8.34904,-1.41306,0.493374,-0.609756,-6.82927,8.38415
886.117,16.9016,-3.99276,0,0.598755,9.22562,-2.19863,5.2439,8.93293,-54.1463,-8.65321,-1.22386,0.416733,5.60976,-5.33537,9.29878
886.127,16.0483,-3.71219,0,0.210762,9.43638,-1.86333,6.52439,4.54268,-55.1829,-9.00048,-1.19032,0.332908,12.0732,-3.2622,8.5061
886.137,15.1902,-3.38314,0,0.126936,9.34058,-1.49689,5.51829,-1.43293,-56.4024,-9.43159,-1.38432,0.122146,17.9268,-1.09756,5.82317
886.147,14.413,-3.14089,0,0.495769,9.7118,-1.22386,6.06707,-13.628,-54.2683,-9.85311,-1.56874,0.0502954,22.8049,0.914634,2.10366
886.157,13.6837,-3.01616,0,0.670605,9.76928,-0.754431,4.2378,-26.8902,-53.0183,-10.1597,-1.73878,-0.00958008,27.4085,3.81098,-2.0122
886.167,12.9978,-2.94111,0,0.809517,9.8603,-0.522114,1.70732,-39.6951,-51.6463,-10.1788,-1.74597,-0.193997,30.3354,6.52439,-5.4878
886.177,12.3688,-2.92231,0,1.04662,10.1285,-0.531694,-2.59146,-51.4939,-49.6951,-10.1333,-1.75315,-0.428708,33.75,8.90244,-7.68293
886.187,11.812,-2.87953,0,1.49928,10.0782,-0.728086,-8.47561,-59.878,-48.8415,-9.87946,-1.5855,-0.308958,36.372,10.2439,-8.32317
886.197,11.3126,-2.82885,0,1.78429,9.6639,-1.35079,-11.0976,-63.872,-48.2012,-9.56092,-1.42983,-0.258662,37.7439,10.1524,-7.86585
886.207,10.919,-2.80175,0,2.56746,9.3765,-2.16749,-10.5793,-61.5549,-48.3232,-9.30944,-1.27176,-0.340093,38.9939,10.5488,-6.7378
886.217,10.5575,-2.75472,0,2.7878,9.20406,-2.30401,-7.65244,-57.8963,-48.9939,-9.13939,-1.03225,-0.249082,38.4756,10.7622,-4.54268
886.227,10.2084,-2.71766,0,2.84289,9.22083,-2.24174,-5.36585,-53.7805,-49.0549,-9.16095,-0.898132,-0.282612,37.8659,10.4878,-2.95732
886.237,9.84594,-2.67568,0,2.7902,9.10586,-2.28724,-5.73171,-51.0061,-50.9146,-9.21843,-0.708926,-0.258662,36.372,10.1829,-2.07317
886.247,9.47159,-2.64658,0,2.67284,9.06994,-2.27287,-4.90854,-46.5244,-51.6159,-9.21125,-0.488584,-0.304167,35.1524,10.0305,-1.12805
886.257,9.09816,-2.61759,0,2.71116,9.07712,-2.14115,-3.17073,-39.5122,-52.7134,-9.331,-0.354463,-0.304167,33.0488,9.60366,-0.853659
886.267,8.71905,-2.58733,0,2.72314,9.27591,-1.75315,-5.21341,-32.5,-53.5061,-9.40524,-0.122146,-0.296982,31.372,9.14634,-0.762195
886.277,8.33831,-2.5768,0,2.51956,9.18969,-1.73878,-6.12805,-23.689,-52.3476,-9.38608,-0.0694556,-0.373623,29.6037,8.47561,-1.09756
886.287,7.92203,-2.55256,0,2.22258,9.02683,-1.56874,-5.54878,-15.8537,-53.689,-9.3286,-0.0239502,-0.313748,27.439,7.89634,-1.09756
886.297,7.50774,-2.55152,0,2.2609,9.21603,-1.34361,-7.04268,-10.4268,-54.2378,-9.25436,-0.0479004,-0.402363,25.061,7.46951,-1.25
886.307,7.10432,-2.5954,0,2.20821,9.29747,-1.44659,-7.62195,-7.89634,-53.1098,-9.20166,-0.174836,-0.58199,23.811,7.89634,-1.37195
886.317,6.66055,-2.63606,0,1.81782,9.09868,-1.25739,-6.85976,-8.44512,-53.8415,-9.1849,-0.366438,-0.574805,22.9573,8.04878,-0.884146
886.327,6.22206,-2.69916,0,1.75315,9.25196,-1.21427,-6.31098,-8.56707,-53.0488,-9.09389,-0.464634,-0.665815,22.561,8.14024,-0.0914634
886.337,5.78052,-2.7982,0,1.61664,8.98611,-1.07776,-6.67683,-10.2134,-53.1707,-9.07712,-0.56762,-0.819097,22.4695,8.44512,0.213415
886.347,5.27988,-2.94136,0,1.21667,8.8951,-1.23104,-6.58537,-11.5549,-55.1829,-9.03641,-0.696951,-1.0083,22.9268,9.05488,0.853659
886.357,4.85461,-3.08626,0,1.65256,9.26394,-1.45138,-5.36585,-9.20732,-53.2622,-8.98851,-0.728086,-1.03225,23.75,9.7561,1.15854
886.367,4.40262,-3.24805,0,1.46096,8.81128,-1.46096,-5.64024,-9.7561,-55.4268,-8.97414,-0.684976,-1.12087,24.0854,10.5488,1.7378
886.377,3.97979,-3.39352,0,1.68609,9.30465,-1.47773,-6.64634,-11.2195,-55.122,-8.98851,-0.756826,-1.08255,24.7866,10.8537,1.98171
886.387,3.54426,-3.54532,0,1.44899,9.39806,-1.08494,-6.25,-15.8232,-54.2073,-8.92863,-0.689766,-1.12326,25.3354,11.3415,2.5
886.397,3.04128,-3.73944,0,1.10171,9.24717,-0.785566,-8.32317,-19.6341,-57.9573,-8.98372,-0.704136,-1.32445,26.6768,12.2866,2.9878
886.407,2.58668,-3.97274,0,1.46336,9.73815,-0.809517,-9.87805,-15.9451,-57.622,-8.92384,-0.716111,-1.50407,27.561,12.8659,3.47561
886.417,2.15482,-4.19401,0,1.43701,9.58487,-0.835862,-10.9146,-14.0244,-56.189,-8.89271,-0.732876,-1.48731,29.1159,13.2622,3.96341
886.427,1.69525,-4.45208,0,1.20469,9.26154,-0.821492,-11.6463,-12.5915,-57.622,-8.79691,-0.675395,-1.65256,30.3354,14.4207,5
886.437,1.20222,-4.73468,0,0.943638,9.48428,-0.888552,-12.8354,-16.4024,-58.4451,-8.79451,-0.840652,-1.79147,31.6463,15.061,6.0061
886.447,0.691616,-5.0558,0,0.694556,9.41243,-0.965193,-13.3537,-17.561,-58.2622,-8.73224,-0.814307,-1.97829,32.8049,15.9756,7.19512
886.457,0.163456,-5.39344,0,0.469424,9.48907,-0.840652,-13.7805,-22.3171,-58.2622,-8.69871,-0.910107,-2.08846,34.2073,16.4634,7.56098
886.467,-0.375428,-5.76223,0,0.378413,9.5226,-0.62989,-14.939,-29.4817,-59.2988,-8.59093,-0.869392,-2.24174,35.061,16.4634,8.44512
886.477,-0.917373,-6.11253,0,0.294587,9.25675,-0.627495,-16.6768,-33.2317,-59.7866,-8.54064,-0.797541,-2.213,36.4939,16.4939,9.48171
886.487,-1.3573,-6.35343,0,0.986748,9.44596,-1.13284,-17.0122,-29.7866,-58.9329,-8.57417,-0.764011,-1.84177,36.4939,14.6646,11.0976
886.497,-1.72095,-6.55945,0,1.44899,9.55852,-1.18314,-16.7378,-33.0793,-57.4695,-8.5598,-0.696951,-1.74118,36.2195,11.7073,12.622
886.507,-2.0893,-6.72674,0,1.43462,9.66869,-1.3005,-18.2317,-33.2622,-58.3232,-8.7059,-0.680186,-1.65017,36.0061,10.122,13.5976
886.517,-2.40821,-6.93484,0,1.80345,9.81719,-1.49928,-18.7805,-29.7866,-58.0488,-8.92145,-0.764011,-1.88488,36.3415,10.3963,14.3293
886.527,-2.68179,-7.16803,0,1.77231,9.55852,-1.152,-16.3415,-31.2805,-54.2683,-9.31184,-0.922083,-2.11001,36.4329,11.3415,13.9634
886.537,-2.95426,-7.37639,0,1.4897,9.18729,-1.04902,-17.7744,-35.061,-52.0732,-9.71899,-1.02986,-2.13157,37.4695,11.9817,13.5976
886.547,-3.20973,-7.5956,0,1.40109,9.28789,-1.05141,-19.1159,-40.0305,-49.6037,-10.0687,-1.31008,-2.29682,38.4146,12.4695,12.561
886.557,-3.35679,-7.81988,0,1.94715,9.59445,-1.44659,-21.311,-40.3659,-44.9695,-10.3034,-1.45138,-2.41657,39.7256,12.0427,11.8293
886.567,-3.48229,-8.02928,0,1.78668,9.7621,-1.21427,-24.9085,-48.2012,-40.8232,-10.3968,-1.46815,-2.40939,40.5793,12.1341,11.6463
886.577,-3.61611,-8.16711,0,1.56634,9.78126,-1.07057,-29.1463,-54.3293,-39.3293,-10.5884,-1.55676,-2.14594,40.6707,10.6707,11.4634
886.587,-3.69214,-8.14407,0,1.74357,10.2459,-1.66454,-31.128,-57.3476,-34.8476,-10.986,-1.23344,-1.45617,39.1159,7.10366,11.8902
886.597,-3.80605,-7.83585,0,1.1041,10.2986,-1.24781,-31.7073,-67.6219,-31.6463,-11.7045,-0.761616,-0.277822,35.2439,0.670732,12.9878
886.607,-3.80882,-7.28781,0,1.7795,10.4327,-1.97829,-31.25,-63.689,-27.8049,-13.0624,-0.0287402,1.36277,26.7683,-9.60366,13.4451
886.617,-3.76509,-6.78821,0,2.2106,10.4926,-2.0693,-30.0915,-64.939,-27.5915,-14.4923,0.890947,1.33163,14.6646,-15.8232,12.2866
886.627,-3.61888,-6.52757,0,2.93869,10.9644,-2.56986,-25.9756,-60.7622,-23.3841,-14.9521,2.19623,-0.0742456,3.65854,-15.7927,9.87805
886.637,-3.41344,-6.42008,0,2.96743,11.2949,-2.27287,-18.811,-56.9207,-16.4634,-14.2408,3.27639,-0.962798,-4.54268,-11.0366,8.78049
886.647,-3.14641,-6.40918,0,2.90995,11.1368,-2.52196,-12.622,-53.2012,-9.60366,-12.9211,3.19017,-1.39869,-10.8841,-6.70732,6.76829
886.657,-2.72706,-6.54327,0,3.78174,11.3668,-2.65368,-9.42073,-46.0061,-2.10366,-11.9823,2.32317,-2.0669,-15.0915,-3.07927,2.19512
886.667,-2.15244,-6.75445,0,4.63436,11.8242,-2.73032,-10.7012,-36.0671,9.39024,-11.4841,0.239502,-2.20342,-15.7317,0.243902,-5.36585
886.677,-1.36709,-6.9359,0,5.61872,11.9032,-1.65496,-13.5976,-18.3537,24.1768,-11.0818,-1.60945,-2.11959,-12.8049,1.18902,-14.4817
886.687,-0.513708,-6.99631,0,4.72777,11.6925,0.0335303,-15.8232,-18.5061,39.3598,-11.2614,-2.95545,-1.66214,-6.37195,2.0122,-21.128
886.697,0.427703,-6.90773,0,4.54575,11.7164,1.6334,-22.2866,-18.1402,51.7378,-11.6853,-4.04998,-0.989143,2.46951,1.31098,-24.4512
886.707,1.45738,-6.68189,0,4.23439,11.8146,2.63931,-27.9573,-19.3598,65.7012,-12.2481,-4.38528,-0.280217,10.3354,-1.52439,-23.9329
886.717,2.57113,-6.37842,0,3.93262,11.7548,2.65129,-33.1707,-21.6463,78.8719,-12.2074,-3.4608,0.201182,14.8476,-3.84146,-20.061
886.727,3.71347,-5.99626,0,2.92911,11.0195,2.50519,-34.3293,-25.5183,91.4329,-10.9452,-2.32796,0.584385,20.5793,-3.14024,-10.7927
886.737,4.89528,-5.52759,0,2.34712,10.3034,1.88009,-32.0732,-26.0366,101.982,-9.78605,-0.775986,0.926873,24.8476,-3.96341,1.82927
886.747,6.12774,-4.9801,0,1.99984,9.83156,1.05381,-26.3415,-21.2195,112.287,-9.05078,0.0502954,1.17116,28.1707,-4.02439,13.9634
886.757,7.38341,-4.40984,0,1.61664,9.93215,0.931663,-22.0122,-19.5122,121.768,-8.90229,0.938848,1.27655,29.1159,-3.81098,21.7988
886.767,8.61796,-1.68641,0,1.1041,10.4111,1.04662,-18.9634,-22.622,128.689,-6.89766,-2.10283,0.543669,27.3171,-1.28049,29.5732
886.777,9.84863,-1.51994,0,1.27415,10.8375,1.06578,-19.1159,-26.372,129.482,-8.04727,0.390388,0.352068,22.6524,6.92073,30.0915
886.787,11.01,-0.719356,0,1.30529,11.4769,1.06339,-20.122,-26.372,125.366,-8.94779,2.03098,1.22625,17.7134,1.06707,26.8902
886.797,12.0957,0.0680778,0,1.17595,12.2266,0.881367,-16.9512,-30.7317,122.043,-9.14897,1.51365,1.43462,10.7012,-1.03659,21.6159
886.807,13.0737,1.25252,0,0.895737,12.4781,0.337698,-12.6524,-35.6402,116.098,-9.11544,1.66214,1.38193,0.670732,-0.182927,16.7988
886.817,13.9831,1.92238,0,0.766406,12.4421,-0.227527,-3.9939,-41.9512,112.287,-9.08191,1.62622,1.28373,-8.62805,0.762195,12.1951
886.827,14.8691,2.13082,0,1.02986,12.1427,-0.744851,7.56098,-51.128,109.055,-8.90708,1.55676,0.855022,-15.4878,2.13415,9.7561
886.837,15.8033,2.1743,0,1.71244,11.7069,-0.838257,21.7683,-57.622,108.689,-9.02443,1.36277,0.502954,-21.25,4.20732,9.81707
886.847,16.7361,2.15413,0,2.01182,11.3165,-0.383203,28.7805,-48.5976,106.86,-9.37171,1.18553,0.277822,-25.8232,5.91463,12.1951
886.857,17.6568,2.02042,0,2.03337,10.974,0.232317,32.9878,-35.7927,106.677,-9.64235,1.01788,-0.198787,-27.6524,6.98171,15.9451
886.867,18.5712,1.78431,0,2.21539,10.7656,0.380808,35.9756,-20.3049,105.61,-9.70941,0.711321,-0.661025,-27.8049,9.29878,19.6341
886.877,19.5008,1.53115,0,2.38065,10.598,0.371228,39.2073,-1.58537,106.921,-9.73336,0.459844,-0.775986,-26.1585,10.0305,22.9573
886.887,20.4365,1.2548,0,2.52675,10.3417,0.217947,42.9878,17.1951,107.256,-9.66151,0.210762,-0.912502,-24.3598,10.4268,24.5122
886.897,21.3702,0.987512,0,2.52914,10.1764,0.397573,42.5305,34.9695,108.506,-9.64474,-0.100591,-0.919688,-21.7073,9.42073,24.1463
886.907,22.2958,0.735091,0,2.43334,9.94412,0.433499,41.3415,52.4695,110,-9.50344,-0.232317,-0.888552,-19.3293,8.38415,22.2866
886.917,23.1978,0.543147,0,2.29922,9.7142,0.373623,39.8476,68.6281,110.366,-9.2304,-0.203577,-0.656235,-17.3171,7.83537,19.2988
886.927,24.0481,0.342355,0,1.98787,9.65672,0.277822,39.4817,81.8902,110.366,-9.06036,-0.138911,-0.706531,-16.9512,6.31098,15.8232
886.937,24.8536,0.158252,0,1.98068,9.80281,0.244292,35.3049,93.4451,107.957,-8.81607,0.0718506,-0.63947,-17.3476,5.18293,13.1402
886.947,25.5661,-0.0141731,0,1.53042,9.41003,-0.131726,35.4268,93.5061,104.573,-8.63884,0.373623,-0.574805,-18.8415,4.20732,11.7378
886.957,26.1761,-0.190353,0,1.11608,9.34058,-0.0455054,35.0305,92.3476,100.518,-8.69153,0.637075,-0.555645,-21.0061,3.29268,10.9146
886.967,26.6554,-0.39946,0,0.548459,8.95977,-0.201182,35.4878,80.2439,95.1829,-8.75859,0.838257,-0.63468,-23.2317,2.77439,10.9146
886.977,27.0442,-0.667148,0,0.328118,8.95737,-0.376018,34.4817,66.1585,89.7866,-8.78014,0.929268,-0.661025,-25.3963,1.95122,10.7012
886.987,27.3139,-0.932112,0,-0.107776,8.80888,0.126936,31.4634,56.2195,84.1463,-8.90947,0.946033,-0.807122,-26.9817,2.22561,10.5183
886.997,27.4839,-1.22091,0,-0.428708,8.57417,0.512534,28.9329,46.8598,78.9329,-8.97893,0.924478,-0.931663,-28.1402,2.19512,9.54268
887.007,27.5621,-1.4992,0,-0.673001,8.21492,0.804727,27.3171,36.9207,73.6281,-8.98132,0.919688,-1.03225,-28.9329,2.56098,7.86585
887.017,27.5027,-1.78348,0,-1.20469,7.97302,0.910107,25.6402,26.25,67.7134,-8.96216,0.838257,-1.19272,-29.3598,3.14024,6.70732
887.027,27.3073,-2.06387,0,-1.62143,7.80297,0.955613,23.5061,15.0305,60.1524,-8.87355,0.718506,-1.24062,-29.0549,3.44512,4.57317
887.037,26.9888,-2.3748,0,-1.87291,7.71675,1.02267,20.8232,1.61585,51.0671,-8.77535,0.59636,-1.38911,-28.811,3.62805,3.2622
887.047,26.5635,-2.67924,0,-1.94236,7.4054,0.857417,18.2622,-10.0915,41.6768,-8.73943,0.390388,-1.43222,-28.5061,3.87195,1.15854
887.057,26.0792,-3.02234,0,-1.59987,7.00783,0.431104,18.5366,-21.189,31.0366,-8.63644,0.217947,-1.64059,-27.5,4.35976,-0.640244
887.067,25.5463,-3.36652,0,-1.25739,6.82581,0.270637,19.7256,-29.9695,20.1524,-8.6101,0.189207,-1.73399,-26.8293,5.03049,-1.76829
887.077,24.9898,-3.7352,0,-0.63947,6.71803,0.220342,21.5549,-32.1951,7.68293,-8.62207,0.165256,-1.91841,-25.8232,6.15854,-2.62195
887.087,20.4443,-4.1474,0,-0.112566,6.59349,0.251477,21.0671,-33.811,-1.85976,-8.67237,0.146096,-2.17707,-25.9146,8.47561,-3.41463
887.097,20.0679,-4.60785,0,0.641865,6.2989,0.404758,18.2317,-31.311,-7.71341,-8.63644,0.337698,-2.43094,-25.2134,10.7012,-3.44512
887.107,19.5687,-5.08041,0,0.761616,6.91921,1.0562,16.5549,-32.0732,-22.8049,-8.60052,0.538879,-2.54351,-24.9085,13.3841,-3.14024
887.117,19.1607,-5.5502,0,2.03098,7.03896,0.929268,12.7744,-27.9878,-34.5427,-8.5119,0.778381,-2.58183,-24.9085,14.1463,-2.89634
887.127,18.7332,-5.99723,0,2.57704,6.84497,0.227527,13.689,-31.7988,-46.6159,-8.48076,0.874182,-2.55549,-25.4268,14.1159,-2.65244
887.137,18.2912,-6.34528,0,3.73863,7.43654,0.814307,14.1768,-31.128,-61.3415,-8.53824,0.941243,-2.24413,-26.0671,12.1341,-2.86585
887.147,17.9954,-6.64507,0,5.81032,7.94188,1.35319,-1.09756,-33.872,-66.7073,-8.63644,0.938848,-2.13157,-26.7988,10.122,-3.5061
887.157,17.977,-6.89297,0,8.64123,7.4533,0.282612,-7.22561,-22.3171,-65.6098,-8.86636,0.814307,-2.02379,-27.8659,8.17073,-4.93902
887.167,18.2199,-7.1188,0,11.9919,7.41977,-0.701741,-5.85366,12.2866,-57.4085,-9.17292,0.752036,-2.04056,-29.1463,6.64634,-6.37195
887.177,18.6876,-7.28743,0,14.0564,7.68801,-1.6813,-6.03659,52.1341,-40.2439,-9.49625,0.752036,-1.89207,-29.9085,4.66463,-7.7439
887.187,19.338,-7.43721,0,14.4252,8.05206,-2.70158,-1.79878,83.6281,-19.6341,-9.8076,0.902922,-1.825,-30.2439,2.31707,-8.68902
887.197,20.06,-7.72462,0,13.1008,8.43047,-3.77934,12.439,100.03,-3.68902,-9.95131,1.0586,-1.95194,-31.0366,0.304878,-7.83537
887.207,20.7411,-8.12727,0,10.9261,9.14179,-3.91346,27.378,98.2012,8.23171,-9.99202,1.17356,-2.23216,-32.0427,0.0914634,-6.82927
887.217,21.3162,-8.40245,0,8.62207,9.79563,-3.29076,35.2134,86.8902,16.6159,-9.99921,1.20948,-2.60578,-33.3537,2.7439,-5.36585
887.227,21.7189,-8.72731,0,6.38033,10.0543,-1.54,34.5122,77.7744,18.4756,-9.9537,1.1544,-2.95785,-35.6402,5.73171,-3.59756
887.237,21.9277,-9.02113,0,4.54814,9.91299,0.0263452,28.2622,68.5061,15.3354,-10.119,1.27894,-2.92192,-37.8049,7.2561,-1.46341
887.247,21.9286,-9.20092,0,3.10634,10.4519,0.989143,24.878,60.3354,11.0671,-10.7776,1.07776,-2.59141,-37.4085,4.93902,0.0914634
887.257,21.72,-9.12174,0,2.00942,12.9618,2.29682,28.1402,56.311,5.4878,-12.2194,0.546064,-1.54958,-33.3232,-4.54268,2.13415
887.267,21.362,-8.95891,0,1.36037,16.6837,3.5566,22.9268,52.0427,-1.70732,-14.4108,-0.416733,-1.28373,-22.9573,-16.2805,4.17683
887.277,21.0221,-8.86946,0,2.68721,17.2058,5.53729,26.0366,25.3354,-9.20732,-16.7819,-2.20342,-1.99984,-10.2134,-19.3293,4.90854
887.287,20.9115,-8.88535,0,6.67971,16.8585,6.09053,7.56098,13.7195,-12.5,-17.4405,-4.99362,-2.85965,0.0609756,-8.2622,3.20122
