time,angle1,angle2,intgangle,accX1,accY1,accZ1,gyroX1,gyroY1,gyroZ1,accX2,accY2,accZ2,gyroX2,gyroY2,gyroZ2
730.909,91.71,-3.99604,0,7.30002,0.126936,-2.12678,11.6159,8.35366,17.2866,-9.74294,-0.222737,-0.651445,16.0366,-8.17073,8.56707
730.919,91.856,-3.98808,0,6.21987,-0.323328,-2.06451,6.52439,16.9817,12.3171,-9.68785,0.148491,-0.64905,13.9024,-7.56098,7.37805
730.929,92.111,-3.96561,0,5.1924,-0.749641,-1.88488,4.08537,17.1037,5.45732,-9.64474,0.280217,-0.58199,10.8232,-5.79268,5.60976
730.939,95.0382,-3.91465,0,4.44276,-1.14721,-1.83219,3.71951,9.78659,-3.17073,-9.53936,0.277822,-0.457449,8.2622,-4.2378,4.45122
730.949,95.1491,-3.85429,0,4.20086,-1.25499,-1.72202,5.36585,-1.95122,-12.378,-9.38608,0.170046,-0.428708,5.85366,-2.92683,4.14634
730.959,95.0833,-3.78345,0,4.55533,-1.0107,-1.60466,6.85976,-14.5732,-21.7378,-9.30465,-0.0359253,-0.385598,4.90854,-2.80488,4.72561
730.969,94.8202,-3.68661,0,5.384,-0.598755,-1.79387,6.82927,-22.2256,-29.4207,-9.35255,-0.237107,-0.239502,5.18293,-4.20732,5.54878
730.979,94.4162,-3.57286,0,6.47853,-0.162861,-1.7316,5.88415,-28.4146,-34.3293,-9.46272,-0.416733,-0.143701,5.51829,-5.64024,6.31098
730.989,93.9371,-3.46235,0,7.72633,0.239502,-1.65735,4.05488,-34.3293,-36.25,-9.49865,-0.474214,-0.136516,6.4939,-7.31707,6.70732
730.999,93.4466,-3.37285,0,8.86397,0.546064,-1.55197,1.06707,-38.5671,-34.8171,-9.48428,-0.443079,-0.205972,6.70732,-8.04878,6.98171
731.009,93.0064,-3.30807,0,9.78844,0.543669,-1.76273,-2.92683,-38.9939,-31.4024,-9.42201,-0.234712,-0.292192,6.40244,-7.34756,7.13415
731.019,92.6436,-3.26389,0,10.5692,0.308958,-2.33754,-6.15854,-36.4939,-27.4695,-9.4747,-0.00239502,-0.368833,5.94512,-6.64634,7.16463
731.029,92.4214,-3.27103,0,11.8051,-0.500559,-3.84401,-4.87805,-30.9756,-22.2256,-9.47949,0.270637,-0.574805,4.48171,-5.57927,7.07317
731.039,92.3973,-3.31071,0,14.5737,-1.82261,-6.02826,6.85976,-28.2927,-12.0732,-9.50104,0.541274,-0.706531,3.41463,-4.11585,6.95122
731.049,92.5092,-3.28072,0,18.2548,-1.61424,-7.75268,23.3841,-21.9817,6.0061,-9.56571,0.771196,-0.438289,-0.365854,-3.47561,6.31098
731.059,92.579,-3.22556,0,17.6154,1.43462,-6.48332,21.6159,-4.02439,21.7378,-9.92736,0.673001,-0.344883,-4.54268,-3.2622,5.39634
731.069,92.5644,-3.20849,0,12.4733,1.98787,-3.47996,-7.10366,28.9329,22.2561,-10.3153,0.452659,-0.512534,-7.56098,-2.5,4.39024
731.079,92.6244,-3.25834,0,8.47597,0.217947,-1.70286,-29.6341,48.7195,14.3598,-10.4327,0.217947,-0.716111,-10.0915,-0.304878,5.57927
731.089,92.8024,-3.31488,0,6.74677,-0.943638,-1.90644,-27.3171,49.2988,6.95122,-10.3345,-0.0550855,-0.756826,-10.1829,0.762195,8.01829
731.099,94.0305,-3.36285,0,5.92528,-0.670605,-2.34951,-21.5244,36.0366,1.34146,-10.3417,-0.409548,-0.759221,-9.42073,1.12805,10.9756
731.109,93.7288,-3.38306,0,5.63548,-0.126936,-3.06802,-17.9878,16.0976,-2.68293,-10.5117,-0.735271,-0.673001,-7.5,-0.27439,12.1646
731.119,93.5394,-3.3612,0,5.8175,0.225132,-3.75779,-14.6951,-4.48171,-6.64634,-10.7297,-1.05141,-0.538879,-5.91463,-2.5,11.5854
731.129,93.3387,-3.32697,0,6.41147,0.222737,-4.29906,-7.92683,-19.6037,-9.17683,-10.8494,-1.17835,-0.479004,-3.84146,-3.78049,9.48171
731.139,93.1306,-3.28447,0,7.42456,0.241897,-4.36852,0.731707,-30.2134,-10.6098,-10.6243,-1.01788,-0.423918,-2.59146,-4.78659,7.04268
731.149,92.9325,-3.24434,0,8.65321,0.251477,-4.24637,6.15854,-38.9634,-10.4268,-10.301,-0.723296,-0.414338,-1.76829,-5.12195,5.2439
731.159,92.7738,-3.18344,0,9.89143,0.205972,-3.9901,9.05488,-41.7073,-7.77439,-10.0471,-0.447869,-0.306563,-1.31098,-4.93902,4.45122
731.169,92.6628,-3.11003,0,10.7872,0.177231,-3.65959,7.5,-35.2134,-3.65854,-9.89143,-0.282612,-0.237107,-1.55488,-5.2439,3.81098
731.179,92.5683,-3.0151,0,11.0842,0.225132,-3.34584,2.56098,-22.9268,0.243902,-9.81,-0.172441,-0.129331,-2.46951,-5.85366,3.62805
731.189,92.5108,-2.89186,0,10.8925,0.263452,-3.10155,-2.83537,-7.40854,2.5,-9.76689,-0.167651,0.00958008,-2.77439,-6.76829,3.62805
731.199,92.4691,-2.7718,0,10.3177,0.210762,-3.0273,-6.37195,9.08537,3.44512,-9.7142,-0.193997,0.0167651,-3.23171,-7.62195,4.05488
731.209,92.4496,-2.67501,0,9.53457,-0.00479004,-3.10395,-7.07317,21.7073,3.29268,-9.6663,-0.198787,-0.0622705,-3.5061,-8.07927,4.93902
731.219,92.4491,-2.57763,0,8.73703,-0.196392,-3.46799,-6.03659,27.1951,2.77439,-9.59445,-0.153281,-0.0431104,-3.84146,-7.95732,5.67073
731.229,92.4585,-2.50449,0,8.4137,-0.275427,-3.70031,-5.42683,24.9085,2.5,-9.61121,-0.146096,-0.129331,-3.71951,-7.7439,6.58537
731.239,92.4561,-2.44449,0,8.42568,-0.301772,-3.8967,-4.29878,16.1585,1.34146,-9.6184,-0.124541,-0.172441,-4.57317,-6.7378,6.70732
731.249,92.423,-2.40477,0,8.52627,-0.265847,-3.90149,-3.20122,5.09146,0.518293,-9.65911,-0.143701,-0.249082,-4.93902,-5.73171,6.12805
731.259,92.3626,-2.36288,0,8.58136,-0.246687,-3.7506,-2.19512,-5.33537,0.0609756,-9.67827,-0.198787,-0.234712,-5.88415,-4.84756,5.85366
731.269,92.3036,-2.36543,0,8.61968,-0.177231,-3.54463,-1.79878,-12.6829,-1.15854,-9.7142,-0.232317,-0.414338,-6.43293,-3.68902,4.87805
731.279,92.2528,-2.36949,0,8.66279,-0.191602,-3.38895,-1.40244,-17.7134,-1.46341,-9.69983,-0.323328,-0.419128,-6.64634,-3.10976,4.72561
731.289,92.2024,-2.37585,0,8.73464,-0.186812,-3.23807,-0.914634,-20.061,-1.43293,-9.71899,-0.414338,-0.428708,-6.55488,-2.80488,4.35976
731.299,92.1493,-2.38255,0,8.90229,-0.160466,-3.26441,0.121951,-19.878,-1.37195,-9.72378,-0.464634,-0.428708,-6.18902,-2.22561,4.2378
731.309,92.0785,-2.38783,0,9.19448,-0.0694556,-3.23567,0.518293,-17.7744,-1.0061,-9.75491,-0.507744,-0.423918,-5.79268,-1.70732,4.29878
731.319,91.9765,-2.40478,0,9.40045,0.0622705,-3.30034,0.182927,-13.3232,-0.579268,-9.79323,-0.464634,-0.457449,-5.4878,-1.31098,4.14634
731.329,91.8296,-2.44024,0,9.46272,0.189207,-3.34584,-1.12805,-8.62805,-0.182927,-9.75012,-0.438289,-0.479004,-5.21341,-0.518293,4.63415
731.339,91.7445,-2.45701,0,9.52739,0.208367,-3.39374,-2.89634,-2.80488,1.0061,-9.81479,-0.383203,-0.450264,-4.57317,0.426829,4.96951
731.349,91.6937,-2.44906,0,9.51302,0.153281,-3.47278,-4.35976,2.56098,1.70732,-9.86748,-0.361648,-0.402363,-4.26829,0.945122,5.54878
731.359,91.6738,-2.39738,0,9.47949,0.0407153,-3.54702,-5.79268,7.07317,2.43902,-9.9561,-0.387993,-0.277822,-3.90244,1.12805,5.57927
731.369,91.6684,-2.35997,0,9.36213,-0.0287402,-3.61169,-6.28049,9.20732,2.80488,-10.0136,-0.385598,-0.311353,-3.75,1.06707,5.73171
731.379,91.6641,-2.32225,0,9.19448,-0.0359253,-3.68354,-6.28049,9.11585,2.83537,-10.0112,-0.414338,-0.316143,-3.14024,0.762195,5.79268
731.389,91.6511,-2.26357,0,8.943,0.0119751,-3.7506,-5.79268,6.37195,2.7439,-10.0088,-0.426313,-0.268242,-3.07927,0.579268,6.06707
731.399,91.6129,-2.18008,0,8.73943,0.0742456,-3.81048,-4.78659,2.13415,2.0122,-10.0136,-0.488584,-0.227527,-2.28659,0.27439,6.06707
731.409,91.5155,-2.11803,0,8.64602,0.100591,-3.80329,-4.05488,-2.43902,0.792683,-9.98484,-0.541274,-0.263452,-1.70732,-0.182927,6.21951
731.419,91.4219,-2.06514,0,8.64842,0.0670605,-3.75779,-2.9878,-7.16463,0.640244,-9.97286,-0.502954,-0.280217,-0.884146,0,6.0061
731.429,91.2965,-1.9901,0,8.67476,0.0838257,-3.76497,-1.85976,-10.2134,0.243902,-9.96568,-0.488584,-0.225132,-0.579268,-0.121951,6.09756
731.439,91.2186,-1.96771,0,8.85439,0.0958008,-3.73863,-1.18902,-11.4329,0.701219,-9.96089,-0.457449,-0.308958,0,0,5.85366
731.449,91.167,-1.92148,0,8.9909,0.102986,-3.62845,-0.27439,-11.0671,1.18902,-9.94652,-0.438289,-0.239502,0.213415,-0.548781,5.91463
731.459,91.136,-1.8761,0,9.16334,0.110171,-3.57097,-0.457317,-9.45122,1.82927,-9.98244,-0.438289,-0.210762,0.792683,-1.0061,5.97561
731.469,91.1173,-1.85229,0,9.25675,0.0766406,-3.56618,-0.640244,-6.64634,2.10366,-9.96089,-0.421523,-0.265847,0.884146,-0.853659,5.79268
731.479,91.1056,-1.83175,0,9.30226,0.0502954,-3.54942,-1.25,-3.90244,2.2561,-9.93454,-0.366438,-0.270637,1.31098,-0.823171,5.64024
731.489,91.1026,-1.84031,0,9.19927,0.00479004,-3.56858,-2.46951,-1.31098,2.40854,-9.84353,-0.352068,-0.337698,1.43293,-1.0061,5.42683
731.499,91.1102,-1.85919,0,9.15137,-0.0550855,-3.59492,-3.04878,0.640244,2.56098,-9.80521,-0.311353,-0.352068,1.61585,-0.457317,5.70122
731.509,91.109,-1.87101,0,9.09149,-0.0215552,-3.64522,-3.93293,1.95122,2.28659,-9.79803,-0.313748,-0.337698,1.85976,-0.182927,5.82317
731.519,91.1146,-1.91607,0,9.04599,-0.0335303,-3.64282,-4.48171,2.59146,2.68293,-9.81719,-0.320933,-0.407153,2.04268,0.426829,5.97561
731.529,91.1196,-1.94205,0,9.06275,-0.0167651,-3.5566,-4.84756,1.85976,2.83537,-9.86509,-0.292192,-0.392783,2.04268,0.853659,5.88415
731.539,91.1385,-1.97157,0,9.09149,-0.0766406,-3.57097,-5.45732,0.426829,3.32317,-9.89622,-0.285007,-0.421523,2.28659,1.31098,5.97561
731.549,91.1579,-1.97494,0,9.0867,-0.0862207,-3.62127,-4.69512,-0.792683,3.29268,-9.89622,-0.251477,-0.349673,2.2561,1.40244,5.73171
731.559,91.1821,-1.96082,0,9.03641,-0.112566,-3.68594,-3.81098,-1.34146,3.44512,-9.86988,-0.299377,-0.301772,2.2561,1.06707,5.73171
731.569,91.1973,-1.95482,0,8.96695,-0.0814307,-3.67635,-2.83537,-2.07317,3.04878,-9.91059,-0.342488,-0.323328,2.04268,0.884146,5.60976
731.579,91.2092,-1.9857,0,8.91426,-0.0934058,-3.63564,-2.56098,-2.59146,2.65244,-9.84353,-0.414338,-0.416733,2.2561,1.06707,5.51829
731.589,91.2197,-2.04307,0,8.89989,-0.0981958,-3.60211,-2.40854,-2.62195,2.5,-9.83635,-0.387993,-0.505349,2.22561,1.31098,5.57927
731.599,91.2246,-2.06812,0,8.91187,-0.0862207,-3.6045,-2.7439,-2.37805,2.22561,-9.8603,-0.335303,-0.435894,2.5,1.92073,5.82317
731.609,91.2333,-2.04527,0,8.94061,-0.112566,-3.63324,-2.92683,-2.16463,2.19512,-9.91299,-0.344883,-0.280217,2.2561,1.7378,5.73171
731.619,91.2315,-2.00669,0,8.99569,-0.0550855,-3.67875,-2.68293,-1.4939,2.10366,-10.0064,-0.325723,-0.246687,2.62195,1.06707,5.60976
731.629,91.2177,-1.98655,0,9.01964,-0.00718506,-3.76737,-2.83537,-0.701219,1.82927,-10.0064,-0.316143,-0.296982,2.77439,0.853659,5.39634
731.639,91.2201,-1.98595,0,9.03641,-0.0934058,-3.71228,-3.10976,0.365854,1.92073,-9.92257,-0.294587,-0.342488,2.5,0.487805,5.39634
731.649,91.2341,-1.99105,0,8.98611,-0.153281,-3.78413,-2.68293,0.701219,2.07317,-9.89143,-0.268242,-0.352068,2.43902,0.243902,5.39634
731.659,91.2423,-1.97204,0,9.02204,-0.170046,-3.71707,-2.62195,0.97561,1.34146,-9.89622,-0.282612,-0.306563,2.31707,0.365854,5.67073
731.669,91.2519,-1.97461,0,8.99809,-0.179626,-3.72186,-2.19512,0.518293,1.31098,-9.92257,-0.320933,-0.347278,2.43902,0.792683,5.64024
731.679,91.2446,-1.95556,0,8.97653,-0.138911,-3.76018,-1.92073,0.609756,0.762195,-9.92975,-0.330513,-0.299377,2.28659,0.579268,5.60976
731.689,91.2332,-1.93952,0,8.99569,-0.136516,-3.79611,-1.46341,0.243902,0.548781,-9.95131,-0.344883,-0.304167,2.2561,0.518293,5.39634
731.699,91.2188,-1.88817,0,8.9454,-0.131726,-3.75779,-1.12805,0.121951,0.457317,-9.98484,-0.306563,-0.241897,1.92073,0.182927,5.15244
731.709,91.2091,-1.87101,0,8.95498,-0.148491,-3.70031,-1.09756,-0.0914634,0.396341,-9.94173,-0.299377,-0.294587,1.76829,-0.304878,5.15244
731.719,91.184,-1.85822,0,8.95737,-0.119751,-3.61887,-0.97561,-0.670732,0.152439,-9.94412,-0.287402,-0.296982,1.43293,-0.548781,5.4878
731.729,91.1528,-1.85703,0,8.93103,-0.105381,-3.63803,-1.03659,-0.609756,0.0914634,-9.96328,-0.277822,-0.320933,0.884146,-0.792683,5.2439
731.739,91.1119,-1.86628,0,9.02443,-0.0694556,-3.61648,-0.945122,-0.518293,-0.243902,-9.96807,-0.275427,-0.349673,0.792683,-1.03659,5.36585
731.749,91.0889,-1.87426,0,9.10826,-0.102986,-3.64761,-1.28049,-0.457317,0.182927,-9.88185,-0.318538,-0.340093,0.518293,-0.609756,5.30488
731.759,91.0766,-1.87118,0,9.22083,-0.129331,-3.71947,-1.15854,-0.609756,0.182927,-9.88425,-0.311353,-0.316143,0.365854,-1.03659,5.18293
731.769,91.0742,-1.89315,0,9.44117,-0.114961,-3.85119,0,-1.09756,0.945122,-9.94412,-0.289797,-0.380808,0.365854,-0.823171,5.33537
731.779,91.077,-1.88974,0,9.45554,-0.0239502,-3.89909,0.762195,-0.97561,2.40854,-9.95131,-0.337698,-0.320933,0.213415,-0.853659,4.93902
731.789,91.0796,-1.87007,0,9.25675,0.0167651,-3.83443,0.27439,0.701219,2.89634,-9.97286,-0.352068,-0.280217,0.426829,-0.792683,5.12195
731.799,91.0871,-1.87223,0,8.97653,-0.0215552,-3.63085,-0.548781,1.31098,2.92683,-9.94891,-0.409548,-0.332908,0.396341,-1.46341,4.90854
731.809,91.1033,-1.87644,0,8.77056,-0.102986,-3.49194,-1.95122,1.89024,2.68293,-9.91778,-0.383203,-0.337698,0.609756,-1.28049,4.84756
731.819,91.1171,-1.88223,0,8.61489,-0.122146,-3.53505,-2.0122,1.7378,2.22561,-9.89862,-0.402363,-0.342488,0.27439,-1.31098,4.84756
731.829,91.1144,-1.86989,0,8.57896,-0.117356,-3.55181,-1.95122,0.457317,1.15854,-9.9058,-0.402363,-0.292192,0.457317,-1.12805,5.12195
731.839,91.1055,-1.87339,0,8.58615,-0.102986,-3.67635,-1.31098,-0.27439,1.0061,-9.91059,-0.431104,-0.335303,0.701219,-1.37195,5.18293
731.849,91.0924,-1.8342,0,8.67716,-0.141306,-3.79611,-0.457317,-1.7378,0,-9.93454,-0.411943,-0.220342,0.731707,-1.0061,5
731.859,91.0821,-1.82117,0,8.83283,-0.148491,-3.78653,-0.0914634,-2.43902,-0.335366,-9.88904,-0.419128,-0.280217,0.640244,-1.25,5.09146
731.869,91.067,-1.80541,0,8.90468,-0.134121,-3.86077,0.396341,-3.01829,-0.518293,-9.89383,-0.354463,-0.270637,0.487805,-1.21951,4.72561
731.879,91.0524,-1.77853,0,9.05557,-0.138911,-3.77216,0.213415,-2.77439,-0.762195,-9.87946,-0.340093,-0.241897,0.457317,-1.0061,4.87805
731.889,91.0426,-1.7682,0,9.0891,-0.172441,-3.74102,0.152439,-2.46951,-1.12805,-9.83874,-0.359253,-0.282612,0.457317,-0.731707,5
731.899,91.0323,-1.77071,0,9.0891,-0.165256,-3.69312,0.152439,-0.823171,-1.06707,-9.83874,-0.344883,-0.311353,0.27439,-1.09756,5.18293
731.909,91.0215,-1.7676,0,9.09628,-0.167651,-3.68833,0.335366,0.182927,-1.18902,-9.82677,-0.361648,-0.296982,0.0914634,-0.884146,5.18293
731.919,91.0126,-1.75648,0,9.06036,-0.167651,-3.7027,0.548781,1.31098,-1.06707,-9.85072,-0.313748,-0.277822,0.0304878,-0.853659,5.60976
731.929,90.9948,-1.77001,0,9.03641,-0.122146,-3.68114,0.396341,1.79878,-0.945122,-9.83395,-0.332908,-0.332908,0.152439,-0.731707,5.45732
731.939,90.9754,-1.78126,0,8.9909,-0.117356,-3.64761,0.182927,2.07317,-1.12805,-9.85311,-0.308958,-0.330513,0.243902,-0.701219,5.70122
731.949,90.9545,-1.8012,0,8.90708,-0.107776,-3.64761,0.213415,1.64634,-1.12805,-9.88425,-0.344883,-0.342488,0.182927,-0.182927,5.82317
731.959,90.941,-1.81589,0,8.8472,-0.134121,-3.63085,0.213415,0.97561,-1.06707,-9.88425,-0.356858,-0.337698,0.182927,-0.243902,5.54878
731.969,90.9297,-1.80147,0,8.87594,-0.172441,-3.64282,0.121951,0.304878,-1.67683,-9.84593,-0.364043,-0.289797,0.27439,-0.0304878,5.57927
731.979,90.9114,-1.75134,0,8.87115,-0.153281,-3.62366,0.27439,0.152439,-2.04268,-9.89622,-0.416733,-0.227527,-0.0609756,-0.0914634,5.64024
731.989,90.8882,-1.74665,0,8.88552,-0.131726,-3.71707,0.579268,-0.548781,-2.22561,-9.87946,-0.373623,-0.294587,0,0.0304878,5.70122
731.999,90.8604,-1.7559,0,8.93821,-0.122146,-3.73863,0.701219,-0.670732,-2.59146,-9.88425,-0.356858,-0.318538,0.243902,0.304878,5.70122
732.009,90.826,-1.72375,0,8.97174,-0.0718506,-3.74102,0.914634,-1.03659,-2.56098,-9.87706,-0.344883,-0.246687,-0.152439,0.182927,5.94512
732.019,90.7888,-1.7283,0,9.02443,-0.0455054,-3.7506,0.670732,-0.823171,-2.53049,-9.90341,-0.359253,-0.306563,0.0914634,0.335366,5.67073
732.029,90.7548,-1.7393,0,9.07233,-0.0431104,-3.77455,0.579268,-0.0304878,-2.19512,-9.89862,-0.325723,-0.320933,0.0609756,0.457317,5.82317
732.039,90.7223,-1.71406,0,9.09628,-0.0479004,-3.69791,0.670732,0.213415,-2.19512,-9.92975,-0.332908,-0.249082,-0.335366,0.426829,5.57927
732.049,90.6977,-1.70943,0,9.12981,-0.0742456,-3.63564,0.548781,0.731707,-1.82927,-9.93694,-0.352068,-0.287402,-0.457317,0.426829,5.64024
732.059,90.6705,-1.67432,0,9.0867,-0.0502954,-3.65959,0.213415,1.06707,-1.7378,-9.93933,-0.330513,-0.239502,-0.548781,0,5.67073
732.069,90.6463,-1.66236,0,9.05796,-0.0526904,-3.63324,0.304878,1.43293,-1.46341,-9.98005,-0.342488,-0.270637,-0.609756,-0.0914634,5.67073
732.079,90.6311,-1.66507,0,9.00767,-0.0981958,-3.64761,0.0304878,1.76829,-1.4939,-9.91299,-0.332908,-0.292192,-0.548781,0.0914634,5.51829
732.089,90.6175,-1.67151,0,8.9909,-0.0958008,-3.71947,0.0304878,2.46951,-1.34146,-9.92975,-0.356858,-0.301772,-1.0061,0.457317,5.39634
732.099,90.6005,-1.67217,0,8.96695,-0.0838257,-3.67635,-0.121951,2.0122,-1.4939,-9.89622,-0.308958,-0.289797,-0.97561,0.243902,5.51829
732.109,90.5766,-1.6606,0,8.98132,-0.0598755,-3.66917,0.0914634,1.25,-1.85976,-9.89143,-0.335303,-0.263452,-0.914634,0.548781,5.27439
732.119,90.5523,-1.62139,0,8.96695,-0.0502954,-3.6524,0.121951,0.487805,-1.76829,-9.9058,-0.361648,-0.193997,-1.46341,0.731707,5.30488
732.129,90.5333,-1.61336,0,8.95498,-0.0670605,-3.66917,0.457317,0.121951,-1.58537,-9.9561,-0.361648,-0.263452,-1.18902,0.548781,5.33537
732.139,90.5174,-1.62179,0,8.99809,-0.0766406,-3.62127,0.548781,-0.365854,-1.4939,-9.93933,-0.361648,-0.299377,-1.0061,0.701219,5.33537
732.149,90.4989,-1.6337,0,9.07952,-0.0479004,-3.65719,0.884146,-0.579268,-1.18902,-9.92017,-0.301772,-0.308958,-0.731707,0.762195,5.57927
732.159,90.4838,-1.64258,0,9.08191,-0.0694556,-3.68114,0.548781,-0.426829,-1.37195,-9.8579,-0.349673,-0.301772,-0.914634,0.823171,5.64024
732.169,90.4691,-1.66976,0,9.08431,-0.0455054,-3.71468,0.609756,0.0304878,-0.731707,-9.87467,-0.354463,-0.344883,-0.823171,0.701219,5.42683
732.179,90.4559,-1.69919,0,9.08191,-0.0502954,-3.70749,0.335366,0.670732,-0.762195,-9.85072,-0.359253,-0.356858,-1.06707,0.823171,5.33537
732.189,90.4516,-1.71035,0,9.0388,-0.0766406,-3.68594,0.0304878,1.21951,-0.579268,-9.8579,-0.383203,-0.318538,-1.12805,0.823171,5.42683
732.199,90.4363,-1.7226,0,9.01964,-0.0359253,-3.63324,0,1.37195,-0.548781,-9.88904,-0.356858,-0.328118,-0.945122,1.12805,5.51829
732.209,90.4363,-1.71996,0,9.01485,-0.0910107,-3.63803,0.243902,1.18902,-0.640244,-9.9082,-0.373623,-0.289797,-0.579268,1.09756,5.85366
732.219,90.4366,-1.7273,0,8.95737,-0.0910107,-3.63564,0.396341,1.31098,-0.640244,-9.91778,-0.371228,-0.316143,-0.792683,0.945122,5.85366
732.229,90.4354,-1.73836,0,9.00527,-0.0790356,-3.68114,0.426829,1.12805,-0.457317,-9.91778,-0.409548,-0.328118,-0.701219,1.03659,5.57927
732.239,90.4184,-1.73177,0,9.00048,-0.0311353,-3.59971,0.426829,0.731707,-0.762195,-9.91059,-0.397573,-0.282612,-0.518293,0.97561,5.97561
732.249,90.4123,-1.758,0,8.97893,-0.0646655,-3.6524,0.243902,0.579268,-0.609756,-9.88904,-0.380808,-0.364043,-0.213415,0.884146,5.54878
732.259,90.4055,-1.7589,0,9.00288,-0.0622705,-3.67875,0.27439,0.396341,-0.640244,-9.93694,-0.409548,-0.306563,-0.304878,0.945122,5.51829
732.269,90.3953,-1.77016,0,9.02443,-0.0479004,-3.67875,0.335366,0.243902,-0.609756,-9.91299,-0.395178,-0.332908,-0.27439,0.945122,5.4878
732.279,90.3978,-1.76133,0,9.02443,-0.0790356,-3.69552,0.396341,0.0914634,-0.304878,-9.97526,-0.409548,-0.285007,-0.121951,0.823171,5.39634
732.289,90.3972,-1.75145,0,9.03401,-0.0718506,-3.68354,0.701219,0.243902,-0.365854,-9.93454,-0.385598,-0.285007,-0.243902,0.396341,5.42683
732.299,90.3984,-1.72753,0,9.04599,-0.0838257,-3.57576,0.518293,0,-0.518293,-9.92017,-0.383203,-0.253872,-0.121951,0.426829,5.73171
732.309,90.3956,-1.73725,0,9.01246,-0.0646655,-3.6548,0.670732,0.518293,-0.365854,-9.92736,-0.373623,-0.318538,-0.152439,0.365854,5.54878
732.319,90.3949,-1.75415,0,9.0412,-0.0622705,-3.6045,0.213415,0.731707,-0.0609756,-9.94173,-0.366438,-0.335303,-0.182927,0.365854,5.79268
732.329,90.3764,-1.74787,0,9.04599,-0.0143701,-3.64043,0,0.609756,-0.335366,-9.97286,-0.395178,-0.292192,-0.365854,0.365854,5.64024
732.339,90.3718,-1.77135,0,9.03162,-0.0574805,-3.59253,0.0304878,0.670732,-0.426829,-9.9561,-0.378413,-0.344883,-0.152439,-0.0914634,5.73171
732.349,90.3737,-1.78509,0,9.02204,-0.0766406,-3.66438,0.0914634,0.548781,-0.396341,-9.9561,-0.416733,-0.332908,-0.457317,-0.152439,5.79268
732.359,90.3726,-1.81868,0,8.98851,-0.0670605,-3.69552,0.0609756,0.731707,-0.396341,-9.94891,-0.385598,-0.380808,0.0304878,-0.426829,5.88415
732.369,90.3736,-1.86013,0,9.01485,-0.0742456,-3.7027,-0.182927,0.548781,-0.396341,-9.93933,-0.390388,-0.402363,-0.213415,-0.426829,6.03659
732.379,90.3714,-1.8941,0,9.01246,-0.0574805,-3.69791,-0.0304878,0.27439,-0.182927,-9.93694,-0.423918,-0.390388,0.426829,-0.335366,5.70122
732.389,90.3713,-1.90354,0,9.00767,-0.0646655,-3.61648,-0.152439,-0.0304878,-0.243902,-9.91538,-0.392783,-0.347278,0.548781,-0.396341,5.94512
732.399,90.3842,-1.93384,0,9.03401,-0.102986,-3.61648,0,-0.182927,-0.243902,-9.88904,-0.404758,-0.383203,0.701219,-0.213415,5.97561
732.409,90.3853,-1.96659,0,8.9909,-0.0742456,-3.61408,0.0304878,-0.121951,-0.365854,-9.90341,-0.361648,-0.392783,0.640244,-0.182927,5.79268
732.419,90.4052,-1.98308,0,9.00767,-0.114961,-3.63564,0.121951,0.121951,-0.0914634,-9.90101,-0.373623,-0.368833,0.365854,-0.152439,5.94512
732.429,90.4098,-1.97621,0,8.95498,-0.0886157,-3.63085,0.0609756,0.0304878,-0.396341,-9.90341,-0.349673,-0.328118,0.27439,-0.609756,5.85366
732.439,90.4214,-1.96764,0,8.97893,-0.117356,-3.6045,0.121951,0,-0.487805,-9.91299,-0.373623,-0.323328,0.396341,-0.609756,5.88415
732.449,90.4237,-1.96841,0,8.95258,-0.0910107,-3.64282,0.121951,-0.0914634,-0.548781,-9.89383,-0.323328,-0.342488,0.182927,-0.823171,5.82317
732.459,90.4309,-1.9701,0,8.97653,-0.112566,-3.67875,0.0304878,0.0914634,-0.609756,-9.89622,-0.366438,-0.344883,0.426829,-0.792683,5.94512
732.469,90.4354,-1.9654,0,8.99569,-0.107776,-3.64522,0.121951,0.335366,-0.670732,-9.87467,-0.387993,-0.328118,0.121951,-1.03659,5.91463
732.479,90.4341,-1.97822,0,9.01485,-0.0981958,-3.61648,-0.0304878,0.0609756,-0.884146,-9.88185,-0.330513,-0.373623,0.426829,-1.0061,5.85366
732.489,90.4319,-1.9783,0,9.00767,-0.0910107,-3.6524,0.0304878,0.0609756,-0.823171,-9.89143,-0.364043,-0.342488,0.0914634,-0.762195,5.94512
732.499,90.4297,-1.98308,0,9.03641,-0.0934058,-3.69312,0.0609756,0,-0.853659,-9.9058,-0.340093,-0.354463,-0.0609756,-0.792683,5.97561
732.509,90.4287,-1.96479,0,9.00288,-0.105381,-3.68354,-0.243902,0.152439,-1.0061,-9.88664,-0.352068,-0.304167,-0.121951,-0.518293,6.09756
732.519,90.4178,-1.96876,0,9.00048,-0.0718506,-3.66917,-0.121951,-0.213415,-1.21951,-9.92496,-0.385598,-0.349673,0.0304878,-0.548781,6.06707
732.529,90.4102,-1.94777,0,9.01246,-0.0718506,-3.62366,0.0609756,0.0914634,-0.945122,-9.92496,-0.344883,-0.296982,-0.0914634,-0.487805,5.79268
732.539,90.4042,-1.92593,0,8.98851,-0.0790356,-3.67875,-0.0304878,-0.152439,-0.97561,-9.93694,-0.364043,-0.282612,-0.182927,-0.884146,6.0061
732.549,90.3977,-1.89966,0,9.02922,-0.0694556,-3.64043,0.0914634,0,-0.823171,-9.92736,-0.356858,-0.265847,-0.27439,-0.945122,5.7622
732.559,90.3846,-1.87661,0,9.02922,-0.0622705,-3.64761,0.0914634,-0.27439,-1.34146,-9.91538,-0.392783,-0.268242,0,-1.0061,6.03659
732.569,90.3762,-1.86351,0,9.01246,-0.0622705,-3.63324,0.335366,-0.0304878,-0.914634,-9.9058,-0.361648,-0.292192,-0.27439,-0.884146,5.97561
732.579,90.368,-1.84259,0,8.9933,-0.0694556,-3.65719,0.304878,0.396341,-1.09756,-9.92257,-0.347278,-0.263452,-0.243902,-1.21951,5.79268
732.589,90.3508,-1.83012,0,9.01485,-0.0287402,-3.68833,0.121951,0.121951,-1.12805,-9.9082,-0.361648,-0.285007,-0.213415,-1.12805,5.67073
732.599,90.3397,-1.81783,0,8.99809,-0.0502954,-3.66677,0.304878,0.0304878,-1.03659,-9.88664,-0.368833,-0.287402,-0.182927,-0.762195,5.79268
732.609,90.3276,-1.79131,0,9.02204,-0.0431104,-3.68594,0.457317,0.182927,-1.0061,-9.91299,-0.364043,-0.251477,-0.457317,-0.762195,5.91463
732.619,90.316,-1.77371,0,8.9909,-0.0407153,-3.70989,0.609756,0.27439,-0.945122,-9.92496,-0.368833,-0.270637,-0.0914634,-0.640244,5.85366
732.629,90.3029,-1.7494,0,9.01246,-0.0287402,-3.68354,0.640244,0.579268,-0.823171,-9.92017,-0.378413,-0.251477,-0.152439,-0.670732,5.85366
732.639,90.2969,-1.73095,0,9.02922,-0.0670605,-3.68354,0.823171,0.579268,-1.06707,-9.92975,-0.395178,-0.256267,-0.27439,-0.914634,5.70122
732.649,90.2866,-1.71435,0,9.02204,-0.0383203,-3.72905,0.914634,0.487805,-0.853659,-9.92496,-0.378413,-0.253872,0.0304878,-1.15854,6.12805
732.659,90.2875,-1.69813,0,8.9933,-0.0886157,-3.63324,1.25,0.487805,-0.97561,-9.93694,-0.359253,-0.249082,0.243902,-1.37195,6.21951
732.669,90.2779,-1.66606,0,8.99569,-0.0526904,-3.72186,1.21951,0.823171,-1.15854,-9.91778,-0.376018,-0.208367,-0.27439,-1.03659,6.0061
732.679,90.2727,-1.66885,0,8.9909,-0.0886157,-3.753,1.46341,0.640244,-1.43293,-9.92736,-0.376018,-0.296982,-0.0609756,-0.97561,5.97561
732.689,90.2658,-1.66421,0,9.05796,-0.0694556,-3.70989,1.67683,0.823171,-1.25,-9.89862,-0.380808,-0.277822,-0.0609756,-0.792683,5.7622
732.699,90.2604,-1.65353,0,9.00048,-0.0838257,-3.753,1.7378,0.945122,-1.40244,-9.87946,-0.340093,-0.263452,-0.0609756,-0.670732,5.70122
732.709,90.2512,-1.64368,0,9.02204,-0.0622705,-3.72186,1.7378,0.914634,-1.37195,-9.89622,-0.354463,-0.265847,-0.152439,-0.457317,5.7622
732.719,90.2471,-1.63556,0,9.01246,-0.107776,-3.70031,2.16463,1.15854,-1.67683,-9.86269,-0.385598,-0.265847,0.0609756,-0.609756,5.73171
732.729,90.2454,-1.62866,0,9.02204,-0.100591,-3.7027,2.43902,0.914634,-1.40244,-9.87946,-0.380808,-0.268242,-0.365854,-0.487805,6.03659
732.739,90.2384,-1.63343,0,9.06994,-0.112566,-3.70749,2.89634,0.701219,-1.95122,-9.90341,-0.376018,-0.292192,-0.487805,-0.518293,5.88415
732.749,90.2295,-1.63313,0,9.07952,-0.0646655,-3.70989,2.7439,0.548781,-1.43293,-9.91778,-0.376018,-0.282612,-0.335366,-0.518293,6.0061
732.759,90.2145,-1.64511,0,9.05317,-0.0335303,-3.67396,2.83537,0.457317,-1.4939,-9.90341,-0.344883,-0.304167,-0.0914634,-0.213415,5.82317
732.769,90.2055,-1.66036,0,9.06275,-0.0526904,-3.67635,2.68293,0.701219,-1.31098,-9.88185,-0.419128,-0.313748,-0.182927,-0.365854,6.09756
732.779,90.1941,-1.68247,0,9.0412,-0.0455054,-3.68833,2.34756,0.884146,-1.43293,-9.87467,-0.419128,-0.335303,-0.0304878,-0.609756,6.12805
732.789,90.1931,-1.67854,0,9.05796,-0.0862207,-3.71228,2.59146,1.31098,-1.25,-9.87227,-0.423918,-0.282612,0.0304878,-0.396341,6.21951
732.799,90.1902,-1.69426,0,9.0388,-0.0862207,-3.70989,2.56098,1.64634,-1.40244,-9.87946,-0.431104,-0.325723,0.182927,-0.670732,6.37195
732.809,90.187,-1.68745,0,9.04359,-0.0934058,-3.69791,2.77439,1.85976,-1.52439,-9.92017,-0.376018,-0.277822,0.243902,-0.731707,6.28049
732.819,90.1848,-1.70397,0,9.0388,-0.0838257,-3.64522,3.01829,2.07317,-1.34146,-9.9082,-0.366438,-0.330513,0.152439,-0.670732,6.25
732.829,90.1803,-1.69633,0,9.03401,-0.0742456,-3.62127,2.7439,2.10366,-1.37195,-9.88904,-0.366438,-0.277822,0.27439,-0.609756,6.52439
732.839,90.1761,-1.70116,0,8.94779,-0.100591,-3.60929,2.95732,1.7378,-1.76829,-9.88664,-0.383203,-0.304167,0.121951,-0.640244,6.46341
732.849,90.1727,-1.68976,0,8.95019,-0.0958008,-3.66917,3.20122,1.28049,-1.64634,-9.88185,-0.387993,-0.273032,0.457317,-0.243902,6.55488
732.859,90.1628,-1.6764,0,8.95977,-0.0742456,-3.67635,2.95732,0.640244,-1.85976,-9.87467,-0.364043,-0.265847,0.396341,-0.365854,6.43293
732.869,90.1527,-1.68389,0,8.99569,-0.0790356,-3.69552,2.86585,-0.121951,-1.95122,-9.88425,-0.356858,-0.301772,0.27439,-0.0914634,6.0061
732.879,90.1412,-1.67147,0,9.05317,-0.0694556,-3.66198,3.01829,-0.487805,-1.95122,-9.92257,-0.352068,-0.270637,0.152439,-0.0914634,6.03659
732.889,90.1289,-1.66666,0,9.09868,-0.0311353,-3.66438,3.35366,-0.640244,-1.43293,-9.9082,-0.325723,-0.280217,0.243902,-0.304878,5.91463
732.899,90.1178,-1.61614,0,9.11065,-0.0239502,-3.63564,3.32317,-0.152439,-1.21951,-9.92975,-0.359253,-0.191602,-0.121951,-0.304878,5.91463
732.909,90.1033,-1.58848,0,9.09149,0.00479004,-3.559,2.95732,0.518293,-0.945122,-9.91059,-0.335303,-0.222737,-0.0609756,-0.457317,5.88415
732.919,90.0894,-1.58089,0,9.0867,0.00239502,-3.54463,2.71341,1.09756,-1.0061,-9.91059,-0.323328,-0.261057,0,-0.243902,5.7622
732.929,90.0801,-1.54874,0,9.03401,-0.0143701,-3.53744,2.40854,1.64634,-0.97561,-9.96568,-0.299377,-0.210762,0.121951,-0.335366,5.97561
732.939,90.0713,-1.52515,0,8.98851,-0.0191602,-3.52307,2.56098,2.22561,-1.06707,-9.94412,-0.313748,-0.227527,-0.152439,-0.121951,5.91463
732.949,90.0697,-1.51671,0,8.95737,-0.0431104,-3.52786,2.28659,2.46951,-0.97561,-9.92975,-0.320933,-0.249082,-0.0304878,-0.213415,5.85366
732.959,90.0667,-1.50548,0,8.91905,-0.0622705,-3.56379,2.13415,2.31707,-1.40244,-9.93694,-0.371228,-0.241897,-0.213415,-0.27439,5.73171
732.969,90.0582,-1.49788,0,8.94779,-0.0407153,-3.54942,1.85976,2.19512,-1.4939,-9.91538,-0.359253,-0.244292,-0.335366,-0.579268,6.21951
732.979,90.0525,-1.47607,0,9.02204,-0.0526904,-3.51828,1.70732,1.28049,-1.46341,-9.9537,-0.387993,-0.210762,-0.0914634,-0.609756,6.34146
732.989,90.0501,-1.47842,0,9.02443,-0.0694556,-3.52307,1.89024,0.579268,-1.46341,-9.96089,-0.344883,-0.263452,-0.182927,-0.853659,6.64634
732.999,90.0434,-1.49796,0,9.0891,-0.0479004,-3.52307,1.7378,0.335366,-1.46341,-9.93933,-0.311353,-0.304167,0,-0.731707,6.40244
733.009,90.0365,-1.50756,0,9.0867,-0.0287402,-3.53984,1.31098,0.182927,-1.18902,-9.89622,-0.285007,-0.282612,0.0304878,-0.792683,6.21951
733.019,90.0303,-1.50358,0,9.09868,-0.0215552,-3.54702,1.15854,0.365854,-1.0061,-9.88904,-0.323328,-0.251477,-0.365854,-0.762195,6.25
733.029,90.03,-1.51958,0,9.07473,-0.0359253,-3.53265,0.97561,0.304878,-0.823171,-9.86748,-0.296982,-0.292192,-0.335366,-0.487805,6.18902
733.039,90.0441,-1.53644,0,9.07473,-0.0718506,-3.43206,0.457317,0.335366,-0.548781,-9.84832,-0.332908,-0.296982,-0.579268,-0.548781,5.94512
733.049,90.0515,-1.55738,0,9.01964,-0.0646655,-3.46559,0.27439,0.182927,-0.792683,-9.8555,-0.328118,-0.301772,-0.731707,-0.243902,6.15854
733.059,90.0651,-1.58727,0,8.98611,-0.0718506,-3.45601,0.182927,0.213415,-0.579268,-9.8124,-0.335303,-0.313748,-0.609756,0.0914634,6.37195
733.069,90.0789,-1.62567,0,8.96216,-0.0766406,-3.49912,0.121951,0.213415,-0.609756,-9.82437,-0.320933,-0.344883,-0.701219,0.396341,6.31098
733.079,90.084,-1.61846,0,8.97893,-0.0766406,-3.51589,0.0304878,0.396341,-1.03659,-9.84832,-0.330513,-0.263452,-0.609756,0.609756,6.34146
733.089,90.0853,-1.60546,0,8.97653,-0.0574805,-3.51349,-0.0609756,-0.121951,-0.97561,-9.88425,-0.361648,-0.251477,-0.762195,0.518293,6.43293
733.099,90.0915,-1.61654,0,8.96456,-0.0981958,-3.52786,-0.365854,-0.152439,-1.25,-9.8555,-0.328118,-0.299377,-0.518293,0.579268,6.18902
733.109,90.0968,-1.63044,0,8.96935,-0.0886157,-3.56379,-0.121951,0.243902,-1.15854,-9.89143,-0.306563,-0.308958,-0.853659,0.579268,6.25
733.119,90.0905,-1.66602,0,8.98372,-0.0479004,-3.57097,-0.609756,0.304878,-1.34146,-9.87706,-0.311353,-0.371228,-0.670732,0.945122,6.31098
733.129,90.0867,-1.67634,0,8.92145,-0.0670605,-3.49673,-0.670732,0.396341,-1.4939,-9.92017,-0.318538,-0.313748,-0.731707,0.853659,6.18902
733.139,90.0753,-1.68497,0,8.97414,-0.0383203,-3.50631,-0.792683,-0.213415,-1.64634,-9.90341,-0.320933,-0.311353,-0.823171,0.945122,5.85366
733.149,90.0704,-1.67492,0,8.98132,-0.0718506,-3.55421,-0.792683,0.0914634,-1.64634,-9.94173,-0.340093,-0.265847,-0.853659,0.884146,5.85366
733.159,90.0631,-1.66861,0,9.02204,-0.0550855,-3.61887,-0.579268,-0.579268,-1.58537,-9.9561,-0.280217,-0.275427,-0.640244,0.701219,5.88415
733.169,90.0649,-1.64617,0,9.0867,-0.0862207,-3.59492,-0.457317,-0.426829,-1.34146,-9.93454,-0.277822,-0.227527,-0.792683,1.03659,5.82317
733.179,90.0609,-1.63957,0,9.14418,-0.0526904,-3.76018,-0.0609756,-0.335366,-1.25,-9.91778,-0.304167,-0.268242,-0.97561,0.792683,5.67073
733.189,90.0534,-1.63991,0,9.15616,-0.0431104,-3.71707,-0.27439,0.365854,-1.40244,-9.94652,-0.325723,-0.285007,-0.914634,0.487805,5.79268
733.199,90.0462,-1.68982,0,9.14179,-0.0359253,-3.76976,0.0609756,1.09756,-1.28049,-9.94412,-0.323328,-0.404758,-0.914634,0.731707,5.79268
733.209,90.0409,-1.6554,0,9.10826,-0.0383203,-3.69312,0.365854,1.34146,-1.18902,-9.94652,-0.332908,-0.215552,-1.0061,0.579268,5.54878
733.219,90.0405,-1.60185,0,9.07712,-0.0646655,-3.6524,0.487805,1.40244,-1.25,-10.004,-0.330513,-0.184417,-1.21951,-0.243902,5.42683
733.229,90.029,-1.57122,0,9.07952,-0.0143701,-3.65719,0.884146,1.09756,-1.34146,-10.0926,-0.328118,-0.205972,-1.21951,-0.640244,5.42683
733.239,90.0234,-1.55511,0,9.05796,-0.0263452,-3.65959,1.21951,0.914634,-1.06707,-10.0567,-0.337698,-0.229922,-0.97561,-1.06707,5.4878
733.249,90.0145,-1.53379,0,9.01006,-0.0143701,-3.59971,1.25,1.18902,-1.15854,-9.97047,-0.313748,-0.205972,-0.914634,-1.37195,5.39634
733.259,90.0033,-1.52039,0,9.03401,-0.0143701,-3.59253,1.03659,0.914634,-1.40244,-9.94891,-0.349673,-0.225132,-0.762195,-1.4939,5.82317
733.269,89.9879,-1.52278,0,9.04838,0.0119751,-3.64043,1.06707,0.457317,-1.34146,-9.94652,-0.361648,-0.273032,-0.487805,-1.55488,5.70122
733.279,89.9803,-1.51842,0,9.08431,-0.0479004,-3.59253,0.97561,0.731707,-1.67683,-9.94891,-0.344883,-0.251477,-0.426829,-1.64634,5.4878
733.289,89.9668,-1.48761,0,9.11065,-0.00239502,-3.57337,0.97561,0.792683,-1.4939,-9.91059,-0.347278,-0.165256,-0.640244,-1.58537,5.64024
733.299,89.9684,-1.47457,0,9.06515,-0.0862207,-3.59732,1.12805,0.457317,-1.55488,-9.87227,-0.349673,-0.215552,-0.853659,-1.67683,5.2439
733.309,89.9722,-1.48697,0,9.03401,-0.0814307,-3.59013,1.03659,0.823171,-1.37195,-9.83395,-0.332908,-0.289797,-0.97561,-1.31098,5.27439
733.319,89.9774,-1.49308,0,9.03401,-0.0814307,-3.55421,1.06707,0.853659,-1.28049,-9.8555,-0.301772,-0.275427,-0.914634,-1.43293,5.21341
733.329,89.9691,-1.49576,0,9.04838,-0.0119751,-3.55421,0.914634,1.0061,-1.18902,-9.86269,-0.301772,-0.265847,-1.03659,-1.28049,5.18293
733.339,89.9658,-1.52747,0,9.06515,-0.0335303,-3.48475,1.12805,1.0061,-1.18902,-9.91299,-0.349673,-0.347278,-1.06707,-1.09756,5.39634
733.349,89.962,-1.54185,0,9.04599,-0.0311353,-3.57816,0.853659,0.640244,-1.18902,-9.89622,-0.380808,-0.301772,-1.0061,-0.945122,5.33537
733.359,89.966,-1.5506,0,9.03641,-0.0694556,-3.56139,1.06707,0.27439,-1.21951,-9.94412,-0.371228,-0.292192,-1.09756,-1.0061,5.2439
733.369,89.9583,-1.55988,0,9.07473,-0.0215552,-3.5566,1.06707,0.426829,-1.34146,-9.98963,-0.349673,-0.299377,-0.914634,-1.25,5.39634
733.379,89.9526,-1.58458,0,9.0388,-0.0359253,-3.58534,0.670732,0.365854,-1.43293,-10.0112,-0.328118,-0.356858,-0.670732,-1.61585,5.18293
733.389,89.9452,-1.60015,0,9.02922,-0.00718506,-3.57097,0.945122,0.27439,-1.09756,-9.98723,-0.299377,-0.332908,-0.701219,-1.89024,5
733.399,89.9345,-1.61638,0,9.03401,0.0119751,-3.58055,0.945122,0.0609756,-1.03659,-9.98723,-0.361648,-0.340093,-0.731707,-2.07317,5.18293
733.409,89.9286,-1.65974,0,9.07712,-0.00239502,-3.56858,1.03659,0.0304878,-0.914634,-9.99921,-0.356858,-0.443079,-1.15854,-2.07317,4.96951
733.419,89.9287,-1.70446,0,9.11065,-0.0239502,-3.61648,0.853659,0.304878,-0.853659,-10.0112,-0.404758,-0.462239,-1.37195,-2.28659,4.84756
733.429,89.9314,-1.71205,0,9.03641,-0.0359253,-3.63564,0.945122,0.640244,-0.884146,-10.0998,-0.380808,-0.332908,-1.52439,-2.5,5
733.439,89.9214,-1.69264,0,8.96935,0.0119751,-3.62606,1.15854,0.945122,-1.0061,-10.2363,-0.373623,-0.225132,-1.4939,-3.32317,5
733.449,89.9129,-1.68187,0,9.00288,-0.00479004,-3.68114,1.21951,1.06707,-1.25,-10.3369,-0.361648,-0.261057,-1.55488,-4.60366,4.78659
733.459,89.9005,-1.67161,0,9.01725,0.0287402,-3.67157,1.40244,0.823171,-0.914634,-10.3058,-0.318538,-0.261057,-1.89024,-5.45732,4.69512
733.469,89.89,-1.69835,0,9.01964,0.00479004,-3.73863,2.04268,0.914634,-1.31098,-10.2219,-0.320933,-0.423918,-1.64634,-6.06707,4.87805
733.479,89.8802,-1.7373,0,8.97414,-0.0191602,-3.76258,2.2561,0.579268,-1.67683,-10.1716,-0.356858,-0.481399,-1.85976,-6.15854,4.90854
733.489,89.8697,-1.78476,0,8.9454,-0.0191602,-3.76737,2.71341,1.0061,-1.76829,-10.1764,-0.443079,-0.526904,-2.19512,-6.28049,4.66463
733.499,89.8579,-1.81674,0,8.90708,-0.0550855,-3.77455,2.9878,0.762195,-2.40854,-10.301,-0.476609,-0.471819,-2.16463,-6.40244,4.26829
733.509,89.8402,-1.8738,0,8.88313,-0.0838257,-3.7506,4.26829,0.731707,-3.32317,-10.3345,-0.529299,-0.593965,-1.98171,-6.79878,4.26829
733.519,89.8228,-1.91406,0,8.90708,-0.105381,-3.7506,5.15244,0.731707,-3.59756,-10.3441,-0.438289,-0.529299,-1.70732,-7.92683,4.32927
733.529,89.8021,-1.94715,0,8.96216,-0.0981958,-3.65001,6.0061,1.0061,-3.84146,-10.392,-0.419128,-0.507744,-1.06707,-9.60366,4.60366
733.539,89.7781,-1.96178,0,9.03641,-0.117356,-3.66438,6.67683,1.34146,-4.42073,-10.404,-0.414338,-0.431104,-1.03659,-11.372,5.15244
733.549,89.7521,-1.94676,0,9.03401,-0.160466,-3.66438,7.28659,1.64634,-5.21341,-10.3968,-0.344883,-0.299377,-1.09756,-13.5061,4.7561
733.559,89.7113,-1.93172,0,9.08431,-0.0958008,-3.64522,7.34756,2.04268,-5.91463,-10.3441,-0.270637,-0.296982,-1.34146,-15.6707,4.32927
733.569,89.6592,-1.92493,0,9.12263,-0.0431104,-3.61648,6.95122,2.13415,-6.46341,-10.1884,-0.220342,-0.328118,-1.89024,-17.0122,3.75
733.579,89.6126,-1.94773,0,9.1825,-0.0981958,-3.64522,6.7378,1.98171,-6.70732,-10.0711,-0.222737,-0.455054,-2.31707,-17.4695,3.56707
733.589,89.5749,-1.99577,0,9.19448,-0.158071,-3.63803,6.52439,2.86585,-6.64634,-10.0088,-0.239502,-0.56762,-2.62195,-17.1646,3.62805
733.599,89.5285,-2.01759,0,9.21125,-0.134121,-3.6069,5.91463,4.26829,-7.31707,-10.0711,-0.325723,-0.462239,-3.14024,-16.4024,3.59756
733.609,89.4781,-2.02501,0,9.18969,-0.136516,-3.559,5.18293,5.18293,-7.83537,-10.1884,-0.376018,-0.407153,-3.10976,-16.8902,3.53659
733.619,89.4298,-1.99906,0,9.06275,-0.191602,-3.4129,5.79268,4.39024,-8.47561,-10.3225,-0.481399,-0.263452,-3.01829,-18.628,3.59756
733.629,89.3822,-1.95565,0,8.93342,-0.220342,-3.3195,6.46341,3.07927,-8.90244,-10.3609,-0.550855,-0.182021,-2.40854,-20.9451,3.44512
733.639,89.338,-1.90415,0,8.93103,-0.229922,-3.29794,7.7439,1.82927,-8.78049,-10.2794,-0.526904,-0.138911,-2.0122,-24.0549,3.78049
733.649,89.2793,-1.84208,0,8.96216,-0.0981958,-3.25962,7.9878,1.85976,-8.62805,-10.1788,-0.512534,-0.0838257,-1.40244,-27.3171,4.39024
733.659,89.2091,-1.80261,0,9.10347,-0.0143701,-3.33626,7.04268,2.34756,-8.81098,-10.1142,-0.459844,-0.174836,-1.03659,-29.2683,4.63415
733.669,89.1342,-1.75786,0,9.20166,0.0838257,-3.33866,6.15854,3.87195,-8.20122,-10.0375,-0.404758,-0.143701,-1.28049,-29.8476,4.57317
733.679,89.0507,-1.69808,0,9.29268,0.172441,-3.36021,4.20732,5.60976,-8.10976,-10.0375,-0.349673,-0.0694556,-1.34146,-29.939,4.63415
733.689,88.985,-1.64327,0,9.2807,0.105381,-3.29555,2.65244,7.71341,-7.31707,-10.0926,-0.392783,-0.0814307,-1.79878,-29.939,4.39024
733.699,88.9176,-1.58029,0,9.24717,0.141306,-3.26681,1.46341,8.17073,-7.16463,-10.1309,-0.399968,-0.0359253,-2.10366,-30.3659,4.54268
733.709,88.8615,-1.50415,0,9.29028,0.124541,-3.20933,1.28049,7.19512,-6.37195,-10.1884,-0.488584,0.0335303,-1.82927,-31.128,4.32927
733.719,88.805,-1.37806,0,9.28789,0.167651,-3.20693,1.46341,7.10366,-5.97561,-10.2291,-0.598755,0.270637,-1.67683,-33.2012,4.5122
733.729,88.7521,-1.21691,0,9.29268,0.170046,-3.19256,1.12805,8.07927,-5.70122,-10.3058,-0.711321,0.452659,-0.548781,-35.6098,4.72561
733.739,88.6858,-1.02334,0,9.17772,0.313748,-3.12311,0.243902,8.10976,-5.30488,-10.2722,-0.768801,0.6251,0.152439,-38.1707,5.18293
733.749,88.6337,-0.806248,0,9.13939,0.273032,-3.11113,-1.61585,6.52439,-4.48171,-10.3082,-0.694556,0.766406,0.701219,-41.7683,5.73171
733.759,88.5802,-0.648865,0,9.16095,0.277822,-3.22609,-2.16463,5.79268,-4.69512,-10.1453,-0.720901,0.524509,2.10366,-42.1341,5.91463
733.769,88.5367,-0.471533,0,9.137,0.229922,-3.27639,-2.5,3.23171,-4.39024,-10.0327,-0.622705,0.63468,2.62195,-42.3171,5.70122
733.779,88.4906,-0.259806,0,9.19448,0.280217,-3.33147,-2.59146,0.670732,-4.11585,-10.0998,-0.526904,0.823887,1.95122,-42.7439,5.4878
733.789,88.4363,-0.0564538,0,9.31184,0.371228,-3.29555,-3.9939,0.426829,-3.90244,-10.0399,-0.464634,0.819097,0.365854,-42.6829,4.63415
733.799,88.3998,0.202885,0,9.25436,0.225132,-3.25962,-5.7622,0.0609756,-4.08537,-10.083,-0.462239,1.10889,-1.34146,-43.75,4.11585
733.809,88.3564,0.535112,0,9.11544,0.222737,-3.28118,-7.31707,-0.121951,-4.84756,-10.083,-0.455054,1.48252,-2.7439,-46.0976,4.20732
733.819,88.3523,0.883479,0,9.06754,-0.119751,-3.41051,-7.83537,0.0304878,-5.36585,-10.0711,-0.450264,1.61185,-3.5061,-48.3537,5.12195
733.829,88.3221,1.15931,0,9.0891,-0.0215552,-3.27639,-7.19512,-0.609756,-6.7378,-9.88425,-0.471819,1.31966,-3.23171,-49.3293,6.43293
733.839,88.3014,1.4188,0,9.14418,-0.155676,-3.33626,-6.7378,-1.76829,-7.53049,-9.55373,-0.402363,1.2526,-1.34146,-49.0549,7.95732
733.849,88.2425,1.66966,0,9.24717,0.0934058,-3.42727,-6.43293,-0.0609756,-8.29268,-9.34058,-0.452659,1.23344,1.21951,-46.7073,9.05488
733.859,88.1715,1.98847,0,9.24478,0.160466,-3.67157,-5.4878,2.62195,-8.81098,-9.25196,-0.517324,1.54718,2.68293,-45.7927,9.57317
733.869,88.1163,2.27706,0,9.20166,0.0862207,-3.54702,-4.48171,4.45122,-8.2622,-9.21125,-0.510139,1.46815,4.66463,-44.4817,9.54268
733.879,88.0827,2.56381,0,9.05317,-0.0359253,-3.54463,-3.01829,6.82927,-7.7439,-9.14897,-0.438289,1.49928,6.0061,-42.7439,8.78049
733.889,88.0241,2.83291,0,8.95019,0.134121,-3.45362,-1.55488,9.96951,-8.14024,-9.07473,-0.421523,1.46336,7.95732,-40.1829,7.28659
733.899,87.9652,3.17761,0,8.79212,0.136516,-3.3674,-0.853659,10.2439,-8.23171,-9.06036,-0.294587,1.81782,7.7439,-38.9024,6.4939
733.909,87.8729,3.61152,0,8.81607,0.356858,-3.30752,-0.731707,8.20122,-8.84146,-9.12742,-0.273032,2.26569,7.16463,-39.2683,5.27439
733.919,87.7872,4.01432,0,8.7538,0.347278,-3.25483,-0.182927,4.20732,-8.44512,-9.12263,-0.244292,2.20581,6.52439,-38.4146,5.06098
733.929,87.6969,4.42774,0,8.9454,0.411943,-3.2237,-0.335366,2.10366,-8.35366,-9.15376,-0.241897,2.32796,5.39634,-37.4695,5.18293
733.939,87.6057,4.84472,0,8.98851,0.479004,-3.18538,-0.304878,-0.609756,-7.77439,-9.0891,-0.208367,2.39741,4.63415,-36.6159,5.82317
733.949,87.4999,5.27053,0,9.19687,0.622705,-3.11113,-0.579268,-1.40244,-7.77439,-9.12502,-0.244292,2.51717,3.47561,-35.5183,6.18902
733.959,87.429,5.67124,0,9.2831,0.447869,-3.31231,-0.27439,-1.82927,-6.70732,-9.16574,-0.280217,2.49322,3.10976,-34.8171,6.64634
733.969,87.3027,6.07131,0,9.4268,0.907712,-3.03688,-1.0061,-0.27439,-6.89024,-9.19209,-0.316143,2.56746,2.68293,-34.0244,7.2561
733.979,87.2618,6.47695,0,9.45793,0.419128,-3.15424,-2.92683,0,-4.5122,-9.27352,-0.378413,2.68482,2.31707,-34.0244,7.71341
733.989,87.1728,6.86779,0,9.25196,0.735271,-3.25004,-1.64634,0.853659,-5.36585,-9.3286,-0.390388,2.70637,2.16463,-33.9939,7.86585
733.999,87.0683,7.25878,0,9.19687,0.859812,-3.10395,-2.80488,-0.304878,-5.4878,-9.35974,-0.459844,2.78541,2.83537,-34.0549,7.53049
734.009,86.9972,7.64935,0,9.24478,0.677791,-3.25962,-3.78049,1.09756,-4.63415,-9.36453,-0.469424,2.85486,3.78049,-33.811,7.7439
734.019,86.9754,8.01264,0,9.09868,0.356858,-3.34824,-3.81098,-1.09756,-3.84146,-9.24238,-0.507744,2.76625,4.57317,-32.5305,7.46951
734.029,86.9384,8.37514,0,9.15376,0.488584,-3.3674,-2.95732,0,-3.71951,-9.12742,-0.433499,2.79259,5.30488,-31.2805,7.37805
734.039,86.8655,8.76854,0,9.17292,0.732876,-3.22849,-2.83537,0.640244,-4.26829,-9.06275,-0.462239,2.97222,6.25,-30.7012,7.22561
734.049,86.8103,9.11784,0,9.11065,0.59636,-3.22849,-3.84146,-0.0609756,-4.35976,-9.05557,-0.457449,2.84528,6.0061,-29.5732,6.92073
734.059,86.7757,9.49842,0,9.18011,0.467029,-3.37458,-4.48171,-0.548781,-4.11585,-9.05078,-0.387993,3.04407,5.54878,-28.0793,6.43293
734.069,86.7602,9.87825,0,9.14179,0.373623,-3.42727,-4.29878,-0.97561,-3.5061,-9.02204,-0.285007,3.09916,5.27439,-26.7073,5.88415
734.079,86.8828,10.2529,0,9.20406,-0.251477,-3.53026,-4.20732,-2.9878,-1.4939,-9.04599,-0.189207,3.15185,4.54268,-26.0061,5.73171
734.089,86.8018,10.6006,0,9.06515,0.785566,-3.42009,-2.19512,-0.792683,-4.42073,-9.03162,-0.189207,3.09437,4.54268,-24.3598,5.30488
734.099,86.7392,10.9642,0,9.08431,0.632285,-3.40811,-3.10976,-2.28659,-4.7561,-8.9933,-0.186812,3.21412,3.65854,-23.628,5.67073
734.109,86.7024,11.3165,0,9.07473,0.469424,-3.43925,-2.92683,-1.79878,-4.39024,-8.97414,-0.270637,3.2213,3.38415,-23.0488,5.94512
734.119,86.7056,11.6468,0,9.18969,0.261057,-3.53505,-2.37805,-2.40854,-3.32317,-8.95737,-0.292192,3.18059,2.95732,-22.0427,6.15854
734.129,86.7347,11.9818,0,9.00527,0.148491,-3.57816,-1.15854,-2.16463,-2.62195,-8.92863,-0.320933,3.25004,2.7439,-21.0976,6.58537
734.139,86.6516,12.3068,0,8.98132,0.780776,-3.27399,-0.792683,-2.0122,-4.93902,-8.90468,-0.330513,3.25723,2.77439,-19.878,6.55488
734.149,86.6009,12.6339,0,9.03162,0.550855,-3.43206,-1.21951,-1.7378,-4.87805,-8.85918,-0.301772,3.30752,2.22561,-18.7195,6.40244
734.159,86.572,12.956,0,9.10107,0.426313,-3.49673,-0.914634,-1.98171,-4.45122,-8.85678,-0.261057,3.34345,2.28659,-17.3171,5.88415
734.169,86.5988,13.2622,0,9.07712,0.110171,-3.56379,-0.365854,-3.2622,-3.29268,-8.82565,-0.208367,3.3195,2.19512,-15.3659,5.51829
734.179,86.5335,13.5697,0,8.98132,0.680186,-3.37458,1.46341,-2.04268,-4.72561,-8.82804,-0.138911,3.38177,1.89024,-13.811,5.2439
734.189,86.4569,13.8636,0,9.02922,0.787961,-3.18777,0.945122,-2.46951,-4.63415,-8.86157,-0.165256,3.38895,0.945122,-12.561,5.2439
734.199,86.4178,14.1481,0,9.15376,0.536484,-3.40572,0.396341,-0.640244,-4.39024,-8.90708,-0.215552,3.41769,0.701219,-11.0366,4.60366
734.209,86.4373,14.4482,0,9.18729,0.234712,-3.49194,-0.121951,-2.43902,-2.83537,-8.93582,-0.256267,3.55181,0.213415,-10.2439,4.5122
734.219,86.3956,14.7303,0,8.94779,0.60115,-3.54702,2.13415,-1.98171,-3.65854,-8.9454,-0.306563,3.52786,0.152439,-9.57317,4.69512
734.229,86.312,14.9977,0,9.10826,0.907712,-3.26441,1.15854,-0.945122,-4.11585,-8.98611,-0.275427,3.52786,-0.27439,-9.45122,5.30488
734.239,86.257,15.263,0,9.10826,0.718506,-3.39614,0.548781,-1.46341,-3.87195,-9.02683,-0.294587,3.58295,-0.365854,-9.20732,5.60976
734.249,86.2185,15.5064,0,9.20646,0.6251,-3.45841,0.243902,-1.79878,-3.62805,-9.07473,-0.273032,3.54942,-0.548781,-9.2378,5.57927
734.259,86.3317,15.7402,0,9.19687,0.0311353,-3.68114,1.03659,-2.86585,-0.945122,-9.02922,-0.277822,3.53265,-0.182927,-8.59756,6.03659
734.269,86.2214,15.9953,0,9.09868,1.14961,-3.30034,2.89634,-0.762195,-3.65854,-8.99569,-0.268242,3.65959,-0.335366,-8.53659,5.79268
734.279,86.1471,16.2343,0,9.15856,0.936453,-3.2213,1.28049,-1.64634,-2.89634,-9.00527,-0.340093,3.63564,-0.457317,-7.56098,5.82317
734.289,86.1005,16.4544,0,9.1346,0.766406,-3.28118,0.152439,-2.07317,-2.5,-8.97414,-0.416733,3.57816,-0.548781,-6.34146,5.39634
734.299,86.0735,16.6595,0,9.26394,0.687371,-3.43685,0.27439,-1.43293,-1.85976,-8.96216,-0.443079,3.54223,-0.701219,-5.67073,5.27439
734.309,86.0503,16.8579,0,9.10826,0.66821,-3.3674,0.304878,-1.7378,-1.58537,-8.92624,-0.423918,3.52786,-0.640244,-5.03049,5.15244
734.319,86.029,17.0546,0,9.16813,0.682581,-3.36979,-0.0914634,-1.12805,-1.15854,-8.90947,-0.452659,3.52786,0.121951,-4.05488,5.45732
734.329,86.0109,17.2446,0,9.0867,0.66821,-3.37698,-0.0609756,-2.34756,-1.0061,-8.91426,-0.469424,3.51589,0.0609756,-3.56707,5.57927
734.339,86.0073,17.4337,0,9.12981,0.637075,-3.45122,0.182927,-2.59146,-0.365854,-8.91187,-0.483794,3.50631,0.182927,-2.9878,5.73171
734.349,86.0068,17.6495,0,9.10826,0.63468,-3.37458,0.152439,-3.10976,-0.0914634,-8.95258,-0.464634,3.5566,0.487805,-2.10366,5.73171
734.359,85.9983,17.8694,0,9.0867,0.665815,-3.36979,-0.0914634,-3.17073,0.243902,-8.93342,-0.440684,3.55421,0.457317,-1.85976,5.54878
734.369,85.9916,18.1721,0,9.07952,0.670605,-3.38656,-0.426829,-3.41463,0.426829,-8.96456,-0.411943,3.56379,0.426829,-0.823171,5.42683
734.379,85.9964,18.5236,0,9.0867,0.65384,-3.4632,-0.426829,-3.2622,0.914634,-8.97893,-0.392783,3.54942,0.823171,-0.335366,5.4878
734.389,86.0128,18.7963,0,9.06994,0.598755,-3.47757,-0.579268,-3.2622,0.762195,-8.95737,-0.387993,3.5111,0.304878,0.518293,5.36585
734.399,86.0292,18.9795,0,9.05557,0.598755,-3.39135,-0.609756,-3.62805,0.884146,-8.98851,-0.387993,3.49433,0.548781,0.945122,5.33537
734.409,86.0384,19.1542,0,9.0412,0.637075,-3.45601,-0.731707,-4.05488,1.15854,-8.97893,-0.368833,3.54702,0.335366,1.15854,5.18293
734.419,86.0533,19.2696,0,9.0412,0.60115,-3.49673,-0.792683,-3.87195,0.945122,-9.01246,-0.392783,3.47996,0.304878,1.52439,5.27439
734.429,86.0782,19.3485,0,9.06754,0.56283,-3.47038,-0.884146,-3.87195,1.25,-9.07473,-0.411943,3.45362,0.213415,2.04268,5.4878
734.439,86.0988,19.4312,0,9.09868,0.58199,-3.44164,-0.579268,-3.71951,1.25,-9.07233,-0.399968,3.50152,0.487805,2.37805,5.60976
734.449,86.1253,19.492,0,9.10586,0.546064,-3.4608,-0.640244,-4.11585,1.06707,-9.12263,-0.378413,3.45362,0.457317,2.40854,5.82317
734.459,86.1446,19.5486,0,9.10586,0.57241,-3.49673,-0.182927,-4.5122,0.97561,-9.12742,-0.376018,3.44643,0.640244,2.28659,6.03659
734.469,86.1701,19.5902,0,9.08191,0.538879,-3.56618,-0.518293,-4.26829,0.792683,-9.18011,-0.359253,3.42248,0.670732,2.37805,6.18902
734.479,86.1995,19.6245,0,9.09628,0.519719,-3.52068,-0.27439,-4.14634,1.0061,-9.20885,-0.337698,3.40332,0.640244,1.98171,6.25
734.489,86.2333,19.6806,0,9.08191,0.500559,-3.48715,-0.426829,-4.35976,0.609756,-9.23999,-0.316143,3.5087,0.579268,2.10366,6.28049
734.499,86.253,19.7115,0,9.08431,0.546064,-3.49194,-0.487805,-4.29878,0.27439,-9.18729,-0.285007,3.40332,0.609756,2.16463,6.06707
734.509,86.2703,19.7284,0,9.03162,0.548459,-3.56618,-0.213415,-4.26829,0.457317,-9.21364,-0.308958,3.36261,0.396341,1.89024,6.06707
734.519,86.2826,19.7518,0,9.00288,0.560435,-3.55181,0.0304878,-4.54268,0.426829,-9.23759,-0.229922,3.39614,0.548781,1.79878,6.06707
734.529,86.2969,19.7639,0,9.03401,0.55804,-3.57816,0.0304878,-4.48171,0.701219,-9.27591,-0.244292,3.37698,0.304878,1.95122,6.06707
734.539,86.3201,19.7531,0,9.10107,0.522114,-3.6524,0.304878,-4.20732,0.548781,-9.3286,-0.285007,3.31471,-0.152439,1.79878,5.7622
734.549,86.3373,19.7402,0,9.04359,0.538879,-3.59013,0.304878,-4.45122,0.487805,-9.33579,-0.299377,3.30752,-0.27439,1.85976,5.51829
734.559,86.3503,19.737,0,9.06275,0.546064,-3.66677,0.823171,-3.96341,0.0304878,-9.31663,-0.366438,3.33387,-0.243902,1.61585,5.54878
734.569,86.3619,19.7337,0,9.01246,0.536484,-3.559,0.701219,-4.26829,-0.213415,-9.28789,-0.397573,3.32429,-0.731707,0.914634,5.88415
734.579,86.3773,19.7194,0,9.01006,0.507744,-3.58295,0.762195,-3.93293,-0.457317,-9.26154,-0.426313,3.29555,-0.243902,0.27439,5.97561
734.589,86.3873,19.6906,0,9.01006,0.510139,-3.559,0.823171,-3.62805,-0.670732,-9.24478,-0.411943,3.26681,0.426829,0.0609756,6.21951
734.599,86.3957,19.704,0,9.00767,0.507744,-3.58534,0.701219,-2.83537,-0.762195,-9.24717,-0.399968,3.33387,0.579268,0.213415,6.40244
734.609,86.4114,19.7351,0,8.98372,0.462239,-3.58774,0.762195,-2.56098,-0.945122,-9.27591,-0.397573,3.38416,0.27439,-0.335366,6.43293
734.619,86.4245,19.6897,0,8.98611,0.457449,-3.58295,0.579268,-2.22561,-1.09756,-9.2807,-0.313748,3.24046,0.304878,-0.335366,6.7378
734.629,86.4276,19.7057,0,8.99809,0.469424,-3.6069,0.853659,-2.2561,-1.4939,-9.24957,-0.308958,3.34105,0.0609756,-0.335366,6.52439
734.639,86.4211,19.7306,0,9.01964,0.512534,-3.64282,0.945122,-2.04268,-1.61585,-9.25196,-0.263452,3.3674,-0.0609756,-0.518293,6.31098
734.649,86.4118,19.7213,0,8.9933,0.526904,-3.66438,1.18902,-2.0122,-1.61585,-9.20885,-0.308958,3.28357,-0.304878,-0.457317,5.97561
734.659,86.4004,19.6955,0,8.9933,0.538879,-3.64522,1.0061,-1.40244,-1.64634,-9.18729,-0.296982,3.24046,-0.304878,-0.518293,5.7622
734.669,86.3911,19.7195,0,9.03641,0.546064,-3.62366,1.40244,-0.853659,-1.40244,-9.16334,-0.325723,3.3195,-0.609756,-0.152439,5.54878
734.679,86.3797,19.7693,0,8.9933,0.565225,-3.64043,1.06707,-0.609756,-1.21951,-9.19687,-0.392783,3.41051,-0.457317,-0.670732,5.91463
734.689,86.3677,19.7882,0,8.9933,0.550855,-3.60211,1.06707,-0.335366,-1.58537,-9.22322,-0.383203,3.36261,-0.27439,-0.884146,5.88415
734.699,86.3449,19.8113,0,9.02443,0.61073,-3.58774,0.701219,-0.243902,-1.64634,-9.22801,-0.368833,3.38177,-0.121951,-1.0061,5.97561
734.709,86.3217,19.8334,0,9.05557,0.622705,-3.56618,0.701219,-0.0914634,-1.55488,-9.24238,-0.366438,3.40093,-0.213415,-1.55488,6.28049
734.719,86.3019,19.8402,0,9.05317,0.627495,-3.58055,0.518293,-0.243902,-1.0061,-9.27831,-0.337698,3.36979,0.365854,-2.0122,6.21951
734.729,86.2821,19.8666,0,9.06275,0.622705,-3.58774,0.548781,-0.27439,-1.28049,-9.2352,-0.340093,3.42967,-0.0304878,-2.10366,6.25
734.739,86.2666,19.8888,0,9.02683,0.613125,-3.559,0.548781,-0.121951,-0.97561,-9.2304,-0.330513,3.41769,0.152439,-2.19512,5.85366
734.749,86.2557,19.9151,0,9.0412,0.59636,-3.53744,0.121951,-0.182927,-0.97561,-9.2304,-0.337698,3.44164,0.182927,-2.46951,5.54878
734.759,86.2442,19.9391,0,9.0412,0.613125,-3.52307,0,-0.884146,-0.579268,-9.25915,-0.340093,3.45122,0.365854,-2.68293,5.73171
734.769,86.2346,19.9524,0,9.04359,0.603545,-3.53984,-0.0304878,-0.762195,-0.731707,-9.21843,-0.366438,3.39374,0.335366,-2.37805,5.57927
734.779,86.2184,19.9643,0,9.00527,0.622705,-3.57816,-0.335366,-0.762195,-0.945122,-9.17532,-0.344883,3.37458,0.213415,-2.34756,5.67073
734.789,86.216,19.9835,0,9.04359,0.589175,-3.56139,-0.487805,-0.457317,-0.518293,-9.17053,-0.392783,3.40332,0.213415,-2.37805,5.67073
734.799,86.2038,20.0072,0,9.00767,0.617915,-3.58774,-0.548781,0,-0.640244,-9.17053,-0.390388,3.42727,0.365854,-2.59146,5.51829
734.809,86.2073,20.0102,0,9.02204,0.56762,-3.62845,-0.304878,-0.213415,-0.548781,-9.16334,-0.383203,3.34584,0.396341,-2.68293,5.7622
734.819,86.196,20.0208,0,9.01246,0.622705,-3.63564,-0.426829,-0.213415,-0.335366,-9.16095,-0.373623,3.37698,0.884146,-2.86585,6.09756
734.829,86.183,20.0271,0,9.02204,0.632285,-3.62606,-0.213415,-0.518293,-0.121951,-9.15616,-0.354463,3.36021,0.884146,-3.38415,6.09756
734.839,86.1668,20.0451,0,9.03162,0.641865,-3.64522,-0.152439,-0.0914634,-0.548781,-9.1825,-0.359253,3.42248,1.4939,-3.59756,6.12805
734.849,86.1594,20.0695,0,9.01725,0.62031,-3.62366,-0.182927,0.0609756,-0.182927,-9.22083,-0.361648,3.47038,1.67683,-4.26829,6.15854
734.859,86.1599,20.0841,0,9.01006,0.60115,-3.66677,-0.487805,-0.213415,-0.0914634,-9.21843,-0.352068,3.42967,1.61585,-4.26829,6.21951
734.869,86.1709,20.0956,0,8.96695,0.550855,-3.59732,-0.335366,-0.243902,-0.487805,-9.24238,-0.349673,3.42727,1.55488,-4.63415,6.06707
734.879,86.1799,20.1086,0,8.95977,0.570015,-3.68114,-0.0914634,-0.27439,-0.182927,-9.21843,-0.316143,3.42727,1.55488,-5,6.15854
734.889,86.1856,20.1237,0,8.97174,0.56762,-3.65959,-0.0304878,-0.0304878,-0.426829,-9.27591,-0.282612,3.4608,1.46341,-5.27439,5.94512
734.899,86.2106,20.1231,0,8.96935,0.517324,-3.68114,0.213415,0.304878,-0.27439,-9.3286,-0.270637,3.41051,1.25,-5.73171,5.7622
734.909,86.2046,20.1168,0,9.00288,0.603545,-3.73144,0.121951,0.518293,-0.396341,-9.31902,-0.268242,3.37937,1.06707,-6.12805,5.33537
734.919,86.2094,20.1183,0,9.06275,0.57241,-3.69791,0.609756,0.548781,-0.396341,-9.32142,-0.289797,3.4153,1.21951,-6.82927,5.18293
734.929,86.2198,20.123,0,9.02683,0.546064,-3.6524,0.762195,0.670732,-0.487805,-9.35016,-0.330513,3.43925,0.884146,-8.14024,5.64024
734.939,86.2248,20.1296,0,9.05796,0.56762,-3.69312,0.731707,0,-0.426829,-9.331,-0.397573,3.44164,1.7378,-9.17683,5.30488
734.949,86.2194,20.1376,0,9.02922,0.60115,-3.63085,1.12805,0.396341,-0.396341,-9.36453,-0.464634,3.4608,2.46951,-9.72561,5.12195
734.959,86.2144,20.1171,0,9.05317,0.593965,-3.63324,1.0061,0.304878,-0.640244,-9.48667,-0.457449,3.37219,3.90244,-10.1524,5.4878
734.969,86.2101,20.0765,0,9.14658,0.61073,-3.68354,1.09756,0.304878,-0.27439,-9.49146,-0.455054,3.27639,5.70122,-9.72561,5.21341
734.979,86.2248,20.0484,0,9.24717,0.548459,-3.59253,1.43293,1.03659,-0.335366,-9.51541,-0.498164,3.33626,7.0122,-9.45122,5.03049
734.989,86.2186,20.0363,0,9.23759,0.62031,-3.63085,1.09756,2.2561,-0.335366,-9.46991,-0.479004,3.38895,7.56098,-10.5183,4.26829
734.999,86.2067,20.0545,0,9.13939,0.63468,-3.50391,0.579268,2.9878,-0.182927,-9.39087,-0.457449,3.49912,7.62195,-12.1646,3.71951
735.009,86.2061,20.0861,0,9.06036,0.589175,-3.52068,0.0304878,3.81098,-0.426829,-9.30226,-0.373623,3.53026,7.37805,-14.0854,3.65854
735.019,86.2192,20.1035,0,9.00767,0.517324,-3.63803,-0.701219,4.72561,-0.762195,-9.25436,-0.225132,3.45122,6.92073,-14.9695,4.57317
735.029,86.2251,20.138,0,8.97414,0.524509,-3.53026,-1.06707,4.7561,-1.03659,-9.20166,-0.0981958,3.51349,5.39634,-15.1829,5
735.039,86.2254,20.1691,0,8.93103,0.522114,-3.42248,-1.82927,3.5061,-1.40244,-9.1849,-0.0479004,3.49673,4.14634,-16.4024,5.94512
735.049,86.2203,20.2097,0,8.91187,0.541274,-3.47517,-1.31098,3.20122,-1.4939,-9.21364,-0.0455054,3.5566,3.14024,-17.5915,6.18902
735.059,86.2129,20.2557,0,8.87355,0.560435,-3.4608,-1.09756,3.56707,-1.34146,-9.26154,-0.0981958,3.6069,2.34756,-18.872,6.21951
735.069,86.2013,20.3042,0,8.89271,0.603545,-3.54702,-1.06707,3.9939,-0.792683,-9.3286,-0.198787,3.6524,1.98171,-20.2134,5.67073
735.079,86.1901,20.3405,0,8.94061,0.603545,-3.59732,-1.28049,5.51829,-0.914634,-9.32142,-0.299377,3.59971,2.0122,-21.311,4.93902
735.089,86.184,20.3891,0,8.98611,0.60115,-3.72665,-1.4939,7.62195,-0.548781,-9.28549,-0.328118,3.65001,2.28659,-21.7378,4.81707
735.099,86.1675,20.4217,0,9.07712,0.64905,-3.61648,-1.40244,8.32317,-0.243902,-9.2352,-0.387993,3.56379,2.77439,-22.378,4.26829
735.109,86.1367,20.4912,0,9.11305,0.704136,-3.45362,-1.15854,7.2561,-0.609756,-9.21364,-0.378413,3.73384,3.32317,-23.75,4.2378
735.119,86.1324,20.5951,0,9.12981,0.60594,-3.39135,-0.97561,5.91463,-0.731707,-9.34297,-0.397573,3.96376,3.41463,-25.3049,4.39024
735.129,86.123,20.6977,0,9.17532,0.6251,-3.37698,-1.21951,6.12805,-0.853659,-9.48428,-0.301772,4.03561,3.47561,-27.3476,4.32927
735.139,86.1362,20.7814,0,9.17772,0.502954,-3.5111,-1.58537,7.2561,-1.12805,-9.48907,-0.208367,3.96376,3.07927,-28.4451,4.54268
735.149,86.152,20.8629,0,9.15856,0.445474,-3.61408,-1.61585,8.65854,-1.52439,-9.39327,-0.174836,3.92783,2.89634,-29.8171,4.78659
735.159,86.1591,20.9464,0,9.15376,0.435894,-3.65959,-1.09756,8.96341,-2.10366,-9.25675,-0.198787,3.8943,2.56098,-31.2195,5.12195
735.169,86.1513,21.0419,0,9.07952,0.455054,-3.5566,-1.0061,7.77439,-2.9878,-9.137,-0.246687,3.91586,2.83537,-32.378,5.94512
735.179,86.1357,21.1475,0,9.12263,0.450264,-3.47278,-0.27439,5.54878,-3.78049,-9.12023,-0.301772,3.97334,2.83537,-33.872,6.0061
735.189,86.1176,21.2439,0,9.14897,0.435894,-3.47996,-0.548781,6.40244,-4.2378,-9.0891,-0.313748,3.93502,2.9878,-34.5122,6.46341
735.199,86.0924,21.3489,0,9.10107,0.455054,-3.59492,-0.518293,8.2622,-4.69512,-9.09149,-0.349673,3.99489,3.14024,-35.0915,6.7378
735.209,86.0683,21.4826,0,9.15856,0.416733,-3.72905,0.27439,10.2744,-5.15244,-9.12023,-0.335303,4.16494,3.14024,-36.5244,6.82927
735.219,86.0385,21.5926,0,9.04599,0.407153,-3.62845,0.823171,10.7622,-5.82317,-9.12263,-0.287402,4.07632,2.46951,-37.4695,6.79878
735.229,86.0054,21.7373,0,9.00767,0.385598,-3.43685,0.853659,9.72561,-6.46341,-9.05796,-0.208367,4.23439,2.68293,-38.3841,6.7378
735.239,85.967,21.9052,0,8.9933,0.397573,-3.38895,1.12805,7.59146,-6.92073,-9.01485,-0.160466,4.35415,2.68293,-39.6646,6.76829
735.249,85.9237,22.0627,0,9.01964,0.397573,-3.42727,1.82927,7.31707,-7.5,-8.95498,-0.122146,4.30625,2.95732,-40.7012,6.82927
735.259,85.8736,22.2336,0,9.10107,0.469424,-3.4608,2.77439,7.16463,-7.40854,-8.85918,-0.155676,4.35415,2.65244,-41.2195,6.7378
735.269,85.784,22.4403,0,9.10107,0.735271,-3.42009,3.71951,6.15854,-8.14024,-8.75859,-0.232317,4.50982,2.7439,-42.439,6.34146
735.279,85.6963,22.6409,0,9.14897,0.778381,-3.57097,4.39024,6.4939,-7.62195,-8.71787,-0.174836,4.49785,2.43902,-43.5366,6.46341
735.289,85.6379,22.8595,0,9.24717,0.65863,-3.42488,4.35976,7.0122,-6.43293,-8.66518,-0.225132,4.59604,2.31707,-44.4512,6.40244
735.299,85.5156,23.076,0,9.22322,1.05381,-3.40572,4.48171,10.1524,-8.07927,-8.63884,-0.282612,4.61281,2.22561,-45.3354,6.03659
735.309,85.4563,23.2997,0,9.2831,0.682581,-3.3171,3.47561,9.48171,-6.61585,-8.63405,-0.313748,4.68705,2.71341,-46.4024,5.91463
735.319,85.3423,23.5509,0,9.36692,1.03944,-3.44404,5.15244,12.561,-7.9878,-8.56219,-0.349673,4.82596,3.32317,-48.0488,6.15854
735.329,85.251,23.7887,0,9.2304,0.883762,-3.21412,4.69512,8.96341,-7.65244,-8.55022,-0.361648,4.79962,3.2622,-50.122,6.43293
735.339,85.181,24.0075,0,9.09868,0.716111,-3.47278,6.76829,10.9451,-7.65244,-8.49034,-0.332908,4.71819,3.65854,-51.0366,6.25
735.349,85.0536,24.3075,0,9.15616,1.17116,-3.11113,5.30488,11.2805,-7.95732,-8.44244,-0.306563,5.13732,4.02439,-52.9878,6.76829
735.359,85.0311,24.6134,0,9.14179,0.452659,-3.20214,4.45122,11.1585,-6.61585,-8.41131,-0.296982,5.20677,4.02439,-55.3354,6.98171
735.369,84.927,24.9043,0,8.88073,0.938848,-3.0776,5.79268,9.08537,-8.44512,-8.43047,-0.265847,5.20198,3.44512,-57.1341,6.92073
735.379,84.8445,25.1963,0,9.32381,0.833467,-3.05365,4.2378,12.8049,-8.35366,-8.4161,-0.258662,5.25707,3.56707,-58.1707,7.10366
735.389,84.8623,25.4464,0,9.25196,0.0742456,-3.24046,4.93902,8.29268,-7.77439,-8.3658,-0.234712,5.07026,3.29268,-58.9329,6.76829
735.399,84.755,25.6761,0,9.39806,0.943638,-3.10634,5.94512,8.38415,-9.72561,-8.29874,-0.229922,4.97685,3.23171,-59.5427,6.92073
735.409,84.7458,25.9417,0,9.48188,0.292192,-3.29555,5.06098,7.9878,-8.04878,-8.17899,-0.232317,5.12774,3.62805,-60.3354,7.07317
735.419,84.6325,26.2331,0,9.24478,0.958008,-2.89797,6.06707,9.39024,-10.2134,-8.16702,-0.277822,5.30257,4.14634,-62.0122,7.37805
735.429,84.5968,26.5413,0,9.0388,0.390388,-3.18538,4.05488,9.35976,-9.54268,-8.1766,-0.294587,5.45346,4.78659,-63.3537,7.80488
735.439,84.5352,26.866,0,9.05317,0.514929,-2.85247,5.18293,10.1524,-10.6707,-8.16462,-0.318538,5.59477,4.81707,-64.5732,7.68293
735.449,84.4595,27.1495,0,9.08431,0.486189,-3.01293,5.82317,8.59756,-12.622,-8.14307,-0.335303,5.4319,6.0061,-64.7256,7.77439
735.459,84.4544,27.4671,0,9.52739,0.0574805,-3.24046,4.05488,7.9878,-11.128,-8.05445,-0.318538,5.60914,5.7622,-64.0549,7.92683
735.469,84.3865,27.8364,0,9.30226,0.447869,-3.65001,5.18293,10.8537,-12.622,-7.99697,-0.270637,5.91091,5.64024,-64.8476,7.68293
735.479,84.323,28.1815,0,9.34776,0.376018,-4.00926,6.40244,11.0976,-13.2317,-8.11193,-0.342488,5.94204,5.91463,-66.4329,7.9878
735.489,84.2691,28.5404,0,8.96456,0.253872,-3.29076,4.78659,12.378,-13.7805,-8.08559,-0.311353,6.07377,5.79268,-66.9512,7.77439
735.499,84.188,28.9332,0,9.4268,0.373623,-3.38656,1.76829,16.0061,-15.3354,-8.1766,-0.256267,6.41626,5.60976,-68.2317,7.2561
735.509,84.09,29.3267,0,9.25436,0.340093,-3.09197,0.945122,10.9146,-17.561,-8.24126,-0.263452,6.56235,5.45732,-68.9329,6.95122
735.519,83.9663,29.7015,0,9.63277,0.414338,-3.03449,-0.152439,10.0305,-19.6646,-8.30114,-0.225132,6.59109,5.4878,-69.2073,5.82317
735.529,83.8208,30.096,0,10.0758,0.435894,-3.40093,-0.609756,13.5976,-22.1037,-8.29874,-0.196392,6.79707,6.03659,-69.3902,4.81707
735.539,83.6465,30.5297,0,10.0016,0.63468,-3.13269,-0.121951,11.8902,-22.9878,-8.20294,-0.134121,7.05573,6.70732,-70.3963,4.42073
735.549,83.473,31.0195,0,9.83156,0.471819,-3.09437,-1.67683,13.689,-25.061,-8.06164,-0.143701,7.39822,7.22561,-71.4634,4.11585
735.559,83.3134,31.5496,0,9.48907,0.227527,-3.08958,-1.95122,12.6829,-26.7988,-7.77902,-0.124541,7.52515,6.43293,-72.3171,4.26829
735.569,83.1285,32.1424,0,9.44835,0.366438,-2.92911,-3.20122,10.5488,-27.9878,-7.35032,0.0167651,7.65448,5.18293,-71.9817,5.70122
735.579,82.8984,32.8025,0,9.79563,0.63468,-2.93629,-3.32317,7.19512,-29.939,-7.00064,0.174836,7.90117,3.14024,-71.4329,7.53049
735.589,82.6488,33.5017,0,10.3537,0.862207,-3.25962,-7.43902,9.29878,-30.2439,-6.72042,0.220342,8.04008,1.15854,-71.0976,9.39024
735.599,82.3846,34.2256,0,10.2866,0.914897,-3.29555,-9.57317,13.4451,-31.5854,-6.54798,0.136516,8.21252,-0.670732,-70.3659,10.4573
735.609,82.0927,34.9549,0,9.68785,1.00112,-3.38177,-5.54878,10.0915,-33.2927,-6.41626,0,8.30114,-0.640244,-69.1768,10.5793
735.619,81.7612,35.6874,0,9.58487,1.31487,-2.78541,-5.27439,4.42073,-34.0244,-6.22945,-0.141306,8.30353,1.15854,-66.9207,10.3354
735.629,81.4553,36.4511,0,10.0639,1.27176,-2.77343,-8.41463,4.90854,-33.3232,-5.83906,-0.280217,8.23647,2.9878,-61.7378,9.60366
735.639,81.176,37.2511,0,10.2435,1.12805,-2.84528,-7.56098,4.35976,-33.1098,-5.56363,-0.476609,8.3658,4.96951,-56.2805,9.32927
735.649,80.9109,38.0901,0,9.78605,1.06818,-2.75188,-6.70732,4.29878,-32.3476,-5.1469,-0.56762,8.29874,6.28049,-49.4817,8.90244
735.659,80.6467,38.9355,0,9.42201,1.07057,-2.68003,-6.89024,1.95122,-32.2866,-5.00559,-0.6251,8.40652,7.80488,-42.6524,8.62805
735.669,80.3698,39.7883,0,9.13939,1.152,-2.44771,-7.68293,-2.37805,-32.6829,-4.84033,-0.488584,8.48316,7.5,-36.128,8.47561
735.679,80.0471,40.6506,0,9.25915,1.50647,-2.47166,-9.60366,-4.54268,-33.7195,-4.83315,-0.213157,8.86876,6.46341,-31.0061,9.02439
735.689,79.6768,41.4586,0,9.33339,1.91841,-2.46927,-10.7012,-8.71951,-34.3902,-4.82836,0.124541,8.68434,6.4939,-25.7622,9.78659
735.699,79.2937,42.2397,0,9.40524,2.04295,-2.63931,-10.6707,-10.5488,-35.1524,-4.84512,0.261057,8.77056,5.97561,-20.3049,10.6707
735.709,78.8599,42.969,0,9.67827,2.48124,-2.5028,-10.2134,-13.6585,-36.7683,-5.11816,0.170046,9.07473,5.33537,-16.0061,11.0366
735.719,78.3877,43.6286,0,9.86748,2.80457,-2.43813,-11.4024,-12.7439,-38.5366,-5.36724,0.0119751,9.1346,5.03049,-12.7744,10.3049
735.729,77.8901,44.2369,0,9.97765,2.9794,-2.43094,-12.8659,-12.439,-40.5488,-5.56363,-0.0838257,9.23759,4.87805,-9.69512,10.1829
735.739,77.3633,44.8125,0,10.1621,3.24525,-2.52196,-16.1585,-9.35976,-42.3171,-5.73607,-0.0167651,9.44596,5.09146,-7.83537,10.061
735.749,76.8341,45.3702,0,10.119,3.28836,-2.58902,-16.372,-6.25,-43.0488,-5.7696,0.0838257,9.54655,4.17683,-6.55488,10.3963
735.759,76.287,45.9234,0,9.79323,3.39374,-2.60578,-20.0305,-6.12805,-43.689,-5.80074,0.220342,9.76689,3.47561,-5.88415,10.6402
735.769,75.7404,46.4396,0,9.50104,3.29555,-2.80217,-22.2256,-8.01829,-44.7256,-5.84385,0.313748,9.68067,2.0122,-4.66463,10.9146
735.779,75.1804,46.9476,0,9.27112,3.3171,-3.0297,-24.0549,-12.2561,-46.0671,-5.86301,0.383203,9.66869,0.792683,-2.40854,10.5183
735.789,74.6236,47.5924,0,9.46272,3.32908,-3.38416,-23.4451,-12.8354,-47.5,-5.81271,0.481399,9.54894,0.121951,-0.243902,10.3963
735.799,74.0508,48.0771,0,9.3789,3.4153,-3.13748,-23.3841,-17.5915,-48.9939,-5.77439,0.517324,9.57768,-0.823171,1.79878,10.1524
735.809,73.4714,48.5298,0,9.38608,3.42248,-3.4632,-24.0244,-17.378,-50.7927,-5.74326,0.536484,9.68067,-1.55488,3.23171,10.1524
735.819,72.8744,48.9414,0,9.28789,3.47038,-3.45362,-23.1707,-19.2378,-52.8354,-5.69057,0.534089,9.43877,-2.5,5.15244,10.3963
735.829,72.2741,49.3535,0,9.25436,3.47517,-3.59732,-21.9512,-19.2073,-54.2073,-5.64746,0.57241,9.54176,-3.65854,7.2561,9.96951
735.839,71.6697,49.7617,0,9.17292,3.50631,-3.39614,-20.9756,-20.8841,-55.1524,-5.59477,0.55325,9.57529,-4.29878,8.59756,10.4268
735.849,71.0561,50.1171,0,9.03162,3.49912,-3.33626,-21.4939,-22.4695,-56.7988,-5.53729,0.538879,9.14179,-5.7622,11.8902,10.0305
735.859,70.4396,50.4492,0,8.96695,3.48715,-3.80569,-21.0061,-21.2805,-58.2012,-5.51094,0.55804,9.01964,-7.22561,14.4512,9.60366
735.869,69.8054,50.7816,0,8.96935,3.6548,-3.49194,-19.3598,-25.4573,-59.3902,-5.51333,0.546064,9.14658,-7.65244,15.4268,9.60366
735.879,69.15,51.0549,0,8.93103,3.87275,-3.4129,-20.061,-25.5183,-60.2439,-5.57082,0.469424,8.83523,-7.43902,17.1951,9.32927
735.889,68.4686,51.3023,0,8.7035,4.03082,-3.35542,-19.3293,-27.8963,-61.372,-5.65225,0.373623,8.83762,-7.83537,19.2378,9.17683
735.899,67.7796,51.5281,0,8.70111,4.14578,-3.3195,-19.4512,-29.0854,-62.2561,-5.69057,0.253872,8.7993,-8.23171,21.189,8.56707
735.909,67.0741,51.7021,0,8.78254,4.42121,-2.90995,-19.6037,-31.311,-62.8049,-5.68817,0.237107,8.44484,-7.95732,23.1402,9.11585
735.919,66.3866,51.8789,0,8.81846,4.44516,-3.06323,-21.6159,-31.0061,-62.3476,-5.6738,0.217947,8.50471,-8.44512,25.2439,9.32927
735.929,65.7293,52.0345,0,9.02922,4.42121,-3.11592,-23.3537,-25.7317,-62.0122,-5.71452,0.160466,8.45202,-8.9939,25.9146,9.48171
735.939,65.0715,52.1226,0,8.73703,4.45234,-2.89558,-24.5427,-24.9085,-61.5549,-5.72889,0.136516,8.00176,-9.20732,28.2622,10.061
735.949,64.427,52.1965,0,8.60052,4.43079,-3.30273,-26.0061,-21.8902,-61.0061,-5.74565,0.114961,7.94907,-9.78659,30.7622,10.2439
735.959,63.7924,52.2707,0,8.4616,4.41642,-3.15903,-25.7622,-22.9573,-60.7012,-5.76721,0.141306,8.00416,-10.2134,31.5244,10.122
735.969,63.1718,52.2898,0,8.37778,4.45474,-3.14466,-25.7927,-26.189,-59.6646,-5.78876,0.141306,7.65927,-10.6098,33.4756,9.7561
735.979,62.5547,52.2742,0,8.15025,4.50982,-3.20454,-26.25,-26.5854,-58.628,-5.8678,0.0862207,7.52994,-10.5793,35.7622,9.42073
735.989,61.9441,52.243,0,8.10235,4.6176,-3.30034,-27.2256,-25.4268,-57.7439,-5.87498,0.0263452,7.43175,-9.93902,37.439,8.47561
735.999,61.3386,52.1769,0,7.95865,4.64873,-3.08239,-27.9878,-26.4634,-57.2256,-5.9133,-0.102986,7.24254,-9.66463,39.6646,7.5
736.009,60.7303,52.1431,0,7.75747,4.79243,-3.23807,-28.2622,-26.8293,-55.8537,-5.90133,-0.184417,7.42696,-9.14634,41.4939,6.79878
736.019,60.1174,52.0924,0,7.53713,4.87147,-3.2692,-28.1402,-26.4024,-55.1829,-5.88456,-0.215552,7.28565,-8.96341,42.622,5.51829
736.029,59.4969,51.9864,0,7.4533,5.099,-3.05125,-29.6037,-27.2256,-54.1463,-5.88217,-0.256267,6.92161,-8.75,45.3049,5.03049
736.039,58.8814,51.9084,0,7.35032,5.16366,-3.31231,-31.8598,-26.4939,-53.4451,-5.87977,-0.263452,7.0701,-8.5061,47.6829,4.84756
736.049,58.2679,51.8312,0,7.24733,5.26186,-3.34105,-32.8354,-27.2866,-52.6829,-5.93007,-0.258662,7.118,-8.75,48.9634,4.5122
736.059,57.6852,51.7055,0,7.45091,5.32652,-3.41769,-33.4146,-27.5305,-51.6463,-5.97797,-0.318538,6.85455,-9.08537,50.6402,3.87195
736.069,57.1277,51.5061,0,7.41259,5.28102,-3.38656,-33.0183,-30.6402,-50.4573,-6.07137,-0.285007,6.49529,-8.47561,52.9878,3.35366
736.079,56.6014,51.3343,0,7.6473,5.33371,-3.32429,-32.1646,-29.5732,-49.5732,-6.16718,-0.323328,6.71563,-7.86585,54.7866,3.07927
736.089,56.0803,51.1193,0,7.56587,5.36245,-3.40572,-32.9878,-27.1646,-49.2378,-6.27016,-0.347278,6.53361,-7.0122,55.2744,2.43902
736.099,55.5626,50.8718,0,7.57545,5.42951,-3.45362,-32.5305,-23.628,-49.3293,-6.37554,-0.399968,6.40907,-6.40244,56.9207,2.0122
736.109,55.0313,50.6189,0,7.49641,5.57561,-3.47517,-32.378,-21.5244,-49.7256,-6.47134,-0.404758,6.42105,-5.79268,58.4146,1.28049
736.119,54.4683,50.3349,0,7.20422,5.66901,-3.4129,-34.5732,-19.0244,-50.8537,-6.58151,-0.459844,6.2989,-5.67073,59.9085,0.609756
736.129,53.8822,50.0289,0,6.98388,5.59716,-3.57816,-36.1585,-14.4207,-53.3232,-6.67731,-0.459844,6.20789,-5.21341,61.9207,0.701219
736.139,53.2992,49.7065,0,7.06531,5.60674,-3.6548,-35.4573,-11.189,-54.7561,-6.75156,-0.474214,6.12167,-4.66463,63.0183,0.243902
736.149,52.7175,49.3473,0,7.18266,5.71212,-3.49912,-35.9756,-11.7988,-55.7012,-6.78749,-0.450264,5.89175,-4.39024,65.2134,0.335366
736.159,52.1435,49.012,0,7.08447,5.6283,-3.50391,-36.4939,-10.1829,-56.1585,-6.80904,-0.428708,5.9636,-4.39024,67.3476,0.213415
736.169,51.5532,48.6581,0,6.99585,5.71691,-3.35303,-36.8293,-8.81098,-57.378,-6.86892,-0.435894,5.84864,-4.57317,68.2927,0.518293
736.179,50.9589,48.2507,0,6.81623,5.64746,-3.36021,-36.4634,-8.93293,-58.2012,-6.95274,-0.397573,5.57321,-4.63415,69.4512,0.396341
736.189,50.3493,47.8432,0,6.68689,5.6738,-3.43685,-35.6098,-8.87195,-59.6037,-7.00543,-0.385598,5.53489,-4.35976,71.0671,0.426829
736.199,49.6942,47.4039,0,6.40668,5.84624,-3.32908,-35.122,-7.07317,-61.2805,-7.11081,-0.385598,5.37921,-3.78049,72.0732,0.914634
736.209,49.0164,46.9283,0,6.35399,6.07616,-3.18298,-35.7927,-8.23171,-62.1951,-7.19703,-0.421523,5.18282,-3.59756,73.8719,0.548781
736.219,48.2911,46.4807,0,6.22466,6.53601,-3.25483,-36.5854,-6.61585,-62.9573,-7.18985,-0.423918,5.22354,-3.23171,75.3354,0.701219
736.229,47.6022,46.0114,0,6.43063,6.56475,-3.36979,-36.4634,-9.32927,-62.378,-7.29762,-0.493374,5.11097,-2.89634,76.1281,0.97561
736.239,46.9341,45.544,0,6.56475,6.70605,-3.39374,-36.2195,-7.40854,-61.6159,-7.41738,-0.570015,5.11576,-2.7439,77.9878,0.853659
736.249,46.2816,45.0548,0,6.52403,6.67013,-3.29794,-36.4329,-6.46341,-61.3415,-7.48923,-0.637075,4.97206,-3.10976,78.6585,0.670732
736.259,45.6416,44.516,0,6.57193,6.65815,-3.18538,-35.7622,-4.93902,-61.9207,-7.58024,-0.59157,4.70861,-2.5,80.4268,0.792683
736.269,44.9972,44.0156,0,6.50966,6.75156,-3.08239,-36.2195,-3.07927,-62.3171,-7.6473,-0.543669,4.83075,-2.37805,81.0976,1.15854
736.279,44.3215,43.4916,0,6.16957,6.83778,-3.0776,-36.4939,0.792683,-62.9573,-7.90835,-0.421523,4.78525,-1.82927,79.7561,1.79878
736.289,43.5896,42.8904,0,5.80074,7.12279,-2.90037,-37.439,1.12805,-64.1463,-7.95386,-0.328118,4.35654,-0.609756,80.8232,1.79878
736.299,42.8062,42.3209,0,5.53489,7.44133,-2.84049,-37.5305,-1.31098,-65.7622,-8.21971,-0.328118,4.53856,-0.548781,80.1524,2.40854
736.309,42.0039,41.682,0,5.44148,7.47965,-2.80217,-37.9878,-1.31098,-68.0488,-8.24126,-0.332908,4.12422,-0.121951,80.1524,2.22561
736.319,41.1808,41.0147,0,5.43909,7.75028,-2.58662,-37.5915,-2.37805,-69.8171,-8.28437,-0.340093,3.90388,0.884146,81.0976,2.71341
736.329,40.3629,40.4237,0,5.56603,8.01853,-2.67763,-37.561,1.28049,-70.3659,-8.33467,-0.407153,4.15296,1.25,79.8171,3.01829
736.339,39.5697,39.8632,0,5.69536,8.22929,-2.5986,-37.561,3.53659,-69.3598,-8.33946,-0.368833,4.18649,1.85976,78.4146,3.71951
736.349,38.8199,39.2377,0,5.81511,8.14786,-2.82373,-38.872,8.07927,-68.2317,-8.26282,-0.364043,3.75779,1.89024,78.2622,4.17683
736.359,38.1065,38.5918,0,5.60195,7.68562,-2.4046,-35.8841,6.95122,-67.2256,-8.27958,-0.359253,3.56858,1.98171,78.4756,5
736.369,37.3742,38.0357,0,5.01996,7.58263,-2.07409,-35.4573,8.07927,-65.3354,-8.35622,-0.390388,3.88472,1.31098,77.9573,5.39634
736.379,36.6023,37.3917,0,4.6655,7.81016,-2.46208,-36.7683,9.90854,-65.4573,-8.37778,-0.385598,3.41051,0.884146,76.2805,5.2439
736.389,35.8487,36.7767,0,4.73495,7.76944,-1.89446,-38.5061,4.84756,-66.189,-8.34664,-0.380808,3.4129,-1.40244,76.2805,4.66463
736.399,35.0919,36.1884,0,4.55533,7.80776,-1.81542,-38.7805,-0.792683,-65.8232,-8.34425,-0.433499,3.42009,-3.84146,74.0244,3.90244
736.409,34.3298,35.5033,0,4.426,7.79579,-1.78429,-39.8476,-2.86585,-66.5244,-8.29874,-0.407153,2.89797,-4.14634,73.0183,3.44512
736.419,33.5777,34.7522,0,4.33259,7.96104,-1.67891,-40.7622,-6.28049,-64.9695,-8.2221,-0.416733,2.49801,-2.40854,73.6585,3.2622
736.429,32.909,34.1129,0,4.78525,7.81734,-1.93997,-42.6829,-0.0914634,-63.9329,-8.14546,-0.452659,2.79978,-1.70732,73.0793,3.2622
736.439,32.2578,33.5096,0,4.67029,7.82213,-1.81063,-41.189,-3.81098,-62.2256,-8.11433,-0.445474,2.83091,-1.76829,71.311,3.5061
736.449,31.6282,32.8657,0,4.62478,7.96344,-1.77231,-41.189,-1.67683,-59.939,-8.0329,-0.455054,2.5483,-1.98171,71.2805,4.08537
736.459,31.0229,32.2746,0,4.53856,7.98979,-1.88009,-44.2073,1.28049,-57.622,-8.09996,-0.435894,2.67763,-2.31707,71.0976,4.39024
736.469,30.4729,31.6199,0,4.65352,7.75028,-1.79626,-44.2378,-2.13415,-56.0366,-8.19336,-0.507744,2.36388,-2.77439,71.0976,3.87195
736.479,29.9157,30.9766,0,4.30864,7.67604,-1.38432,-44.2073,-6.46341,-54.4817,-8.29156,-0.469424,2.33514,-3.01829,71.7378,3.01829
736.489,29.4061,30.3677,0,4.44516,7.75028,-1.4418,-42.1951,-5.27439,-51.8293,-8.34425,-0.404758,2.38544,-2.86585,71.0976,2.0122
736.499,28.9117,29.5931,0,4.3278,7.98739,-1.41785,-42.9268,-8.44512,-48.5061,-8.32988,-0.285007,1.64298,-1.98171,71.2195,1.15854
736.509,28.4154,28.9115,0,4.06195,8.01853,-1.34121,-43.5976,-5.85366,-46.4634,-8.38017,-0.220342,1.89446,-1.40244,71.9207,0.945122
736.519,27.8903,28.3914,0,3.77216,8.23887,-1.24541,-44.2378,-6.25,-45.7927,-8.5119,-0.134121,2.45969,-1.82927,68.6585,1.18902
736.529,27.3536,27.698,0,3.54223,8.30353,-1.45378,-45.0915,-7.68293,-45,-8.51669,-0.146096,1.68849,-1.43293,67.3171,1.76829
736.54,26.9239,27.0083,0,4.08111,8.80888,-1.66454,-39.0854,-2.56098,-38.75,-8.59333,-0.244292,1.61185,-1.43293,68.9939,1.7378
736.549,26.4192,26.4169,0,3.47757,9.02922,-0.972378,-42.0122,-14.9085,-39.5427,-8.76098,-0.426313,1.92799,-2.68293,68.3841,1.98171
736.559,25.9907,25.7621,0,3.87514,8.69871,-1.59029,-43.4451,-10.9756,-38.811,-8.86157,-0.493374,1.59748,-3.07927,68.1707,1.34146
736.569,25.5845,25.1547,0,3.95178,8.69392,-1.86333,-41.3415,-13.3841,-38.2927,-9.02204,-0.574805,1.71483,-4.20732,68.2622,0.670732
736.579,25.1453,24.5435,0,3.32429,8.67476,-1.02507,-39.0854,-19.3902,-35.3963,-9.03641,-0.570015,1.60227,-4.60366,67.4695,-0.121951
736.589,24.7796,23.9227,0,3.82006,8.38736,-1.74597,-40.0305,-12.8049,-35.9756,-9.14658,-0.452659,1.48012,-4.78659,65.8232,-0.335366
736.599,24.317,23.3127,0,3.07042,8.09517,-1.14721,-37.9268,-20.0305,-39.0244,-9.137,-0.349673,1.42025,-3.75,63.7195,0.213415
736.609,23.8411,22.7258,0,3.16622,8.25803,-0.936453,-37.6524,-22.8354,-41.7378,-9.09868,-0.344883,1.40827,-2.9878,62.1037,1.21951
736.619,23.1652,22.203,0,2.37107,7.18506,-1.47773,-47.5305,-10.061,-57.5915,-9.06515,-0.299377,1.56874,-2.53049,59.2683,2.40854
736.629,22.7439,21.6835,0,3.71707,8.84002,-1.20709,-24.4512,-15.7927,-42.2561,-9.06036,-0.273032,1.49449,-2.77439,56.9512,3.32317
736.639,22.3528,21.1994,0,3.7506,8.80409,-1.48491,-32.0732,-23.872,-40.5793,-8.94779,-0.246687,1.53521,-4.5122,55.9756,3.96341
736.649,22.0443,20.6087,0,4.00208,8.23168,-1.54958,-31.9207,-12.2561,-38.7805,-8.93582,-0.256267,1.02746,-5.33537,56.0366,3.62805
736.659,21.6785,20.05,0,3.37458,8.04487,-1.0562,-30.7012,-14.3598,-38.7805,-9.01246,-0.280217,1.07057,-6.06707,55.5793,3.44512
736.669,21.2214,19.588,0,2.84768,8.56219,-0.732876,-30.4573,-28.9939,-39.939,-9.10347,-0.249082,1.38432,-7.2561,53.1098,3.01829
736.679,20.8878,19.1388,0,3.6524,8.93821,-1.24302,-27.7134,-9.90854,-36.0976,-9.25196,-0.306563,1.38193,-8.78049,50.3049,2.28659
736.689,20.4408,18.6284,0,2.68721,8.98851,-0.433499,-26.0366,-19.4817,-36.9512,-9.21603,-0.332908,1.04902,-10.4573,49.6646,1.52439
736.699,20.0536,18.0856,0,3.29076,8.87834,-0.893342,-27.622,-8.29268,-39.2988,-9.18011,-0.285007,0.831072,-11.5244,50.5183,1.15854
736.709,19.6074,17.5619,0,2.73272,8.6077,-0.251477,-27.1037,-17.5,-40.5488,-9.15137,-0.234712,0.819097,-12.1646,51.311,1.52439
736.719,19.2312,17.1082,0,3.20693,9.06275,-0.311353,-27.4085,-4.29878,-38.1402,-9.25675,-0.311353,1.02986,-12.4085,49.5122,2.04268
736.729,18.8603,16.6672,0,3.03928,9.32142,-0.548459,-27.8354,-9.57317,-35.4573,-9.3789,-0.476609,1.02028,-12.5305,47.3476,2.80488
736.739,18.4618,16.1555,0,2.71116,8.93582,-0.457449,-26.4024,-2.89634,-36.6159,-9.41003,-0.534089,0.65384,-12.8659,46.7378,3.07927
736.749,18.1012,15.6021,0,3.09916,9.08431,-0.249082,-23.1707,-3.90244,-37.561,-9.48667,-0.56283,0.399968,-12.8049,47.0122,3.56707
736.759,17.7013,15.0581,0,2.77583,9.03641,-0.323328,-23.628,0.518293,-38.7195,-9.53936,-0.617915,0.349673,-12.378,47.5305,4.29878
736.769,17.2784,14.5062,0,2.66087,9.01725,-0.335303,-22.2866,2.31707,-40.5793,-9.60882,-0.58678,0.227527,-12.1341,47.1951,4.72561
736.779,16.8198,13.9451,0,2.27527,9.09868,0.119751,-21.9512,0.0304878,-40.1829,-9.66869,-0.593965,0.0958008,-11.2195,47.0122,4.87805
736.789,16.4168,13.3843,0,2.5004,9.37171,-0.0646655,-20.122,6.37195,-37.2866,-9.68306,-0.548459,0.00239502,-10.3354,46.372,5.39634
736.799,16.0374,12.815,0,2.4549,9.82437,0.203577,-19.0854,7.83537,-33.8415,-9.67348,-0.574805,-0.129331,-9.42073,45.4573,5.82317
736.809,15.645,12.2293,0,2.19623,9.75731,0.249082,-20.2134,9.17683,-33.2012,-9.63037,-0.58199,-0.294587,-8.17073,45.4878,6.12805
736.819,15.2234,11.6417,0,1.81782,10.0184,0.488584,-20.6098,10.3963,-32.0732,-9.60403,-0.58678,-0.399968,-6.85976,45.3659,6.37195
736.829,14.7399,11.091,0,1.30768,10.2531,0.182021,-25.1524,13.1402,-33.1098,-9.62079,-0.651445,-0.342488,-5.70122,45.3049,6.70732
736.839,14.2301,10.5323,0,1.13524,10.4591,0.215552,-28.2012,15.3049,-34.5732,-9.72138,-0.701741,-0.474214,-4.90854,45.4573,7.19512
736.849,13.7201,9.96888,0,1.16877,10.5141,0.301772,-29.0549,11.5854,-35.9451,-9.72378,-0.752036,-0.589175,-4.14634,46.2195,7.19512
736.859,13.2094,9.36888,0,1.20948,10.1477,0.392783,-31.372,9.14634,-37.9878,-9.7118,-0.737666,-0.840652,-3.71951,47.561,7.68293
736.869,12.6743,8.77674,0,1.1065,9.59445,0.407153,-30.2744,5,-41.0671,-9.70462,-0.725691,-0.907712,-2.77439,48.628,8.23171
736.879,12.1481,8.21796,0,1.18074,9.50104,0.421523,-29.0854,3.84146,-42.2866,-9.81479,-0.699346,-0.874182,-2.37805,49.2988,9.14634
736.889,11.631,7.70369,0,1.23104,9.59445,0.270637,-30.7012,4.72561,-42.8963,-9.83635,-0.66821,-0.778381,-1.55488,49.3293,9.72561
736.899,11.0475,7.21556,0,0.718506,9.69504,0.866997,-33.4146,-1.61585,-44.4512,-9.81479,-0.550855,-0.752036,-1.55488,48.7195,10.2134
736.909,10.567,6.75592,0,1.41546,9.60403,0.431104,-35.9146,5.54878,-43.5976,-9.86509,-0.589175,-0.716111,-2.28659,48.4451,10.5793
736.919,10.0983,6.31997,0,1.29092,9.62079,0.845442,-37.561,0.0304878,-41.8598,-9.89862,-0.457449,-0.694556,-2.37805,48.3232,10.5793
736.929,9.6321,5.89679,0,1.22146,9.35974,0.61073,-38.4451,6.46341,-42.1341,-9.89143,-0.464634,-0.713716,-2.28659,48.3537,10.2744
736.939,9.15907,5.50191,0,1.06099,9.15376,1.1065,-35.7012,7.13415,-42.1037,-9.96089,-0.445474,-0.66821,-2.62195,47.9268,10
736.949,8.78553,5.1324,0,1.48731,9.137,0.819097,-32.6524,10.4878,-38.2927,-10.0495,-0.474214,-0.632285,-2.65244,46.25,9.54268
736.959,8.46434,4.76696,0,1.59508,8.91426,0.519719,-28.0183,14.1768,-35.5488,-10.0758,-0.474214,-0.682581,-1.92073,44.5427,8.84146
736.969,8.19064,4.39944,0,1.60706,8.92145,0.160466,-20.4878,12.8963,-31.4939,-10.1405,-0.498164,-0.764011,-0.762195,41.4329,8.07927
736.979,7.95243,4.03691,0,1.63101,9.04838,-0.239502,-13.2927,15.2134,-28.4451,-10.2698,-0.6251,-0.819097,0.823171,39.4512,7.43902
736.989,7.73507,3.67503,0,1.50886,9.39327,-0.170046,-8.75,14.1159,-24.5732,-10.3824,-0.749641,-0.893342,2.89634,37.1037,6.46341
736.999,7.47594,3.31757,0,0.878972,9.3765,0.186812,-5.79268,8.38415,-21.5854,-10.38,-0.764011,-0.941243,4.87805,34.4512,5.88415
737.009,7.25602,2.94403,0,0.914897,9.5226,0.179626,-3.75,4.90854,-18.3841,-10.3752,-0.787961,-1.08255,6.64634,32.0427,5.60976
737.019,7.0698,2.5521,0,0.864602,9.74294,0.263452,-3.62805,-6.4939,-14.5427,-10.3609,-0.890947,-1.23583,8.29268,30.5183,5.64024
737.029,6.90559,2.16155,0,0.716111,9.91059,0.541274,-3.5061,-12.0427,-10.7622,-10.2842,-0.874182,-1.29331,9.14634,28.7805,6.12805
737.039,6.77644,1.76589,0,0.737666,9.86988,0.58678,-2.46951,-19.2683,-7.80488,-10.1884,-0.689766,-1.37714,8.71951,26.7073,6.67683
737.049,6.69641,1.37052,0,0.917292,9.86269,0.993933,-1.15854,-21.8902,-5.15244,-10.186,-0.474214,-1.44899,8.38415,24.6341,7.95732
737.059,6.61702,0.963771,0,0.785566,9.9561,1.14721,-1.25,-22.8963,-3.41463,-10.1477,-0.273032,-1.56874,6.95122,22.8659,9.14634
737.069,6.54717,0.584518,0,0.814307,10.0279,1.13763,-2.04268,-20.061,-2.71341,-10.1764,-0.0910107,-1.52323,5.21341,20.2744,10.2134
737.079,6.48138,0.218784,0,0.871787,9.98244,1.46336,-2.0122,-20.3963,-3.38415,-10.1621,0.0431104,-1.53042,3.17073,17.5305,10.7317
737.089,6.45226,-0.1479,0,1.18553,9.89383,1.31966,-2.10366,-13.1402,-3.71951,-10.2148,0.110171,-1.61185,1.37195,14.9085,10.9146
737.099,6.40842,-0.514556,0,1.09931,9.73815,1.26697,-1.03659,-4.90854,-4.45122,-10.2172,0.100591,-1.6813,-0.0609756,12.561,10.5183
737.109,6.33888,-0.872047,0,0.922083,9.76689,1.4418,-0.487805,2.56098,-5,-10.1285,0.0574805,-1.69328,-0.731707,10.2744,10.122
737.119,6.24047,-1.20554,0,0.749641,9.61361,1.33403,0.0304878,8.04878,-6.18902,-10.0735,-0.0311353,-1.64059,-0.853659,8.07927,10.2744
737.129,6.11109,-1.53616,0,0.526904,9.55852,1.06578,0.335366,12.8049,-6.89024,-10.0184,-0.105381,-1.67651,-0.609756,6.18902,10.4268
737.139,5.92561,-1.85975,0,0.0455054,9.65432,1.21427,0.548781,12.3476,-6.98171,-9.99202,-0.210762,-1.6813,-0.396341,4.45122,10.7927
737.149,5.73433,-2.18293,0,-0.0574805,9.75491,1.32445,-1.0061,9.14634,-6.70732,-9.99442,-0.308958,-1.69567,-0.640244,3.38415,10.9146
737.159,5.53573,-2.54335,0,-0.191602,9.78126,1.24541,-0.853659,2.9878,-6.21951,-9.97047,-0.342488,-1.75555,-0.152439,2.16463,10.8537
737.169,5.36534,-2.97482,0,-0.0526904,9.85072,1.22386,-2.40854,-1.61585,-5.36585,-9.91059,-0.316143,-1.75794,0.396341,1.21951,10.7927
737.179,5.23379,-3.54362,0,0.182021,9.81,1.02507,-2.62195,-4.93902,-4.45122,-9.91538,-0.292192,-1.79147,0.914634,0.426829,11.0366
737.189,5.13802,-4.03732,0,0.397573,9.73815,0.960403,-3.32317,-6.15854,-3.5061,-9.91299,-0.344883,-1.76992,1.43293,-0.518293,10.4573
737.199,5.08131,-4.35411,0,0.65863,9.66151,0.831072,-2.86585,-7.65244,-2.9878,-9.91778,-0.376018,-1.79387,1.46341,-1.64634,10.061
737.209,5.03671,-4.61721,0,0.706531,9.74294,0.905317,-2.56098,-8.32317,-2.2561,-9.9058,-0.344883,-1.72441,1.46341,-2.0122,9.54268
737.219,5.01439,-4.85931,0,0.847837,9.73815,0.905317,-2.10366,-7.16463,-2.13415,-9.85311,-0.275427,-1.76752,1.46341,-2.7439,9.11585
737.229,5.02183,-5.1187,0,1.03704,9.94652,1.06099,-2.13415,-5.57927,-1.70732,-9.80281,-0.232317,-1.81063,0.731707,-2.28659,8.41463
737.239,5.01979,-5.38705,0,1.01309,9.87946,1.02746,-2.04268,-2.59146,-2.22561,-9.78126,-0.160466,-1.91602,0.27439,-2.5,7.9878
737.249,5.00821,-5.67349,0,0.960403,9.95131,0.893342,-2.37805,1.4939,-2.34756,-9.7118,-0.0934058,-1.95194,-0.243902,-2.13415,8.14024
737.259,4.97589,-5.95595,0,0.847837,9.93215,0.991538,-2.37805,2.37805,-3.01829,-9.71899,-0.0838257,-1.94236,-0.701219,-1.89024,8.01829
737.269,4.91965,-6.27302,0,0.670605,9.83635,0.821492,-2.22561,3.59756,-3.41463,-9.82916,-0.0694556,-2.04295,-1.09756,-1.40244,8.01829
737.279,4.85817,-6.54001,0,0.61073,9.7621,0.773591,-2.0122,3.29268,-3.35366,-9.88904,-0.119751,-1.9735,-1.52439,-1.46341,7.77439
737.289,4.81308,-6.77008,0,0.744851,9.7621,0.749641,-1.7378,2.28659,-3.53659,-9.90341,-0.117356,-1.93039,-1.82927,-1.61585,7.40854
737.299,4.7825,-6.95923,0,0.828677,9.77168,0.804727,-2.04268,2.46951,-3.20122,-9.89383,-0.165256,-1.85854,-2.19512,-1.85976,6.98171
737.309,4.76858,-7.13278,0,0.910107,9.7142,0.749641,-1.43293,2.89634,-2.7439,-9.77407,-0.208367,-1.78908,-2.5,-1.79878,6.7378
737.319,4.76768,-7.29232,0,0.967588,9.6663,0.696951,-0.97561,3.20122,-2.40854,-9.70701,-0.277822,-1.78668,-3.07927,-2.10366,6.55488
737.329,4.77801,-7.43334,0,0.977168,9.72617,0.828677,-0.579268,4.02439,-1.67683,-9.64714,-0.304167,-1.72441,-3.59756,-2.04268,6.52439
737.339,4.76776,-7.57949,0,0.828677,9.70941,0.866997,0.182927,3.81098,-1.37195,-9.61361,-0.320933,-1.75794,-3.75,-2.04268,6.34146
737.349,4.74591,-7.76155,0,0.749641,9.76449,0.907712,0.426829,3.87195,-0.792683,-9.63277,-0.316143,-1.84896,-4.14634,-1.58537,6.09756
737.359,4.71411,-7.97469,0,0.708926,9.79563,0.898132,0.335366,4.05488,-0.335366,-9.66151,-0.287402,-1.8753,-4.05488,-1.03659,5.82317
737.369,4.6716,-8.23361,0,0.675395,9.77647,0.883762,-0.335366,3.68902,0.0609756,-9.69504,-0.282612,-1.93278,-4.2378,-0.609756,5.2439
737.379,4.65138,-8.56223,0,0.737666,9.77647,0.866997,-0.365854,3.47561,-0.426829,-9.7142,-0.237107,-2.07888,-3.87195,-0.396341,4.66463
737.389,4.62827,-8.8728,0,0.725691,9.72617,0.775986,0.701219,3.41463,-0.0609756,-9.76689,-0.232317,-2.11001,-3.32317,-0.335366,4.7561
737.399,4.58538,-9.11554,0,0.641865,9.84593,0.752036,0.365854,3.53659,-0.487805,-9.83156,-0.263452,-2.09564,-2.9878,-0.487805,4.60366
737.409,4.51083,-9.41705,0,0.500559,9.89383,0.922083,0.670732,3.65854,-0.487805,-9.84593,-0.304167,-2.15552,-2.68293,0.0914634,4.48171
737.419,4.4447,-9.64265,0,0.483794,9.90101,0.874182,-0.0304878,2.56098,-0.97561,-9.86269,-0.354463,-2.1148,-2.65244,0.27439,4.32927
737.429,4.39235,-9.80829,0,0.538879,9.81479,0.886157,0.243902,1.92073,-1.21951,-9.88425,-0.368833,-2.03816,-2.5,0.304878,4.63415
737.439,4.36024,-9.98468,0,0.641865,9.82197,0.814307,-0.0304878,2.34756,-1.21951,-9.83156,-0.347278,-2.04056,-2.95732,0.152439,4.60366
737.449,4.33748,-10.1576,0,0.694556,9.74773,0.843047,0.792683,2.04268,-1.4939,-9.82437,-0.332908,-2.05732,-2.59146,0.121951,4.87805
737.459,4.33448,-10.3381,0,0.764011,9.79084,0.886157,0.731707,1.4939,-0.792683,-9.77168,-0.352068,-2.06451,-2.53049,0.0304878,5.15244
737.469,4.34396,-10.431,0,0.795146,9.76449,0.819097,0.853659,2.37805,-0.487805,-9.77647,-0.311353,-1.99026,-2.28659,-0.487805,4.87805
737.479,4.34391,-10.5647,0,0.747246,9.87706,0.831072,0.579268,1.67683,0.0914634,-9.7621,-0.304167,-2.09564,-1.61585,-0.487805,4.7561
737.489,4.337,-10.6883,0,0.704136,9.87946,0.814307,0.487805,1.25,0.457317,-9.80521,-0.328118,-2.05253,-1.79878,-0.0609756,4.45122
737.499,4.34998,-10.7961,0,0.780776,9.79803,0.922083,0.487805,0.548781,0.182927,-9.77168,-0.285007,-2.03816,-1.31098,-0.0914634,4.14634
737.509,4.37424,-10.9031,0,0.821492,9.79563,0.910107,0.243902,1.21951,0.243902,-9.74533,-0.325723,-2.0693,-1.37195,-0.27439,3.71951
737.519,4.41032,-11.0196,0,0.855022,9.76449,0.917292,0.823171,1.55488,0.0609756,-9.68306,-0.328118,-2.11001,-1.34146,0.457317,3.87195
737.529,4.41085,-11.1027,0,0.756826,9.82677,0.864602,1.06707,2.34756,0.0914634,-9.69025,-0.318538,-2.10043,-1.15854,0.884146,3.78049
737.539,4.37147,-11.1403,0,0.632285,9.84593,0.766406,1.0061,2.92683,-0.152439,-9.70462,-0.325723,-2.01661,-1.09756,1.31098,4.42073
737.549,4.31964,-11.1901,0,0.56762,9.87467,0.845442,0.884146,2.80488,-0.365854,-9.7142,-0.308958,-2.07169,-1.18902,1.4939,4.63415
737.559,4.28591,-11.2287,0,0.63468,9.88425,0.898132,0.243902,1.15854,-0.152439,-9.74773,-0.342488,-2.05732,-1.55488,1.64634,4.7561
737.569,4.2785,-11.2754,0,0.711321,9.75731,0.802332,0.548781,-0.182927,-0.0914634,-9.77647,-0.301772,-2.09804,-1.4939,1.61585,4.7561
737.579,4.28867,-11.3329,0,0.756826,9.81,0.922083,0.762195,-0.121951,0.457317,-9.78605,-0.280217,-2.13396,-1.67683,1.37195,4.81707
737.589,4.30282,-11.3741,0,0.778381,9.81958,0.914897,0.762195,-0.0914634,0.213415,-9.77886,-0.253872,-2.10043,-1.18902,1.67683,5.2439
737.599,4.31593,-11.4341,0,0.775986,9.82677,0.924478,1.06707,0.945122,0.365854,-9.74533,-0.270637,-2.17707,-0.762195,1.95122,5
737.609,4.3139,-11.4772,0,0.730481,9.80042,0.912502,1.12805,1.18902,0.0914634,-9.70701,-0.308958,-2.12199,-0.548781,2.16463,5.36585
737.619,4.3091,-11.5233,0,0.699346,9.82916,0.910107,1.31098,1.4939,0.548781,-9.74054,-0.352068,-2.14594,-0.579268,2.04268,4.96951
737.629,4.28652,-11.5638,0,0.64426,9.79084,0.910107,1.4939,1.06707,0.335366,-9.73096,-0.385598,-2.13875,-0.457317,2.37805,4.96951
737.639,4.2911,-11.5957,0,0.716111,9.81,0.914897,1.40244,-0.182927,0.884146,-9.73096,-0.416733,-2.1148,-0.243902,2.53049,5.15244
737.649,4.30591,-11.6346,0,0.759221,9.81958,0.958008,1.06707,-1.09756,1.09756,-9.74294,-0.359253,-2.14594,0.426829,2.2561,5.18293
737.659,4.31842,-11.6733,0,0.740061,9.82197,0.871787,1.15854,-1.18902,1.28049,-9.74533,-0.390388,-2.15552,0.579268,2.40854,5.42683
737.669,4.31721,-11.6917,0,0.65384,9.88185,0.838257,1.46341,-1.06707,1.43293,-9.7621,-0.416733,-2.08846,0.396341,2.59146,5.82317
737.679,4.31988,-11.731,0,0.696951,9.90101,0.840652,1.37195,-0.823171,1.18902,-9.77168,-0.428708,-2.17468,0.365854,2.40854,5.82317
737.689,4.30665,-11.7607,0,0.6251,9.87946,0.912502,1.25,-0.97561,1.0061,-9.76689,-0.371228,-2.14354,0.762195,2.46951,5.94512
737.699,4.3031,-11.8022,0,0.684976,9.92017,0.878972,0.762195,-0.518293,0.884146,-9.77886,-0.325723,-2.18665,0.365854,1.95122,6.40244
737.709,4.30299,-11.8382,0,0.701741,9.87467,0.835862,0.335366,-0.365854,0.853659,-9.75731,-0.299377,-2.17228,0.304878,2.10366,6.58537
737.719,4.30201,-11.8751,0,0.670605,9.77168,0.807122,0.457317,-0.396341,1.15854,-9.79803,-0.328118,-2.17947,0.579268,1.61585,6.64634
737.729,4.29755,-11.894,0,0.62031,9.79803,0.799937,1.43293,-1.12805,1.52439,-9.81479,-0.366438,-2.11959,0.701219,1.12805,6.58537
737.739,4.28743,-11.9307,0,0.62031,9.87227,0.850232,0.579268,-1.40244,1.18902,-9.79803,-0.347278,-2.1627,0.731707,0.853659,6.28049
737.749,4.27756,-11.9806,0,0.627495,9.81,0.816702,0.97561,-1.4939,1.09756,-9.74533,-0.352068,-2.15552,0.914634,0.213415,6.15854
737.759,4.27532,-12.0506,0,0.656235,9.8124,0.821492,1.06707,-2.16463,1.21951,-9.75731,-0.438289,-2.22976,0.823171,0.487805,6.31098
737.769,4.28171,-12.0765,0,0.687371,9.82437,0.807122,0.792683,-2.34756,1.46341,-9.77647,-0.385598,-2.14833,1.15854,0.579268,6.0061
737.779,4.29733,-12.0971,0,0.737666,9.74294,0.826282,0.579268,-3.41463,1.46341,-9.8124,-0.433499,-2.14833,1.43293,0.548781,5.94512
737.789,4.31717,-12.1332,0,0.752036,9.7597,0.826282,0.762195,-3.56707,1.7378,-9.77886,-0.440684,-2.16031,1.61585,0.0304878,6.21951
737.799,4.34848,-12.1399,0,0.804727,9.74294,0.764011,0.396341,-3.56707,2.19512,-9.75252,-0.431104,-2.11001,1.55488,-0.213415,6.28049
737.809,4.39049,-12.1491,0,0.864602,9.79084,0.725691,0.243902,-3.84146,2.68293,-9.72857,-0.399968,-2.11241,1.64634,-0.396341,6.15854
737.819,4.42423,-12.1707,0,0.807122,9.84353,0.699346,-0.457317,-3.65854,2.77439,-9.69743,-0.383203,-2.13875,1.98171,-0.640244,6.37195
737.829,4.45508,-12.2258,0,0.761616,9.89383,0.799937,-1.0061,-5.64024,3.20122,-9.75012,-0.383203,-2.23216,1.85976,-0.548781,6.03659
737.839,4.49395,-12.2924,0,0.847837,9.84593,0.701741,-0.609756,-5.09146,2.92683,-9.75731,-0.392783,-2.24413,1.98171,-0.182927,5.97561
737.849,4.52986,-12.3226,0,0.862207,9.88425,0.773591,-0.579268,-5.21341,2.53049,-9.79323,-0.361648,-2.19384,1.92073,-0.182927,5.30488
737.859,4.55389,-12.3563,0,0.807122,9.87227,0.766406,-0.457317,-4.48171,2.10366,-9.78126,-0.354463,-2.19623,1.95122,0,5.21341
737.869,4.58649,-12.3964,0,0.893342,9.82677,0.756826,-0.304878,-3.23171,1.4939,-9.76928,-0.352068,-2.22497,2.04268,0.335366,5.21341
737.879,4.60548,-12.4175,0,0.819097,9.81479,0.780776,-0.457317,-3.75,1.40244,-9.7621,-0.356858,-2.18905,1.76829,0.304878,5.70122
737.889,4.62261,-12.4366,0,0.804727,9.83395,0.737666,-0.640244,-2.28659,1.55488,-9.74773,-0.368833,-2.18665,1.58537,0.365854,5.51829
737.899,4.64118,-12.429,0,0.826282,9.83635,0.749641,-0.792683,-2.7439,1.37195,-9.69743,-0.409548,-2.12438,1.64634,0.182927,5.57927
737.909,4.66178,-12.468,0,0.843047,9.80042,0.768801,-0.762195,-1.95122,1.25,-9.71899,-0.407153,-2.20821,1.43293,0,6.0061
737.919,4.68258,-12.4706,0,0.835862,9.77168,0.780776,-0.914634,-2.68293,1.46341,-9.6639,-0.433499,-2.14115,1.12805,-0.0304878,5.82317
737.929,4.71085,-12.4867,0,0.888552,9.82197,0.790356,-0.609756,-3.04878,1.4939,-9.69504,-0.421523,-2.17468,1.4939,-0.213415,6.46341
737.939,4.73818,-12.5405,0,0.881367,9.76689,0.747246,-0.823171,-2.86585,1.4939,-9.69025,-0.404758,-2.23934,1.79878,-0.0609756,5.94512
737.949,4.76298,-12.5934,0,0.871787,9.77407,0.752036,-0.640244,-3.23171,1.4939,-9.72138,-0.407153,-2.26329,1.85976,0.182927,6.0061
737.959,4.77726,-12.6299,0,0.809517,9.82437,0.766406,-0.640244,-3.35366,1.61585,-9.77647,-0.371228,-2.25611,2.0122,0.182927,6.18902
737.969,4.79514,-12.693,0,0.838257,9.78844,0.64426,-0.304878,-3.10976,1.4939,-9.77168,-0.397573,-2.32796,1.98171,0.365854,5.67073
737.979,4.80531,-12.7114,0,0.807122,9.76928,0.62031,0.335366,-4.02439,1.28049,-9.80281,-0.376018,-2.24174,2.10366,-0.0304878,5.4878
737.989,4.82892,-12.7066,0,0.881367,9.8124,0.65384,0.457317,-4.60366,1.46341,-9.77886,-0.395178,-2.19623,2.19512,-0.27439,5.60976
737.999,4.859,-12.7014,0,0.924478,9.79803,0.61073,-0.121951,-4.57317,1.40244,-9.78126,-0.361648,-2.19384,2.10366,-0.487805,5.64024
738.009,4.88796,-12.6791,0,0.919688,9.76928,0.706531,0.365854,-5.33537,1.40244,-9.78844,-0.359253,-2.14115,1.79878,-1.09756,5.42683
738.019,4.93208,-12.6695,0,1.01309,9.79323,0.708926,0.213415,-4.69512,1.76829,-9.77407,-0.320933,-2.16989,1.46341,-1.28049,5.27439
738.029,4.96781,-12.663,0,0.979563,9.81,0.778381,0.27439,-4.69512,1.28049,-9.74533,-0.301772,-2.17228,1.03659,-1.21951,5.42683
738.039,5.00487,-12.6797,0,0.993933,9.81,0.740061,0.792683,-3.93293,1.15854,-9.73815,-0.292192,-2.23934,0.945122,-1.18902,5.33537
738.049,5.02794,-12.6858,0,0.922083,9.8124,0.771196,0.487805,-3.10976,1.21951,-9.73815,-0.330513,-2.2106,0.396341,-1.21951,5.18293
738.059,5.05252,-12.6911,0,0.938848,9.87467,0.749641,0.457317,-2.83537,1.31098,-9.74533,-0.361648,-2.213,0.152439,-1.58537,5.12195
738.069,5.07557,-12.7159,0,0.938848,9.87706,0.819097,0,-2.43902,1.18902,-9.75731,-0.371228,-2.27766,0,-1.34146,5.27439
738.079,5.10749,-12.742,0,0.981958,9.80042,0.816702,0,-2.53049,1.25,-9.75491,-0.390388,-2.28964,0,-1.4939,5.54878
738.089,5.14356,-12.7546,0,1.0083,9.78126,0.716111,0.0609756,-1.95122,1.12805,-9.78366,-0.387993,-2.25611,0.0304878,-1.4939,5.45732
738.099,5.1779,-12.7469,0,0.996328,9.74533,0.689766,-0.0914634,-1.06707,1.43293,-9.77647,-0.373623,-2.18665,0.457317,-1.85976,5.70122
738.109,5.20983,-12.7503,0,0.989143,9.75252,0.692161,-0.0304878,-0.823171,1.43293,-9.75731,-0.387993,-2.22258,-0.0914634,-2.31707,5.67073
738.119,5.2408,-12.7442,0,0.989143,9.73815,0.675395,-0.27439,-0.609756,1.34146,-9.7597,-0.368833,-2.18665,-0.121951,-2.43902,5.94512
738.129,5.26484,-12.7496,0,0.948428,9.75012,0.696951,-0.27439,-1.28049,1.55488,-9.69743,-0.280217,-2.21779,0.0914634,-2.83537,5.82317
738.139,5.307,-12.7612,0,1.05381,9.68546,0.752036,-0.97561,-0.823171,1.34146,-9.73815,-0.316143,-2.25611,0.548781,-3.35366,5.7622
738.149,5.36275,-12.7658,0,1.13284,9.65672,0.711321,-0.914634,-0.0914634,1.40244,-9.73096,-0.328118,-2.22737,0.182927,-3.96341,5.4878
738.159,5.42474,-12.7763,0,1.18074,9.64953,0.744851,-1.55488,0.182927,1.52439,-9.7142,-0.313748,-2.25132,0.823171,-4.5122,5.36585
738.169,5.4996,-12.7903,0,1.27415,9.62798,0.814307,-2.34756,1.34146,1.76829,-9.74773,-0.337698,-2.27766,0.853659,-5.09146,5.2439
738.179,5.58336,-12.7608,0,1.31008,9.5202,0.723296,-2.65244,2.92683,1.67683,-9.77168,-0.421523,-2.09085,0.396341,-5.2439,4.63415
738.189,5.69,-12.7276,0,1.51126,9.50823,0.548459,-2.9878,4.81707,2.53049,-9.82916,-0.505349,-2.08127,-0.548781,-5.2439,3.53659
738.199,5.81817,-12.7001,0,1.69328,9.53936,0.58678,-3.5061,6.85976,3.62805,-9.9058,-0.701741,-2.1172,-0.609756,-5.60976,2.0122
738.209,5.96713,-12.7105,0,1.86572,9.74773,0.656235,-4.87805,7.16463,4.81707,-9.80042,-0.735271,-2.2609,-0.304878,-5.85366,0.792683
738.219,6.11386,-12.7422,0,1.78908,9.87227,0.622705,-5.30488,9.20732,6.15854,-9.60882,-0.684976,-2.31359,0.121951,-5.97561,0.609756
738.229,6.21603,-12.8082,0,1.42743,9.8555,0.409548,-4.7561,12.8659,6.06707,-9.46033,-0.59636,-2.43334,0.0304878,-5.70122,0.640244
738.239,6.26126,-12.8845,0,1.08973,9.87706,0.100591,-3.35366,18.0793,4.45122,-9.39087,-0.63468,-2.46208,-0.335366,-4.11585,1.46341
738.249,6.24161,-12.9722,0,0.670605,9.8555,0.0958008,-2.53049,17.3171,3.20122,-9.40524,-0.711321,-2.46927,-1.09756,-2.2561,1.61585
738.259,6.1848,-13.0521,0,0.469424,9.84593,-0.107776,-1.67683,16.6159,2.5,-9.50823,-0.864602,-2.4501,-2.71341,-1.61585,1.40244
738.269,6.09343,-13.1759,0,0.330513,9.96089,-0.136516,-1.40244,13.3537,1.82927,-9.59684,-1.02507,-2.56028,-3.20122,-0.914634,1.0061
738.279,5.9676,-13.3409,0,0.215552,10.0878,-0.0862207,-1.89024,7.16463,1.28049,-9.67109,-1.08255,-2.6441,-3.59756,-0.426829,0.548781
738.289,5.83572,-13.5497,0,0.368833,10.0639,0.0119751,-3.01829,0.548781,0.670732,-9.7142,-1.08255,-2.72314,-3.10976,0.0914634,0.365854
738.299,5.76812,-13.7277,0,0.737666,9.93454,0.114961,-3.87195,-3.53659,0.335366,-9.65193,-1.09452,-2.71835,-3.01829,0.335366,0.670732
738.309,5.76783,-13.8967,0,0.986748,10.0064,0.167651,-5.91463,-5.82317,0.518293,-9.65911,-1.13524,-2.71116,-3.32317,0.213415,1.12805
738.319,5.7747,-14.044,0,1.02267,10.0375,0.301772,-7.53049,-5.91463,0.518293,-9.62798,-1.11608,-2.69679,-3.75,0.304878,1.46341
738.329,5.79319,-14.1465,0,1.08015,10.0591,0.268242,-8.53659,-3.62805,0.579268,-9.6184,-1.07536,-2.58902,-4.54268,-0.0304878,1.64634
738.339,5.84383,-14.2388,0,1.21188,10.0327,0.304167,-9.57317,-0.609756,0.182927,-9.56092,-1.14242,-2.59381,-5.60976,-0.27439,2.0122
738.349,5.89706,-14.2829,0,1.21667,9.96089,0.273032,-9.93902,2.7439,0.213415,-9.63995,-1.25978,-2.53393,-6.70732,-0.182927,1.64634
738.359,5.89991,-14.395,0,1.04183,9.97047,0.256267,-9.87805,4.02439,-0.0609756,-9.59445,-1.30529,-2.64889,-7.22561,-0.0609756,1.37195
738.369,5.85269,-14.4862,0,0.869392,9.94652,0.160466,-8.90244,4.81707,-0.0609756,-9.54894,-1.26218,-2.62734,-7.43902,0.213415,1.61585
738.379,5.78645,-14.5859,0,0.787961,9.95131,0.122146,-8.41463,3.38415,-0.152439,-9.5202,-1.22864,-2.62973,-7.56098,-0.0304878,2.13415
738.389,5.73085,-14.623,0,0.828677,9.87706,0.0502954,-8.41463,1.89024,0,-9.49625,-1.23344,-2.54591,-7.77439,-0.365854,2.31707
738.399,5.72136,-14.6306,0,0.924478,9.72138,-0.222737,-8.32317,0.304878,0.457317,-9.4723,-1.21427,-2.48843,-7.7439,-0.548781,3.35366
738.409,5.7512,-14.5794,0,1.04183,9.65432,-0.407153,-7.92683,-1.46341,1.85976,-9.51541,-1.16398,-2.3567,-7.92683,-0.853659,3.87195
738.419,5.81015,-14.5115,0,1.15919,9.58966,-0.661025,-7.04268,-4.42073,3.53659,-9.54894,-1.14242,-2.27766,-7.83537,-1.37195,4.60366
738.429,5.92198,-14.4374,0,1.38672,9.4244,-0.876577,-5.91463,-7.34756,6.15854,-9.52499,-1.08494,-2.22737,-7.62195,-1.61585,5.12195
738.439,6.09538,-14.3347,0,1.65975,9.14418,-1.01549,-3.5061,-10.9451,8.78049,-9.5226,-0.993933,-2.10522,-7.5,-1.85976,5.57927
738.449,6.34823,-14.2399,0,1.98547,8.91666,-0.986748,0.182927,-16.6159,12.622,-9.45554,-0.953218,-2.09325,-7.62195,-2.0122,6.70732
738.459,6.70521,-14.1329,0,2.45729,8.71787,-1.02746,5.15244,-21.128,17.2561,-9.41243,-0.924478,-2.07169,-7.65244,-1.55488,7.16463
738.469,7.1447,-13.9683,0,2.75188,8.49274,-0.910107,10.3963,-27.9573,21.8902,-9.40045,-0.876577,-2.00942,-7.40854,-0.823171,7.22561
738.479,7.70933,-13.7439,0,3.2716,8.2245,-0.943638,16.0976,-32.1037,27.9268,-9.44356,-0.857417,-1.96152,-8.10976,-0.365854,7.37805
738.489,8.39743,-13.5013,0,3.86077,7.97542,-0.862207,21.7378,-36.8902,33.2317,-9.39806,-0.811912,-1.95194,-8.62805,-0.121951,7.10366
738.499,9.18695,-13.2993,0,4.26313,7.62814,-0.907712,28.9329,-38.7805,38.1098,-9.35734,-0.699346,-1.9232,-8.38415,-0.365854,7.37805
738.509,10.0714,-13.0818,0,4.72298,7.44133,-1.09213,36.128,-33.5366,42.8659,-9.35974,-0.65384,-1.76992,-8.10976,-0.823171,7.62195
738.519,11.0096,-12.8695,0,4.8068,7.29523,-1.12566,42.8049,-27.7439,48.1707,-9.35016,-0.55804,-1.70046,-7.80488,-1.03659,7.9878
738.529,12.0217,-12.6658,0,5.01996,7.23535,-1.17835,48.7195,-17.9878,54.8171,-9.31663,-0.502954,-1.71723,-7.2561,-0.884146,7.7439
738.539,13.0817,-12.4601,0,5.04391,7.47965,-0.747246,52.3476,-11.4329,63.3232,-9.20885,-0.373623,-1.76752,-6.89024,-0.457317,7.5
738.549,14.1756,-12.3965,0,5.0966,7.96104,-0.292192,53.811,-6.15854,71.7378,-9.12263,-0.184417,-1.91123,-6.70732,0.701219,7.2561
738.559,15.2723,-12.3949,0,5.03194,8.76817,0.0694556,54.2073,-2.9878,79.9085,-9.14897,-0.129331,-2.00703,-7.10366,0.914634,6.85976
738.569,16.3605,-12.3788,0,4.89063,9.79803,0.304167,54.1159,-0.426829,88.0793,-9.27831,-0.122146,-2.00942,-7.31707,0.670732,6.52439
738.579,17.4186,-12.4587,0,4.63197,10.7488,0.426313,51.311,-0.396341,93.7805,-9.5681,-0.110171,-2.23934,-6.67683,-0.213415,5.7622
738.589,18.4266,-12.5095,0,4.23918,11.5536,0.361648,49.3902,1.64634,97.2866,-9.91299,-0.0526904,-2.37107,-4.54268,-1.4939,5.91463
738.599,19.3586,-12.5569,0,3.64282,11.9847,0.239502,49.1768,1.76829,98.2012,-10.2842,-0.131726,-2.49801,-2.77439,-2.7439,6.15854
738.609,20.2247,-12.6221,0,3.28357,12.0446,0.0502954,50.6098,1.15854,96.7683,-10.5309,-0.160466,-2.66566,-0.97561,-4.08537,6.70732
738.619,21.018,-12.7204,0,2.91713,11.7955,-0.0862207,52.2561,0.152439,93.8719,-10.6602,-0.0574805,-2.88121,0.0914634,-5.30488,8.87195
738.629,21.7133,-12.8568,0,2.39741,11.3716,-0.150886,54.5122,-1.21951,89.5427,-10.6267,0.100591,-3.08239,0.792683,-4.96951,11.4329
738.639,22.3689,-13.0291,0,2.65368,11.2446,-0.256267,55.8537,-4.26829,84.1159,-10.5884,0.292192,-3.27639,0.762195,-4.20732,13.2927
738.649,22.9952,-13.2365,0,3.05125,10.8375,-0.795146,56.7378,-5.33537,77.4695,-10.4734,0.517324,-3.42967,-0.426829,-2.9878,15.0305
738.659,23.5793,-13.4585,0,3.36021,11.0626,-0.761616,58.7805,-10.8537,72.0427,-10.4782,0.66821,-3.53265,-1.09756,-2.59146,16.0671
738.669,24.1744,-13.6248,0,3.91825,11.4242,-0.773591,58.9634,-11.7988,70.2134,-10.5812,0.740061,-3.35782,-2.04268,-3.47561,16.0671
738.679,24.7548,-13.7562,0,4.02124,11.156,-0.500559,57.8049,-15.2744,68.1098,-10.5836,0.787961,-3.22609,-2.7439,-4.78659,16.5854
738.689,25.3448,-13.8592,0,4.57449,10.9404,-0.493374,58.1707,-10.5488,64.4207,-10.4758,0.792751,-3.08,-3.59756,-6.25,17.5
738.699,25.9025,-13.9634,0,4.65113,10.8686,0,59.2988,-12.561,61.3415,-10.3489,0.706531,-3.07042,-4.5122,-7.2561,18.9939
738.709,26.4201,-14.0424,0,4.74693,10.7009,0.0814307,57.378,0.945122,56.8598,-10.301,0.546064,-2.95306,-5.42683,-7.7439,20.3354
738.719,26.8706,-14.0971,0,4.4715,10.0447,0.172441,54.5427,7.34756,50.9146,-10.1453,0.426313,-2.80696,-5.97561,-8.32317,22.0122
738.729,27.2761,-14.0889,0,4.44037,9.31663,0.0287402,53.9939,21.5244,44.2073,-9.94173,0.469424,-2.46687,-6.82927,-9.42073,23.2622
738.739,27.6684,-14.0771,0,4.6655,8.79212,-0.378413,55.5793,39.2073,38.6585,-9.67827,0.60594,-2.38544,-7.86585,-11.25,24.5732
738.749,28.0327,-14.0454,0,4.63676,8.66518,-0.311353,55.8841,48.5366,36.189,-9.50104,0.718506,-2.25371,-8.84146,-13.2317,25.8232
738.759,28.3704,-14.0363,0,4.50024,8.55262,-0.193997,54.3902,57.1951,35.0305,-9.31902,0.833467,-2.30401,-9.90854,-14.9085,26.128
738.769,28.6988,-14.0333,0,4.45713,8.35143,-0.256267,50.3049,64.0549,34.0854,-9.20406,0.864602,-2.30161,-9.66463,-15.9146,25.6098
738.779,28.9828,-14.0374,0,4.09309,7.92991,-0.479004,47.9573,67.7744,31.8293,-9.12981,0.787961,-2.31359,-9.90854,-16.4329,24.1159
738.789,29.2121,-14.0611,0,3.75779,7.81255,-0.740061,46.0976,66.9207,30.122,-9.03641,0.747246,-2.37346,-9.96951,-16.7683,22.8049
738.799,29.4083,-14.0925,0,3.69312,7.86285,-1.22386,43.9634,68.2012,28.2927,-8.98611,0.684976,-2.39741,-9.29878,-16.6159,20.7927
738.809,29.5844,-14.1287,0,3.69312,7.74789,-1.60227,43.0488,68.0488,25.9756,-8.98132,0.665815,-2.42136,-8.90244,-16.5854,19.6646
738.819,29.6847,-14.172,0,3.30273,7.69999,-1.55197,40.7012,60.7622,23.2317,-8.97414,0.584385,-2.4549,-8.29268,-15.6707,18.4146
738.829,29.7891,-14.2174,0,3.53265,7.60179,-1.72681,39.5427,57.9573,20.3659,-9.05796,0.514929,-2.49322,-8.62805,-14.4207,17.2866
738.839,29.873,-14.2457,0,3.65001,7.57545,-1.60706,40.0915,51.8293,16.8598,-9.25436,0.507744,-2.47885,-9.35976,-12.8354,16.372
738.849,29.9345,-14.2727,0,3.74102,7.78381,-1.35798,39.1768,45.7622,14.8476,-9.41482,0.493374,-2.51956,-10.2439,-10.8841,15.5488
738.859,29.9541,-14.3015,0,3.72426,8.02571,-1.09452,37.7439,36.372,12.2866,-9.55134,0.565225,-2.56746,-11.128,-9.39024,14.4512
738.869,29.9619,-14.3611,0,3.753,7.95625,-1.09452,34.4512,32.4085,10.3963,-9.63516,0.711321,-2.73511,-13.0488,-8.32317,13.2317
738.879,29.9096,-14.4274,0,3.56379,8.00895,-1.17595,32.378,26.7073,6.92073,-9.71659,0.821492,-2.79978,-14.1159,-7.92683,12.3476
738.889,29.7689,-14.4941,0,3.47757,7.91793,-1.21667,30.9146,22.1037,2.80488,-9.76689,0.850232,-2.82852,-15.5183,-7.95732,10.9451
738.899,29.5294,-14.5599,0,3.42488,7.94907,-1.35558,30.4268,18.9634,-2.10366,-9.78126,0.871787,-2.84049,-16.9817,-8.10976,9.63415
738.909,29.3558,-14.6149,0,3.65719,8.0329,-1.19511,28.9634,15.5793,-7.37805,-9.80521,0.819097,-2.80936,-18.4451,-7.9878,8.23171
738.919,29.1592,-14.6603,0,3.76976,8.04248,-1.10889,25.7927,13.4756,-11.4024,-9.74773,0.816702,-2.75906,-19.7866,-8.44512,6.4939
738.929,28.9583,-14.7043,0,3.8967,7.89398,-1.03704,22.7134,13.6585,-14.6037,-9.65672,0.775986,-2.73511,-20.7927,-8.81098,5
738.939,28.7321,-14.7334,0,3.83203,7.67843,-0.862207,19.3598,13.1402,-18.1098,-9.61361,0.838257,-2.66326,-22.1037,-9.14634,3.68902
738.949,28.4408,-14.7554,0,3.97813,8.1742,-0.589175,13.6585,14.4817,-24.0549,-9.5705,0.878972,-2.62494,-23.9634,-9.60366,2.68293
738.959,28.0788,-14.7724,0,3.67396,7.96584,-0.457449,5.54878,13.5671,-29.4207,-9.53457,0.958008,-2.5962,-25.4573,-9.54268,1.28049
738.969,27.6636,-14.7891,0,3.49194,7.72633,-0.617915,4.39024,10.9146,-34.6951,-9.49386,1.09692,-2.58662,-27.2561,-9.69512,0.0304878
738.979,27.1932,-14.8065,0,3.45841,7.71436,-1.01788,4.42073,6.89024,-40.8232,-9.40285,1.14003,-2.56746,-29.1463,-8.90244,-1.43293
738.989,26.7134,-14.8377,0,3.71707,7.73352,-1.35798,2.5,2.37805,-45.8537,-9.33579,1.22625,-2.61297,-30.5183,-8.29268,-2.83537
738.999,26.2652,-14.881,0,3.94699,7.4054,-1.92799,2.31707,-5,-48.4756,-9.27352,1.24302,-2.65368,-31.5549,-7.92683,-3.87195
739.009,25.893,-14.9391,0,4.41642,7.05094,-2.53393,1.82927,-11.8902,-49.8171,-9.24717,1.14961,-2.71835,-31.6159,-7.13415,-5.18293
739.019,25.6317,-14.9724,0,5.11337,6.85934,-2.81175,2.43902,-20.1829,-48.7195,-9.2352,1.04902,-2.61536,-32.0122,-7.07317,-6.70732
739.029,25.3968,-15.0005,0,5.26665,6.68689,-2.94587,7.40854,-28.628,-49.6646,-9.19927,0.895737,-2.58902,-31.9512,-7.19512,-7.62195
739.039,25.1913,-15.0268,0,5.71691,6.79707,-3.01054,12.0732,-30.9756,-50.9146,-9.21125,0.881367,-2.58902,-32.1951,-7.34756,-8.93293
739.049,25.033,-15.0366,0,6.12646,6.89047,-2.64171,13.3841,-32.6524,-49.7256,-9.27112,0.747246,-2.53872,-32.4695,-8.2622,-9.48171
739.059,24.9269,-15.0599,0,6.51206,7.18985,-2.31359,9.32927,-27.2256,-45.7927,-9.34058,0.684976,-2.62015,-32.5915,-8.65854,-10.6402
739.069,24.8827,-15.0819,0,6.6845,7.25451,-2.14115,5.82317,-20.8232,-40.7012,-9.48907,0.598755,-2.66087,-31.8293,-9.84756,-11.8293
739.079,24.9101,-15.0948,0,6.85215,7.20661,-2.3543,5.60976,-12.1037,-35.3049,-9.53457,0.61073,-2.63692,-31.4634,-10.5793,-13.0793
739.089,24.9557,-15.144,0,6.75875,7.35271,-2.38783,7.19512,-6.70732,-31.4329,-9.53457,0.687371,-2.80457,-31.0976,-11.189,-14.3598
739.099,25.0149,-15.221,0,6.77072,7.55389,-2.53633,6.82927,1.52439,-28.4756,-9.48907,0.752036,-2.92671,-31.2195,-10.6098,-15.3354
739.109,25.0451,-15.2634,0,6.44979,7.79818,-2.40939,4.90854,6.52439,-26.6768,-9.60163,0.878972,-2.81654,-31.3415,-11.4329,-16.25
739.119,25.0196,-15.2678,0,6.1073,8.44005,-2.14833,2.68293,12.561,-24.7256,-9.77407,0.934058,-2.69919,-31.7073,-12.8354,-16.6463
739.129,24.8311,-15.2182,0,5.20917,9.9058,-1.32684,-1.37195,13.5671,-24.7866,-10.0663,0.888552,-2.52675,-31.9817,-15,-17.1951
739.139,24.4813,-15.0609,0,4.16254,10.7872,-0.941243,-6.58537,11.5549,-28.0793,-10.4782,0.60115,-2.10043,-31.8293,-18.4146,-17.5
739.149,24.0177,-14.8463,0,3.65001,12.0733,-0.752036,-9.54268,8.75,-31.6768,-10.9931,0.220342,-1.88967,-29.0854,-22.3476,-16.2805
739.159,23.5046,-14.5404,0,3.78413,13.2684,-0.795146,-16.6159,3.65854,-35.8232,-11.6637,-0.191602,-1.48491,-23.5366,-26.8902,-13.1098
739.169,23.1393,-14.1743,0,5.77918,13.6636,-1.23823,-21.6768,-1.4939,-36.0976,-12.5858,-0.917292,-1.2023,-13.8415,-32.9573,-8.96341
739.179,23.1292,-13.854,0,9.05078,12.7104,-1.98547,-20.061,5.45732,-26.1585,-13.2804,-2.0669,-1.45857,-2.95732,-36.7378,-4.72561
739.189,23.4805,-13.5784,0,10.689,10.9572,-3.34105,-1.09756,15.3963,-7.34756,-13.8696,-2.68721,-1.72681,6.31098,-40.7317,-2.80488
739.199,23.9889,-13.3897,0,9.70462,10.38,-3.49673,21.8293,31.4939,11.8902,-13.7594,-3.82485,-2.18186,14.6037,-40.061,-2.31707
739.209,24.3369,-13.2459,0,6.04503,10.883,-1.61903,30.2439,50.6098,25.1829,-12.7822,-3.26441,-2.23934,21.8598,-35.7622,-1.34146
739.219,24.279,-13.1684,0,1.80824,10.9883,0.00239502,19.7561,56.7683,24.6951,-11.2997,-2.41418,-2.28724,26.9817,-31.0976,0.823171
739.229,23.7798,-13.0831,0,-1.28852,10.5596,0.0479004,10.6707,42.378,12.8049,-10.1908,-1.19511,-2.00703,29.6646,-25.6707,5.09146
739.239,22.9349,-12.9382,0,-2.9315,10.3872,-0.172441,4.45122,22.0122,-5.18293,-9.53697,-0.155676,-1.59987,29.6341,-19.939,8.62805
739.249,21.8586,-12.734,0,-3.49433,10.1621,-0.534089,-3.78049,-5.97561,-24.2988,-9.48428,0.560435,-1.31008,26.9512,-17.1951,9.90854
739.259,20.7026,-12.5588,0,-2.87881,9.89622,-0.704136,-11.372,-34.7866,-40.2439,-9.0891,0.0431104,-1.33882,25.9451,-13.7805,9.5122
739.269,19.659,-12.2391,0,-1.23104,9.74533,-1.23104,-15.4878,-50.9451,-49.5427,-9.94412,0.833467,-0.790356,21.8902,-11.8902,6.31098
739.279,18.872,-11.8958,0,0.948428,10.1118,-1.52323,-20.3049,-53.3232,-51.128,-10.3106,0.684976,-0.651445,22.622,-8.9939,1.67683
739.289,18.2827,-11.5569,0,2.47645,10.6171,-1.65735,-27.2256,-54.3598,-48.4146,-10.6099,0.186812,-0.627495,24.9695,-6.12805,-3.38415
739.299,17.8853,-11.1704,0,3.8488,10.313,-2.08846,-34.3293,-44.3293,-45,-10.4279,-0.387993,-0.373623,27.7744,-3.75,-7.7439
739.309,17.6121,-11.0999,0,4.24637,9.06036,-2.57944,-30.4573,-32.1037,-42.622,-9.79563,-1.46815,-1.63101,31.5244,-4.11585,-10.2134
739.319,17.3692,-10.4726,0,4.07632,8.47358,-2.55549,-21.0671,-18.1402,-41.2805,-9.60403,-1.51365,0.0958008,33.9329,-1.79878,-11.4024
739.329,17.0922,-9.60276,0,3.61887,8.35383,-2.44052,-14.5122,-5.27439,-40.6098,-9.06036,-1.85614,0.332908,37.5915,-1.52439,-10.4268
739.339,16.7552,-7.00488,0,3.18298,8.52866,-2.20821,-9.90854,-2.19512,-41.2805,-8.42328,-1.76992,0.546064,37.9878,-0.457317,-8.2622
739.349,16.3494,-4.28698,0,2.79499,8.90468,-1.85614,-10.0305,-0.152439,-42.7744,-8.04727,-1.40588,0.816702,38.1402,-0.762195,-4.78659
739.359,15.8926,-2.66658,0,2.53872,9.12742,-1.4897,-10.7622,1.61585,-44.9695,-8.04727,-0.881367,1.152,36.7073,-1.46341,0.152439
739.369,15.4133,-1.4222,0,2.39981,9.28789,-1.28852,-12.5915,5.73171,-46.0366,-8.22689,-0.359253,1.30768,33.3232,-1.61585,4.66463
739.379,14.9207,-0.511184,0,2.26808,9.40045,-1.13045,-13.2012,8.5061,-46.4939,-8.7035,-0.0335303,1.39151,29.1768,-1.4939,8.41463
739.389,14.4473,0.123361,0,2.27527,9.53457,-1.11847,-14.7866,10.5488,-45.2439,-9.24478,0.158071,1.39151,25.0915,-1.40244,10.7317
739.399,13.95,0.624011,0,1.82261,9.53457,-0.991538,-15.7317,9.02439,-43.3537,-9.70941,0.301772,1.19751,21.25,-0.884146,10.9146
739.409,13.449,1.01909,0,1.43701,9.61121,-0.886157,-16.25,5.36585,-40,-10.1309,0.222737,1.03944,18.9024,-0.396341,9.93902
739.419,12.9445,1.20023,0,1.12087,9.64714,-1.11608,-17.7134,1.92073,-37.561,-10.3082,0.0311353,0.735271,17.1037,0.853659,7.68293
739.429,12.4454,1.2818,0,0.986748,9.54415,-1.27894,-18.3841,-2.04268,-36.5549,-10.2579,-0.158071,0.543669,17.3171,2.2561,4.7561
739.439,11.9464,1.31275,0,0.828677,9.46991,-1.32445,-19.4512,-8.01829,-35.7317,-10.0399,-0.502954,0.361648,18.0488,4.05488,2.80488
739.449,11.4747,1.32319,0,0.881367,9.57529,-1.63101,-21.1585,-10.2134,-34.4817,-9.79563,-0.775986,0.273032,19.7866,4.84756,1.82927
739.459,10.9886,1.30222,0,0.701741,9.29268,-1.88249,-21.2195,-14.5427,-35,-9.63995,-0.962798,0.138911,21.8598,5.4878,1.46341
739.469,10.468,1.25596,0,0.483794,9.44117,-1.93039,-20.8841,-17.2561,-36.6768,-9.61361,-1.16877,0.0287402,23.628,7.07317,1.34146
739.479,9.94438,1.18156,0,0.483794,9.60403,-2.05972,-20.4268,-20.8232,-37.9573,-9.66151,-1.2023,-0.0981958,24.6037,7.86585,1.46341
739.489,9.41146,1.10014,0,0.433499,9.60163,-1.98068,-19.2378,-26.6159,-39.3598,-9.73096,-1.2023,-0.141306,24.939,8.41463,1.64634
739.499,8.90073,0.992135,0,0.579595,9.79803,-1.7292,-18.2317,-32.6524,-39.8171,-9.79563,-1.16158,-0.270637,24.5122,8.90244,1.7378
739.509,8.41637,0.853755,0,0.761616,9.79323,-1.49449,-19.1768,-38.7805,-40.3354,-9.83156,-1.12087,-0.421523,24.6037,9.45122,1.43293
739.519,7.96452,0.705326,0,0.962798,9.58247,-1.4418,-18.9024,-41.25,-40.6402,-9.87946,-1.08734,-0.490979,23.9024,9.90854,1.06707
739.529,7.53234,0.571787,0,1.09213,9.80042,-1.20709,-19.5122,-43.3232,-40.8232,-9.89143,-1.0083,-0.452659,23.0488,9.32927,0.457317
739.539,7.12598,0.46238,0,1.17835,9.79563,-1.36516,-22.8049,-40.1524,-40.0915,-9.83635,-0.850232,-0.368833,21.8902,8.62805,0.487805
739.549,6.72185,0.351355,0,1.16398,9.42201,-1.37474,-24.1768,-38.8415,-41.0671,-9.77407,-0.847837,-0.392783,20.9146,7.40854,0.304878
739.559,6.35111,0.217395,0,1.28852,9.2807,-1.2526,-25.1829,-36.189,-40.2439,-9.63277,-0.814307,-0.502954,20.0305,6.67683,0.0609756
739.569,5.9868,0.104104,0,1.22864,9.22562,-1.66214,-26.2195,-34.4817,-39.6951,-9.51062,-0.740061,-0.431104,19.2683,5.97561,-0.243902
739.579,5.62712,-0.0229876,0,1.14961,9.19687,-1.83698,-24.3902,-34.7561,-39.0244,-9.34297,-0.692161,-0.493374,18.4146,5.12195,-0.213415
739.589,5.34381,-0.182027,0,1.62622,9.11065,-1.82979,-20.5488,-34.1159,-38.0793,-9.22801,-0.66821,-0.632285,17.8963,4.93902,0.121951
739.599,5.02397,-0.348231,0,1.14242,9.19209,-1.29571,-17.9573,-40,-36.189,-9.2352,-0.720901,-0.684976,18.0793,4.78659,0.304878
739.609,4.76793,-0.505733,0,1.50886,9.35495,-1.61664,-16.372,-34.8171,-34.5732,-9.26154,-0.797541,-0.675395,18.3232,4.54268,0.548781
739.619,4.51824,-0.684808,0,1.40827,9.36453,-1.24781,-16.0976,-39.5122,-33.2012,-9.24478,-0.807122,-0.775986,18.3841,4.20732,1.4939
739.629,4.36284,-0.878248,0,1.89207,9.15856,-1.36037,-18.2317,-31.7378,-30.4573,-9.32621,-0.876577,-0.866997,18.9024,4.05488,2.07317
739.639,4.20801,-1.09198,0,1.67651,9.04599,-1.19272,-18.75,-34.2988,-28.3232,-9.32142,-0.962798,-0.986748,19.1463,4.26829,3.07927
739.649,4.05987,-1.30787,0,1.65256,9.15616,-1.31008,-18.6585,-29.0549,-27.4085,-9.31902,-1.08255,-1.03944,19.4512,4.57317,3.14024
739.659,3.88325,-1.51307,0,1.33642,9.40045,-1.35319,-19.1159,-28.2317,-26.25,-9.25675,-1.04423,-1.03225,19.6341,5.03049,3.53659
739.669,3.74191,-1.71037,0,1.55676,9.27352,-1.53281,-19.6341,-23.2317,-25.9451,-9.19687,-0.989143,-1.02986,19.3598,5.30488,4.20732
739.679,3.56508,-1.9128,0,1.3005,9.35734,-1.47533,-19.1768,-26.0366,-26.5549,-9.1825,-0.866997,-1.07776,19.1463,5.09146,5.15244
739.689,3.38004,-2.14934,0,1.32445,9.32142,-1.71723,-17.2561,-20.3049,-28.1098,-9.23999,-0.809517,-1.26457,19.0549,5.64024,5.82317
739.699,3.20513,-2.37145,0,1.41306,9.05317,-1.70286,-15.8537,-17.5305,-29.0549,-9.22562,-0.701741,-1.24781,18.5671,6.67683,6.76829
739.709,3.01146,-2.60551,0,1.28134,8.96695,-1.45378,-14.2988,-20.1524,-29.8171,-9.20646,-0.613125,-1.33163,17.5305,7.0122,7.16463
739.719,2.82632,-2.87344,0,1.36756,9.40285,-1.26457,-12.6524,-18.7805,-29.6341,-9.14658,-0.58199,-1.50168,16.7378,7.80488,7.19512
739.729,2.6235,-3.18767,0,1.18314,9.87467,-1.26218,-14.2073,-19.4817,-28.872,-8.99809,-0.455054,-1.71004,16.4329,8.93293,7.95732
739.739,2.43212,-3.52232,0,1.29571,9.72378,-1.24541,-15.3963,-16.6768,-29.6646,-9.05317,-0.699346,-1.85614,16.0976,10.2134,8.41463
739.749,2.20866,-3.87157,0,1.02986,9.74294,-0.876577,-16.0366,-19.8476,-30.1524,-9.11784,-0.886157,-1.98547,16.128,11.4939,8.62805
739.759,1.96089,-4.24197,0,0.833467,9.82437,-0.981958,-17.8659,-17.622,-30.6707,-9.12502,-0.950823,-2.13396,16.25,12.622,8.9939
739.769,1.70047,-4.64664,0,0.775986,9.78126,-1.14242,-19.4817,-13.75,-31.8293,-9.08191,-0.989143,-2.33035,16.372,14.0549,9.69512
739.779,1.41994,-5.04303,0,0.744851,9.76689,-1.04902,-21.7988,-15.0915,-34.0549,-9.06754,-1.04902,-2.35909,17.1646,14.7866,11.2805
739.789,1.13782,-5.41538,0,0.787961,9.73336,-0.993933,-23.3232,-12.8049,-35.3354,-9.03162,-1.03944,-2.31359,17.5305,15.6707,13.0793
739.799,0.858902,-5.76815,0,0.864602,9.70941,-0.898132,-24.6951,-9.90854,-36.5244,-8.97893,-0.972378,-2.28006,17.6524,15.2439,14.7866
739.809,0.551751,-6.0586,0,0.665815,9.78844,-0.866997,-26.0671,-10.4268,-37.5305,-8.93342,-0.898132,-2.0669,17.1341,15.2744,16.2805
739.819,0.12396,-6.30573,0,-0.0383203,8.71787,-0.450264,-25,-18.6585,-42.0122,-8.99809,-0.869392,-1.94955,16.2195,15.0305,17.1037
739.829,-0.135161,-6.54192,0,1.07536,9.57289,-1.47773,-28.9024,-8.90244,-39.2683,-9.09628,-0.905317,-1.96631,15.2744,14.6341,17.1646
739.839,-0.442422,-6.77661,0,0.526904,9.27831,-0.857417,-28.2622,-19.9695,-38.2622,-9.16574,-0.924478,-2.01421,14.6646,15.0305,16.6768
739.849,-0.682516,-6.98937,0,0.922083,9.0412,-1.28373,-29.3598,-13.0793,-37.2866,-9.21603,-0.831072,-1.9711,13.8415,15.5488,16.372
739.859,-0.922119,-7.22774,0,0.699346,8.85199,-1.45857,-29.8171,-21.128,-35.061,-9.32621,-0.768801,-2.14115,13.4451,15.9146,16.0366
739.869,-1.11684,-7.46447,0,0.864602,8.77775,-1.94955,-30.5488,-13.4146,-33.2317,-9.51062,-0.799937,-2.21779,12.9268,16.0671,15.4878
739.879,-1.331,-7.71885,0,0.507744,8.82325,-1.93518,-29.4817,-19.7866,-30.8537,-9.56571,-0.821492,-2.35191,12.9878,15.122,15.2439
739.889,-1.56909,-8.01845,0,0.0838257,8.92145,-1.88249,-27.9878,-24.939,-28.1098,-9.61121,-0.821492,-2.61297,13.2317,15.2439,14.9085
739.899,-1.76075,-8.38427,0,0.261057,9.06036,-2.16989,-25.8841,-27.7439,-26.128,-9.55134,-0.823887,-2.95306,14.4817,15.3049,14.939
739.909,-2.04275,-8.75231,0,-0.60594,9.14658,-1.36277,-24.0549,-41.0671,-24.6341,-9.53457,-0.924478,-3.02491,16.128,15.3963,15.6402
739.919,-2.2688,-9.11672,0,-0.342488,9.29268,-1.57353,-23.7805,-45.3049,-22.9268,-9.36932,-0.742456,-3.02251,18.4451,15.1829,17.439
739.929,-2.49066,-9.32498,0,-0.517324,9.41961,-1.34361,-25.2439,-56.7378,-20.8537,-9.83635,-1.06578,-2.50998,20.0915,12.2561,18.2622
739.939,-2.59783,-9.36424,0,0.282612,9.53936,-1.61424,-27.7744,-58.5366,-19.4817,-10.1716,-0.981958,-1.84417,20.5183,8.04878,18.689
739.949,-2.6447,-9.28468,0,0.64905,9.62558,-1.39151,-29.878,-64.8171,-17.9573,-10.8925,-0.893342,-1.41067,19.0854,3.35366,16.8598
739.959,-2.67365,-9.04314,0,0.768801,9.77407,-1.23823,-29.0854,-64.0549,-17.5305,-11.817,-0.682581,-0.905317,15.7927,-0.0304878,13.0793
739.969,-2.68218,-8.7534,0,0.950823,9.68067,-1.62143,-25.3659,-58.5976,-17.7744,-12.6625,-0.215552,-0.395178,11.2195,-2.86585,7.56098
739.979,-2.6909,-8.37284,0,0.845442,9.64714,-1.46336,-20.0915,-59.878,-16.5854,-13.3355,0.426313,0.191602,4.26829,-6.61585,2.10366
739.989,-2.63833,-8.00324,0,1.24781,9.63756,-2.17707,-15.4268,-38.811,-15.1829,-13.8049,1.01788,0.217947,-4.35976,-11.311,-2.16463
739.999,-2.69724,-7.69645,0,0.201182,9.86269,-1.60706,-10.7927,-38.9329,-13.7805,-13.7259,1.38672,-0.0790356,-12.5915,-14.939,-4.78659
740.009,-2.67442,-7.4622,0,0.66821,10.4111,-2.02858,-4.29878,-19.9085,-10.6707,-13.1271,1.31966,-0.428708,-20.8232,-18.0793,-6.43293
740.019,-2.63158,-7.30737,0,0.340093,11.2255,-1.61903,3.5061,-17.9878,-4.66463,-12.2793,0.617915,-0.783171,-26.189,-19.5732,-7.37805
