time,angle1,angle2,intgangle,accX1,accY1,accZ1,gyroX1,gyroY1,gyroZ1,accX2,accY2,accZ2,gyroX2,gyroY2,gyroZ2
499.552,73.0328,11.9098,0,9.137,2.74709,2.74469,0,0.487805,-1.25,-9.67348,-0.344883,1.96392,0.182927,2.10366,7.59146
499.562,73.0335,11.8634,0,9.19448,2.7399,2.72314,0.182927,0.304878,-1.12805,-9.67109,-0.359253,1.88009,0.152439,1.92073,7.34756
499.572,73.0369,11.8215,0,9.14897,2.69679,2.71116,0,-0.0609756,-1.31098,-9.65911,-0.376018,1.88728,0.27439,1.85976,7.7439
499.582,73.035,11.7913,0,9.18011,2.72074,2.7399,-0.457317,-0.243902,-1.4939,-9.6639,-0.359253,1.91841,0.548781,1.95122,7.59146
499.592,73.0341,11.7579,0,9.15616,2.72074,2.76146,-0.670732,-0.365854,-1.34146,-9.73096,-0.325723,1.93039,0.792683,1.34146,7.65244
499.602,73.0364,11.722,0,9.14897,2.68961,2.72793,-0.823171,-0.518293,-1.46341,-9.67588,-0.280217,1.89207,0.487805,1.85976,7.65244
499.612,73.0373,11.6904,0,9.17532,2.68242,2.76146,-0.670732,-0.823171,-1.70732,-9.69983,-0.258662,1.90644,0.335366,1.79878,7.59146
499.622,73.0383,11.6579,0,9.137,2.67763,2.6944,-0.884146,-1.46341,-1.64634,-9.70462,-0.234712,1.89925,0.182927,1.76829,7.7439
499.632,73.0462,11.6273,0,9.20885,2.65847,2.68242,-0.731707,-1.70732,-1.58537,-9.68306,-0.232317,1.89207,0.152439,1.95122,7.83537
499.642,73.0501,11.6143,0,9.21364,2.68961,2.63213,-0.426829,-1.25,-1.52439,-9.7142,-0.232317,1.95434,-0.213415,1.95122,7.62195
499.652,73.0491,11.5912,0,9.22801,2.72074,2.67284,-0.579268,-1.15854,-1.55488,-9.69504,-0.215552,1.91362,-0.152439,1.89024,7.80488
499.662,73.0518,11.5544,0,9.22083,2.69919,2.61057,-0.762195,-0.762195,-1.52439,-9.67827,-0.234712,1.86333,-0.243902,1.76829,7.65244
499.672,73.0493,11.5393,0,9.21843,2.73032,2.5962,-1.03659,-0.457317,-1.52439,-9.66869,-0.273032,1.9256,0.182927,1.92073,7.95732
499.682,73.0456,11.5225,0,9.16334,2.72074,2.67524,-1.12805,-0.152439,-1.55488,-9.63995,-0.256267,1.91362,0.304878,1.79878,7.59146
499.692,73.0482,11.4972,0,9.16095,2.72074,2.64171,-0.762195,0.0609756,-1.09756,-9.6639,-0.294587,1.88728,-0.0304878,1.7378,7.71341
499.702,73.0624,11.4618,0,9.18729,2.65129,2.692,-0.487805,0.213415,-1.21951,-9.65672,-0.299377,1.85135,0.396341,1.64634,7.86585
499.712,73.0715,11.4546,0,9.20646,2.67045,2.67284,-0.152439,0.182927,-1.34146,-9.7118,-0.258662,1.94715,0.152439,1.58537,7.80488
499.722,73.0734,11.4601,0,9.18969,2.6944,2.63931,0.0609756,0.243902,-1.4939,-9.72857,-0.225132,1.99026,0.27439,1.52439,7.77439
499.732,73.0779,11.4377,0,9.21603,2.69919,2.62015,0,0.365854,-1.34146,-9.72138,-0.191602,1.90404,-0.0304878,1.34146,7.83537
499.742,73.0837,11.4364,0,9.25196,2.67284,2.64889,0,0.457317,-1.61585,-9.70941,-0.165256,1.96152,0.0914634,1.52439,7.95732
499.752,73.0849,11.4193,0,9.24238,2.69919,2.67763,0.121951,0.792683,-1.61585,-9.67588,-0.102986,1.90404,-0.304878,1.58537,7.92683
499.762,73.0886,11.4067,0,9.24957,2.67284,2.64889,-0.27439,0.792683,-1.7378,-9.68785,-0.186812,1.91602,-0.335366,1.7378,7.40854
499.772,73.0955,11.4147,0,9.23999,2.68482,2.692,0,0.823171,-1.37195,-9.69264,-0.227527,1.98308,-0.121951,1.61585,7.16463
499.782,73.0998,11.3788,0,9.21843,2.70158,2.70158,0.27439,0.731707,-1.28049,-9.69264,-0.251477,1.84417,-0.365854,1.55488,7.28659
499.792,73.1002,11.3799,0,9.18011,2.71116,2.71116,0.27439,1.12805,-1.31098,-9.64474,-0.265847,1.94476,-0.304878,1.12805,7.56098
499.802,73.1068,11.3519,0,9.18969,2.66326,2.69919,0.243902,0.884146,-1.46341,-9.65193,-0.256267,1.85854,-0.762195,1.46341,7.80488
499.812,73.1113,11.3407,0,9.17532,2.68482,2.67763,0.243902,0.914634,-1.31098,-9.62319,-0.275427,1.89925,-0.365854,1.46341,7.95732
499.822,73.1121,11.3298,0,9.15376,2.69679,2.72314,0.579268,0.884146,-1.34146,-9.62319,-0.229922,1.89925,-0.853659,1.34146,8.29268
499.832,73.1087,11.3291,0,9.15856,2.70877,2.76146,0.426829,0.487805,-1.52439,-9.60163,-0.203577,1.9232,-0.670732,1.4939,8.20122
499.842,73.1079,11.3333,0,9.14897,2.68003,2.73751,0.426829,0.182927,-1.64634,-9.60642,-0.208367,1.93757,-0.731707,1.28049,8.07927
499.852,73.1076,11.3325,0,9.14658,2.692,2.73272,0.701219,0.426829,-1.46341,-9.66151,-0.237107,1.93518,-0.579268,1.03659,7.9878
499.862,73.1052,11.3135,0,9.1849,2.692,2.73751,0.335366,0.213415,-1.7378,-9.65432,-0.265847,1.88967,-0.548781,0.823171,8.07927
499.872,73.101,11.2934,0,9.19687,2.69679,2.72553,0.213415,0.304878,-1.85976,-9.70941,-0.311353,1.88967,-0.426829,1.0061,7.80488
499.882,73.0989,11.2723,0,9.21125,2.70158,2.68242,0.121951,0,-1.70732,-9.7621,-0.320933,1.88728,-0.396341,1.25,7.92683
499.892,73.0893,11.2377,0,9.20646,2.72553,2.70398,0.182927,-0.121951,-2.0122,-9.81958,-0.330513,1.84656,-0.182927,1.43293,8.07927
499.902,73.0757,11.213,0,9.19209,2.74709,2.69919,-0.304878,-0.213415,-2.07317,-9.76928,-0.289797,1.86093,-0.0304878,1.58537,8.14024
499.912,73.0713,11.2151,0,9.21364,2.70877,2.69679,-0.579268,-0.304878,-1.85976,-9.7118,-0.263452,1.93278,-0.609756,1.31098,7.68293
499.922,73.0656,11.1848,0,9.21125,2.73511,2.65129,-0.609756,-0.335366,-1.64634,-9.70462,-0.249082,1.83698,-0.396341,1.25,8.14024
499.932,73.0664,11.1504,0,9.20885,2.68242,2.65368,-0.762195,-0.457317,-1.76829,-9.69025,-0.239502,1.81303,-0.365854,1.40244,7.9878
499.942,73.0651,11.1119,0,9.24957,2.70398,2.65608,-0.640244,-0.152439,-1.79878,-9.67588,-0.261057,1.79147,0.0914634,1.43293,7.80488
499.952,73.0727,11.101,0,9.21603,2.66087,2.62734,-0.823171,-0.152439,-1.55488,-9.65672,-0.258662,1.86093,0.0914634,1.89024,7.77439
499.962,73.0714,11.0832,0,9.18729,2.67524,2.67524,-0.914634,0.152439,-1.92073,-9.6663,-0.239502,1.83938,-0.121951,1.7378,7.89634
499.972,73.0716,11.0618,0,9.20646,2.68482,2.69679,-0.792683,0.0609756,-1.76829,-9.63516,-0.237107,1.82261,0.426829,1.52439,7.68293
499.982,73.0761,11.0443,0,9.20166,2.66326,2.68003,-1.06707,0.0914634,-1.67683,-9.616,-0.225132,1.8274,0.243902,1.55488,8.01829
499.992,73.0728,11.0285,0,9.16334,2.68961,2.69679,-0.609756,0.182927,-1.82927,-9.65911,-0.244292,1.83219,-0.0609756,1.95122,7.86585
500.002,73.0754,11.0344,0,9.2352,2.67284,2.70637,-0.853659,0.0609756,-1.79878,-9.67109,-0.220342,1.90644,0.548781,1.82927,8.10976
500.012,73.0742,11.0286,0,9.16813,2.68242,2.71595,-0.762195,-0.152439,-1.76829,-9.68546,-0.222737,1.87051,0.548781,1.85976,7.95732
500.022,73.0689,11.0265,0,9.18969,2.71595,2.72793,-0.518293,-0.152439,-1.76829,-9.66151,-0.184417,1.8777,0.27439,1.58537,8.14024
500.032,73.0635,10.9889,0,9.18011,2.69919,2.68242,-0.426829,-0.0914634,-1.95122,-9.68546,-0.160466,1.76513,0.548781,1.70732,7.86585
500.042,73.0528,10.9611,0,9.14179,2.70637,2.6944,-0.457317,-0.121951,-2.19512,-9.6663,-0.162861,1.78429,0.548781,1.85976,7.80488
500.052,73.0465,10.9474,0,9.15376,2.71116,2.72553,-0.27439,-0.152439,-1.82927,-9.66151,-0.201182,1.8274,0.487805,1.7378,8.04878
500.062,73.0414,10.9267,0,9.15856,2.70877,2.692,-0.365854,-0.121951,-1.79878,-9.68785,-0.177231,1.81542,0.548781,1.25,7.92683
500.072,73.0423,10.9237,0,9.20406,2.70877,2.70158,-0.0304878,0.213415,-1.4939,-9.70462,-0.198787,1.86572,0.670732,1.31098,8.04878
500.082,73.0416,10.9171,0,9.20885,2.70158,2.69919,-0.365854,0.335366,-1.70732,-9.73336,-0.203577,1.85854,0.640244,1.58537,7.86585
500.092,73.043,10.8904,0,9.22801,2.70398,2.6944,-0.396341,-0.121951,-1.58537,-9.69983,-0.184417,1.78668,0.243902,1.58537,8.38415
500.102,73.0408,10.8774,0,9.21843,2.73751,2.66566,-0.396341,0.182927,-1.43293,-9.68546,-0.210762,1.8274,0.609756,1.21951,8.14024
500.112,73.0384,10.8577,0,9.18969,2.71835,2.68721,-0.670732,-0.0304878,-1.58537,-9.70462,-0.165256,1.81303,0.457317,1.03659,8.47561
500.122,73.0445,10.8514,0,9.20646,2.68721,2.67763,-0.457317,0.396341,-1.40244,-9.72138,-0.184417,1.84896,0.0914634,0.97561,8.20122
500.132,73.0365,10.8157,0,9.18011,2.78062,2.67045,-0.365854,-0.0609756,-1.15854,-9.7597,-0.146096,1.7795,0.27439,0.884146,8.32317
500.142,73.0423,10.799,0,9.18011,2.68482,2.70398,-0.701219,0.304878,-1.37195,-9.69983,-0.160466,1.80584,0.335366,1.25,8.5061
500.152,73.0444,10.7738,0,9.18729,2.68003,2.70637,-0.579268,0.0304878,-1.67683,-9.70222,-0.198787,1.78429,0.243902,1.03659,8.35366
500.162,73.0445,10.736,0,9.19448,2.71356,2.72074,-0.243902,0.365854,-1.46341,-9.70701,-0.193997,1.74597,0.457317,1.06707,8.35366
500.172,73.043,10.7152,0,9.19687,2.692,2.69919,-0.304878,0.27439,-1.82927,-9.72378,-0.193997,1.79626,0.335366,0.670732,8.07927
500.182,73.0568,10.6813,0,9.24957,2.65368,2.62734,-0.487805,0.0914634,-1.37195,-9.73096,-0.201182,1.76273,0.487805,0.701219,7.9878
500.192,73.0621,10.663,0,9.22322,2.68721,2.692,-0.243902,0.0609756,-1.46341,-9.70941,-0.150886,1.78908,0.640244,0.731707,7.9878
500.202,73.0618,10.6404,0,9.21364,2.71595,2.66566,-0.365854,0.213415,-1.4939,-9.69504,-0.165256,1.76992,0.579268,0.884146,8.14024
500.212,73.0721,10.6123,0,9.20646,2.63452,2.69919,-0.0914634,0.396341,-1.61585,-9.68785,-0.148491,1.74597,0.518293,1.06707,8.10976
500.222,73.0801,10.5715,0,9.20406,2.64171,2.65368,-0.0304878,0.731707,-1.67683,-9.6639,-0.160466,1.71723,0.518293,0.762195,7.7439
500.232,73.0858,10.5572,0,9.21364,2.65129,2.67763,-0.335366,0.548781,-1.7378,-9.69743,-0.172441,1.77231,0.640244,1.06707,7.83537
500.242,73.0965,10.5331,0,9.21364,2.63692,2.64889,-0.304878,0.518293,-1.55488,-9.72857,-0.184417,1.74836,0.701219,1.06707,8.04878
500.252,73.105,10.5104,0,9.24478,2.6465,2.68961,-0.243902,0.304878,-1.64634,-9.70462,-0.136516,1.73878,0.701219,1.31098,8.04878
500.262,73.1121,10.5149,0,9.20646,2.64889,2.65368,0,0.731707,-1.61585,-9.7142,-0.110171,1.81542,0.487805,1.03659,8.23171
500.272,73.1198,10.4958,0,9.23999,2.62973,2.64171,-0.182927,0.945122,-1.82927,-9.69983,-0.141306,1.74597,0.457317,1.28049,7.9878
500.282,73.1202,10.4854,0,9.20166,2.6441,2.692,0.0304878,0.914634,-2.07317,-9.71659,-0.119751,1.77231,0.457317,1.12805,8.5061
500.292,73.1263,10.4752,0,9.20406,2.62734,2.68721,-0.152439,0.426829,-1.85976,-9.70701,-0.0958008,1.76752,0.426829,1.31098,8.23171
500.302,73.1289,10.4624,0,9.16334,2.61776,2.73751,0.365854,0.396341,-2.07317,-9.7118,-0.0718506,1.76273,0.609756,1.0061,8.07927
500.312,73.1289,10.4597,0,9.17292,2.62015,2.7399,0.579268,-0.0914634,-2.2561,-9.69983,-0.0958008,1.78429,0.365854,1.28049,8.14024
500.322,73.1309,10.4289,0,9.18969,2.62255,2.70158,0.914634,-0.457317,-2.13415,-9.73575,-0.107776,1.70046,0.548781,1.55488,7.83537
500.332,73.1264,10.4154,0,9.19687,2.67045,2.66326,0.945122,-0.548781,-2.13415,-9.72617,-0.0958008,1.75315,0.365854,1.15854,8.07927
500.342,73.1176,10.396,0,9.19209,2.68003,2.67763,0.945122,-0.670732,-2.37805,-9.73096,-0.0766406,1.7316,0.396341,1.34146,7.71341
500.352,73.1069,10.3832,0,9.18729,2.69679,2.6465,0.853659,-0.701219,-2.34756,-9.72138,-0.0598755,1.74597,0.335366,1.40244,8.10976
500.362,73.0994,10.3789,0,9.20646,2.67524,2.65847,0.579268,-0.396341,-2.40854,-9.69743,-0.0838257,1.76513,0.304878,1.34146,7.7439
500.372,73.0998,10.3384,0,9.22083,2.63213,2.67045,0.457317,-0.426829,-2.28659,-9.74533,-0.0646655,1.66454,0.121951,1.34146,7.80488
500.382,73.1024,10.3151,0,9.25915,2.5986,2.67284,0.884146,-0.182927,-2.56098,-9.73575,-0.0526904,1.71004,-0.182927,1.21951,7.80488
500.392,73.0943,10.2982,0,9.24957,2.67284,2.73751,1.03659,-0.152439,-2.62195,-9.72138,-0.0383203,1.71962,-0.152439,1.37195,7.56098
500.402,73.0858,10.2839,0,9.30705,2.70877,2.70158,0.548781,0.243902,-2.43902,-9.74533,-0.0263452,1.7316,-0.243902,1.12805,7.68293
500.412,73.0714,10.2687,0,9.20646,2.72314,2.67524,0.27439,0.853659,-2.5,-9.75731,-0.0958008,1.72681,-0.548781,1.25,7.62195
500.422,73.0542,10.2488,0,9.17532,2.74469,2.70158,-0.27439,1.06707,-2.40854,-9.75012,-0.0934058,1.71004,-0.426829,1.21951,7.65244
500.432,73.0369,10.2506,0,9.1825,2.73032,2.71356,-0.609756,0.762195,-2.65244,-9.75731,-0.0838257,1.76992,-0.457317,1.03659,7.68293
500.442,73.0227,10.2484,0,9.16334,2.7399,2.73272,-0.487805,0.853659,-2.22561,-9.73336,-0.129331,1.75555,-0.609756,0.853659,7.62195
500.452,73.0151,10.2308,0,9.12263,2.67763,2.76625,-0.457317,-0.0304878,-2.28659,-9.72378,-0.119751,1.71723,-0.335366,0.731707,7.40854
500.462,73.0005,10.2278,0,9.07952,2.6944,2.70637,-0.609756,-0.304878,-2.56098,-9.76449,-0.138911,1.75555,-0.213415,0.823171,7.34756
500.472,72.9943,10.2275,0,9.06515,2.66087,2.74709,-0.182927,-0.457317,-2.22561,-9.75731,-0.114961,1.76034,-0.396341,0.670732,7.22561
500.482,72.9922,10.2391,0,9.16813,2.68003,2.76864,-0.0609756,-0.97561,-2.0122,-9.73815,-0.0934058,1.78189,-0.457317,0.487805,7.5
500.492,72.9903,10.2472,0,9.14897,2.68003,2.7423,0.182927,-1.12805,-1.95122,-9.71899,-0.0646655,1.77471,0.152439,0.670732,7.34756
500.502,72.9817,10.2233,0,9.21125,2.72074,2.68242,0.27439,-1.70732,-2.22561,-9.70701,-0.0407153,1.70765,-0.365854,0.426829,7.31707
500.513,72.9746,10.1913,0,9.25196,2.73032,2.76385,0.365854,-1.92073,-2.13415,-9.69983,-0.0910107,1.68849,-0.365854,0.365854,7.43902
500.522,72.9674,10.1946,0,9.18729,2.70637,2.65608,-0.243902,-1.64634,-2.22561,-9.72857,-0.0934058,1.75555,-0.243902,0.335366,7.13415
500.532,72.9527,10.1852,0,9.1825,2.77822,2.66087,-0.304878,-1.25,-2.0122,-9.73815,-0.0934058,1.73639,0.0304878,0,7.43902
500.542,72.942,10.2322,0,9.14897,2.73751,2.66087,-0.27439,-0.701219,-2.07317,-9.73815,-0.0622705,1.825,0.0304878,0,7.43902
500.552,72.9379,10.2525,0,9.13221,2.69919,2.67524,-0.457317,-0.670732,-1.95122,-9.74054,-0.107776,1.79626,0.0914634,-0.27439,7.2561
500.562,72.9287,10.2779,0,9.15856,2.70877,2.73511,-0.396341,-0.609756,-2.34756,-9.74054,-0.0526904,1.80345,0.0609756,0.0304878,7.31707
500.572,72.9223,10.2971,0,9.18729,2.71116,2.71835,0.0609756,-1.37195,-2.19512,-9.73336,-0.0191602,1.79626,-0.457317,0.0304878,7.16463
500.582,72.9217,10.3028,0,9.17292,2.68961,2.692,0.457317,-1.64634,-1.95122,-9.69264,-0.0143701,1.76992,-0.335366,-0.0609756,7.16463
500.592,72.9183,10.3336,0,9.16813,2.71595,2.66566,0.670732,-2.10366,-1.85976,-9.6663,-0.0119751,1.81063,-0.426829,-0.213415,6.7378
500.602,72.913,10.3683,0,9.19448,2.74709,2.68482,0.884146,-1.85976,-1.7378,-9.71899,-0.0502954,1.85375,-0.27439,-0.731707,6.95122
500.612,72.904,10.3791,0,9.18729,2.77583,2.66326,0.731707,-1.98171,-1.67683,-9.69504,-0.0766406,1.80105,-0.640244,-0.97561,6.70732
500.622,72.9,10.3736,0,9.20166,2.7423,2.69919,0.884146,-2.07317,-1.7378,-9.68785,-0.114961,1.76034,-0.182927,-0.823171,6.82927
500.632,72.8923,10.3512,0,9.19209,2.76385,2.65368,0.914634,-1.7378,-1.76829,-9.75731,-0.126936,1.72441,-0.457317,-1.03659,7.13415
500.642,72.8805,10.3364,0,9.17053,2.79259,2.5962,1.0061,-1.55488,-1.67683,-9.77407,-0.126936,1.74357,-0.121951,-1.03659,7.28659
500.652,72.8686,10.3433,0,9.20406,2.81654,2.60099,0.762195,-1.12805,-1.52439,-9.78844,-0.112566,1.80584,0.0304878,-1.40244,6.82927
500.662,72.8667,10.3456,0,9.21125,2.78062,2.64171,0.853659,-1.18902,-1.21951,-9.74294,-0.0790356,1.78429,0.182927,-1.55488,7.07317
500.672,72.8689,10.3432,0,9.23999,2.77343,2.59381,0.27439,-0.792683,-1.12805,-9.79084,-0.0646655,1.7771,0.182927,-1.89024,6.70732
500.682,72.8726,10.3454,0,9.27352,2.77104,2.57704,0.0914634,-0.426829,-1.15854,-9.73096,-0.0670605,1.78189,0.0609756,-1.79878,6.70732
500.692,72.8812,10.3415,0,9.25675,2.77822,2.58902,0.121951,-0.487805,-0.701219,-9.70941,-0.0359253,1.75794,0.27439,-1.76829,6.15854
500.702,72.8918,10.3447,0,9.1849,2.74709,2.66805,-0.182927,-0.213415,-0.701219,-9.69983,-0.0502954,1.7795,-0.121951,-1.85976,6.06707
500.712,72.9111,10.3643,0,9.12981,2.70398,2.67763,-0.0609756,-0.640244,-0.579268,-9.70941,-0.0502954,1.84177,-0.182927,-2.13415,6.0061
500.722,72.925,10.3798,0,9.09389,2.72074,2.72553,0.121951,-1.37195,-0.487805,-9.69264,-0.0502954,1.82979,-0.27439,-2.53049,6.06707
500.732,72.933,10.4033,0,9.07712,2.73751,2.74709,0,-1.76829,-0.487805,-9.69983,-0.0287402,1.86572,-0.365854,-2.56098,5.94512
500.742,72.9545,10.4186,0,9.09389,2.71595,2.71595,0.396341,-2.40854,-0.152439,-9.69743,-0.00718506,1.83938,-0.884146,-2.92683,6.09756
500.752,72.9521,10.4327,0,9.0412,2.77583,2.69919,0.0304878,-2.86585,-0.121951,-9.70462,0.0455054,1.83938,-0.945122,-3.10976,5.7622
500.762,72.9544,10.4562,0,9.10826,2.80696,2.66087,0.609756,-2.77439,0.579268,-9.72138,0.0431104,1.88728,-1.31098,-3.96341,5.60976
500.772,72.9561,10.4913,0,9.11544,2.85965,2.66087,0.457317,-3.32317,1.31098,-9.75012,0.0239502,1.94955,-1.70732,-4.93902,5.06098
500.782,72.9624,10.5286,0,9.17772,2.89318,2.6441,0.548781,-3.71951,1.82927,-9.76449,0.0167651,1.96871,-1.55488,-5.85366,4.69512
500.792,72.9793,10.5617,0,9.18729,2.87881,2.62255,0.457317,-3.93293,2.56098,-9.80042,-0.0191602,1.96392,-1.46341,-6.55488,4.48171
500.802,73.0044,10.6027,0,9.15616,2.84049,2.56028,0.0609756,-3.78049,3.04878,-9.77886,0.00479004,1.99984,-1.06707,-7.59146,4.57317
500.812,73.0424,10.6354,0,9.18729,2.78541,2.71835,0.335366,-3.2622,3.59756,-9.8603,-0.0455054,1.98547,-0.945122,-8.62805,4.42073
500.822,73.092,10.6405,0,9.18969,2.68242,2.60099,0.487805,-2.53049,3.59756,-9.8555,-0.100591,1.86572,-0.731707,-9.29878,4.81707
500.832,73.1388,10.6497,0,9.1849,2.66805,2.61057,0.426829,-2.10366,3.23171,-9.7597,-0.138911,1.86572,-0.213415,-9.72561,5.18293
500.842,73.1845,10.6788,0,9.15137,2.65129,2.65847,0.853659,-2.10366,3.10976,-9.72617,-0.196392,1.94955,0.0914634,-10.3049,5.54878
500.852,73.226,10.7043,0,9.07952,2.63931,2.69679,0.914634,-2.89634,2.86585,-9.69983,-0.232317,1.93278,0.518293,-10.9756,5.88415
500.862,73.2682,10.7264,0,9.06994,2.5962,2.74709,1.12805,-4.11585,2.37805,-9.69743,-0.244292,1.92081,0.884146,-11.7683,6.18902
500.872,73.2998,10.7312,0,9.05557,2.65129,2.82373,1.21951,-5.21341,2.22561,-9.72857,-0.263452,1.85375,1.18902,-12.2256,6.18902
500.882,73.3261,10.739,0,9.04359,2.68721,2.76625,1.21951,-6.46341,2.31707,-9.69504,-0.261057,1.86093,1.09756,-12.5305,6.58537
500.892,73.352,10.7319,0,9.07952,2.70158,2.73751,1.4939,-7.5,2.40854,-9.75012,-0.213157,1.80584,1.28049,-13.1707,6.64634
500.902,73.3787,10.7249,0,9.11784,2.72553,2.68482,1.46341,-8.78049,2.71341,-9.83156,-0.263452,1.82021,1.43293,-13.628,6.4939
500.913,73.4051,10.721,0,9.137,2.75188,2.66087,1.28049,-9.54268,3.01829,-9.8579,-0.273032,1.83698,1.76829,-14.3902,6.18902
500.922,73.4337,10.7395,0,9.07952,2.73511,2.61536,0.487805,-11.0671,3.29268,-9.92736,-0.213157,1.94955,2.5,-15.4878,6.18902
500.932,73.4659,10.7734,0,9.16813,2.74469,2.52914,0.0609756,-10.6707,3.5061,-10.1477,-0.256267,2.0669,2.68293,-16.8293,5.4878
500.942,73.5083,10.8104,0,9.19448,2.67524,2.4525,-0.426829,-10.1524,3.65854,-10.004,-0.143701,2.05732,3.20122,-17.7134,5.12195
500.952,73.5486,10.8567,0,9.22801,2.68003,2.37825,-1.06707,-9.32927,3.47561,-9.97526,-0.114961,2.10043,3.5061,-18.0183,5.15244
500.962,73.6009,10.9131,0,9.29507,2.62255,2.3543,-1.82927,-8.41463,3.87195,-9.91299,-0.162861,2.14115,3.14024,-18.689,4.84756
500.972,73.6639,10.9945,0,9.32621,2.54591,2.44531,-2.46951,-7.65244,4.05488,-9.85311,-0.119751,2.25132,3.38415,-19.4207,4.90854
500.982,73.7288,11.0869,0,9.28789,2.48124,2.4501,-2.77439,-7.83537,3.68902,-9.71899,-0.0670605,2.28485,2.7439,-20.122,4.7561
500.992,73.8114,11.1822,0,9.30465,2.32077,2.50998,-3.23171,-8.90244,3.56707,-9.63756,-0.0215552,2.29443,2.28659,-20.6707,4.96951
501.002,73.9018,11.2676,0,9.28789,2.22258,2.56267,-3.32317,-9.96951,3.2622,-9.5705,-0.0119751,2.25132,1.34146,-20.6098,5.09146
501.012,73.9842,11.3467,0,9.23999,2.23455,2.52196,-3.32317,-11.2805,2.46951,-9.62798,-0.0335303,2.25132,0.97561,-21.0976,5.57927
501.022,74.0624,11.4022,0,9.26633,2.25611,2.39981,-3.32317,-11.25,2.19512,-9.6184,-0.0239502,2.15791,0.27439,-20.6402,5.60976
501.032,74.1292,11.4549,0,9.25915,2.33035,2.40939,-3.20122,-11.6768,1.43293,-9.69504,-0.0742456,2.17228,0.121951,-20.7317,5.88415
501.042,74.2175,11.506,0,9.30705,2.29443,2.38783,-2.95732,-11.8293,0.579268,-9.79323,-0.0335303,2.19623,0,-21.25,6.18902
501.052,74.2721,11.5726,0,9.35734,2.41418,2.32317,-2.68293,-11.0366,0.823171,-9.88904,0.0191602,2.29682,-0.0914634,-22.9268,5.88415
501.062,74.3363,11.6197,0,9.39327,2.41897,2.28485,-2.71341,-11.0061,0.182927,-10.004,-0.00479004,2.24413,-0.670732,-24.1463,6.03659
501.072,74.3849,11.6678,0,9.3789,2.46208,2.213,-2.37805,-10.3049,0.182927,-10.0471,-0.119751,2.26569,-0.670732,-25.3049,6.25
501.082,74.4438,11.7316,0,9.41722,2.36867,2.10283,-2.07317,-8.44512,-0.457317,-10.0327,-0.193997,2.34233,-0.579268,-27.7134,6.40244
501.092,74.488,11.8305,0,9.36453,2.35909,2.17228,-1.55488,-9.39024,-0.792683,-10.0064,-0.265847,2.50998,-0.609756,-30.061,6.55488
501.102,74.5362,11.9401,0,9.47709,2.29922,2.0669,-1.52439,-8.62805,-1.09756,-9.97047,-0.301772,2.56746,-0.609756,-31.7683,6.7378
501.112,74.5689,12.0321,0,9.57529,2.31838,2.09564,-0.884146,-8.07927,-1.61585,-9.9537,-0.285007,2.5004,-0.152439,-32.8354,7.0122
501.122,74.5984,12.1257,0,9.59445,2.33035,1.99266,-0.670732,-7.89634,-1.67683,-9.95131,-0.277822,2.52435,-0.243902,-32.439,6.79878
501.132,74.6297,12.2335,0,9.60882,2.34951,1.95913,-1.25,-7.53049,-1.43293,-9.84832,-0.227527,2.58183,0.396341,-31.8902,7.0122
501.142,74.6576,12.3677,0,9.66869,2.36867,1.96631,-1.25,-6.76829,-1.4939,-9.78126,-0.198787,2.70637,0.396341,-31.7073,6.40244
501.152,74.7021,12.5028,0,9.69025,2.25132,1.98068,-0.548781,-5.94512,-1.52439,-9.73815,-0.184417,2.72314,0.27439,-31.4024,6.12805
501.162,74.7442,12.6254,0,9.62558,2.1627,2.01182,-0.335366,-5.67073,-2.10366,-9.70941,-0.210762,2.68242,0.365854,-31.5549,5.54878
501.172,74.7704,12.7379,0,9.64474,2.12678,2.03098,-0.243902,-4.5122,-3.38415,-9.65911,-0.220342,2.6441,0.213415,-31.4939,4.96951
501.182,74.781,12.8576,0,9.61361,2.14833,1.99505,0.396341,-3.44512,-4.39024,-9.68067,-0.229922,2.70398,-0.121951,-31.6159,5.06098
501.192,74.7635,12.9954,0,9.44596,2.22258,2.04056,0.396341,-2.77439,-5.85366,-9.60882,-0.270637,2.7878,0.182927,-32.0427,5.15244
501.202,74.7221,13.1183,0,9.41003,2.31598,2.14594,0,-1.82927,-7.10366,-9.63995,-0.280217,2.75188,0.396341,-33.3537,5.39634
501.212,74.6696,13.2629,0,9.29028,2.33754,2.16749,-0.335366,-2.5,-7.71341,-9.63516,-0.342488,2.87163,0.792683,-35.3049,5.82317
501.222,74.6036,13.4074,0,9.22562,2.39023,2.27048,-0.487805,-2.89634,-8.38415,-9.7142,-0.352068,2.91953,1.64634,-37.1037,6.12805
501.232,74.5292,13.5498,0,9.2328,2.49801,2.29922,-0.457317,-3.68902,-8.10976,-9.72617,-0.318538,2.93869,2.10366,-38.6585,6.52439
501.242,74.45,13.7142,0,9.24957,2.55788,2.4022,-0.182927,-4.96951,-8.10976,-9.68306,-0.287402,3.05365,2.2561,-40.2439,6.95122
501.252,74.3693,13.888,0,9.22562,2.65847,2.28245,0.27439,-6.34146,-7.16463,-9.63995,-0.244292,3.11353,3.10976,-41.1585,7.65244
501.262,74.3085,14.0562,0,9.2328,2.58183,2.28964,0.396341,-7.92683,-6.21951,-9.58008,-0.225132,3.09916,3.65854,-42.0122,8.10976
501.272,74.2582,14.2381,0,9.21603,2.50519,2.30161,0.609756,-9.32927,-6.12805,-9.61121,-0.201182,3.20454,3.90244,-42.7134,8.29268
501.282,74.2087,14.4311,0,9.21603,2.45729,2.27527,0.853659,-10.8537,-6.70732,-9.62079,-0.246687,3.29315,3.59756,-43.7195,8.17073
501.292,74.1395,14.6146,0,9.10347,2.5483,2.28006,0.579268,-13.2927,-7.37805,-9.616,-0.311353,3.28118,3.68902,-44.939,7.56098
501.302,74.056,14.8068,0,9.09868,2.63452,2.18426,-0.243902,-14.1463,-7.92683,-9.66869,-0.330513,3.37458,3.96341,-46.372,6.76829
501.312,73.9723,15.0091,0,9.0867,2.62494,2.22976,-0.670732,-15.9756,-8.20122,-9.59924,-0.256267,3.43206,5.06098,-48.4756,6.43293
501.322,73.8804,15.227,0,9.13221,2.72793,2.18186,-0.945122,-16.7988,-8.14024,-9.52499,-0.136516,3.51589,5.36585,-50.8537,6.37195
501.332,73.7913,15.4966,0,9.21843,2.81415,2.14115,-1.58537,-17.378,-7.34756,-9.43877,-0.0215552,3.76976,5.33537,-53.5671,6.79878
501.342,73.7215,15.7582,0,9.2352,2.70158,2.14833,-2.46951,-18.2927,-6.92073,-9.3765,0.00239502,3.75539,4.5122,-55.7012,7.37805
501.352,73.6553,16.0383,0,9.34776,2.79738,2.08367,-3.23171,-18.4451,-5.97561,-9.20646,0.0862207,3.82245,4.05488,-57.0122,8.44512
501.362,73.5911,16.3252,0,9.31663,2.82373,1.9256,-3.9939,-18.7805,-5.4878,-9.09149,0.126936,3.85838,3.62805,-58.2317,9.39024
501.372,73.546,16.6194,0,9.3765,2.7399,1.84177,-4.42073,-19.1159,-4.84756,-8.93342,0.100591,3.87754,3.5061,-58.9329,10.3659
501.382,73.5193,16.9268,0,9.50823,2.71356,1.71244,-4.20732,-16.8598,-3.84146,-8.83283,0.0191602,3.94939,3.59756,-58.6585,10.7927
501.392,73.5035,17.2733,0,9.56331,2.65847,1.6334,-3.5061,-16.4939,-3.62805,-8.79212,-0.0886157,4.17212,3.2622,-58.9939,10.6098
501.402,73.4902,17.6169,0,9.58487,2.67045,1.53281,-3.65854,-15.7012,-3.35366,-8.78493,-0.143701,4.22002,2.77439,-58.9939,10.061
501.412,73.479,17.9515,0,9.58966,2.58902,1.55916,-3.96341,-15.5793,-4.08537,-8.76338,-0.170046,4.232,2.53049,-58.5366,9.08537
501.422,73.483,18.2829,0,9.57529,2.44292,1.58071,-3.59756,-15.1829,-4.20732,-8.68434,-0.114961,4.24158,2.37805,-58.2317,8.14024
501.432,73.4793,18.6316,0,9.48907,2.40939,1.59748,-3.53659,-16.25,-5.06098,-8.61968,-0.105381,4.35415,2.53049,-58.2622,8.04878
501.442,73.4782,19.0101,0,9.5681,2.32317,1.47533,-2.28659,-15.3659,-6.0061,-8.53585,-0.100591,4.5194,2.89634,-58.3841,8.04878
501.452,73.4781,19.3729,0,9.70941,2.23934,1.35079,-0.426829,-15.3963,-7.22561,-8.52866,-0.167651,4.51222,3.47561,-58.5671,7.62195
501.462,73.4638,19.7593,0,9.8603,2.37346,1.36037,0.640244,-15.1524,-7.56098,-8.50711,-0.265847,4.68466,4.39024,-58.7195,7.34756
501.472,73.4239,20.1612,0,10.0112,2.63931,1.19751,1.55488,-13.4451,-7.68293,-8.43047,-0.318538,4.79243,5,-58.9634,6.34146
501.482,73.3838,20.5716,0,9.88425,2.67284,1.2502,1.92073,-12.6524,-7.04268,-8.30114,-0.306563,4.83794,5.03049,-58.5366,5.60976
501.492,73.3477,21.0089,0,9.84832,2.62015,1.1544,2.34756,-9.29878,-7.19512,-8.13349,-0.241897,4.95051,4.5122,-58.1402,5.85366
501.502,73.3178,21.475,0,9.77647,2.57225,1.18314,2.5,-7.13415,-6.95122,-7.97542,-0.100591,5.07984,4.32927,-57.7134,5.54878
501.512,73.2939,21.9465,0,9.77647,2.52914,1.22146,2.5,-5.09146,-6.89024,-7.92991,-0.0335303,5.16845,4.14634,-57.8659,6.03659
501.522,73.2728,22.4274,0,9.70462,2.43573,1.38672,2.77439,-3.62805,-7.5,-7.91314,0.0335303,5.29778,4.11585,-58.1098,6.37195
501.532,73.2504,22.896,0,9.59924,2.29443,1.54958,3.47561,-2.89634,-8.9939,-7.95146,0.0335303,5.35766,4.57317,-58.5671,6.18902
501.542,73.1997,23.3741,0,9.38608,2.37825,1.51126,3.59756,-3.84146,-10.3354,-7.86764,0.0215552,5.44388,4.81707,-58.3841,5.97561
501.552,73.1069,23.8652,0,9.2304,2.63452,1.43701,2.92683,-3.47561,-11.25,-7.87482,-0.00479004,5.61393,4.90854,-58.7805,5.60976
501.562,73.0029,24.3585,0,9.137,2.72553,1.46575,2.19512,-3.53659,-11.189,-7.80776,-0.00958008,5.67859,4.57317,-59.1463,5
501.572,72.9156,24.844,0,9.26394,2.68482,1.59748,1.64634,-3.81098,-10.6098,-7.72633,-0.0239502,5.68099,4.60366,-58.9634,4.14634
501.582,72.8395,25.3563,0,9.39566,2.63452,1.69567,1.95122,-5.09146,-10.6707,-7.60658,-0.00239502,5.83427,4.45122,-59.1463,3.62805
501.592,72.7609,25.8991,0,9.41722,2.65129,1.70525,3.04878,-6.92073,-10.9451,-7.39822,0.0359253,5.94204,4.14634,-59.2073,3.38415
501.602,72.6768,26.4592,0,9.54415,2.68961,1.47533,3.29268,-5.82317,-11.6463,-7.30481,0.0598755,6.07616,4.2378,-58.5366,3.53659
501.612,72.5759,27.0458,0,9.38129,2.75188,1.46575,2.9878,-8.44512,-12.2866,-7.13955,0.0742456,6.2031,4.32927,-58.0183,4.29878
501.622,72.4729,27.6405,0,9.36692,2.74469,1.36277,2.68293,-8.71951,-12.7439,-7.03657,0.0119751,6.28693,4.29878,-57.2256,4.96951
501.632,72.3726,28.1964,0,9.48188,2.75906,1.38432,2.77439,-7.80488,-12.8963,-7.05094,-0.00958008,6.21747,4.87805,-55.061,4.60366
501.642,72.2487,28.7957,0,9.4268,2.95306,1.44659,2.77439,-8.56707,-13.1098,-6.92879,-0.0215552,6.47613,4.11585,-53.4451,4.2378
501.652,72.1248,29.3817,0,9.36692,3.00096,1.41306,1.95122,-9.48171,-12.622,-6.90484,0.0359253,6.51445,4.08537,-52.4085,4.08537
501.662,72.0043,29.9756,0,9.2831,2.98898,1.41785,0.945122,-8.78049,-12.3476,-6.84257,0.0934058,6.6366,3.90244,-51.5549,3.41463
501.672,71.8765,30.589,0,9.12023,2.99138,1.42743,0.0914634,-9.63415,-12.7134,-6.69408,0.179626,6.74438,3.10976,-51.0366,2.83537
501.682,71.7483,31.2252,0,9.06994,2.98419,1.49449,-1.0061,-9.93902,-12.8963,-6.5384,0.143701,6.86652,2.92683,-50.5793,2.43902
501.692,71.624,31.8819,0,9.07712,2.99856,1.54479,-2.43902,-10.2744,-12.622,-6.36596,0.0910107,6.96232,2.71341,-50.0915,1.79878
501.702,71.5068,32.546,0,9.30465,3.08958,1.52084,-3.01829,-10.7927,-11.9817,-6.19831,0.0239502,6.98388,2.95732,-48.9024,1.52439
501.712,71.3953,33.2332,0,9.59684,3.2213,1.35079,-3.56707,-10.3659,-11.25,-6.02347,-0.00239502,7.09405,2.83537,-47.3476,1.28049
501.722,71.2757,33.9358,0,9.48188,3.30273,1.37714,-4.5122,-8.59756,-10.9756,-5.80553,-0.0407153,7.10602,3.14024,-44.8171,1.34146
501.732,71.1561,34.6571,0,9.2328,3.25483,1.3939,-5.4878,-6.82927,-10.7927,-5.64027,-0.0143701,7.20422,3.32317,-42.3171,1.7378
501.742,71.0318,35.3824,0,8.88792,3.19735,1.5376,-6.70732,-8.9939,-10.7622,-5.4822,-0.0311353,7.21619,3.23171,-39.6037,2.46951
501.752,70.9125,36.085,0,8.69632,3.14466,1.62382,-7.19512,-10.6707,-10.3049,-5.45346,-0.0143701,7.22098,3.23171,-37.561,3.32317
501.762,70.8197,36.7696,0,8.82804,2.97461,1.55197,-7.04268,-9.7561,-10.4268,-5.51573,-0.0407153,7.37187,3.62805,-36.0061,3.65854
501.772,70.7323,37.4111,0,8.90947,2.95785,1.67891,-6.61585,-13.872,-10.5793,-5.60195,-0.0934058,7.37906,4.32927,-34.9085,3.68902
501.782,70.6266,38.026,0,9.29986,3.24765,1.36995,-5.67073,-13.5671,-10.8232,-5.65943,-0.124541,7.44851,4.7561,-33.689,3.44512
501.792,70.5156,38.6292,0,9.33339,3.36261,1.2981,-6.12805,-13.6585,-10.4268,-5.59477,-0.117356,7.45091,5.30488,-32.6829,3.14024
501.802,70.4146,39.2216,0,9.36692,3.38895,1.16158,-6.06707,-13.872,-9.48171,-5.5325,-0.100591,7.45809,5.91463,-31.4024,2.71341
501.812,70.3194,39.8122,0,9.20166,3.28597,1.04423,-5.60976,-12.7744,-9.57317,-5.42951,-0.172441,7.47007,6.18902,-30.122,2.56098
501.822,70.227,40.3931,0,9.22322,3.30273,1.00591,-5.36585,-11.0671,-9.39024,-5.33131,-0.215552,7.42935,6.85976,-28.7805,2.77439
501.832,70.1391,40.9784,0,9.09389,3.2692,0.902922,-5.2439,-10.2744,-8.96341,-5.2403,-0.296982,7.49402,8.01829,-27.9878,2.86585
501.842,70.0385,41.5373,0,8.89271,3.34824,1.07057,-4.2378,-12.4085,-8.68902,-5.26425,-0.390388,7.50599,9.78659,-27.3476,3.23171
501.852,69.9479,42.0656,0,9.01485,3.42248,0.967588,-3.71951,-10.8232,-7.56098,-5.25228,-0.421523,7.43175,10.6707,-26.0061,2.89634
501.862,69.863,42.5679,0,9.06275,3.45362,0.979563,-3.20122,-12.0732,-7.0122,-5.32892,-0.392783,7.50599,11.2805,-24.939,2.83537
501.872,69.7925,43.0567,0,9.14658,3.47996,1.0107,-2.56098,-12.8963,-5.7622,-5.38161,-0.296982,7.62574,11.3415,-24.6951,2.77439
501.882,69.7308,43.4909,0,9.30705,3.58055,0.965193,-2.22561,-11.5244,-4.57317,-5.46783,-0.234712,7.49881,11.5549,-24.1768,2.62195
501.892,69.6522,43.9134,0,9.18729,3.72905,0.993933,-2.71341,-11.0366,-4.20732,-5.49417,-0.189207,7.57305,11.7073,-24.2378,2.65244
501.902,69.5785,44.3227,0,9.26873,3.80808,0.809517,-4.11585,-9.93902,-3.20122,-5.57082,-0.172441,7.70238,12.4695,-25.2439,2.56098
501.912,69.4986,44.681,0,8.92624,3.74102,0.934058,-5.67073,-11.7378,-2.83537,-5.64027,-0.229922,7.5515,13.1402,-25.8232,2.59146
501.922,69.4107,45.0096,0,8.98372,3.81287,0.888552,-6.89024,-10.5183,-1.43293,-5.69775,-0.301772,7.52036,14.1159,-25.9146,2.71341
501.932,69.29,45.3276,0,9.12023,3.88472,0.704136,-8.59756,-8.81098,0.182927,-5.76242,-0.383203,7.62095,15.1829,-26.8293,2.19512
501.942,69.257,45.6321,0,9.12742,3.73144,0.725691,-9.35976,-7.86585,1.31098,-5.81511,-0.304167,7.68322,15.7012,-27.8963,1.98171
501.952,69.2808,45.932,0,9.46512,3.58295,0.840652,-9.32927,-6.18902,2.40854,-5.88456,-0.136516,7.82692,15.4878,-28.689,2.04268
501.962,69.3155,46.1827,0,9.56571,3.51828,0.910107,-10.0915,-5.51829,2.34756,-6.0091,0.0574805,7.72394,15.7317,-29.3598,2.28659
501.972,69.3557,46.3661,0,9.22322,3.3171,0.965193,-10.7927,-8.14024,1.31098,-6.30369,0.189207,7.6928,15.6402,-29.7561,2.07317
501.982,69.4767,46.531,0,9.35495,3.06323,0.910107,-11.0366,-6.55488,-0.243902,-6.45218,0.335303,7.79339,15.5488,-30.5183,2.22561
501.992,69.5372,46.6888,0,9.36692,2.96264,0.878972,-12.0732,-7.92683,-1.79878,-6.55277,0.308958,7.90835,15.9146,-32.6524,2.40854
502.002,69.5939,46.8202,0,9.41722,2.75667,0.838257,-13.2927,-9.11585,-3.29268,-6.71324,0.153281,7.95386,15.6402,-34.7561,2.07317
502.012,69.6674,46.9459,0,9.6639,2.49322,0.529299,-13.689,-7.34756,-4.78659,-6.80425,0.0646655,8.05445,14.9085,-36.9817,1.40244
502.022,69.7562,47.1309,0,9.80042,2.24174,0.368833,-12.2561,-10.2134,-6.18902,-6.57193,0.299377,8.24126,12.9878,-38.3841,2.22561
502.032,69.8482,47.372,0,10.0088,2.16989,-0.0119751,-11.25,-7.80488,-6.98171,-6.17436,0.493374,8.20055,11.0366,-39.4817,3.90244
502.042,69.9367,47.6449,0,10.198,2.16989,-0.208367,-11.0061,-3.56707,-7.59146,-5.89414,0.61073,8.13349,8.38415,-39.2683,5.09146
502.052,70.0093,47.9199,0,10.1261,2.12678,-0.114961,-10.3659,1.95122,-9.32927,-5.66422,0.718506,7.91075,6.92073,-38.628,5.85366
502.062,70.0634,48.2146,0,9.9537,2.16989,-0.0359253,-8.9939,3.5061,-10.1829,-5.48459,0.723296,7.8844,6.58537,-37.439,5.33537
502.072,70.0976,48.4963,0,10.1836,2.28964,-0.100591,-6.25,7.37805,-11.3415,-5.40077,0.59636,7.75747,6.7378,-35.3354,4.32927
502.082,70.1128,48.7914,0,10.1118,2.33993,0.105381,-4.11585,10.6098,-12.4695,-5.36005,0.371228,7.88201,6.89024,-33.1402,2.43902
502.092,70.1137,49.1197,0,10.004,2.33514,0.177231,-2.77439,8.59756,-13.689,-5.30736,0.112566,8.15025,5.7622,-31.3415,-0.0609756
502.102,70.0963,49.4305,0,10.2052,2.4549,0.172441,-1.67683,9.29878,-14.7561,-5.37203,-0.0550855,8.21492,5.45732,-30.4573,-2.19512
502.112,70.042,49.7369,0,9.96807,2.71835,0.349673,-2.10366,12.8659,-15.0305,-5.39119,-0.0502954,8.30832,4.29878,-29.4512,-3.32317
502.122,69.9633,50.0508,0,9.88664,2.85247,0.299377,-3.04878,18.75,-15.9146,-5.31215,0.0455054,8.34425,3.56707,-29.3598,-3.2622
502.132,69.8445,50.3582,0,9.67588,3.15424,0.603545,-4.84756,15.8537,-16.1585,-5.25946,0.158071,8.31072,3.62805,-28.4451,-2.37805
502.142,69.7056,50.7019,0,9.58008,3.28836,0.787961,-7.71341,16.3415,-16.6463,-5.10858,0.191602,8.46639,3.62805,-29.1463,-1.7378
502.152,69.5562,51.0633,0,9.69264,3.41051,0.778381,-9.5122,16.5854,-17.1037,-4.91458,0.167651,8.40412,3.93293,-29.6037,-0.731707
502.162,69.3883,51.3963,0,9.69504,3.58534,0.919688,-11.6463,17.4695,-17.439,-4.97685,0.0119751,8.39215,4.66463,-28.689,-0.823171
502.172,69.1996,51.8076,0,9.32621,3.72426,1.46575,-15.8841,17.8963,-16.8902,-4.67508,-0.0766406,8.66039,5.21341,-28.9024,-1.21951
502.182,69.0259,52.1952,0,9.25675,3.5566,1.72441,-17.5915,18.1402,-17.2866,-4.63915,-0.134121,8.53106,6.06707,-27.1951,-2.53049
502.192,68.853,52.5831,0,9.2328,3.53505,1.59269,-19.8476,17.5915,-17.6829,-4.54575,-0.0958008,8.50232,6.34146,-24.2683,-3.41463
502.202,68.6957,53.0209,0,9.19687,3.34584,1.11368,-22.5915,14.5732,-18.4146,-4.3302,0.00958008,8.69632,6.31098,-22.2866,-3.47561
502.212,68.5472,53.4478,0,9.32381,3.21651,1.04902,-25.1524,14.7561,-19.7866,-4.33499,0.100591,8.77056,5.94512,-20.6402,-2.7439
502.222,68.4053,53.8648,0,9.09389,3.09437,1.81063,-25.4878,15.1829,-19.9085,-4.33978,0.335303,8.85199,5.51829,-19.0549,-1.79878
502.232,68.2242,54.2583,0,8.71548,3.3171,2.52435,-25.4878,9.57317,-20.0305,-4.29427,0.64426,8.69632,5.21341,-16.7683,-0.487805
502.242,68.0843,54.6064,0,8.80409,3.20933,2.17228,-24.878,9.57317,-17.8354,-4.31822,0.864602,8.46639,4.66463,-14.5427,1.21951
502.252,67.9533,54.947,0,8.6101,3.20214,1.65496,-24.9085,7.53049,-16.4634,-4.26313,1.07776,8.41849,4.48171,-13.1707,3.10976
502.262,67.8576,55.2889,0,8.82565,3.06802,1.50407,-24.6341,5.27439,-15.6402,-4.22481,1.01549,8.47837,4.26829,-13.6585,3.78049
502.272,67.7799,55.5934,0,8.9909,3.01054,1.47294,-22.7439,3.75,-15.3354,-4.30146,0.926873,8.40891,3.96341,-13.9939,3.53659
502.282,67.7023,55.8966,0,9.12023,3.03449,1.42983,-21.0671,3.35366,-15.7012,-4.29906,0.850232,8.50471,3.2622,-13.5061,3.17073
502.292,67.6214,56.2025,0,9.22801,3.14466,1.54239,-18.5061,-0.243902,-15.3659,-4.22481,0.754431,8.49513,2.56098,-12.8049,2.80488
502.302,67.5615,56.51,0,9.33339,3.08239,1.33403,-17.5305,-1.52439,-14.4817,-4.14099,0.732876,8.45681,1.43293,-11.5854,2.46951
502.312,67.51,56.8573,0,9.21125,3.06323,1.22386,-16.6463,-1.76829,-13.5061,-3.99729,0.641865,8.66039,0.884146,-11.189,3.68902
502.322,67.4683,57.195,0,9.22083,2.94827,1.22625,-15,-0.579268,-13.9634,-4.08111,0.55325,8.88552,-0.853659,-11.189,4.81707
502.332,67.4356,57.5278,0,9.07952,2.84528,1.37714,-13.1402,-1.46341,-13.811,-4.09309,0.474214,8.99809,-2.46951,-11.4634,5.82317
502.343,67.3694,57.8507,0,8.85918,3.05125,1.6358,-10.5793,-2.89634,-14.0244,-4.02363,0.493374,8.88313,-3.14024,-10.4268,6.67683
502.352,67.2608,58.1541,0,8.78972,3.44404,1.37714,-9.02439,-2.16463,-13.5976,-3.99489,0.548459,8.7514,-3.41463,-9.42073,8.29268
502.362,67.1503,58.4542,0,8.68434,3.49673,1.27655,-7.83537,-4.17683,-12.9268,-3.98531,0.5772,8.82086,-4.29878,-8.44512,8.75
502.372,67.0582,58.7512,0,8.7993,3.42248,1.29331,-6.15854,-3.84146,-12.6524,-4.05237,0.574805,9.06275,-5.12195,-8.84146,8.96341
502.382,66.9501,59.0161,0,9.11305,3.6069,1.19272,-4.17683,-3.04878,-13.7805,-4.15057,0.555645,9.06275,-5.06098,-9.32927,8.23171
502.392,66.8279,59.27,0,9.32381,3.82724,1.31726,-2.53049,-4.39024,-13.9634,-4.17452,0.534089,9.11065,-5,-8.9939,7.68293
502.402,66.6756,59.5388,0,9.50344,4.0883,1.346,-1.15854,-4.39024,-15.3354,-4.11225,0.531694,9.24238,-4.54268,-8.68902,7.56098
502.412,66.5166,59.8016,0,9.50823,4.19368,1.49689,-2.13415,-3.59756,-15.2439,-4.14578,0.385598,9.36932,-4.20732,-8.32317,7.53049
502.422,66.3691,60.0649,0,9.48907,4.06674,1.71004,-0.0609756,-6.85976,-15.6402,-4.14099,0.318538,9.48188,-3.47561,-8.04878,7.59146
502.432,66.2024,60.3227,0,9.5226,4.23439,1.75794,2.19512,-5.64024,-16.311,-4.15057,0.234712,9.56092,-2.83537,-7.56098,7.65244
502.442,66.0187,60.5741,0,9.616,4.40923,1.76513,3.68902,-6.92073,-17.0427,-4.16015,0.237107,9.62798,-1.82927,-7.43902,7.9878
502.452,65.8122,60.8216,0,9.62319,4.49306,1.6334,3.87195,-6.34146,-18.9329,-4.21284,0.261057,9.82197,-2.04268,-7.46951,8.47561
502.462,65.5683,61.0644,0,9.24717,4.57928,1.58071,2.92683,-5.51829,-20.4878,-4.22481,0.292192,9.91059,-1.95122,-7.37805,9.08537
502.472,65.3195,61.3061,0,8.93582,4.39486,1.84177,2.83537,-6.46341,-21.7988,-4.20565,0.416733,9.97047,-1.82927,-7.19512,9.7561
502.482,65.0563,61.5457,0,8.95977,4.46192,1.86333,3.59756,-6.37195,-23.2012,-4.12183,0.56762,9.86269,-2.5,-6.79878,10.4878
502.492,64.7718,61.7533,0,9.19687,4.75411,1.94476,3.07927,-8.71951,-24.1463,-4.19128,0.670605,9.75491,-2.95732,-6.21951,11.5549
502.502,64.4668,61.9611,0,9.44596,5.06786,1.84896,2.9878,-7.19512,-25.0305,-4.17691,0.790356,9.82197,-3.38415,-6.92073,11.6159
502.512,64.174,62.1146,0,9.73096,4.99841,1.70286,4.29878,-1.25,-26.4939,-4.41642,0.792751,9.82437,-3.62805,-8.23171,11.8902
502.522,63.8693,62.2363,0,9.46512,4.98643,1.8777,5.97561,-1.85976,-27.1037,-4.52659,0.785566,9.76928,-3.5061,-10.0915,11.6463
502.532,63.5377,62.3232,0,9.2352,5.03673,1.99026,6.12805,-1.12805,-28.7805,-4.63436,0.680186,9.66151,-3.47561,-11.0976,10.9146
502.542,63.1751,62.4443,0,9.12502,5.21156,1.96631,6.89024,-3.14024,-30.3354,-4.4236,0.510139,9.62558,-2.86585,-12.7134,10.9451
502.552,62.796,62.5825,0,9.29028,5.31934,1.76034,7.28659,0.823171,-32.622,-4.32301,0.356858,9.64714,-2.65244,-14.8476,10.9146
502.562,62.4105,62.7129,0,9.46512,5.34089,1.78429,7.40854,5.06098,-34.7866,-4.31822,0.263452,9.60642,-2.53049,-16.3415,11.0976
502.572,61.9996,62.8557,0,9.45314,5.48938,1.7795,7.68293,6.43293,-36.7073,-4.28948,0.237107,9.73815,-2.7439,-18.4146,11.7683
502.582,61.553,63.0261,0,9.45314,5.79834,1.58311,7.2561,9.14634,-38.3841,-4.17691,0.237107,9.86748,-2.37805,-20.3354,12.5305
502.592,61.0959,63.2021,0,9.15616,5.73847,1.75315,7.56098,10,-39.2378,-4.06674,0.220342,9.75012,-1.89024,-22.3476,13.4146
502.602,60.6237,63.3796,0,8.88073,5.64027,1.63101,6.82927,10.8841,-41.0061,-3.99729,0.208367,9.68306,-1.09756,-23.7805,13.7805
502.612,60.1345,63.55,0,8.47837,5.52052,1.85854,7.68293,6.98171,-42.378,-3.95418,0.148491,9.57529,-0.213415,-24.5732,14.1463
502.622,59.6203,63.7157,0,8.01853,5.43669,2.19863,8.81098,2.31707,-43.75,-3.93502,0.148491,9.55134,-0.335366,-25.1829,14.3598
502.632,59.1488,63.8822,0,8.98132,5.58519,1.48012,8.81098,12.7134,-45.061,-3.90388,0.193997,9.56092,-0.335366,-26.3415,14.6646
502.642,58.6098,64.0482,0,8.1263,5.70015,2.23695,8.32317,-2.53049,-46.4329,-3.90388,0.344883,9.63037,-1.03659,-28.2622,15.1524
502.652,58.1364,64.202,0,9.10826,5.58519,1.24302,8.35366,16.1585,-48.0488,-3.91346,0.512534,9.58247,-1.25,-29.6341,15.6707
502.662,57.6261,64.3491,0,8.41849,5.4822,1.58311,8.10976,7.22561,-49.6037,-3.8943,0.63468,9.52499,-2.0122,-31.25,16.128
502.672,57.1202,64.5041,0,8.42568,5.40795,1.52802,9.11585,5.57927,-50.9756,-3.80569,0.64426,9.46751,-2.34756,-32.622,16.189
502.682,56.629,64.6857,0,8.63644,5.48459,1.3939,10,10.2439,-51.0671,-3.61408,0.63468,9.3789,-2.62195,-33.0488,15.7317
502.692,56.1178,64.8969,0,8.33946,5.63309,1.47773,10.7927,5.57927,-50.7927,-3.43446,0.538879,9.36213,-2.77439,-33.689,14.7866
502.702,55.6126,65.1255,0,8.18857,5.6738,1.42264,12.5,5.79268,-49.8476,-3.25004,0.397573,9.18011,-2.95732,-33.1707,14.2683
502.712,55.1277,65.3696,0,8.0808,5.59237,1.2981,13.1098,5.30488,-48.872,-3.1279,0.364043,9.15137,-3.14024,-32.4085,13.8415
502.722,54.6553,65.6188,0,8.08798,5.51573,1.3939,13.5366,4.05488,-49.3902,-3.08,0.246687,9.20646,-3.75,-32.1341,14.1768
502.732,54.1933,65.8539,0,8.05445,5.43669,1.26457,13.2012,3.93293,-49.8476,-3.08239,0.122146,9.15856,-3.84146,-31.9207,14.2683
502.743,53.7471,66.0717,0,8.06882,5.33371,1.09931,13.9939,4.45122,-50.3049,-3.10874,0.0550855,9.12742,-3.56707,-32.439,14.4207
502.752,53.2825,66.2881,0,7.93709,5.51094,0.941243,14.6951,6.4939,-50.4268,-3.05604,0,9.06754,-2.68293,-32.8049,14.0854
502.762,52.8237,66.521,0,7.87961,5.49178,0.984353,15.8841,7.56098,-50.5793,-2.89797,0.0287402,8.92384,-1.03659,-32.4695,14.0244
502.772,52.3646,66.774,0,7.88201,5.58758,1.15919,16.8902,8.75,-50.6098,-2.78541,0.131726,8.97174,0.335366,-31.5854,13.9939
502.782,51.9053,67.0653,0,8.00655,5.81271,1.1544,17.6524,10.8537,-50.2439,-2.62734,0.241897,9.14897,0.670732,-31.189,13.6585
502.792,51.4284,67.3939,0,7.77663,5.93246,1.33642,18.0183,12.1341,-50.2134,-2.43813,0.399968,9.2352,-0.304878,-30.4573,13.5671
502.802,50.9433,67.7602,0,7.52994,5.98755,1.37235,18.0183,11.8598,-49.6646,-2.23216,0.579595,9.29747,-2.0122,-29.1463,13.7805
502.812,50.4537,68.1424,0,7.24493,5.98755,1.36037,18.4146,8.84146,-48.9024,-2.07648,0.771196,9.19687,-3.59756,-27.378,14.2988
502.822,49.9725,68.5361,0,7.12039,6.05461,1.46575,16.6159,7.89634,-47.4085,-1.95673,0.826282,9.17053,-5.51829,-25.9756,14.939
502.832,49.5116,68.9225,0,7.06531,6.08574,1.3963,15.4573,6.46341,-45.5793,-1.91123,0.740061,9.12742,-6.46341,-24.2683,14.7866
502.842,49.0611,69.2879,0,7.05094,6.1576,1.55916,15.9146,5.18293,-44.6646,-1.90404,0.598755,8.98611,-6.92073,-22.7134,14.3598
502.852,48.6051,69.6365,0,6.94316,6.31088,1.71723,14.878,4.54268,-43.811,-1.91362,0.404758,8.99569,-7.31707,-20.6707,13.689
502.862,48.1587,69.9489,0,6.91203,6.36117,1.63101,14.6951,3.47561,-43.0488,-1.99984,0.227527,8.96935,-7.04268,-18.872,12.8049
502.872,47.7217,70.2317,0,6.92161,6.44739,1.52802,14.2988,1.82927,-42.2866,-2.0669,0.0838257,8.95498,-6.95122,-17.6829,12.1037
502.882,47.2841,70.4797,0,6.97669,6.5887,1.54958,13.628,1.67683,-42.439,-2.15073,0.0119751,8.8975,-6.09756,-16.9817,11.4329
502.892,46.8488,70.713,0,6.99106,6.6845,1.55197,12.8659,2.86585,-42.378,-2.16749,-0.0790356,8.88313,-4.60366,-16.7378,11.4024
502.902,46.4101,70.9466,0,6.94795,6.73958,1.46096,11.5854,4.17683,-42.7744,-2.12678,-0.0934058,8.88073,-3.32317,-16.25,11.1585
502.912,45.9613,71.1831,0,6.7803,6.80425,1.54479,10.7012,4.63415,-42.7134,-2.05253,-0.0958008,8.78014,-1.92073,-15.3354,11.6463
502.923,45.5125,71.422,0,6.77072,6.80904,1.53281,12.5305,3.23171,-43.5061,-2.01421,-0.126936,8.82325,-0.609756,-15.2134,12.3171
502.933,45.0942,71.6836,0,6.80665,6.7803,1.51605,11.4329,5.27439,-41.8598,-1.89686,-0.0311353,8.89031,0.121951,-14.7561,13.2927
502.942,44.6845,71.9598,0,6.7827,6.83299,1.36995,11.311,5.51829,-41.189,-1.83219,0.0335303,9.07473,0.670732,-14.4512,14.2683
502.952,44.2814,72.2274,0,6.72761,6.91682,1.36516,9.72561,5.51829,-40.1524,-1.82261,0.122146,9.07952,0.609756,-13.811,15.4573
502.962,43.8807,72.4887,0,6.60786,6.93358,1.23104,8.62805,6.52439,-39.5427,-1.83219,0.234712,9.22083,0.487805,-13.1707,15.9756
502.972,43.484,72.7527,0,6.49529,6.93119,1.42743,8.2622,5.42683,-38.9634,-1.77471,0.296982,9.21125,0.213415,-11.9512,15.9756
502.982,43.1046,73.006,0,6.5408,6.9719,1.25499,8.10976,5.39634,-38.0793,-1.76513,0.359253,9.16334,0.0609756,-10.8232,15.8841
502.992,42.7268,73.2687,0,6.45458,7.04854,1.31726,6.76829,4.35976,-37.2866,-1.66693,0.445474,9.07473,-0.0609756,-9.42073,15.1829
503.002,42.3491,73.5397,0,6.35159,7.07728,1.31247,6.92073,4.42073,-36.8598,-1.59987,0.390388,9.13221,0.0914634,-8.35366,14.8476
503.012,41.9782,73.7906,0,6.23424,6.99346,1.3484,6.7378,4.14634,-36.5549,-1.64538,0.318538,9.17053,-0.0609756,-7.53049,13.9329
503.022,41.6301,74.0261,0,6.31088,6.8761,1.22625,6.4939,4.2378,-36.6768,-1.66454,0.251477,9.14418,-0.365854,-6.92073,13.2012
503.032,41.2848,74.2416,0,6.26298,6.91442,1.12566,8.59756,3.75,-36.3415,-1.71483,0.227527,9.16574,-0.823171,-6.15854,12.9268
503.042,40.9302,74.4295,0,6.33004,7.15871,1.13045,9.39024,2.0122,-36.5854,-1.81782,0.217947,9.27352,-1.0061,-5.60976,12.5305
503.052,40.5792,74.5922,0,6.44979,7.27846,1.13045,9.84756,2.83537,-37.0732,-1.90404,0.273032,9.3286,-1.46341,-5.42683,12.561
503.062,40.2185,74.748,0,6.33483,7.51557,1.19511,9.02439,-0.0914634,-35.8841,-1.93518,0.368833,9.45793,-1.76829,-4.90854,12.7439
503.072,39.8577,74.894,0,6.25579,7.5994,1.17835,7.59146,0.914634,-35.2744,-1.94715,0.457449,9.42919,-3.04878,-4.66463,13.4756
503.082,39.5027,75.0401,0,6.14323,7.47725,1.19032,7.43902,3.29268,-35.3049,-1.91362,0.546064,9.34537,-3.75,-4.20732,14.1768
503.092,39.1351,75.1923,0,5.92767,7.44851,1.20709,6.95122,2.53049,-35.4878,-1.88249,0.538879,9.28789,-3.96341,-3.38415,14.3902
503.102,38.7964,75.3637,0,5.99234,7.33594,1.18553,7.43902,1.61585,-34.7866,-1.82261,0.541274,9.27591,-4.17683,-2.80488,14.1768
503.112,38.4847,75.5626,0,6.09293,7.19464,1.23104,8.68902,-0.152439,-34.7866,-1.81303,0.433499,9.3286,-4.05488,-1.95122,13.5366
503.122,38.1635,75.8718,0,6.057,7.38385,1.17835,9.66463,-0.792683,-34.5732,-1.78189,0.306563,9.28549,-3.96341,-0.853659,12.3476
503.132,37.8203,76.2319,0,5.94923,7.75747,1.04902,8.32317,-1.76829,-33.628,-1.74597,0.301772,9.34058,-4.42073,0.518293,11.0061
503.142,37.4877,76.4456,0,5.88935,7.7407,1.21667,7.65244,-4.7561,-32.8049,-1.68849,0.301772,9.32381,-5.33537,1.61585,10.0915
503.152,37.1541,76.6155,0,5.72649,7.75028,1.22625,7.43902,-4.14634,-31.9512,-1.5855,0.395178,9.22562,-5.70122,3.14024,10.0305
503.162,36.8188,76.7547,0,5.5325,7.63053,1.21427,6.7378,-3.32317,-31.7378,-1.62143,0.426313,9.18969,-6.21951,4.20732,10
503.172,36.4972,76.8791,0,5.38161,7.45091,1.2023,6.58537,-4.54268,-30.8232,-1.6358,0.457449,9.15856,-6.64634,5.33537,10.2134
503.182,36.1877,76.981,0,5.32892,7.38145,1.08255,8.62805,-9.26829,-30.2134,-1.70525,0.383203,9.17772,-6.40244,6.64634,10.7012
503.192,35.8939,77.0555,0,5.578,7.62574,1.01309,9.60366,-13.1098,-29.9695,-1.79147,0.304167,9.12981,-5.91463,7.62195,10.061
503.202,35.5984,77.1013,0,5.64506,7.9347,1.04902,8.38415,-11.6463,-29.2073,-1.90404,0.222737,9.15616,-5.67073,8.20122,8.87195
503.212,35.2948,77.1365,0,5.53729,8.15025,1.01788,6.79878,-11.5854,-28.1098,-1.95673,0.208367,9.2304,-5.09146,8.47561,8.56707
503.222,34.9977,77.1642,0,5.48938,8.22929,0.878972,5.79268,-11.189,-27.0732,-1.98068,0.213157,9.22083,-4.81707,8.62805,7.53049
503.232,34.688,77.1787,0,5.30257,8.23887,0.850232,3.96341,-10.8537,-27.0427,-2.03577,0.222737,9.23999,-4.96951,9.05488,7.07317
503.242,34.3954,77.1825,0,5.30257,8.10235,1.1544,4.96951,-17.1951,-26.8293,-2.09325,0.191602,9.30465,-4.96951,9.42073,6.7378
503.252,34.1362,77.1713,0,5.64506,8.13349,0.677791,3.59756,-17.2256,-27.1951,-2.16989,0.138911,9.35974,-4.11585,9.72561,6.40244
503.262,33.8895,77.1505,0,5.74565,8.09996,0.716111,3.35366,-15,-27.6524,-2.20581,0.00718506,9.3286,-3.41463,9.93902,6.03659
503.272,33.6521,77.1193,0,5.84145,8.14546,0.828677,3.65854,-13.9939,-27.8049,-2.26569,-0.0910107,9.37411,-2.68293,10.2744,5.70122
503.282,33.4095,77.0833,0,5.84145,8.15744,0.62031,5.15244,-10.3049,-28.75,-2.29922,-0.172441,9.40524,-2.86585,10.3049,5.54878
503.292,33.152,77.0539,0,5.67141,8.23168,0.716111,5.54878,-8.65854,-28.628,-2.30401,-0.131726,9.51541,-2.71341,9.78659,5.39634
503.302,32.8941,77.0364,0,5.50615,8.13109,0.890947,8.10976,-9.17683,-28.2622,-2.2585,-0.0622705,9.52499,-2.65244,9.69512,6.15854
503.312,32.626,77.0188,0,5.384,8.0784,0.598755,9.29878,-9.60366,-28.9634,-2.24174,0.0526904,9.43877,-2.46951,9.60366,6.85976
503.322,32.3612,76.9977,0,5.41274,8.13109,0.395178,9.39024,-9.7561,-29.1159,-2.26808,0.112566,9.4723,-2.04268,10.122,7.80488
503.332,32.0982,76.9682,0,5.5301,8.3203,0.158071,7.77439,-9.2378,-29.3902,-2.31119,0.141306,9.48428,-1.79878,10.2134,8.38415
503.342,31.8335,76.9188,0,5.47741,8.16702,0.665815,7.92683,-10.6707,-30.5793,-2.40699,0.0766406,9.49146,-1.25,10.2439,8.5061
503.352,31.559,76.857,0,5.42711,8.2245,0.838257,8.96341,-10.2134,-31.25,-2.45729,0.0239502,9.44117,-0.396341,10.3963,8.53659
503.362,31.2772,76.7932,0,5.46304,8.3203,0.682581,10.6402,-10.3354,-32.2866,-2.50759,-0.00479004,9.55613,-0.335366,10.2744,7.89634
503.372,30.978,76.7378,0,5.39837,8.53824,0.58678,11.4329,-10.2439,-32.622,-2.48364,-0.0646655,9.56571,0.0304878,10.3659,7.65244
503.382,30.67,76.6723,0,5.41753,8.65081,0.670605,10.3659,-9.11585,-33.628,-2.52196,-0.100591,9.50344,0.121951,10.6707,7.5
503.392,30.3493,76.5939,0,5.25946,8.6077,0.706531,10.5488,-9.08537,-34.2683,-2.5507,-0.100591,9.35495,0.304878,11.311,7.43902
503.402,30.0122,76.5172,0,5.14929,8.66039,0.593965,7.53049,-6.40244,-35.1829,-2.56267,-0.126936,9.3789,0.762195,12.378,7.77439
503.412,29.6614,76.4342,0,4.9529,8.51429,0.766406,6.70732,-7.19512,-36.1585,-2.60578,-0.0670605,9.38608,0.914634,12.8659,8.17073
503.422,29.3009,76.3376,0,4.81878,8.52627,0.936453,6.09756,-8.68902,-36.4024,-2.62494,-0.0670605,9.19209,0.701219,13.628,8.32317
503.432,28.9438,76.242,0,4.82117,8.42568,0.819097,5.73171,-8.59756,-37.4085,-2.62494,-0.0311353,9.15137,1.46341,14.3598,8.71951
503.442,28.5846,76.1597,0,4.75172,8.47837,0.505349,5.33537,-11.6768,-37.3171,-2.56746,0.0143701,9.09628,2.07317,14.878,9.32927
503.452,28.2347,76.0838,0,4.69424,8.34425,0.684976,7.83537,-14.3902,-37.2866,-2.51717,0.0359253,8.96695,2.7439,15.7622,10.3049
503.463,27.9051,76.0119,0,4.83315,8.45442,0.546064,7.7439,-15.7927,-36.7378,-2.5004,0.0263452,8.92624,3.53659,16.7378,10.2439
503.472,27.5978,75.9356,0,4.87147,8.32509,0.371228,7.62195,-16.0976,-36.311,-2.55309,0.00479004,9.00527,4.84756,17.439,10.2744
503.482,27.3185,75.8444,0,5.12774,8.34425,0.210762,8.07927,-13.7195,-36.6159,-2.58183,-0.0550855,8.84241,5.79268,18.0793,9.66463
503.492,27.0554,75.77,0,5.28341,8.46879,0.411943,8.04878,-11.4939,-36.311,-2.54112,-0.0622705,8.8951,6.7378,18.5976,8.65854
503.502,26.791,75.7081,0,5.31694,8.47358,0.232317,6.06707,-9.57317,-37.2866,-2.51238,-0.136516,8.94061,7.80488,19.6646,8.68902
503.512,26.5412,75.6426,0,5.49896,8.28677,-0.158071,3.2622,-6.61585,-39.3293,-2.53633,-0.160466,8.93821,9.39024,21.2195,8.87195
503.522,26.2536,75.5781,0,5.13013,8.15744,0.138911,4.39024,-1.46341,-40.8232,-2.48843,-0.110171,8.7538,10.9146,23.5671,9.14634
503.532,25.9419,75.5118,0,4.96488,8.28677,0.138911,7.31707,2.43902,-41.3415,-2.47885,-0.0622705,8.66518,12.0427,26.5854,10.3659
503.542,25.6204,75.4291,0,4.93134,8.52387,0.0263452,8.56707,3.84146,-41.189,-2.62015,0.00479004,8.88073,11.8902,27.8659,11.0976
503.552,25.2807,75.2928,0,4.74932,8.48076,-0.0550855,8.53659,5.82317,-42.0732,-2.81175,0.112566,8.72027,12.2866,28.6585,11.7073
503.562,24.9371,75.1198,0,4.59604,8.51429,-0.0526904,9.17683,5.39634,-41.3415,-2.94348,0.316143,8.58375,11.4939,29.939,11.6768
503.572,24.592,74.9658,0,4.61281,8.79212,-0.170046,10.0305,2.83537,-40.8232,-3.00814,0.481399,8.92624,9.90854,29.2378,11.2195
503.582,24.2547,74.7955,0,4.46432,8.62926,0,10.9756,0.853659,-40.061,-3.10874,0.66342,8.92624,7.9878,27.0732,10.7317
503.592,23.9277,74.5941,0,4.3781,8.58136,0.102986,12.0732,2.37805,-39.0244,-3.09916,0.807122,8.44484,7.04268,28.0183,10.1524
503.602,23.6006,74.4118,0,4.25595,8.70111,0.129331,11.5549,3.71951,-37.7439,-3.02012,0.893342,8.36341,5.54878,31.2195,10.8232
503.612,23.2764,74.2419,0,4.23439,8.85439,-0.155676,9.93902,7.7439,-37.0732,-2.95306,0.910107,8.24605,4.17683,35.0305,10.6707
503.622,22.958,74.0584,0,4.09788,8.86636,0.332908,9.84756,8.44512,-35.6098,-2.91953,0.766406,7.93949,3.20122,41.0366,10.6402
503.632,22.6388,73.9072,0,4.04279,8.99809,0.407153,9.17683,8.38415,-35.0915,-2.98419,0.531694,8.40891,2.7439,44.4817,9.66463
503.642,22.3408,73.7398,0,4.15775,9.01725,0.273032,8.35366,8.14024,-34.7256,-3.14227,0.225132,8.58615,2.80488,44.3598,8.29268
503.652,22.0741,73.549,0,4.24637,8.72266,0.210762,8.62805,10.0915,-34.6037,-3.32908,0.0119751,8.73224,3.29268,42.3171,7.0122
503.662,21.811,73.3435,0,4.22481,8.78493,0.184417,7.62195,8.90244,-34.2073,-3.52786,-0.114961,8.98132,3.84146,39.6646,5.70122
503.672,21.5746,73.1179,0,4.26792,8.55501,0.160466,7.43902,9.63415,-33.7195,-3.49673,-0.0407153,8.58854,3.93293,40.1829,5.39634
503.682,21.3283,72.9261,0,4.00926,8.464,0.0934058,7.34756,8.62805,-32.8354,-3.38416,0.182021,8.58136,3.65854,41.189,6.52439
503.692,21.0584,72.716,0,3.75779,8.66997,0.119751,7.2561,8.84146,-31.8293,-3.40811,0.301772,8.36101,4.11585,41.1585,8.47561
503.702,20.7872,72.483,0,3.52547,8.69871,0.225132,9.42073,7.13415,-29.7256,-3.44883,0.390388,8.14307,4.17683,42.7744,9.7561
503.712,20.5486,72.2884,0,3.61169,8.68913,0.131726,12.439,3.04878,-27.9878,-3.53984,0.392783,8.66518,3.53659,42.9268,10.8232
503.722,20.3636,72.0719,0,3.86796,8.83044,-0.294587,12.622,-1.12805,-25.2134,-3.68833,0.445474,8.7035,1.85976,42.5915,11.0366
503.732,20.2216,71.8151,0,3.98292,8.77056,-0.414338,13.2012,-0.945122,-22.7744,-3.85119,0.457449,8.56938,1.31098,43.4451,10.6402
503.742,20.0872,71.5297,0,4.00208,8.95737,-0.732876,14.1159,0.884146,-21.5854,-3.9925,0.512534,8.49513,0.731707,44.0244,9.78659
503.752,19.9267,71.2267,0,3.89191,9.24238,-0.59636,13.7195,3.62805,-21.9817,-4.15296,0.58678,8.55022,0.518293,43.811,9.14634
503.763,19.7358,70.8931,0,3.83922,9.40764,-0.58199,13.5671,6.67683,-24.1159,-4.35894,0.548459,8.5598,1.15854,42.4085,8.75
503.772,19.5441,70.5288,0,3.78892,9.55134,-0.64905,12.6524,12.5915,-23.4451,-4.48108,0.474214,8.39215,1.98171,41.4329,7.92683
503.782,19.3474,70.1704,0,3.64282,9.4747,-0.481399,12.3171,15.6098,-23.1098,-4.59125,0.328118,8.51908,1.46341,40.7927,7.37805
503.792,19.1323,69.7997,0,3.35542,9.30465,-0.270637,13.0793,20.6098,-22.9268,-4.64634,0.246687,8.38496,1.03659,39.9085,7.07317
503.802,18.8826,69.4428,0,3.02251,9.43638,-0.337698,13.1707,25.5488,-22.6829,-4.61281,0.253872,8.31551,0.97561,39.2683,7.10366
503.812,18.633,69.107,0,2.84289,9.39806,-0.364043,13.689,28.9024,-21.2805,-4.63915,0.275427,8.42089,0.609756,37.8963,7.13415
503.822,18.3803,68.7491,0,2.72074,9.4747,-0.0958008,14.3293,29.8171,-20.4573,-4.67268,0.344883,8.1766,0,37.0427,7.37805
503.832,18.1152,68.3869,0,2.51717,9.4723,-0.00479004,15.1829,26.8902,-19.9085,-4.67029,0.330513,8.01853,-0.0304878,36.311,7.5
503.842,17.8601,68.0474,0,2.5507,9.45554,-0.114961,13.9634,23.0488,-19.878,-4.70861,0.232317,8.15025,0.609756,34.3902,7.53049
503.852,17.584,67.6895,0,2.40939,9.35734,-0.318538,11.2195,22.439,-21.189,-4.65831,0.153281,7.80537,0.762195,32.7744,7.43902
503.862,17.3146,67.3857,0,2.48364,9.34537,-0.526904,11.7378,25.8841,-21.9817,-4.60802,0,8.03769,1.0061,31.6463,7.53049
503.872,16.9837,67.1286,0,1.90404,9.34776,-0.0119751,13.2317,20.6098,-21.9207,-4.56012,-0.0431104,8.24126,0.914634,30.1524,8.01829
503.882,16.6577,66.8586,0,1.83458,9.35255,-0.0239502,11.9817,16.6768,-21.25,-4.51701,-0.0239502,7.97062,0.97561,30.0915,8.65854
503.892,16.3285,66.5658,0,1.75076,9.12263,-0.0838257,11.0061,12.5,-21.7683,-4.51461,0.0598755,7.70238,1.06707,31.8293,9.42073
503.902,15.9986,66.2825,0,1.70765,9.00527,-0.0502954,12.439,8.65854,-22.2561,-4.58167,0.201182,7.80058,1.37195,32.8354,10.0305
503.912,15.6776,66.0042,0,1.83698,9.15376,-0.0119751,13.1098,2.5,-23.2622,-4.74453,0.316143,8.02571,1.43293,31.25,10.0305
503.922,15.3651,65.6729,0,1.86812,9.16095,0.00958008,11.9207,-5.03049,-23.4146,-4.90021,0.316143,7.77663,1.61585,29.6341,9.20732
503.932,15.0918,65.3435,0,2.00942,9.0867,-0.0431104,12.8963,-8.96341,-21.9817,-5.02475,0.354463,7.8868,1.34146,28.8415,7.92683
503.942,14.8747,65.0117,0,2.30401,9.05557,-0.364043,14.8171,-12.0122,-20.4878,-5.08223,0.433499,7.85566,1.18902,26.9512,6.58537
503.952,14.6573,64.6774,0,2.16989,9.20166,-0.416733,14.1463,-14.0244,-18.9024,-5.06786,0.584385,7.71436,-0.0914634,26.1585,5.39634
503.962,14.4505,64.3687,0,2.13157,9.22322,-0.421523,11.8598,-17.1646,-17.7439,-5.06547,0.732876,7.80058,-1.46341,24.2378,4.35976
503.972,14.2709,64.0861,0,2.25371,9.13939,-0.342488,13.3232,-17.0732,-17.1037,-5.0032,0.761616,7.80776,-1.61585,23.1707,4.72561
503.982,14.065,63.802,0,2.08367,9.45314,-0.747246,12.378,-14.5427,-17.2561,-5.07984,0.673001,7.82932,-1.64634,22.6829,5.09146
503.992,13.8786,63.5191,0,2.29922,9.49146,-0.428708,10.3049,-14.7866,-18.1098,-5.1948,0.55325,7.92991,-1.89024,22.6829,5.4878
504.002,13.7014,63.226,0,2.4549,9.5705,-0.213157,12.3476,-15.0305,-19.1159,-5.3864,0.366438,8.05445,-1.92073,22.4695,5.88415
504.012,13.5269,62.8731,0,2.56267,9.75731,-0.404758,13.2012,-15.8537,-19.878,-5.55166,0.205972,7.76226,-1.92073,22.5305,6.34146
504.022,13.3405,62.5123,0,2.57465,9.90341,-0.426313,9.66463,-13.7195,-21.1585,-5.6738,0.136516,7.77184,-1.89024,21.9207,6.55488
504.032,13.1372,62.1831,0,2.44052,9.97047,-0.893342,5.57927,-9.11585,-21.5854,-5.76721,0.203577,8.02571,-1.79878,20.1524,7.07317
504.042,12.9016,61.8444,0,2.02619,9.61121,-0.804727,3.29268,-7.28659,-21.5244,-5.75523,0.330513,7.84129,-1.34146,18.4146,7.31707
504.052,12.7027,61.4918,0,2.27048,9.28549,-0.440684,6.34146,-6.98171,-22.0122,-5.70015,0.445474,7.57305,-0.609756,18.628,7.56098
504.062,12.4742,61.1838,0,2.06451,9.37171,-0.428708,10,-8.62805,-22.7439,-5.6283,0.519719,7.6928,-0.548781,19.3902,7.10366
504.072,12.2347,60.8807,0,1.98308,9.49865,-0.505349,8.84146,-10.0915,-23.0488,-5.68817,0.529299,7.72154,-0.609756,18.5366,6.40244
504.082,12.0039,60.5821,0,2.07169,9.40524,-0.500559,7.22561,-13.1402,-23.9329,-5.71212,0.522114,7.69999,-0.0914634,18.4756,5.36585
504.092,11.7611,60.2839,0,2.03098,9.4723,-0.445474,4.57317,-17.0427,-24.9695,-5.70733,0.510139,7.61377,-0.396341,18.6585,3.93293
504.102,11.51,60.009,0,1.88488,9.38848,-0.304167,3.01829,-19.0549,-24.7866,-5.63309,0.526904,7.597,-1.31098,20.3963,2.83537
504.112,11.2847,59.7529,0,2.00463,9.39327,-0.486189,3.78049,-19.3598,-24.0854,-5.58998,0.560435,7.59461,-2.28659,21.189,2.40854
504.122,11.0698,59.5135,0,2.00224,9.54415,-0.512534,4.11585,-20.8841,-23.0793,-5.578,0.57241,7.62574,-2.68293,21.5244,2.40854
504.132,10.8865,59.2979,0,2.1627,9.616,-0.730481,0.579268,-21.4329,-21.9817,-5.61393,0.584385,7.77663,-3.5061,21.6768,2.62195
504.142,10.7308,59.0649,0,2.30401,9.60882,-0.574805,0,-21.2805,-21.189,-5.67141,0.58678,7.67125,-3.84146,21.9207,2.07317
504.152,10.5952,58.8061,0,2.39981,9.61121,-0.495769,0.853659,-24.3598,-20.5488,-5.70015,0.574805,7.46767,-4.14634,23.689,2.13415
504.162,10.4746,58.5771,0,2.4501,9.77886,-0.407153,1.18902,-23.5671,-19.3902,-5.6762,0.450264,7.57305,-3.9939,24.7561,1.95122
504.173,10.375,58.3673,0,2.56746,9.8603,-0.689766,-0.0609756,-22.6524,-18.5671,-5.7217,0.304167,7.70478,-3.56707,24.9695,1.67683
504.182,10.2757,58.1559,0,2.44531,9.69264,-0.689766,-0.945122,-19.878,-17.8659,-5.69296,0.253872,7.597,-2.92683,24.9695,1.28049
504.192,10.1881,57.9489,0,2.46687,9.59924,-0.65863,-0.365854,-16.0061,-17.378,-5.76721,0.227527,7.66885,-2.5,25.7012,1.34146
504.202,10.0889,57.7312,0,2.31119,9.54655,-0.646655,0.152439,-16.128,-17.1037,-5.80313,0.347278,7.58503,-2.68293,26.311,1.58537
504.212,10.0361,57.4975,0,2.69679,9.45554,-0.795146,-0.945122,-14.0549,-17.2866,-5.89414,0.500559,7.53473,-2.77439,27.378,1.95122
504.222,10.0237,57.2511,0,3.05365,9.38608,-0.962798,-3.68902,-10.061,-17.561,-5.97078,0.670605,7.48444,-3.38415,28.75,2.37805
504.232,9.99828,56.9814,0,2.93629,9.2328,-0.843047,-2.28659,-7.22561,-18.1402,-6.08335,0.759221,7.40301,-3.87195,30.3049,2.53049
504.242,9.95394,56.7218,0,2.78062,9.61361,-0.799937,-0.731707,-3.96341,-17.0427,-6.14323,0.754431,7.47486,-4.5122,31.7988,2.28659
504.252,9.90748,56.4351,0,2.62015,9.69025,-0.775986,0.0304878,-4.2378,-15.3049,-6.2534,0.656235,7.3599,-5.30488,33.3537,1.7378
504.262,9.87587,56.1504,0,2.67763,9.88664,-0.651445,-0.640244,-2.95732,-13.9329,-6.27735,0.512534,7.32876,-5.57927,35.2134,0.762195
504.272,9.86288,55.8755,0,2.68242,9.88185,-0.59636,-0.579268,-1.4939,-12.1646,-6.26537,0.328118,7.3072,-6.12805,36.5244,0.396341
504.282,9.86668,55.5933,0,2.68482,9.91778,-0.917292,-1.61585,-0.97561,-10.3963,-6.2534,0.193997,7.17787,-5.57927,37.9268,0.27439
504.292,9.86444,55.3202,0,2.44052,9.4747,-0.843047,-1.15854,-0.97561,-9.57317,-6.26777,0.117356,7.18266,-5.57927,39.2378,0.670732
504.302,9.83104,55.0378,0,2.17228,9.62319,-0.862207,-0.97561,-2.28659,-9.2378,-6.2989,0.0215552,7.09165,-5.2439,40.3963,1.25
504.312,9.78608,54.7156,0,2.12917,9.7621,-0.692161,-1.95122,-4.7561,-9.63415,-6.38752,0.00479004,6.8761,-4.48171,41.8293,1.76829
504.322,9.73496,54.3725,0,2.04774,9.62558,-0.670605,-3.23171,-6.25,-9.7561,-6.52403,-0.0167651,6.81862,-3.87195,43.0793,2.68293
504.332,9.67267,54.0172,0,1.99505,9.69743,-0.455054,-4.93902,-8.93293,-10.2134,-6.70605,0.00958008,6.85215,-3.41463,44.0854,3.04878
504.342,9.62415,53.651,0,2.08846,9.63037,-0.0886157,-3.56707,-9.87805,-10.1829,-6.84976,0.0622705,6.84736,-3.2622,44.6037,3.41463
504.352,9.57634,53.2451,0,2.05493,9.73096,0.0167651,-0.213415,-10.2744,-9.57317,-6.90963,0.162861,6.5863,-2.59146,45.6098,3.38415
504.363,9.52563,52.8508,0,1.93997,9.75012,-0.251477,0.731707,-8.9939,-8.59756,-6.95035,0.258662,6.60067,-2.31707,47.378,3.81098
504.372,9.47151,52.4646,0,1.85854,9.68067,-0.742456,0.487805,-7.7439,-8.2622,-6.96711,0.265847,6.57433,-1.67683,48.4451,3.78049
504.382,9.45207,52.0838,0,2.26808,9.7118,-0.876577,0.243902,-12.3171,-9.48171,-6.99346,0.258662,6.54319,-0.823171,49.6951,4.11585
504.392,9.38958,51.6972,0,1.96152,9.70941,-0.986748,-1.55488,-13.5366,-10.3963,-7.04136,0.203577,6.46895,-0.670732,50.9451,4.32927
504.402,9.35526,51.2729,0,2.20342,9.7118,-1.04902,-2.5,-13.2622,-10.4268,-7.12518,0.148491,6.24621,-0.609756,52.0427,4.5122
504.412,9.34075,50.838,0,2.31838,9.63516,-0.888552,-3.35366,-13.1098,-10,-7.17308,0.0718506,6.13843,-0.121951,53.5671,4.66463
504.422,9.35397,50.4244,0,2.47645,9.54655,-0.752036,-3.17073,-11.0671,-9.26829,-7.24972,0.0622705,6.22705,-0.213415,54.0854,4.81707
504.432,9.35905,49.9818,0,2.46208,9.58726,-0.701741,-1.15854,-7.89634,-9.78659,-7.33115,0.102986,6.04742,-0.579268,54.3902,4.81707
504.442,9.33397,49.5094,0,2.23216,9.68785,-0.574805,-0.0609756,-4.48171,-9.93902,-7.37666,0.210762,5.83187,-0.731707,56.311,4.2378
504.452,9.2858,49.0609,0,1.97829,9.75252,-0.452659,-0.0609756,-6.0061,-9.26829,-7.43893,0.325723,5.91091,-1.09756,57.622,4.35976
504.462,9.21431,48.5977,0,1.76752,9.7142,-0.689766,0.0609756,-6.55488,-9.39024,-7.53713,0.378413,5.81511,-1.09756,58.2317,4.48171
504.472,9.12536,48.0958,0,1.62622,9.57768,-0.799937,-1.12805,-5.60976,-9.93902,-7.57066,0.421523,5.54447,-1.03659,59.1768,4.7561
504.482,9.05921,47.6469,0,1.93997,9.72138,-0.550855,-0.97561,-6.95122,-11.1585,-7.72633,0.383203,5.83427,-1.21951,60.0915,5.06098
504.492,8.95699,47.1844,0,1.69567,9.64714,-0.699346,-2.89634,-7.37805,-12.2866,-7.85087,0.368833,5.76002,-1.89024,60.5183,5.06098
504.502,8.83465,46.6981,0,1.57353,9.5226,-0.467029,-2.86585,-10.2744,-13.3537,-7.84369,0.354463,5.53489,-2.2561,61.7683,5.18293
504.512,8.68954,46.201,0,1.40348,9.67109,-0.512534,-2.07317,-9.48171,-13.628,-7.92991,0.332908,5.44148,-2.9878,63.1098,5.12195
504.523,8.48732,45.7156,0,0.699346,9.67109,-0.58199,-3.96341,-9.17683,-11.3415,-7.94428,0.306563,5.41035,-3.38415,63.3232,4.72561
504.532,8.40773,45.2181,0,1.88249,9.94173,-0.59157,-4.08537,-10.8232,-12.6829,-7.99218,0.332908,5.28341,-3.59756,63.3232,4.72561
504.542,8.31209,44.7363,0,1.63101,9.78126,-0.292192,-4.26829,-15.5793,-11.9207,-8.00176,0.325723,5.26904,-3.90244,63.5976,4.54268
504.552,8.2672,44.1736,0,1.94236,9.69743,-0.61073,-3.20122,-14.0244,-10.7317,-7.70478,0.299377,4.60323,-3.71951,66.5549,4.78659
504.562,8.2316,43.6477,0,1.90883,9.64714,-0.704136,-1.98171,-14.8171,-9.60366,-7.88919,0.258662,4.78285,-3.75,67.3781,5.06098
504.572,8.16487,43.1647,0,1.52084,9.53457,-0.783171,-1.52439,-15.5793,-8.5061,-8.04487,0.217947,4.98404,-3.78049,66.3719,5.06098
504.582,8.15262,42.6579,0,1.98068,9.64953,-0.823887,-0.518293,-14.3293,-8.2622,-8.06882,0.241897,4.79004,-4.45122,66.4024,5.03049
504.592,8.0836,42.1361,0,1.52323,9.61361,-0.756826,-1.7378,-14.0854,-8.78049,-8.10714,0.265847,4.64634,-4.90854,67.7439,4.81707
504.602,8.01352,41.5927,0,1.55197,9.53936,-0.718506,-2.65244,-12.5915,-9.5122,-8.16702,0.342488,4.48108,-5.06098,68.689,4.93902
504.612,7.92608,41.0018,0,1.41785,9.37411,-0.560435,-2.16463,-10.6402,-10.122,-8.33706,0.285007,4.25116,-5.15244,69.8476,4.14634
504.622,7.86566,40.4376,0,1.73639,9.62798,-0.656235,-1.28049,-7.40854,-10.8537,-8.48316,0.328118,4.34217,-6.12805,71.0366,4.20732
504.632,7.74842,39.8707,0,1.31487,9.8076,-0.799937,-1.37195,-7.71341,-11.4939,-8.52148,0.251477,4.24397,-6.64634,71.311,4.02439
504.642,7.64567,39.2914,0,1.32445,9.65672,-0.59157,-0.914634,-7.59146,-10.6098,-8.54782,0.215552,4.09548,-6.82927,72.3171,4.32927
504.652,7.54771,38.7316,0,1.29092,9.65193,-0.65384,-0.426829,-6.85976,-9.93902,-8.58136,0.158071,4.09548,-6.52439,72.2866,3.9939
504.662,7.49246,38.1503,0,1.6358,9.73815,-0.60594,0.0609756,-9.05488,-9.69512,-8.70111,0.0526904,3.94939,-6.34146,72.7744,3.9939
504.672,7.41219,37.5639,0,1.43222,9.67109,-0.64426,0.487805,-7.28659,-10.0915,-8.72745,-0.00718506,3.83203,-6.85976,73.5366,3.96341
504.682,7.31635,36.9978,0,1.30289,9.6184,-0.62031,0.518293,-8.20122,-10.3963,-8.8472,-0.0191602,3.87035,-6.55488,72.7134,3.81098
504.692,7.16946,36.4152,0,0.807122,9.52739,-0.632285,-0.243902,-7.37805,-9.93902,-8.88073,-0.0383203,3.7051,-7.31707,72.7744,3.87195
504.702,7.06769,35.8145,0,1.2502,9.72617,-0.696951,-1.37195,-6.21951,-10.7012,-8.87594,0.0622705,3.51589,-7.31707,73.1402,3.93293
504.712,6.9475,35.2333,0,1.13524,9.67827,-0.665815,-2.43902,-5.51829,-11.4939,-8.95019,0.0550855,3.52547,-7.46951,73.3537,4.39024
504.722,6.81225,34.6493,0,0.941243,9.63756,-0.411943,-1.79878,-6.06707,-11.0061,-8.86157,0.122146,3.37458,-7.43902,72.7439,4.7561
504.732,6.73245,34.0684,0,1.26218,9.60882,-0.593965,-0.548781,-3.2622,-9.5122,-8.85199,0.165256,3.28118,-7.59146,72.5,5.36585
504.742,6.66323,33.462,0,1.38193,9.64235,-0.713716,0.762195,-6.28049,-9.96951,-8.97653,0.172441,3.11113,-7.7439,73.0793,6.0061
504.752,6.58451,32.8556,0,1.21667,9.55852,-0.718506,1.12805,-6.43293,-9.2378,-8.91905,0.146096,2.98659,-8.32317,73.2317,5.85366
504.762,6.501,32.2658,0,0.998723,9.43877,-0.941243,0.487805,-4.05488,-7.40854,-9.11305,0.119751,3.01772,-8.17073,73.0183,5.91463
504.772,6.41664,31.6558,0,1.14003,9.67588,-0.677791,0.823171,-5.64024,-9.05488,-9.21603,0.00958008,2.85726,-7.95732,73.3232,5.42683
504.782,6.30994,31.0337,0,0.960403,9.62558,-0.680186,0.182927,0.457317,-9.42073,-9.26633,-0.0455054,2.71116,-7.59146,73.0793,4.57317
504.792,6.24191,30.4281,0,1.16637,9.68546,-0.59636,0.335366,2.80488,-8.07927,-9.39327,-0.208367,2.71116,-7.31707,72.8963,3.81098
504.802,6.12139,29.8073,0,0.771196,9.63037,-0.56762,-0.152439,1.95122,-8.90244,-9.38608,-0.220342,2.53393,-6.67683,71.9817,3.44512
504.812,5.9989,29.1808,0,0.737666,9.67588,-0.469424,-0.670732,-0.487805,-8.90244,-9.36692,-0.287402,2.39502,-5.94512,71.8902,3.07927
504.822,5.87817,28.5591,0,0.62031,9.55373,-0.574805,-0.884146,-1.52439,-7.65244,-9.40285,-0.237107,2.31598,-5.54878,71.5549,2.56098
504.832,5.81698,27.9553,0,1.20469,9.62319,-0.876577,-0.243902,1.89024,-8.81098,-9.38848,-0.277822,2.28245,-4.72561,71.6463,3.38415
504.842,5.68673,27.3491,0,0.63947,9.54894,-0.646655,0.762195,1.67683,-9.2378,-9.38848,-0.193997,2.16749,-4.39024,71.0366,2.92683
504.852,5.50525,26.7886,0,0.100591,9.51781,-0.57241,0.487805,4.35976,-8.14024,-9.35255,-0.0407153,2.25132,-3.81098,68.4756,3.5061
504.862,5.36856,26.2617,0,0.55325,9.63277,-0.60594,1.43293,2.65244,-9.42073,-9.58008,-0.129331,2.3567,-3.44512,68.4451,1.21951
504.872,5.20446,25.6519,0,0.308958,9.77647,-0.565225,1.0061,0.396341,-9.48171,-9.14658,0.160466,1.81063,-4.7561,67.6219,0.731707
504.882,5.01014,25.151,0,-0.00479004,9.69743,-0.622705,-0.121951,0.762195,-9.14634,-9.5681,0.167651,2.26808,-5.27439,66.8598,1.4939
504.892,4.89394,24.6471,0,0.675395,9.74294,-0.764011,0.884146,0.518293,-9.72561,-9.65672,0.241897,2.18665,-7.56098,67.2256,2.31707
504.902,4.76714,24.1096,0,0.608335,9.65911,-0.823887,2.68293,5.60976,-10.3049,-9.86988,0.208367,1.99026,-7.92683,66.0976,2.62195
504.912,4.63377,23.5606,0,0.505349,9.64714,-0.55804,3.04878,6.61585,-10,-9.79563,0.265847,1.8274,-8.59756,64.939,3.35366
504.922,4.50191,23.0336,0,0.467029,9.68067,-0.6251,2.68293,9.26829,-9.63415,-9.84832,0.129331,1.83698,-9.5122,63.1098,3.47561
504.932,4.37749,22.5014,0,0.457449,9.79803,-0.579595,2.37805,8.96341,-8.96341,-10.0495,-0.0431104,1.75315,-9.87805,61.2805,3.04878
504.942,4.22527,21.9656,0,0.232317,9.94173,-0.632285,2.43902,7.89634,-9.32927,-9.99202,-0.0958008,1.63101,-10.5793,60.3963,2.7439
504.952,4.09873,21.4582,0,0.462239,9.87946,-0.66342,1.85976,8.41463,-9.7561,-9.58726,0.00718506,1.59508,-10.6707,59.2988,3.29268
504.962,3.95443,20.9693,0,0.304167,9.76689,-0.684976,2.04268,8.65854,-10,-9.73336,-0.184417,1.61185,-11.189,58.8415,3.90244
504.972,3.8109,20.4805,0,0.258662,9.69025,-0.565225,1.79878,12.1951,-9.69512,-9.92975,-0.275427,1.55676,-11.372,57.1646,3.90244
504.982,3.71028,19.9791,0,0.59157,9.79563,-0.433499,2.77439,12.9878,-9.54268,-9.83395,-0.146096,1.39869,-11.0671,55.7927,4.63415
504.992,3.55753,19.4847,0,0.196392,9.76689,-0.565225,3.35366,12.3476,-10.3659,-9.81719,-0.0502954,1.33882,-11.189,54.7866,6.0061
505.002,3.38876,18.9769,0,0.0263452,9.82437,-0.622705,3.56707,14.4512,-10.2744,-9.8603,0.00239502,1.19751,-11.4329,53.2927,7.13415
505.012,3.17401,18.4505,0,-0.510139,9.63995,-0.462239,3.38415,14.1768,-8.81098,-9.98723,-0.0215552,1.03944,-11.4939,52.0732,7.19512
505.022,3.00693,17.9356,0,0.0263452,9.83635,-0.61073,4.5122,14.9085,-10.8841,-10.1788,-0.0958008,1.01549,-12.0427,50.7012,6.67683
505.032,2.82202,17.4142,0,-0.232317,9.72857,-0.637075,4.29878,12.8659,-9.93902,-10.1333,-0.0455054,0.888552,-12.378,48.9329,6.55488
505.042,2.58961,16.8888,0,-0.740061,9.54415,-0.517324,5.15244,14.3598,-8.90244,-10.1956,-0.162861,0.780776,-12.6829,46.8902,6.64634
505.052,2.42799,16.3598,0,-0.174836,9.92736,-0.58678,5.79268,10.6707,-9.14634,-10.2962,-0.335303,0.675395,-13.0793,44.9085,6.34146
505.062,2.21224,15.8411,0,-0.646655,9.96568,-0.673001,4.42073,8.71951,-9.48171,-10.2651,-0.320933,0.622705,-12.5,42.6829,5.73171
505.072,1.99934,15.3356,0,-0.617915,9.88425,-0.608335,3.68902,9.39024,-9.90854,-10.2914,-0.265847,0.589175,-11.9207,40.4573,6.61585
505.082,1.78993,14.8166,0,-0.63947,9.91538,-0.490979,3.47561,6.40244,-9.7561,-10.3082,-0.340093,0.435894,-11.1585,38.5976,7.34756
505.092,1.55131,14.2304,0,-1.00112,9.69504,-0.385598,2.7439,3.35366,-8.65854,-10.1525,-0.294587,0.0359253,-10.122,38.2927,8.5061
505.102,1.38614,13.6351,0,-0.270637,9.79323,-0.65384,4.14634,4.93902,-10.4573,-10.2339,-0.354463,-0.110171,-9.39024,37.5,8.41463
505.112,1.21552,13.1058,0,-0.390388,9.95849,-0.60115,3.9939,1.46341,-10,-10.4567,-0.426313,0.0814307,-8.01829,35.9451,8.32317
505.122,1.06299,12.6173,0,-0.232317,9.99681,-0.673001,3.68902,1.31098,-10.3659,-10.5357,-0.507744,0.172441,-6.7378,33.628,7.59146
505.132,0.916334,12.1119,0,-0.229922,10.0543,-0.740061,4.11585,3.29268,-10.122,-10.4974,-0.60594,0.00239502,-5.15244,32.1037,6.70732
505.142,0.750671,11.6122,0,-0.462239,9.89143,-0.723296,3.81098,4.32927,-9.57317,-10.1261,-0.627495,-0.0622705,-3.29268,31.1585,6.15854
505.152,0.655991,11.1144,0,0.184417,9.91059,-0.656235,4.60366,5,-10.3049,-9.68785,-0.62989,-0.136516,-1.76829,30.6098,6.43293
505.162,0.513681,10.6725,0,-0.244292,9.92496,-0.730481,3.59756,2.68293,-10.3049,-9.89622,-0.716111,0.0167651,0.0304878,28.75,6.64634
505.172,0.364862,10.2456,0,-0.373623,9.76449,-0.706531,3.07927,1.4939,-9.66463,-9.99921,-0.713716,0.00479004,1.52439,27.2256,7.2561
505.182,0.234918,9.80777,0,-0.306563,9.67827,-0.790356,3.04878,1.70732,-8.81098,-9.63277,-0.414338,-0.114961,2.37805,25.6402,7.9878
505.192,0.115148,9.4207,0,-0.289797,9.74054,-0.747246,2.62195,1.7378,-8.2622,-9.91538,-0.387993,0.0263452,2.5,24.0549,9.26829
505.202,0.0214224,9.03102,0,-0.237107,9.8076,-0.783171,1.76829,1.4939,-6.4939,-10.2579,-0.335303,-0.0550855,2.89634,22.5915,9.45122
505.212,-0.0513395,8.64667,0,-0.191602,9.88904,-0.787961,1.79878,-0.27439,-5.09146,-10.3848,-0.201182,-0.102986,3.04878,21.5549,9.2378
505.222,-0.112716,8.2605,0,-0.208367,9.96089,-0.816702,1.40244,-0.792683,-3.84146,-10.5165,-0.0814307,-0.184417,3.47561,20.3049,9.02439
505.232,-0.163844,7.88504,0,-0.189207,9.89862,-0.747246,1.40244,-2.71341,-3.04878,-10.6075,0,-0.208367,3.32317,19.2683,9.02439
505.242,-0.182585,7.49006,0,-0.00718506,9.75012,-0.814307,1.89024,-3.38415,-2.22561,-10.5022,0.0574805,-0.366438,3.56707,18.3537,8.84146
505.252,-0.193393,7.09728,0,0.0431104,9.78844,-0.840652,1.92073,-3.10976,-2.19512,-10.4734,-0.0359253,-0.428708,3.44512,17.1037,8.71951
505.262,-0.198696,6.72676,0,0.0383203,9.79563,-0.864602,1.18902,-3.20122,-1.70732,-10.495,-0.0910107,-0.399968,2.77439,15.5488,8.23171
505.272,-0.194122,6.34977,0,0.0886157,9.74294,-0.874182,1.12805,-2.86585,-1.61585,-10.3704,-0.100591,-0.493374,1.95122,14.0244,8.23171
505.282,-0.203517,5.97793,0,0.0574805,9.85072,-0.804727,1.46341,-1.09756,-2.2561,-10.0854,-0.0455054,-0.524509,0.579268,12.6829,8.62805
505.292,-0.212469,5.65,0,0.0742456,9.93694,-0.747246,0.853659,-0.792683,-2.40854,-10.1214,-0.0335303,-0.397573,-0.701219,10.7927,8.90244
505.302,-0.222409,5.31782,0,0.134121,9.84114,-0.787961,1.0061,0.304878,-3.20122,-9.98484,0.0263452,-0.469424,-2.16463,9.14634,9.69512
505.312,-0.222434,4.98164,0,0.249082,9.7597,-0.878972,1.76829,2.92683,-3.62805,-9.86988,-0.00718506,-0.538879,-2.92683,7.31707,10.8841
505.322,-0.242479,4.65048,0,0.148491,9.80281,-0.912502,2.07317,3.75,-4.32927,-10.0663,-0.112566,-0.584385,-3.5061,6.09756,11.0061
505.333,-0.277101,4.3088,0,0.0718506,9.77407,-0.931663,2.07317,4.02439,-4.90854,-10.0639,-0.148491,-0.682581,-3.90244,5.18293,10.7622
505.342,-0.323399,3.96421,0,-0.0119751,9.74533,-0.833467,1.98171,4.54268,-5.15244,-10.1333,-0.285007,-0.761616,-3.90244,5.15244,10.2439
505.352,-0.370397,3.64228,0,-0.0335303,9.82437,-0.826282,0.823171,3.65854,-5.06098,-10.1094,-0.234712,-0.718506,-3.65854,5.03049,9.54268
505.362,-0.405489,3.32181,0,0,9.7118,-0.859812,0.548781,3.32317,-4.35976,-10.0375,-0.215552,-0.744851,-2.95732,4.17683,9.5122
505.372,-0.435578,2.99289,0,0,9.78126,-0.890947,-0.152439,1.4939,-3.93293,-9.89383,-0.241897,-0.783171,-2.68293,3.44512,9.48171
505.382,-0.460777,2.65928,0,-0.0431104,9.74294,-0.855022,-0.365854,-0.396341,-2.9878,-9.8579,-0.325723,-0.819097,-2.95732,3.04878,9.39024
505.392,-0.478728,2.29006,0,-0.0335303,9.76928,-0.996328,-0.945122,-1.58537,-2.46951,-9.95131,-0.342488,-0.756826,-3.04878,1.61585,9.45122
505.402,-0.463361,1.83555,0,0.0910107,9.7597,-1.05381,-0.97561,-3.78049,-1.46341,-9.9537,-0.376018,-0.866997,-2.71341,1.03659,9.20732
505.412,-0.386249,1.32804,0,0.282612,9.82916,-1.06339,-1.25,-4.63415,-0.640244,-10.1621,-0.332908,-0.934058,-2.62195,0.487805,9.05488
505.422,-0.232043,0.699428,0,0.404758,9.83874,-1.1041,-0.548781,-3.29268,0,-10.1333,-0.294587,-1.0562,-2.2561,0.121951,9.17683
505.432,-0.12749,0.267311,0,0.399968,9.94891,-1.13045,-0.731707,-1.52439,0.518293,-10.1429,-0.325723,-1.07297,-1.52439,0.762195,8.71951
505.442,-0.0256631,-0.123298,0,0.399968,9.84593,-1.09452,-0.548781,-1.95122,0.640244,-10.0711,-0.411943,-1.12326,-0.762195,1.06707,8.53659
505.452,0.0597561,-0.484988,0,0.378413,9.82677,-1.14721,-0.0304878,-1.06707,0.945122,-9.97765,-0.450264,-1.11608,0.304878,1.21951,8.14024
505.462,0.155613,-0.831632,0,0.423918,9.80521,-1.12566,-0.853659,-1.0061,0.823171,-9.91538,-0.435894,-1.14721,0.945122,1.34146,8.01829
505.472,0.260815,-1.17081,0,0.462239,9.71899,-1.09452,-0.457317,-1.06707,0.823171,-9.86509,-0.399968,-1.18314,1.43293,1.40244,7.83537
505.482,0.373046,-1.49419,0,0.495769,9.73336,-0.931663,-0.487805,-0.853659,0.731707,-9.84832,-0.292192,-1.17595,1.82927,1.37195,7.37805
505.492,0.474927,-1.82079,0,0.479004,9.72138,-1.03465,-0.762195,-1.21951,0.792683,-9.83395,-0.203577,-1.15679,2.2561,1.12805,7.56098
505.502,0.5549,-2.11945,0,0.419128,9.76449,-0.943638,-1.0061,-1.4939,0.914634,-9.86269,-0.170046,-1.11847,1.95122,1.03659,7.59146
505.512,0.658475,-2.38556,0,0.443079,9.71899,-0.958008,-1.46341,-1.37195,0.365854,-9.91299,-0.138911,-1.09213,1.52439,1.0061,7.46951
505.522,0.77231,-2.64562,0,0.524509,9.76928,-1.0083,-1.92073,-0.457317,0.426829,-9.91299,-0.126936,-1.02746,1.0061,0.670732,7.46951
505.532,0.888342,-2.91456,0,0.548459,9.69264,-1.00591,-2.04268,0.152439,0.518293,-9.91299,-0.100591,-1.07776,0.609756,0.609756,7.68293
505.542,1.01771,-3.21651,0,0.570015,9.66869,-1.00112,-1.7378,0.884146,0.335366,-9.91538,-0.110171,-1.02267,0.365854,0.0609756,7.5
505.552,1.14722,-3.47903,0,0.546064,9.66869,-1.04662,-1.40244,1.43293,0.121951,-9.99681,-0.0167651,-1.02986,-0.0304878,-0.0304878,7.5
505.562,1.24787,-3.64492,0,0.536484,9.68306,-1.05381,-1.46341,1.76829,-0.304878,-10.0088,0.00718506,-1.02267,-0.579268,-0.670732,7.31707
505.572,1.38005,-3.81248,0,0.584385,9.67348,-1.03944,-1.67683,3.38415,-0.0609756,-9.97047,-0.0431104,-1.08494,-0.914634,-0.884146,7.31707
505.582,1.49545,-3.93958,0,0.543669,9.68306,-0.890947,-1.28049,3.75,0,-9.96089,-0.0287402,-1.07536,-1.21951,-1.46341,7.0122
505.592,1.5916,-4.05873,0,0.555645,9.72378,-0.972378,-1.67683,3.17073,0.213415,-9.9058,-0.0718506,-1.07297,-1.67683,-1.58537,7.19512
505.602,1.68155,-4.16901,0,0.574805,9.80042,-0.974773,-1.70732,2.86585,0.243902,-9.91059,-0.0622705,-1.09931,-1.98171,-1.98171,6.95122
505.612,1.76755,-4.28498,0,0.59636,9.84593,-0.998723,-1.89024,2.7439,0.304878,-9.89622,-0.0790356,-1.15679,-2.10366,-2.2561,6.82927
505.622,1.84854,-4.39221,0,0.58678,9.91538,-0.917292,-1.70732,2.43902,0.152439,-9.91299,-0.122146,-1.14721,-2.2561,-2.2561,6.98171
505.632,1.90059,-4.49514,0,0.514929,9.9561,-0.881367,-1.85976,2.04268,0.304878,-9.99442,-0.124541,-1.15679,-1.85976,-2.13415,7.28659
505.642,1.94379,-4.63029,0,0.474214,9.88904,-0.850232,-1.92073,2.53049,-0.0914634,-10.0471,-0.105381,-1.25499,-1.7378,-1.55488,7.59146
505.652,1.94978,-4.76358,0,0.373623,9.85072,-0.797541,-2.28659,2.53049,-0.426829,-10.0902,-0.165256,-1.24781,-1.61585,-1.25,7.40854
505.662,1.9445,-4.90278,0,0.347278,9.79563,-0.823887,-2.62195,1.85976,-0.853659,-10.0974,-0.189207,-1.28134,-1.40244,-1.15854,7.86585
505.672,1.9405,-5.02689,0,0.347278,9.72138,-0.754431,-2.56098,1.61585,-0.823171,-10.0711,-0.146096,-1.28613,-0.762195,-1.46341,7.86585
505.682,1.92411,-5.12999,0,0.289797,9.76928,-0.759221,-2.83537,0.121951,-0.701219,-9.99442,-0.107776,-1.23823,-0.670732,-1.67683,8.29268
505.692,1.89453,-5.21893,0,0.229922,9.76689,-0.838257,-3.20122,-1.21951,-0.853659,-9.91299,-0.0910107,-1.1999,-0.487805,-1.79878,8.20122
505.702,1.87399,-5.27587,0,0.265847,9.7597,-0.816702,-3.20122,-2.68293,-0.823171,-9.92975,-0.0455054,-1.12566,-0.0304878,-2.31707,8.04878
505.712,1.87167,-5.31566,0,0.344883,9.76689,-0.692161,-3.29268,-3.41463,-0.823171,-9.91538,-0.0479004,-1.08015,0.152439,-2.9878,8.20122
505.723,1.88167,-5.35783,0,0.399968,9.76449,-0.680186,-2.56098,-4.08537,-0.823171,-9.97286,-0.0455054,-1.11129,0.487805,-3.68902,8.2622
505.732,1.88242,-5.39873,0,0.378413,9.82916,-0.828677,-2.9878,-3.41463,-1.03659,-10.0351,-0.107776,-1.12326,0.97561,-4.11585,8.14024
505.742,1.88706,-5.44141,0,0.411943,9.80281,-0.819097,-3.07927,-3.29268,-1.21951,-10.0256,-0.124541,-1.13763,1.28049,-4.20732,8.2622
505.752,1.89818,-5.47219,0,0.440684,9.78844,-0.768801,-2.62195,-3.17073,-1.15854,-10.0495,-0.141306,-1.09692,1.4939,-4.54268,8.68902
505.762,1.89475,-5.51105,0,0.385598,9.79084,-0.778381,-2.86585,-2.95732,-1.43293,-10.0519,-0.100591,-1.13763,1.92073,-4.35976,8.90244
505.772,1.88484,-5.53831,0,0.332908,9.80281,-0.780776,-3.41463,-3.53659,-1.18902,-10.0399,-0.146096,-1.09213,2.04268,-4.35976,8.78049
505.782,1.86235,-5.54657,0,0.285007,9.78366,-0.756826,-4.11585,-3.56707,-1.70732,-10.0567,-0.0766406,-1.01549,2.37805,-4.5122,9.05488
505.792,1.84547,-5.54663,0,0.292192,9.78605,-0.692161,-3.71951,-5.36585,-1.25,-10.016,-0.0383203,-0.977168,2.56098,-4.87805,9.08537
505.802,1.83255,-5.52475,0,0.323328,9.85072,-0.716111,-4.2378,-6.31098,-1.43293,-9.94173,0.0143701,-0.874182,2.13415,-5.4878,9.29878
505.812,1.84159,-5.50535,0,0.409548,9.79563,-0.689766,-4.26829,-6.25,-1.03659,-9.91538,-0.00958008,-0.878972,1.95122,-5.73171,9.39024
505.822,1.85235,-5.48772,0,0.426313,9.80521,-0.65863,-4.60366,-5.94512,-1.09756,-9.88904,0.0359253,-0.881367,1.98171,-6.40244,9.48171
505.832,1.87898,-5.46394,0,0.474214,9.77886,-0.759221,-4.7561,-5.60976,-0.823171,-9.90341,0.0718506,-0.852627,1.82927,-6.43293,9.57317
505.842,1.92359,-5.43866,0,0.56762,9.73096,-0.725691,-4.60366,-5.94512,-0.914634,-9.91778,0.0335303,-0.843047,2.10366,-6.28049,9.60366
505.852,1.98697,-5.41627,0,0.59636,9.76689,-0.862207,-4.63415,-5.54878,-0.518293,-9.93454,0.0143701,-0.852627,1.34146,-6.03659,9.45122
505.862,2.0412,-5.37114,0,0.574805,9.73575,-0.814307,-4.29878,-5.39634,-0.579268,-9.97526,-0.0239502,-0.752036,1.31098,-6.28049,9.20732
505.872,2.12347,-5.32191,0,0.608335,9.77647,-0.752036,-4.45122,-6.15854,-0.121951,-10.004,-0.0479004,-0.728086,1.15854,-6.31098,9.2378
505.882,2.18799,-5.27839,0,0.59157,9.79323,-0.754431,-5.06098,-7.07317,0.426829,-10.0016,-0.0431104,-0.744851,0.792683,-6.95122,8.9939
505.892,2.23837,-5.24779,0,0.59157,9.8579,-0.871787,-5.91463,-7.13415,1.12805,-9.8555,-0.0838257,-0.783171,0.792683,-7.5,9.17683
505.902,2.28065,-5.20433,0,0.541274,9.87227,-0.799937,-7.0122,-7.65244,2.07317,-10.0998,-0.136516,-0.740061,0.487805,-8.10976,8.9939
505.912,2.32332,-5.16077,0,0.531694,9.79803,-0.876577,-7.31707,-5.39634,2.37805,-10.2411,-0.119751,-0.742456,0.701219,-8.44512,8.41463
505.922,2.36693,-5.11655,0,0.476609,9.74294,-0.64905,-6.92073,-4.63415,3.41463,-10.1214,-0.105381,-0.723296,0.884146,-8.75,8.10976
505.932,2.40922,-5.06933,0,0.411943,9.75012,-0.579595,-5.79268,-4.2378,4.20732,-10.1812,-0.0455054,-0.706531,0.97561,-9.14634,7.68293
505.942,2.44016,-5.04702,0,0.311353,9.70701,-0.692161,-5.73171,-2.7439,4.35976,-10.107,0.0311353,-0.804727,0.945122,-9.35976,7.16463
505.952,2.46779,-5.0026,0,0.311353,9.76449,-0.682581,-5.94512,-2.5,4.11585,-9.99921,0.0622705,-0.694556,0.762195,-9.69512,6.79878
505.962,2.49788,-4.97694,0,0.342488,9.7142,-0.692161,-6.03659,-3.59756,4.02439,-9.88664,0.138911,-0.761616,0.762195,-10.1829,6.52439
505.972,2.53184,-4.93362,0,0.445474,9.68785,-0.826282,-6.15854,-4.78659,3.17073,-9.8555,0.170046,-0.677791,-0.213415,-10.3354,6.40244
505.982,2.56119,-4.88637,0,0.459844,9.68785,-0.699346,-6.06707,-5.09146,2.56098,-9.82677,0.198787,-0.651445,-0.579268,-10.5793,6.40244
505.992,2.5934,-4.82872,0,0.538879,9.73336,-0.65384,-6.18902,-4.02439,1.46341,-9.80042,0.210762,-0.59636,-1.52439,-10.4268,5.64024
506.002,2.64742,-4.7683,0,0.598755,9.72857,-0.63468,-5.7622,-2.80488,0.121951,-9.80521,0.225132,-0.574805,-2.9878,-10.4573,5.39634
506.012,2.66622,-4.7149,0,0.613125,9.80281,-0.546064,-5.2439,-1.52439,-1.15854,-9.79323,0.198787,-0.593965,-4.02439,-10.3049,5.12195
506.022,2.66717,-4.6649,0,0.627495,9.85072,-0.505349,-4.78659,-0.823171,-2.28659,-9.81958,0.182021,-0.60115,-4.84756,-10.2439,5.27439
506.032,2.65454,-4.6237,0,0.641865,9.89143,-0.56283,-4.84756,0.213415,-3.53659,-9.88185,0.131726,-0.63468,-5.12195,-10.1829,5.15244
506.042,2.62568,-4.60048,0,0.603545,9.79323,-0.58199,-5.06098,1.18902,-4.7561,-9.92017,0.0694556,-0.708926,-5.70122,-10.1524,5.21341
506.052,2.60331,-4.58243,0,0.687371,9.68546,-0.584385,-4.78659,1.92073,-5.2439,-10.0256,0.0862207,-0.735271,-5.67073,-10.061,4.7561
506.062,2.57098,-4.55463,0,0.665815,9.70941,-0.58199,-4.7561,3.71951,-6.0061,-10.0711,0.129331,-0.692161,-5.82317,-10.3354,5.15244
506.072,2.52935,-4.53058,0,0.603545,9.69504,-0.60115,-5.06098,4.96951,-6.28049,-10.0735,0.141306,-0.704136,-6.06707,-10.3354,4.90854
506.082,2.47271,-4.48821,0,0.514929,9.68785,-0.550855,-4.72561,5.97561,-6.82927,-10.0279,0.179626,-0.61552,-6.52439,-10.4573,4.78659
506.092,2.39835,-4.45138,0,0.385598,9.74533,-0.438289,-4.42073,5.64024,-7.16463,-9.95131,0.198787,-0.627495,-7.46951,-10.061,4.90854
506.102,2.29889,-4.41746,0,0.160466,9.80281,-0.352068,-4.90854,4.54268,-7.16463,-9.82916,0.210762,-0.6251,-8.32317,-8.87195,4.69512
506.112,2.18966,-4.39251,0,0.0479004,9.92257,-0.397573,-5.82317,1.03659,-7.0122,-9.73336,0.134121,-0.651445,-9.42073,-8.38415,4.93902
506.122,2.09503,-4.35287,0,0.148491,9.98963,-0.435894,-6.31098,-2.77439,-6.92073,-9.70701,0.0502954,-0.58199,-10.7622,-7.77439,4.93902
506.132,2.02849,-4.31946,0,0.395178,9.93454,-0.593965,-6.7378,-5.91463,-7.16463,-9.65432,-0.131726,-0.598755,-11.0976,-7.92683,4.90854
506.142,1.98553,-4.29353,0,0.60115,9.80281,-0.61552,-6.58537,-7.34756,-7.40854,-9.616,-0.318538,-0.622705,-11.128,-8.07927,5
506.152,1.94996,-4.26484,0,0.708926,9.70222,-0.60115,-7.22561,-7.95732,-8.10976,-9.60882,-0.464634,-0.60594,-11.0976,-7.80488,5.33537
506.162,1.93132,-4.23839,0,0.855022,9.64714,-0.65863,-7.86585,-6.31098,-8.2622,-9.64235,-0.579595,-0.613125,-10.3963,-8.2622,5.73171
506.172,1.93433,-4.23341,0,0.984353,9.64474,-0.720901,-8.59756,-4.02439,-7.65244,-9.70222,-0.646655,-0.704136,-9.32927,-7.7439,6.0061
506.182,1.95027,-4.22939,0,1.02746,9.73815,-0.828677,-9.72561,-1.64634,-6.7378,-9.69743,-0.673001,-0.706531,-7.89634,-7.07317,5.57927
506.192,1.9845,-4.22981,0,1.09213,9.79084,-0.910107,-10.7012,-0.27439,-5.57927,-9.68067,-0.694556,-0.723296,-7.10366,-6.64634,5.27439
506.202,2.04486,-4.23468,0,1.20948,9.72857,-0.972378,-10.4573,0.396341,-4.48171,-9.6663,-0.699346,-0.740061,-6.0061,-5.36585,4.63415
506.212,2.14153,-4.25039,0,1.37474,9.64235,-0.991538,-10.2744,1.67683,-3.38415,-9.67109,-0.732876,-0.785566,-5.15244,-4.45122,4.81707
506.222,2.26867,-4.26076,0,1.49449,9.6639,-1.03225,-9.72561,2.37805,-2.59146,-9.70222,-0.775986,-0.766406,-4.39024,-3.62805,4.87805
506.232,2.42748,-4.2783,0,1.53521,9.66869,-1.11129,-9.81707,4.84756,-1.82927,-9.74294,-0.859812,-0.795146,-4.17683,-2.71341,5.18293
506.242,2.64177,-4.29925,0,1.45378,9.70701,-1.06578,-10.4878,7.92683,-0.823171,-9.77407,-0.900527,-0.802332,-3.44512,-1.82927,5.60976
506.252,2.93575,-4.32239,0,1.38911,9.81958,-0.948428,-11.6768,10.7012,0,-9.75731,-0.929268,-0.804727,-2.95732,-1.4939,6.31098
506.262,3.08885,-4.35771,0,1.41067,9.9082,-0.821492,-13.0183,13.2317,1.55488,-9.74773,-0.924478,-0.838257,-2.53049,-1.31098,6.55488
506.272,3.22617,-4.38707,0,1.36995,9.95849,-0.838257,-15.2134,14.939,4.08537,-9.83156,-1.01549,-0.819097,-1.85976,-0.731707,6.85976
506.282,3.39952,-4.42847,0,1.46096,9.90341,-0.747246,-16.5549,14.939,7.13415,-9.88904,-1.12326,-0.862207,-1.15854,-0.762195,7.07317
506.292,3.61178,-4.50015,0,1.50647,9.80042,-0.443079,-17.2561,12.7439,10.7622,-9.85072,-1.14003,-0.919688,0,-0.518293,7.2561
506.302,3.89624,-4.5515,0,1.78908,9.55613,-0.232317,-17.622,11.372,14.7561,-9.83635,-1.2023,-0.878972,1.61585,-0.396341,7.56098
506.312,4.25832,-4.55143,0,2.10522,9.4268,-0.0455054,-17.1341,10.5183,19.2073,-9.88904,-1.2502,-0.787961,3.2622,-1.09756,8.20122
506.322,4.69219,-4.54236,0,2.32556,9.34776,-0.0191602,-16.8598,12.622,24.4512,-9.87946,-1.30289,-0.764011,6.12805,-0.823171,8.84146
506.333,5.20724,-4.50738,0,2.54351,9.34776,0.102986,-17.0732,16.189,31.0671,-9.8603,-1.31966,-0.680186,9.5122,-1.28049,9.02439
506.342,5.78595,-4.45197,0,2.7423,9.59684,0.150886,-18.75,19.2988,37.1341,-9.7621,-1.36995,-0.59157,12.6829,-1.70732,9.35976
506.352,6.43244,-4.37114,0,2.91474,9.97765,0.0455054,-22.8659,20.4268,44.5427,-9.78605,-1.36277,-0.474214,16.0671,-2.16463,9.39024
506.362,7.16547,-4.28976,0,3.1758,10.0399,0.00239502,-28.811,19.9695,52.1037,-9.68785,-1.14003,-0.440684,19.4207,-2.59146,9.39024
506.372,8.00473,-4.19357,0,3.62606,10.0782,-0.256267,-31.9817,19.878,59.878,-9.64953,-0.756826,-0.337698,22.0122,-3.71951,9.93902
506.382,8.92972,-4.08965,0,3.92065,9.98723,-0.464634,-30.7927,19.7256,66.9817,-9.69983,-0.411943,-0.280217,24.5732,-4.48171,10.3354
506.392,9.91806,-3.97745,0,4.02124,9.9082,-0.761616,-26.9207,22.1646,73.9939,-9.76689,-0.126936,-0.222737,26.8902,-5.54878,10.7622
506.402,10.9512,-3.83408,0,4.03082,10.1597,-0.823887,-21.9512,24.7866,81.4939,-10.0232,0.0407153,-0.0694556,28.811,-6.82927,10.4878
506.412,12.0115,-3.72815,0,3.98531,10.653,-0.632285,-16.5854,27.9268,88.689,-10.2651,0.105381,-0.215552,30.7622,-8.78049,9.66463
506.422,13.0879,-3.63194,0,3.70749,11.156,-0.239502,-14.0549,28.4451,96.8293,-10.4686,0.114961,-0.246687,32.378,-10.3354,8.75
506.432,14.2043,-3.55484,0,3.51349,11.1608,0.110171,-14.3902,29.8171,104.97,-10.5477,0.234712,-0.320933,34.1463,-11.6768,8.5061
506.442,15.363,-3.49916,0,3.19496,10.8327,0.641865,-15.4878,26.5854,113.689,-10.495,0.589175,-0.404758,35.0305,-12.0732,8.90244
506.452,16.5614,-3.50752,0,2.80217,10.5333,1.43462,-14.4207,21.9207,123.232,-10.2243,0.977168,-0.673001,34.6951,-11.2805,11.128
506.462,17.7295,-3.56431,0,1.96631,10.2004,2.2609,-9.29878,11.5244,130.732,-10.0926,1.26697,-0.881367,34.2073,-9.93902,13.1707
506.472,18.8462,-3.66532,0,1.18553,9.76689,2.62494,-1.37195,-7.5,136.006,-9.9082,1.40827,-1.06818,32.7744,-7.9878,14.6037
506.482,19.9802,-3.7837,0,1.51126,9.69743,2.05014,5.85366,-17.8049,136.098,-9.89383,1.45378,-1.15919,31.189,-6.70732,14.6341
506.492,21.0329,-3.92348,0,1.82021,9.68306,1.26457,11.7073,-20.1829,126.463,-9.91778,1.43222,-1.27415,29.0549,-5.54878,14.1463
506.502,21.9298,-4.04238,0,2.0669,10.4495,0.244292,11.6159,-13.5671,111.616,-10.095,1.36277,-1.21906,26.5854,-4.11585,13.0488
506.512,22.6554,-4.15121,0,2.32556,10.7441,-0.179626,9.90854,-1.52439,93.8719,-10.4183,1.36995,-1.23104,23.7195,-3.56707,11.7073
506.522,23.2386,-4.25421,0,2.52435,10.0567,-0.687371,9.72561,10.1829,76.9817,-10.7177,1.28613,-1.26697,20.5793,-4.05488,11.4634
506.533,23.76,-4.36895,0,3.10634,9.69983,-0.699346,11.4939,15.7012,64.3902,-10.8997,1.24541,-1.36756,18.3841,-4.32927,11.9207
506.542,24.2135,-4.48516,0,3.42488,9.4268,-0.258662,14.6037,17.2561,54.0244,-11.0626,1.21906,-1.41785,17.0427,-4.20732,14.2683
506.552,24.615,-4.60013,0,3.365,9.00527,0.227527,16.9512,15.5183,48.5671,-10.95,1.01549,-1.41785,15.6098,-3.96341,16.6159
506.562,24.9915,-4.7103,0,3.36021,8.59812,0.61073,19.7256,11.5854,45.0915,-10.483,0.775986,-1.35798,15.122,-4.63415,18.872
506.572,25.3454,-4.81859,0,3.53026,8.45202,0.488584,22.378,13.0793,40.8537,-9.89383,0.61073,-1.29571,15.2134,-5.85366,19.3902
506.582,25.6638,-4.92323,0,3.72186,8.25803,0.316143,24.0244,20.3354,34.6951,-9.51062,0.481399,-1.2502,15.3963,-6.89024,19.2683
506.592,25.9338,-5.01025,0,3.87275,8.08798,0.361648,24.0244,31.25,27.7134,-9.40285,0.502954,-1.18074,16.0976,-7.89634,17.5305
506.602,26.1444,-5.07554,0,3.98292,8.03529,0.524509,23.5061,41.7683,20.6098,-9.46512,0.55325,-1.11129,16.372,-7.86585,15.9146
506.612,26.281,-5.12647,0,4.02603,8.06882,0.641865,21.8902,50.5183,13.1707,-9.5226,0.759221,-1.06818,16.6463,-8.01829,14.0549
506.622,26.3608,-5.1571,0,4.10267,7.8844,0.59636,20.0915,59.7561,5.64024,-9.46033,0.955613,-0.984353,15.9756,-8.23171,12.6524
506.632,26.518,-5.18231,0,4.19607,7.76226,0.795146,18.689,66.4939,-0.548781,-9.38129,1.19272,-0.958008,14.7256,-7.68293,11.7378
506.642,26.4965,-5.18383,0,4.11943,7.79818,0.967588,17.5,71.311,-5,-9.39327,1.31726,-0.864602,12.8049,-7.7439,10.9756
506.652,26.4528,-5.19123,0,4.0883,7.58503,1.12326,19.3293,74.939,-8.20122,-9.34058,1.4442,-0.883762,10.2744,-6.98171,10.7317
506.662,26.3397,-5.21588,0,3.753,7.75747,0.998723,19.6951,74.9085,-10.2439,-9.2807,1.52084,-0.948428,7.46951,-5.60976,10.4573
506.672,26.1428,-5.25099,0,3.26441,7.93949,1.08494,16.0366,72.5,-11.9512,-9.31902,1.50647,-0.989143,4.60366,-3.59756,10.3354
506.682,25.8964,-5.30464,0,2.90995,7.7886,1.50647,14.4207,65.7012,-13.5976,-9.35974,1.44659,-1.04423,1.89024,-2.43902,9.87805
506.692,25.629,-5.3994,0,2.81415,7.78381,1.76034,15.6098,56.5549,-15,-9.43877,1.42983,-1.11368,-0.853659,-1.25,9.45122
506.702,25.3699,-5.46723,0,2.8836,7.71196,1.80345,17.8049,46.4329,-15.9756,-9.6184,1.31008,-1.08255,-2.65244,-1.09756,8.01829
506.712,25.1204,-5.56113,0,2.96264,7.66167,1.59508,20.3963,34.3598,-16.8293,-9.70701,1.17116,-1.2023,-4.72561,-1.34146,6.7378
506.722,24.8933,-5.61455,0,3.19496,7.77902,1.41785,20.4878,22.2256,-17.4695,-9.88185,1.15679,-1.152,-5.82317,-1.85976,4.96951
506.732,24.6945,-5.64532,0,3.52307,7.77423,1.06818,20.9756,15.6707,-19.2378,-9.9058,1.04902,-1.09931,-7.0122,-2.7439,3.14024
506.742,24.539,-5.67117,0,3.85838,7.54192,1.24302,24.5427,5.03049,-20.7622,-9.86748,1.00591,-1.08734,-7.37805,-3.62805,1.34146
506.752,24.4222,-5.70641,0,4.33499,7.69041,1.63101,29.7256,0.243902,-21.8598,-9.79084,1.00351,-1.12566,-8.41463,-4.20732,0.243902
506.762,24.3177,-5.74748,0,4.58886,8.00176,1.88249,29.0854,-2.86585,-21.7073,-9.67827,0.948428,-1.14242,-8.93293,-4.14634,-0.335366
506.772,24.2411,-5.78113,0,4.80441,8.24126,1.44659,21.8293,-6.85976,-19.9085,-9.59445,0.871787,-1.10889,-9.48171,-4.26829,-0.670732
506.782,24.2354,-5.83506,0,5.37682,8.15025,1.19751,18.0488,-4.35976,-19.2988,-9.58726,0.747246,-1.1999,-9.39024,-4.54268,-1.06707
506.792,24.2372,-5.89344,0,5.37682,8.13828,1.47054,17.7134,-0.823171,-18.628,-9.55373,0.65863,-1.22386,-9.14634,-4.63415,-0.762195
506.802,24.2841,-5.96467,0,5.70733,8.19336,1.41306,18.4451,-1.43293,-16.8902,-9.51062,0.613125,-1.27655,-8.65854,-4.11585,-0.121951
506.812,24.3889,-6.04779,0,6.22705,8.1766,1.152,17.0427,-1.70732,-15.8537,-9.5681,0.570015,-1.34121,-8.04878,-3.78049,0.762195
506.822,24.5193,-6.14627,0,6.43063,8.23408,1.19032,15.7012,-0.884146,-14.4512,-9.5681,0.550855,-1.41785,-6.82927,-3.75,1.34146
506.832,24.6732,-6.27266,0,6.55277,8.42807,1.12087,14.8171,2.10366,-11.5244,-9.58247,0.522114,-1.54718,-5.27439,-3.56707,1.92073
506.842,24.842,-6.40497,0,6.47613,8.6101,0.881367,12.5305,6.58537,-7.83537,-9.64474,0.589175,-1.59748,-3.96341,-3.32317,2.5
506.852,25.0084,-6.54788,0,6.12646,8.59093,0.64905,10.4268,9.45122,-4.90854,-9.7621,0.677791,-1.67172,-2.31707,-2.92683,2.19512
506.862,25.171,-6.73176,0,5.64985,8.42089,0.529299,8.47561,10.2439,-2.89634,-9.91778,0.838257,-1.81782,-1.40244,-1.92073,2.34756
506.872,25.3334,-6.90368,0,5.21635,8.21252,0.510139,7.68293,8.29268,-2.10366,-10.107,1.07536,-1.79626,-1.34146,-1.37195,1.7378
506.882,25.4721,-7.05814,0,4.90261,8.11433,0.673001,8.90244,5.7622,-2.0122,-10.2195,1.2981,-1.84177,-1.82927,-1.7378,0.914634
506.892,25.5608,-7.17338,0,4.6631,8.04248,0.845442,10.7927,3.01829,-2.62195,-10.3872,1.52802,-1.78908,-2.68293,-2.40854,0.182927
506.902,25.6057,-7.25964,0,4.63436,8.1742,1.09692,12.2256,-2.31707,-3.9939,-10.4519,1.78908,-1.71483,-3.62805,-3.47561,-0.213415
506.912,25.6522,-7.36206,0,4.8068,8.25803,1.3484,13.5671,-7.46951,-4.81707,-10.3776,1.75076,-1.79866,-4.93902,-4.14634,-0.518293
506.922,25.7436,-7.47821,0,5.37921,8.24126,1.46815,14.2378,-13.5366,-6.0061,-10.2603,1.71723,-1.85854,-6.61585,-4.02439,-1.52439
506.932,25.8613,-7.55688,0,5.80792,8.31551,1.5376,13.5671,-14.5732,-6.76829,-10.1285,1.58071,-1.67891,-8.23171,-3.41463,-1.64634
506.942,25.9645,-7.58703,0,6.16239,8.82804,1.27894,18.1707,-15,-7.95732,-10.0782,1.23344,-1.47533,-9.87805,-4.39024,-2.56098
506.952,25.9336,-7.48514,0,5.92528,10.174,0.490979,26.2195,-13.5671,-11.8293,-10.4854,0.922083,-0.926873,-10.1829,-7.22561,-3.2622
506.962,25.7285,-7.36754,0,5.21635,11.9344,0.141306,27.3171,-7.10366,-16.189,-10.7321,0.579595,-0.857417,-8.41463,-10.5793,-3.65854
506.972,25.4535,-7.24954,0,4.63915,12.5212,0.720901,23.6585,-7.10366,-17.0427,-11.1129,0.426313,-0.864602,-4.66463,-12.3171,-2.80488
506.982,25.2686,-7.18596,0,4.82836,11.7093,1.3484,17.0732,-12.8659,-12.6524,-11.441,0.153281,-1.14242,-1.12805,-11.7988,-0.243902
506.992,25.2912,-7.17362,0,6.2031,10.6411,1.47533,13.1098,-12.439,-7.83537,-11.5057,-0.141306,-1.3963,3.07927,-9.11585,1.82927
507.002,25.4867,-7.17198,0,7.4078,9.96089,1.67651,11.7683,-0.853659,-3.32317,-11.4578,-0.265847,-1.4418,7.5,-8.04878,2.86585
507.012,25.8266,-7.20546,0,8.33946,9.61121,1.10889,9.57317,15.6402,-0.0304878,-10.9428,0.0335303,-1.54718,12.5915,-6.28049,3.41463
507.022,26.1887,-7.24767,0,8.27958,9.11065,0.184417,18.872,33.3232,3.17073,-10.301,0.483794,-1.49689,16.4329,-3.90244,4.54268
507.032,26.4079,-7.27627,0,6.59349,9.28789,-0.931663,32.7439,54.3293,3.38415,-10.1261,0.797541,-1.35319,17.4085,-0.243902,5
507.042,26.2069,-7.32646,0,2.88121,9.87467,-0.919688,36.8293,61.4939,2.40854,-10.1501,1.01549,-1.51844,17.2866,4.90854,4.20732
507.052,25.5335,-7.37215,0,-0.452659,9.80042,0.493374,29.1463,44.7866,-2.80488,-10.1812,1.30529,-1.50886,15.9451,10.1829,3.47561
507.062,24.5502,-7.32062,0,-2.60818,8.33706,1.32445,19.6341,19.2378,-12.7744,-10.1669,1.7795,-1.06818,12.4085,14.7561,3.56707
507.072,23.2593,-7.17932,0,-3.3674,6.50008,1.51365,20.7317,-16.4939,-25.7317,-10.2267,2.03577,-0.65384,6.06707,19.0549,4.7561
507.082,21.9853,-6.95527,0,-2.27287,5.85582,1.09931,30.8841,-54.8476,-39.2378,-10.5261,1.91362,-0.258662,-0.792683,22.9878,5.06098
507.092,21.0719,-6.5975,0,0.146096,7.51078,-0.0934058,31.128,-83.3232,-50.6098,-10.9237,1.55676,0.419128,-6.95122,23.811,4.05488
507.102,20.398,-6.16478,0,2.58662,9.97765,-2.05493,27.622,-94.4207,-55.4268,-11.2374,1.16877,0.871787,-11.7683,21.4939,2.2561
507.112,19.841,-5.68913,0,4.4236,12.4302,-4.00926,28.3537,-84.0549,-55.1829,-11.4266,0.608335,1.18793,-14.8476,17.8963,0.548781
507.122,19.3658,-5.16415,0,4.9529,13.1487,-3.78653,27.439,-62.622,-50.122,-11.4961,-0.119751,1.54239,-16.7073,14.9085,-1.40244
507.132,18.9376,-4.60274,0,4.22721,11.556,-2.43573,23.628,-37.0732,-45.1829,-11.1728,-0.900527,1.78429,-18.2927,12.2256,-3.38415
507.142,18.4677,-4.04241,0,3.08718,9.88425,-1.30529,22.9878,-19.6341,-44.6951,-10.5165,-1.31726,1.7771,-20.4573,9.20732,-4.84756
507.152,17.9322,-3.46957,0,2.5986,9.01006,-1.47294,21.0061,-6.85976,-49.7866,-9.72617,-1.59987,1.79626,-21.0671,8.84146,-4.78659
507.162,17.3856,-2.89517,0,2.87402,8.56459,-2.16031,18.872,-3.38415,-57.0427,-9.23999,-1.58311,1.80584,-21.6463,7.77439,-4.05488
507.172,16.8262,-2.32191,0,3.07042,8.48555,-2.57944,17.7744,-1.09756,-62.1951,-9.02204,-1.35558,1.84656,-22.3171,6.89024,-2.0122
507.182,16.1739,-1.77711,0,2.49561,8.87594,-2.86684,18.2622,5.51829,-64.2683,-8.95977,-0.883762,1.80345,-22.8659,6.37195,0.640244
507.192,15.3688,-1.33221,0,1.13524,9.43877,-2.65608,18.9024,8.29268,-63.1402,-9.18729,-0.502954,1.52084,-23.75,6.0061,3.56707
507.202,14.4415,-0.989953,0,-0.114961,9.63516,-2.42136,20.0915,6.95122,-61.8598,-9.59924,-0.404758,1.23104,-24.3293,6.34146,4.84756
507.212,13.4726,-0.74883,0,-0.766406,9.70462,-2.21539,19.6951,-0.97561,-60.1829,-10.2267,-0.505349,0.917292,-24.6037,6.89024,3.78049
507.222,12.4954,-0.57143,0,-1.01309,9.51541,-2.01661,19.3598,-15.5183,-59.8171,-10.5381,-0.60594,0.692161,-24.4512,6.58537,1.34146
507.232,11.5388,-0.442545,0,-1.05381,9.62798,-1.88009,17.6829,-31.4329,-59.3598,-10.6219,-0.790356,0.502954,-24.2378,6.46341,-1.82927
507.242,10.6627,-0.320568,0,-0.680186,9.7118,-1.98787,15.3659,-46.311,-57.6829,-10.6507,-1.06339,0.493374,-24.3902,5.33537,-4.96951
507.252,9.87697,-0.227194,0,-0.155676,9.8076,-1.99505,12.8049,-57.2866,-56.5549,-10.5333,-1.21427,0.373623,-25.1524,4.32927,-7.89634
507.262,9.20125,-0.192006,0,0.541274,10.0902,-2.12438,10.7317,-62.3171,-55.061,-10.301,-1.26457,0.117356,-25.3659,3.59756,-9.39024
507.272,8.60878,-0.185298,0,1.08734,10.1333,-2.30401,8.93293,-62.1951,-54.1768,-10.083,-1.14961,-0.00239502,-25.8841,3.38415,-9.7561
507.282,8.06767,-0.230324,0,1.50407,9.90101,-2.33035,7.43902,-57.9878,-55.2744,-9.87946,-1.04183,-0.215552,-25.3963,3.53659,-8.84146
507.292,7.51683,-0.307105,0,1.41067,9.67348,-2.15312,7.65244,-53.5061,-56.6768,-9.70941,-0.958008,-0.325723,-25.4268,2.71341,-7.37805
507.302,6.99261,-0.395862,0,1.61903,9.42201,-2.33514,7.43902,-46.9207,-58.0488,-9.51541,-0.948428,-0.328118,-25.2744,2.0122,-5.79268
507.312,6.45364,-0.518708,0,1.45857,9.32381,-2.47406,7.59146,-41.25,-58.872,-9.24957,-1.01549,-0.364043,-24.878,1.58537,-4.26829
507.322,5.87524,-0.702641,0,1.1999,9.29986,-2.53393,6.7378,-37.2256,-60.8537,-9.09389,-1.00112,-0.392783,-24.7561,1.0061,-3.04878
507.332,5.29547,-1.01911,0,1.21667,9.1346,-2.49322,6.89024,-31.2195,-62.6524,-8.95019,-1.1544,-0.416733,-24.3598,0.304878,-2.19512
507.342,4.69108,-1.42791,0,1.09931,8.93342,-2.33993,7.16463,-27.1037,-65.1829,-8.82086,-1.27415,-0.479004,-23.2927,-0.152439,-1.76829
507.352,4.05046,-1.69556,0,0.790356,8.84241,-2.06451,8.75,-21.6768,-66.2195,-8.7538,-1.45138,-0.584385,-21.9207,-0.97561,-1.67683
507.362,3.41042,-1.88819,0,0.718506,9.01725,-1.82021,10.3049,-16.128,-66.3415,-8.77775,-1.57592,-0.637075,-19.6951,-1.55488,-1.89024
507.372,2.76926,-2.02371,0,0.524509,9.11784,-1.72441,10.7317,-15.5488,-65.1829,-8.71308,-1.70046,-0.66821,-17.2256,-2.56098,-1.43293
507.382,2.14773,-2.14728,0,0.481399,9.17053,-1.74836,11.2195,-15.9146,-63.9024,-8.67716,-1.9256,-0.718506,-14.8476,-3.41463,-1.09756
507.392,1.55604,-2.26007,0,0.421523,9.10586,-1.79866,11.0366,-17.8963,-61.4024,-8.64842,-1.93039,-0.737666,-11.6463,-4.54268,-0.27439
507.402,1.00199,-2.38169,0,0.438289,9.13939,-1.72681,9.39024,-19.939,-58.9634,-8.54782,-2.1172,-0.787961,-8.87195,-5.15244,0.792683
507.412,0.470058,-2.53519,0,0.289797,9.20406,-1.95913,8.44512,-20.3659,-55.9146,-8.43286,-2.11001,-0.914897,-6.12805,-5.45732,2.28659
507.422,-0.0195269,-2.69508,0,0.361648,9.18969,-1.83698,7.2561,-25.3659,-53.5976,-8.38017,-2.08606,-0.948428,-3.07927,-5.12195,3.84146
507.432,-0.448871,-2.84546,0,0.701741,9.30465,-1.98308,7.59146,-30.6402,-52.6524,-8.38496,-2.07888,-0.936453,-0.792683,-5.03049,5.21341
507.442,-0.814451,-2.99398,0,0.936453,9.21603,-2.14115,6.52439,-30.061,-50.061,-8.21731,-1.94955,-0.907712,1.31098,-4.39024,7.34756
507.452,-1.14155,-3.17317,0,1.10171,9.29028,-2.13157,6.58537,-32.3171,-48.8415,-8.18139,-1.7316,-1.00351,3.04878,-4.05488,8.93293
507.462,-1.41587,-4.30916,0,1.36277,9.25915,-2.1172,5.18293,-24.9695,-47.4085,-7.94907,-1.38672,-1.3484,4.26829,-1.03659,10.5183
507.472,-1.67746,-4.91372,0,1.37474,8.97893,-2.10522,4.05488,-22.8049,-47.3476,-7.94428,-1.43222,-1.98787,6.15854,2.7439,12.0427
507.482,-1.89175,-5.40034,0,1.64059,8.58136,-2.19144,1.95122,-20.6098,-47.378,-7.94188,-1.35079,-2.43094,8.75,6.46341,13.1098
507.492,-2.11326,-5.86253,0,1.4418,8.42568,-2.10283,1.58537,-22.0732,-46.2805,-8.23887,-1.36037,-2.52196,12.1646,9.39024,14.5122
507.502,-2.2821,-6.17522,0,1.61424,8.61489,-2.19384,2.5,-18.9329,-43.2012,-8.58136,-1.45857,-2.09325,14.4512,9.72561,15.2134
507.512,-2.49546,-6.33968,0,1.08734,8.92145,-2.37586,1.34146,-20.6098,-40.6098,-8.95019,-1.6358,-1.62382,15.3659,8.47561,15.3049
507.522,-2.67788,-6.49171,0,1.21667,9.16095,-2.61536,0.243902,-16.0671,-39.1463,-9.2304,-1.74118,-1.65017,16.0671,7.34756,14.7866
507.532,-2.87071,-6.64182,0,1.17595,9.56092,-2.91953,-0.823171,-16.7073,-39.4512,-9.43877,-1.59029,-1.70525,16.7073,7.62195,13.0488
507.542,-3.05278,-6.73652,0,1.23583,9.79323,-2.94348,-2.53049,-17.622,-39.1159,-9.81,-1.41785,-1.55197,16.128,8.59756,11.4329
507.552,-3.19535,-6.84071,0,1.58071,10.0136,-3.08,-3.23171,-15.4268,-39.0854,-10.2148,-1.17595,-1.67651,14.4512,9.45122,10.122
507.562,-3.36575,-6.92777,0,1.2023,9.91538,-2.86923,-4.84756,-19.2988,-38.0183,-10.6267,-1.11129,-1.6813,12.8963,9.78659,10
507.572,-3.48381,-6.99896,0,1.38911,9.97765,-2.91234,-7.68293,-16.0976,-35.0915,-11.1392,-1.26936,-1.70046,10.5793,9.26829,9.57317
507.582,-3.54094,-7.11117,0,1.54,10.0423,-2.91474,-12.0427,-17.4695,-30.7317,-11.0913,-1.27894,-1.91362,9.32927,8.78049,9.42073
507.592,-3.56087,-7.32144,0,1.43222,9.84114,-2.83331,-15.5183,-19.6341,-26.1585,-10.6554,-1.27655,-2.33754,8.53659,9.60366,10.6707
507.602,-3.49763,-7.55667,0,1.71723,9.65193,-2.90276,-15.7927,-16.2805,-21.4024,-10.4088,-1.34361,-2.44292,10.3049,10.7622,13.2622
507.612,-3.38023,-7.78895,0,1.74836,9.58726,-2.75906,-15.8537,-15.6707,-16.25,-10.3441,-1.3939,-2.45729,11.9207,11.9207,15.061
507.622,-3.18164,-7.96105,0,2.11959,9.93215,-2.75906,-16.7378,-14.878,-11.2195,-10.6171,-1.59987,-2.27048,15.1829,12.9268,15.9146
507.632,-2.89523,-7.97013,0,2.62494,10.4471,-2.49082,-17.8354,-11.4024,-6.09756,-11.2446,-1.76034,-1.60706,17.8049,11.5244,13.9329
507.642,-2.49885,-7.92213,0,3.00335,11.2159,-2.59381,-22.0122,-14.6341,1.18902,-11.9128,-1.61903,-1.40109,19.5122,10.122,10.0305
507.652,-2.04091,-7.83048,0,3.36979,11.7476,-2.75427,-27.5,-14.4817,8.96341,-12.5188,-1.1544,-1.21667,19.8171,11.4634,5.15244
507.662,-1.52228,-7.6446,0,3.29076,11.6805,-2.57944,-32.2866,-13.3232,16.6463,-13.1247,-0.263452,-0.706531,17.2561,11.1585,1.58537
507.672,-0.893143,-7.38058,0,3.46559,11.5416,-2.15791,-36.8902,-13.2317,26.9817,-13.29,0.385598,-0.208367,15.2744,15.9756,0.0304878
507.682,-0.129264,-7.01416,0,3.70989,11.3979,-1.80824,-41.5244,-9.7561,39.3293,-13.6492,0.704136,0.467029,11.8902,17.6524,-0.0914634
507.692,0.70309,-6.57938,0,3.19735,11.6158,-1.2981,-46.1585,-11.189,53.2622,-13.9965,0.816702,0.991538,7.10366,17.561,0.152439
507.702,1.57881,-6.13336,0,2.3567,11.7045,-0.735271,-52.5305,-9.29878,67.561,-13.5438,0.622705,1.12805,2.16463,15.6402,0.457317
507.712,2.52573,-5.73796,0,1.69807,11.3021,-0.105381,-57.9573,-8.78049,82.4085,-12.3296,-0.270637,0.845442,-0.0914634,14.3902,-1.03659
507.722,3.57845,-5.36349,0,1.36756,10.6578,0.426313,-64.3902,-10.3963,97.6524,-10.78,-1.14482,0.713716,1.4939,14.0549,-3.23171
507.732,4.70536,-4.97158,0,0.886157,9.99202,0.507744,-66.7378,-12.9268,111.951,-9.59445,-1.67891,0.771196,8.38415,12.5915,-4.42073
507.742,5.86642,-4.59588,0,0.182021,9.83635,-0.0263452,-63.5671,-18.1402,125.915,-8.98132,-2.08606,0.718506,17.1646,11.7683,-4.14634
507.752,7.06388,-4.20107,0,-0.376018,10.4088,-0.56762,-57.0732,-25.2439,138.384,-8.88552,-2.33514,0.843047,25.4878,9.69512,-3.41463
507.762,8.22857,-3.82291,0,-0.922083,11.532,-0.910107,-47.622,-34.8171,142.591,-9.09389,-2.47166,0.852627,33.4756,6.92073,-2.68293
507.772,9.31505,-3.46067,0,-1.34121,12.5355,-1.30289,-39.5122,-45.7927,140.122,-9.52739,-2.24174,0.845442,38.9024,4.14634,-1.25
507.782,10.3599,-2.87275,0,-0.840652,12.9642,-1.49928,-33.1098,-47.6829,133.201,-10.0902,-1.44659,0.974773,42.0732,0.670732,1.21951
507.792,11.3904,-2.48219,0,-0.0718506,12.8301,-1.12566,-27.7744,-44.9695,126.951,-10.5093,-0.313748,0.953218,41.0671,-1.43293,5.06098
507.802,12.4899,-2.20035,0,1.09452,12.4493,-0.922083,-22.5915,-37.622,125.183,-10.7057,0.673001,0.737666,39.5732,-1.98171,10.2134
507.812,13.6505,-1.92229,0,1.78908,11.7116,-0.488584,-15.5793,-28.5366,126.189,-10.4567,1.54,0.514929,36.8598,0.823171,15.8537
507.822,14.8534,-1.67001,0,2.27527,10.9045,-0.299377,-5.42683,-16.5549,126.555,-10.4255,2.03816,0.675395,31.7073,1.85976,20.4268
507.832,16.0525,-1.45152,0,2.66805,11.2063,-0.301772,4.81707,-5.85366,125.335,-9.92496,1.8753,0.570015,26.25,2.53049,22.622
507.842,17.2593,-1.21285,0,3.24046,11.4961,-0.366438,11.5244,11.1585,123.78,-9.36213,1.2502,0.510139,21.6768,2.16463,22.2561
507.852,18.3683,-1.0034,0,2.66087,11.3787,-0.450264,15.8537,26.9817,121.524,-9.14658,0.519719,0.273032,18.811,1.52439,19.6951
507.862,19.3411,-0.867738,0,1.78668,11.0722,-0.809517,19.3293,47.2866,118.049,-9.25675,-0.0502954,0.0814307,18.811,0.97561,16.2805
507.872,20.2172,-0.980382,0,1.49689,10.586,-0.871787,22.1951,52.8963,112.439,-9.4723,-0.337698,-0.304167,19.8171,0.335366,14.0244
507.882,21.0412,-1.18844,0,1.6837,10.2028,-0.953218,24.1463,63.2622,106.22,-9.52978,-0.421523,-0.481399,20.4878,0.365854,13.2927
507.892,21.9057,-1.44107,0,2.61776,9.9058,-1.10889,23.9329,75.9756,100.945,-9.50344,-0.337698,-0.500559,20.9756,0.0304878,13.75
507.902,22.7241,-1.70134,0,2.77343,9.79323,-0.804727,23.5366,83.9329,95.9451,-9.31423,-0.105381,-0.519719,21.2805,-0.121951,15.0305
507.912,23.5136,-1.80252,0,3.06083,9.5681,-0.510139,23.5976,94.1159,90.7317,-9.08431,0.165256,-0.407153,19.878,-0.701219,15.8537
507.922,24.1871,-1.80115,0,2.70637,9.39087,-0.292192,23.2622,102.53,83.9024,-8.87834,0.450264,-0.277822,18.4146,-1.76829,16.6768
507.932,24.5996,-1.78403,0,1.26218,9.11544,-0.0766406,22.1646,104.848,75.3659,-8.74901,0.725691,-0.229922,15.7927,-2.62195,17.2256
507.942,24.9154,-1.73109,0,1.06339,8.85199,-0.189207,19.6341,110.457,68.4451,-8.58375,1.09213,-0.100591,12.0732,-3.53659,17.5915
507.952,25.1357,-1.68915,0,0.926873,8.59093,-0.193997,14.0854,115.274,60.7622,-8.57417,1.37474,-0.114961,7.92683,-4.39024,18.0793
507.962,25.1749,-1.6754,0,0.105381,8.28677,-0.0694556,5.97561,114.665,53.811,-8.63644,1.45857,-0.208367,3.17073,-4.69512,17.6524
507.972,24.9648,-1.66778,0,-1.34361,7.92512,0.256267,1.95122,108.384,49.5732,-8.69632,1.47533,-0.229922,-0.518293,-4.90854,17.3476
507.982,24.5426,-1.69948,0,-2.52675,7.28804,0.656235,3.2622,91.9512,46.8902,-8.75859,1.47533,-0.378413,-4.7561,-5.2439,16.4024
507.992,24.0714,-1.7505,0,-2.56267,6.88808,0.850232,7.43902,74.7256,43.6585,-8.8472,1.39151,-0.462239,-8.01829,-5.4878,15.0915
508.002,23.5512,-1.8284,0,-2.5483,6.64857,0.56762,10.8841,57.8963,38.8415,-8.91666,1.26218,-0.5772,-10.4573,-5.33537,13.689
508.012,22.9524,-1.9505,0,-2.74948,6.67492,0.797541,14.3598,35.7622,32.6524,-8.97414,1.08015,-0.768801,-12.378,-5.67073,11.7988
508.022,22.3627,-2.08089,0,-2.31119,6.76593,0.318538,16.25,18.9634,25.1524,-9.04359,0.845442,-0.821492,-13.689,-5.09146,10
508.032,21.7662,-2.24349,0,-1.91362,6.84497,0.311353,20.3963,-3.81098,16.6463,-9.03162,0.622705,-0.972378,-14.4817,-5.45732,8.01829
508.042,21.0526,-2.41264,0,-2.24653,6.76114,0.522114,24.2073,-23.7195,9.32927,-9.14179,0.313748,-1.03944,-14.1463,-5.60976,6.18902
508.052,16.7847,-2.63259,0,-1.6813,7.09165,0.455054,25.6402,-40.0915,-1.55488,-9.09389,0.0910107,-1.26218,-13.9634,-5.39634,4.87805
508.062,16.124,-2.92653,0,-1.10889,7.18266,0.579595,29.4817,-58.5366,-15.2439,-9.07712,0.0455054,-1.50886,-13.811,-3.65854,3.84146
508.072,15.4495,-3.36043,0,-0.205972,7.34792,0.452659,30.4878,-67.2561,-32.6524,-9.06754,0.0263452,-1.7316,-13.9634,-2.19512,3.29268
508.082,14.8078,-3.95984,0,0.773591,7.18266,0.852627,24.1159,-68.9329,-46.4939,-9.19687,0.167651,-1.80824,-14.3598,-1.15854,3.32317
508.092,14.3782,-4.54821,0,2.91234,7.47725,1.14482,15.6707,-62.1951,-57.0427,-9.19687,0.404758,-1.66933,-14.0854,-0.823171,3.68902
508.102,14.0312,-4.91255,0,4.94572,8.6556,1.40109,6.34146,-51.372,-66.7683,-9.29747,0.467029,-1.61424,-14.7561,-1.34146,4.08537
508.112,13.7332,-5.30102,0,6.6845,9.78844,1.21427,-5,-39.3598,-71.8293,-9.40764,0.56762,-1.74836,-15.3659,-1.18902,4.2378
508.122,13.5818,-5.73451,0,8.55022,10.3417,0.304167,-17.1037,-23.0793,-68.2012,-9.58966,0.60115,-1.825,-15.3049,-0.701219,4.87805
508.133,13.6224,-6.06721,0,9.59684,10.0184,-0.495769,-25.6098,-10.6402,-57.4695,-9.85072,0.641865,-1.84417,-13.4451,-0.762195,5.39634
508.142,13.8471,-6.22702,0,9.73096,9.18969,-0.847837,-17.2256,-11.189,-44.4512,-10.1812,0.778381,-1.64777,-11.3415,-1.37195,7.16463
508.152,14.2709,-6.41833,0,10.2052,8.53824,-2.37107,14.3598,-21.3415,-30.7012,-10.4878,0.62031,-1.80345,-9.35976,-0.823171,9.02439
508.162,14.835,-6.61032,0,11.2039,8.7993,-4.08111,42.439,-15.3963,-19.1463,-10.5908,0.179626,-1.7795,-7.10366,-0.335366,10.3963
508.172,15.3602,-6.81258,0,10.3034,10.0495,-3.81766,37.1037,6.4939,-9.42073,-10.5477,-0.229922,-1.83938,-4.69512,0.365854,10.8537
508.182,15.9248,-7.06677,0,9.21125,10.7417,-2.58902,25.3659,16.7683,6.06707,-10.3944,-0.304167,-2.03577,-2.2561,0.579268,10.7622
508.192,16.6852,-7.31307,0,9.22801,10.1597,-1.33403,20.122,20.2439,23.872,-10.1477,-0.110171,-2.34712,-1.52439,3.2622,10.6402
508.202,17.6917,-7.63403,0,9.48188,8.57177,-0.546064,27.8354,29.1159,39.0244,-9.98963,0.162861,-2.74709,-3.01829,7.53049,9.81707
508.212,18.7601,-7.93495,0,8.32988,7.27846,-0.0910107,41.3415,32.9573,45.4268,-9.93454,0.481399,-2.6944,-6.79878,11.8598,7.16463
508.222,19.6028,-8.21433,0,6.48571,7.05094,0.213157,48.2622,25.1829,37.3171,-9.86269,1.00351,-2.62734,-11.2805,14.7866,5.60976
508.232,19.9362,-8.37948,0,4.45713,8.51669,0.764011,47.2256,15.9146,17.6524,-10.0615,1.26457,-2.19623,-15.1524,14.3902,4.11585
508.242,19.7332,-8.49144,0,2.81894,11.1344,0.881367,46.4329,16.9817,-9.02439,-10.5549,1.12805,-2.07888,-16.8902,13.0183,2.89634
508.252,19.1216,-8.64892,0,0.967588,12.9451,0.60115,48.5366,14.878,-30.8537,-11.1392,0.495769,-2.4501,-15.1524,12.8354,3.01829
508.262,18.388,-8.82272,0,0.155676,12.5283,1.15679,38.1402,1.03659,-37.2866,-11.6685,-0.189207,-2.68482,-11.8598,16.189,5.15244
508.272,17.8049,-8.88845,0,1.91123,11.6206,0.574805,10.5183,8.5061,-41.0366,-12.4493,-0.799937,-2.28245,-8.14024,18.872,8.41463
508.282,17.4167,-8.79862,0,4.12422,11.8098,1.88728,-6.40244,43.9634,-42.561,-13.2013,-1.23583,-1.51126,-4.45122,18.0183,10.9146
508.292,17.2996,-8.55251,0,5.87738,11.9607,2.29443,7.07317,52.1037,-29.8171,-13.4624,-1.29571,-0.59157,-0.884146,13.689,12.5305
508.302,17.5089,-8.2426,0,7.71436,11.3237,-2.99377,35.6402,49.5122,-13.2622,-13.266,-1.05381,-0.158071,2.83537,8.84146,13.689
508.312,17.4881,-7.89549,0,4.61281,11.5655,-8.13828,28.0183,58.2012,-10.7622,-12.4373,-0.632285,0.119751,6.06707,6.31098,15.7622
508.322,16.9604,-7.47824,0,-0.174836,8.51669,-3.20933,22.1951,53.9939,-15.7622,-11.2207,0.277822,0.519719,6.92073,5.67073,18.5671
508.332,15.7705,-6.84118,0,-4.1338,7.44851,1.08734,19.2988,28.6585,-27.561,-10.7704,0.986748,1.41546,2.37805,2.16463,20.0915
508.342,13.9792,-6.15483,0,-7.22817,6.50248,1.70525,20.8841,-4.35976,-52.5915,-10.2914,1.09213,1.88249,-4.02439,4.72561,18.628
508.352,12.2775,-5.28021,0,-5.26665,7.19464,-0.213157,19.1159,-48.2927,-71.2195,-10.1908,1.26457,2.50759,-13.6585,2.16463,14.878
508.362,11.194,-3.9343,0,-0.373623,8.49274,-2.4022,22.8963,-61.9512,-80.3659,-9.83874,1.57353,2.58183,-25.0305,-0.548781,11.128
508.372,10.5127,-2.86905,0,2.72074,11.3165,-4.57449,21.7378,-47.1341,-74.2683,-9.62558,1.65735,2.49082,-35.7927,-1.18902,8.84146
508.382,9.96017,-2.21399,0,3.4608,12.4302,-5.10618,14.9085,-23.7195,-66.6768,-9.80521,1.25499,2.34951,-41.8902,-4.87805,7.71341
508.392,9.36017,-1.65873,0,2.18905,11.1033,-3.39853,10.3963,0.884146,-63.6585,-10.1932,0.574805,2.12199,-44.7256,-9.48171,6.98171
508.402,8.58022,-1.31569,0,0.117356,9.97526,-2.09085,10.5793,13.7195,-61.8598,-10.6842,-0.308958,1.30289,-44.3598,-10.3049,6.03659
508.412,7.71746,-1.14612,0,-0.632285,9.2328,-2.5507,12.7439,14.2378,-62.5305,-11.0171,-1.17116,0.56283,-41.2195,-8.35366,4.11585
508.422,6.77455,-1.09058,0,-1.21667,8.59573,-2.70158,13.811,-5.03049,-64.0244,-10.9309,-1.83458,0.0431104,-36.6463,-4.60366,2.2561
508.432,5.91368,-1.07891,0,-0.696951,8.39215,-2.97222,14.6341,-17.7439,-64.3293,-10.7991,-2.36388,-0.155676,-31.25,-2.07317,0.152439
508.442,5.07844,-1.0802,0,-0.651445,8.66997,-2.75427,15.1829,-34.7866,-64.3902,-10.1764,-2.29682,-0.198787,-25.8841,-2.22561,-1.7378
508.452,4.1991,-1.03829,0,-1.11608,9.19687,-2.3064,14.3902,-47.8659,-65.2439,-9.77886,-2.13875,-0.0119751,-22.0732,-4.08537,-3.32317
508.462,3.37974,-0.984706,0,-0.764011,9.77168,-2.02858,12.0122,-55.4573,-65.9146,-9.83395,-1.88488,0.0479004,-19.5122,-6.61585,-5.70122
508.472,2.67435,-0.95489,0,0.0981958,10.3632,-1.91123,8.93293,-58.7195,-66.189,-10.0663,-1.50407,-0.0479004,-18.3841,-8.20122,-8.47561
508.482,2.09327,-0.971914,0,1.01549,10.404,-2.05253,4.5122,-56.2195,-65.2134,-10.1166,-0.991538,-0.251477,-18.7195,-7.95732,-9.39024
508.492,1.64627,-1.01682,0,1.85135,10.0447,-1.99505,0.853659,-52.1951,-62.6524,-9.92017,-0.534089,-0.371228,-19.878,-7.71341,-9.26829
508.502,1.24988,-1.0736,0,1.96871,9.616,-2.07648,0,-43.872,-60.7012,-9.47949,-0.198787,-0.411943,-20.6707,-7.89634,-7.53049
508.512,0.84687,-1.16163,0,1.71723,9.02922,-2.2106,-0.426829,-34.2683,-60.5488,-8.97893,-0.0670605,-0.522114,-21.6768,-7.46951,-4.2378
508.522,0.399361,-1.2814,0,1.38193,8.54543,-2.0669,2.13415,-24.6646,-62.6829,-8.69632,-0.273032,-0.63947,-22.2561,-7.04268,-1.67683
508.532,-0.128269,-1.40464,0,0.833467,8.27958,-2.28485,4.78659,-18.9939,-64.7561,-8.51669,-0.529299,-0.65863,-22.1341,-7.71341,-0.518293
508.542,-0.694278,-1.53432,0,0.550855,8.20773,-2.39023,6.95122,-17.8354,-65.8537,-8.3658,-0.819097,-0.689766,-21.2805,-8.23171,-0.0914634
508.552,-1.30685,-1.66445,0,0.129331,8.5095,-2.28964,8.93293,-15.7622,-65.7012,-8.38496,-1.06099,-0.713716,-19.7561,-9.45122,-0.97561
508.562,-1.88156,-1.79351,0,0.361648,9.06036,-2.3064,9.96951,-12.1646,-65.9756,-8.44244,-1.38432,-0.735271,-18.2012,-10.9756,-1.89024
508.572,-2.45091,-1.94371,0,0.299377,9.29747,-1.90165,9.5122,-16.189,-65.7012,-8.52148,-1.66214,-0.843047,-15.2744,-12.8354,-3.56707
508.582,-2.96986,-2.12856,0,0.502954,9.30705,-1.75315,8.17073,-17.2561,-64.2683,-8.56938,-1.93039,-1.00351,-11.5244,-13.6585,-4.84756
508.592,-3.46745,-2.34873,0,0.435894,9.23999,-1.61664,6.46341,-21.6768,-62.3476,-8.59812,-2.14115,-1.17116,-7.43902,-13.811,-4.66463
508.602,-3.90223,-2.59085,0,0.65384,9.14658,-1.64059,5.39634,-24.7866,-59.7866,-8.59333,-2.1651,-1.28852,-3.04878,-13.0793,-3.78049
508.612,-4.31463,-2.84721,0,0.637075,9.05078,-1.44659,5.57927,-30.7927,-58.2622,-8.63405,-2.19863,-1.38672,0.97561,-12.1341,-1.4939
508.622,-4.65889,-3.09209,0,0.917292,9.10826,-1.82261,5.18293,-34.7256,-55.6707,-8.45921,-2.1651,-1.35319,4.54268,-11.6159,1.82927
508.632,-4.94807,-3.33273,0,1.11368,9.11544,-2.44531,3.65854,-33.5061,-53.2317,-8.43765,-2.04295,-1.36995,8.14024,-10.9146,5.45732
508.642,-5.19224,-3.56371,0,1.25739,9.11784,-2.50519,2.89634,-28.9939,-51.0366,-8.38257,-1.92081,-1.36037,11.3415,-10.7012,8.23171
508.652,-5.42484,-3.75369,0,1.26697,9.09389,-2.55788,3.14024,-22.3171,-50.5183,-8.32269,-1.7316,-1.23104,14.878,-10.7927,10.3659
508.662,-5.66013,-3.99132,0,1.23583,9.21364,-2.56507,2.80488,-15.1524,-50.6707,-8.17899,-1.38911,-1.41306,16.9207,-10.0305,12.1037
508.672,-5.88435,-4.30933,0,1.26457,9.46033,-2.34712,2.65244,-10.5183,-49.9695,-8.09038,-1.42743,-1.71962,19.1159,-7.04268,12.8049
508.682,-6.11461,-5.7197,0,1.2023,9.06994,-2.14354,1.70732,-5.7622,-50.9146,-7.96104,-1.59029,-2.37107,21.4024,-1.37195,12.0122
508.692,-6.35262,-6.29953,0,1.12326,9.07952,-2.18665,-0.701219,-6.0061,-51.1585,-7.98979,-1.82261,-2.91234,25.1524,5.64024,10.6402
508.702,-6.55685,-6.83959,0,1.27415,8.98611,-2.2106,-2.9878,-8.87195,-50.2744,-8.20055,-2.14354,-2.96503,28.75,11.8598,8.81098
508.712,-6.76286,-7.17682,0,1.0562,9.15376,-2.37346,-6.09756,-13.5061,-47.8354,-8.83523,-2.49082,-2.41418,31.311,14.6951,5.57927
508.722,-6.92688,-7.29476,0,1.18314,9.66151,-2.71595,-9.81707,-22.3476,-44.7866,-9.59924,-2.44771,-1.70765,32.0122,13.7805,2.92683
508.732,-7.03067,-7.37045,0,1.42504,10.1118,-2.98419,-12.8963,-31.189,-41.0976,-10.174,-1.89446,-1.63819,31.3415,11.9207,2.56098
508.742,-7.059,-7.45807,0,1.71483,10.0758,-3.02251,-15.061,-34.939,-36.9512,-10.6722,-1.22146,-1.79147,29.9085,10.8841,3.93293
508.752,-7.00405,-7.46738,0,1.95913,9.89862,-2.63213,-15.3049,-37.2866,-31.6463,-11.1344,-0.993933,-1.49449,27.2561,9.81707,6.55488
508.762,-6.80772,-7.47657,0,2.69679,9.76689,-2.83331,-16.9817,-38.872,-25.7622,-11.1009,-1.01549,-1.4921,23.75,8.90244,7.56098
508.772,-6.45758,-7.57163,0,3.43446,9.23759,-3.37698,-20,-36.6768,-19.7866,-10.5477,-0.917292,-1.8274,20.9146,9.66463,8.10976
508.782,-5.98341,-7.75408,0,3.82485,8.72985,-3.59253,-20.8841,-27.8049,-13.0793,-9.72378,-0.838257,-2.08846,20,11.5549,9.42073
508.792,-5.47302,-7.93359,0,3.71228,8.78733,-3.40332,-20.4573,-17.3171,-6.95122,-9.39087,-0.819097,-2.03337,20.4268,14.0854,11.4024
508.802,-4.85584,-8.04454,0,3.42248,9.32381,-2.9794,-18.9634,-11.0976,-1.58537,-9.65911,-0.764011,-1.81782,21.0061,15.5793,12.561
508.812,-4.33772,-8.07817,0,3.4153,10.0016,-2.67763,-18.0488,-6.55488,3.56707,-10.1333,-0.546064,-1.57113,21.25,16.25,12.0732
508.822,-3.75812,-8.0583,0,3.83443,10.6411,-2.12678,-18.0488,-5.73171,9.84756,-11.0027,-0.253872,-1.44659,20.7317,17.4695,8.65854
508.832,-3.07432,-8.15653,0,4.36133,11.1752,-1.61664,-21.4939,-9.14634,18.5976,-10.6842,-0.852627,-1.96392,20.7317,24.878,4.48171
508.842,-2.27391,-8.04734,0,4.54814,11.1608,-1.29571,-26.0366,-17.561,30.1524,-11.9009,-0.150886,-1.09931,17.6524,24.5732,-1.95122
