time,angle1,angle2,intgangle,accX1,accY1,accZ1,gyroX1,gyroY1,gyroZ1,accX2,accY2,accZ2,gyroX2,gyroY2,gyroZ2
276.131,71.0037,13.3105,0,8.96935,2.97222,3.33866,-0.152439,-0.182927,-1.67683,-9.61121,0.205972,2.24413,-0.0304878,0.548781,6.15854
276.141,71.0013,13.2927,0,8.95258,2.98898,3.32668,0.0914634,-0.152439,-1.67683,-9.60642,0.186812,2.23934,0,0.304878,6.37195
276.151,70.9967,13.2784,0,8.93582,2.99856,3.33387,0,-0.213415,-1.67683,-9.58487,0.201182,2.23455,0.152439,0.548781,6.15854
276.161,70.9948,13.3122,0,8.92384,2.99138,3.32429,0.335366,-0.335366,-1.52439,-9.5705,0.222737,2.32556,0,0.396341,6.25
276.171,70.9874,13.2913,0,8.943,3.00575,3.35542,0.0304878,-0.243902,-1.85976,-9.56571,0.251477,2.22258,-0.0609756,0.426829,6.34146
276.181,70.9804,13.3221,0,8.93103,3.01533,3.32908,-0.182927,0.0914634,-1.67683,-9.58966,0.213157,2.33035,0.182927,0.487805,6.15854
276.191,70.9785,13.3067,0,8.92384,3.00096,3.37698,0.152439,-0.0914634,-1.43293,-9.59924,0.234712,2.23934,0.213415,0.609756,6.31098
276.201,70.9783,13.3373,0,8.91666,2.98659,3.32908,-0.0304878,-0.0304878,-1.46341,-9.55852,0.249082,2.32317,-0.0304878,0.457317,6.31098
276.211,70.9731,13.3264,0,8.92624,2.99856,3.31471,0.0609756,0.121951,-1.7378,-9.56571,0.251477,2.24892,-0.213415,0.213415,6.31098
276.221,70.9719,13.3159,0,8.90468,2.97461,3.32668,0.0304878,-0.0914634,-1.64634,-9.57529,0.227527,2.24892,-0.213415,0.304878,6.28049
276.231,70.9758,13.3109,0,8.92384,2.96743,3.31471,-0.0914634,-0.0304878,-1.43293,-9.55852,0.203577,2.25371,-0.121951,0.213415,6.31098
276.241,70.9748,13.2792,0,8.93342,2.98419,3.32189,0.0609756,0.121951,-1.61585,-9.57768,0.213157,2.2106,0.182927,0.213415,6.15854
276.251,70.9735,13.2776,0,8.91187,2.97701,3.30034,0.152439,0,-1.64634,-9.5705,0.210762,2.25611,-0.0304878,0.304878,6.40244
276.261,70.967,13.2913,0,8.93342,3.01772,3.32429,-0.121951,0.243902,-1.64634,-9.56331,0.196392,2.28006,0.152439,0.152439,6.52439
276.271,70.9625,13.2767,0,8.9454,3.02012,3.28357,-0.152439,0.213415,-1.52439,-9.58966,0.189207,2.24174,0.213415,0.0609756,6.09756
276.281,70.9625,13.2739,0,8.943,2.99617,3.33626,-0.213415,0.365854,-1.46341,-9.60163,0.237107,2.2609,0.0914634,0.121951,6.12805
276.291,70.9675,13.2281,0,8.95258,2.9794,3.33147,-0.152439,0.396341,-1.34146,-9.59445,0.227527,2.18426,0.213415,0.182927,6.25
276.301,70.9757,13.2123,0,8.93582,2.97222,3.29315,0.121951,0.518293,-1.15854,-9.59205,0.222737,2.22497,-0.213415,0.335366,6.37195
276.311,70.9808,13.2009,0,8.9454,2.99856,3.33147,-0.0304878,0.182927,-1.06707,-9.59205,0.234712,2.23216,-0.121951,0.182927,6.18902
276.321,70.9828,13.1994,0,8.93582,2.98898,3.31231,0,0.243902,-1.34146,-9.6184,0.201182,2.25371,0,0.213415,6.28049
276.331,70.9924,13.2011,0,8.93582,2.95306,3.30513,-0.0304878,0.304878,-1.25,-9.64235,0.215552,2.26569,0,0.548781,6.61585
276.341,70.9968,13.1874,0,8.92145,2.9818,3.35303,-0.0914634,0.121951,-1.18902,-9.63995,0.227527,2.23455,-0.182927,0.335366,6.34146
276.351,71.0001,13.1692,0,8.93103,2.9818,3.36261,-0.0609756,0.335366,-1.28049,-9.63037,0.229922,2.22737,-0.0914634,0,6.4939
276.361,71.0099,13.1668,0,8.943,2.95306,3.37458,-0.0914634,0,-1.21951,-9.63037,0.237107,2.24892,0.27439,0.335366,6.52439
276.371,71.0229,13.1688,0,8.92145,2.92432,3.32429,-0.182927,0.243902,-1.25,-9.60403,0.220342,2.25132,0,0.457317,6.25
276.381,71.0298,13.1666,0,8.93342,2.94827,3.39135,-0.0914634,0.0304878,-1.37195,-9.59684,0.234712,2.24174,0.243902,0.213415,6.58537
276.391,71.0346,13.1294,0,8.93103,2.94827,3.3195,-0.365854,-0.0304878,-1.4939,-9.62319,0.246687,2.18665,0.0609756,0.152439,6.52439
276.401,71.0391,13.1081,0,8.93821,2.94587,3.35542,-0.182927,-0.152439,-1.55488,-9.58966,0.287402,2.19863,-0.121951,0.243902,6.46341
276.411,71.0412,13.1086,0,8.90229,2.94348,3.35063,-0.213415,-0.243902,-1.61585,-9.60163,0.244292,2.23695,-0.0609756,0.27439,6.58537
276.421,71.0367,13.1656,0,8.8975,2.98419,3.35063,-0.213415,-0.121951,-1.61585,-9.54415,0.268242,2.31119,-0.121951,0.0304878,6.52439
276.431,71.031,13.1561,0,8.94061,2.98898,3.33387,-0.243902,-0.396341,-1.82927,-9.53697,0.237107,2.21539,-0.213415,0.152439,6.37195
276.441,71.0295,13.1731,0,8.88552,2.96264,3.35782,-0.0609756,-0.182927,-1.61585,-9.50583,0.208367,2.25132,-0.152439,-0.27439,6.0061
276.451,71.0297,13.177,0,8.91905,2.96024,3.30034,0,-0.27439,-1.64634,-9.53218,0.208367,2.23695,0.0609756,-0.0609756,6.12805
276.461,71.0242,13.2088,0,8.90947,2.99856,3.39135,0.182927,-0.152439,-1.58537,-9.58487,0.165256,2.29682,0.0304878,0.0914634,6.64634
276.471,71.0197,13.2176,0,8.94061,3.00575,3.33387,-0.0914634,-0.27439,-1.55488,-9.64235,0.158071,2.28006,0.243902,0.243902,6.46341
276.481,71.0189,13.2203,0,8.97893,2.98898,3.32668,-0.0304878,0.0914634,-1.61585,-9.62798,0.213157,2.26569,0.0914634,0,6.76829
276.491,71.0178,13.2268,0,8.96695,2.99856,3.32668,-0.0914634,-0.152439,-1.4939,-9.65672,0.205972,2.28006,0.426829,-0.152439,6.37195
276.501,71.0171,13.2516,0,8.95977,2.99617,3.32908,-0.152439,-0.304878,-1.46341,-9.61361,0.241897,2.29922,-0.121951,0,6.40244
276.511,71.0202,13.2654,0,8.98132,2.96503,3.32668,-0.27439,-0.152439,-1.61585,-9.62798,0.210762,2.29443,-0.121951,0.304878,6.06707
276.521,71.0188,13.2894,0,8.94061,2.98898,3.34824,-0.335366,-0.27439,-1.52439,-9.62558,0.198787,2.31598,0.27439,0.304878,6.31098
276.531,71.0183,13.2713,0,8.97893,2.9794,3.33626,-0.213415,-0.396341,-1.70732,-9.61121,0.205972,2.23216,-0.0304878,0.518293,6.55488
276.541,71.0232,13.2462,0,8.92624,2.96503,3.3195,-0.0609756,0,-1.31098,-9.60642,0.208367,2.21779,0,0.335366,6.34146
276.551,71.0267,13.2463,0,8.90947,2.96982,3.35542,-0.182927,-0.182927,-1.28049,-9.61361,0.136516,2.26329,0.518293,0.0914634,6.64634
276.561,71.0203,13.1717,0,8.8975,2.99138,3.34345,0,-0.27439,-1.70732,-9.59205,0.191602,2.14354,0.640244,0,6.55488
276.571,71.0112,13.1344,0,8.87594,3.00575,3.33626,0.213415,-0.396341,-1.67683,-9.61361,0.196392,2.18426,0.548781,-0.182927,6.61585
276.581,71.0034,13.1099,0,8.92624,3.02251,3.33387,0.0609756,-0.518293,-1.58537,-9.62558,0.227527,2.19144,0.457317,-0.579268,6.61585
276.591,71.0026,13.1012,0,8.90229,2.9818,3.27399,0.152439,-0.457317,-1.46341,-9.63756,0.282612,2.22497,0.426829,-0.548781,6.40244
276.601,71.0012,13.1202,0,8.94061,2.98419,3.35542,0.0914634,-0.27439,-1.61585,-9.60403,0.280217,2.27766,0.365854,-0.640244,6.31098
276.611,70.996,13.1528,0,8.93103,2.99856,3.32429,-0.0914634,0.0304878,-1.70732,-9.57768,0.287402,2.30401,-0.213415,-0.609756,6.18902
276.621,71.0051,13.1623,0,8.92863,2.93629,3.30992,-0.609756,0.0914634,-1.40244,-9.54415,0.275427,2.25132,-0.396341,-0.731707,5.91463
276.631,71.0159,13.153,0,8.94779,2.91953,3.39374,-0.213415,0.243902,-1.4939,-9.62079,0.265847,2.22976,-0.27439,-0.487805,5.67073
276.641,71.0272,13.1335,0,8.93821,2.92192,3.32908,-0.121951,-0.0304878,-1.40244,-9.60163,0.234712,2.20821,-0.457317,-0.243902,5.85366
276.651,71.0394,13.0896,0,8.96456,2.91953,3.32429,-0.304878,0.396341,-1.43293,-9.60882,0.241897,2.15073,-0.426829,-0.487805,5.97561
276.661,71.05,13.0794,0,8.96456,2.90755,3.31471,-0.213415,-0.0304878,-1.61585,-9.60882,0.193997,2.21539,-0.792683,-0.243902,6.03659
276.671,71.0541,13.0728,0,8.95498,2.92192,3.31471,-0.152439,0.27439,-1.85976,-9.64953,0.201182,2.22976,-0.518293,-0.182927,5.97561
276.681,71.0511,13.0424,0,8.92384,2.96743,3.34824,0.0914634,0.579268,-1.76829,-9.58247,0.234712,2.15552,-0.243902,-0.701219,6.06707
276.691,71.0552,13.0287,0,8.92145,2.91953,3.38177,0.182927,0.243902,-1.76829,-9.62558,0.210762,2.19863,-0.152439,-0.609756,6.28049
276.701,71.0523,13.0108,0,8.90468,2.95545,3.34105,0.0914634,0.243902,-1.82927,-9.63995,0.229922,2.18905,-0.213415,-0.640244,6.18902
276.711,71.0504,13.003,0,8.91905,2.95306,3.40572,0.304878,0.396341,-1.82927,-9.64714,0.220342,2.2106,-0.0914634,-0.640244,6.09756
276.721,71.051,12.9853,0,8.94061,2.96264,3.3674,0.579268,0.396341,-1.61585,-9.65672,0.203577,2.18426,-0.0914634,-0.853659,6.28049
276.731,71.0464,12.9975,0,8.93103,2.96264,3.33866,0.670732,0.0914634,-1.98171,-9.66869,0.208367,2.2585,0.0304878,-0.701219,6.28049
276.741,71.041,12.98,0,8.93342,2.95545,3.38656,0.792683,-0.182927,-2.13415,-9.64235,0.205972,2.18186,-0.0914634,-0.792683,6.40244
276.751,71.0396,12.9915,0,8.93821,2.93629,3.32189,0.853659,-0.213415,-2.07317,-9.62798,0.222737,2.24892,0.213415,-0.97561,6.25
276.761,71.0306,13.0294,0,8.92863,2.99138,3.35063,0.823171,-0.518293,-2.0122,-9.62798,0.201182,2.32796,0.548781,-1.12805,6.34146
276.771,71.0232,13.0398,0,8.91187,2.97461,3.36979,0.487805,-0.487805,-2.04268,-9.61121,0.203577,2.25371,0.243902,-1.28049,5.91463
276.781,71.0121,13.0438,0,8.91426,2.9794,3.38416,0.548781,-0.426829,-2.31707,-9.58726,0.186812,2.22976,0.335366,-0.914634,5.91463
276.791,71.0043,13.0776,0,8.90947,2.95306,3.37698,0.518293,-0.213415,-2.34756,-9.5202,0.205972,2.26808,-0.182927,-0.365854,6.06707
276.801,70.9956,13.0937,0,8.92863,2.95306,3.39374,0.396341,-0.701219,-2.5,-9.53457,0.205972,2.24413,-0.396341,-0.335366,5.79268
276.811,70.9862,13.128,0,8.92863,2.9794,3.34345,0.396341,-0.548781,-2.28659,-9.53457,0.162861,2.27527,-0.335366,-0.182927,5.88415
276.821,70.9774,13.1223,0,8.91666,2.96743,3.32429,0.0609756,-0.579268,-2.34756,-9.54655,0.193997,2.21779,-0.609756,0.0304878,6.34146
276.831,70.9631,13.13,0,8.91426,3.00575,3.32668,0.152439,-0.792683,-2.37805,-9.56331,0.148491,2.24174,-0.426829,0.0609756,6.46341
276.841,70.9504,13.1524,0,8.91666,3.01293,3.36021,-0.396341,-1.0061,-2.19512,-9.58487,0.182021,2.27527,-0.487805,-0.213415,6.15854
276.851,70.9321,13.1808,0,8.90229,3.03928,3.33626,-0.487805,-1.0061,-2.34756,-9.616,0.155676,2.29682,-0.27439,-0.152439,6.25
276.861,70.9139,13.1927,0,8.88792,3.04407,3.365,-0.213415,-0.884146,-2.2561,-9.60163,0.177231,2.27048,-0.0304878,-0.27439,5.91463
276.871,70.9026,13.1787,0,8.90947,3.00096,3.38416,-0.335366,-0.97561,-2.28659,-9.58966,0.184417,2.22018,0.426829,-0.396341,6.09756
276.881,70.8845,13.1926,0,8.91905,3.06083,3.35063,-0.457317,-0.884146,-2.22561,-9.58966,0.162861,2.27527,0.121951,-0.579268,5.79268
276.891,70.8731,13.2177,0,8.91666,3.03928,3.32908,-0.396341,-0.914634,-1.92073,-9.57768,0.177231,2.29922,0.365854,-0.579268,5.97561
276.901,70.8618,13.2289,0,8.93103,3.02012,3.32668,-0.487805,-1.03659,-2.22561,-9.58008,0.222737,2.27766,0.304878,-0.914634,5.88415
276.911,70.8505,13.2567,0,8.92145,3.03449,3.30752,-0.518293,-0.701219,-2.04268,-9.55852,0.210762,2.3064,0.457317,-0.579268,6.21951
276.922,70.8391,13.2889,0,8.90708,3.03449,3.34345,-0.579268,-1.03659,-2.0122,-9.60163,0.215552,2.33275,0.182927,-0.579268,5.91463
276.931,70.8368,13.2948,0,8.93342,3.00814,3.31231,-0.396341,-0.914634,-1.70732,-9.58008,0.189207,2.27527,0.457317,-0.609756,6.21951
276.941,70.8405,13.3156,0,8.95019,2.97701,3.32189,-0.640244,-0.792683,-1.67683,-9.56571,0.241897,2.30401,0.579268,-0.548781,6.18902
276.951,70.8449,13.3267,0,8.92624,2.96503,3.29076,-0.304878,-0.670732,-1.67683,-9.5705,0.237107,2.28724,0.213415,-0.457317,6.28049
276.961,70.8484,13.299,0,8.93821,2.99856,3.35063,-0.243902,-0.762195,-1.40244,-9.56571,0.249082,2.20821,0.457317,-0.518293,6.43293
276.971,70.8515,13.3241,0,8.95737,2.98419,3.28357,-0.426829,-0.579268,-1.64634,-9.56092,0.251477,2.31119,0.121951,-0.487805,6.46341
276.981,70.8631,13.3877,0,8.95977,2.95545,3.30273,-0.182927,-0.731707,-1.40244,-9.50583,0.220342,2.38065,0.0609756,-0.518293,6.28049
276.991,70.8677,13.4033,0,8.95977,3.00335,3.34105,-0.0914634,-0.701219,-1.31098,-9.52739,0.189207,2.29203,0,0.0609756,6.55488
277.001,70.8845,13.4035,0,8.96216,2.96503,3.28597,0.243902,-0.487805,-1.0061,-9.55613,0.179626,2.27766,0.0914634,0.243902,6.34146
277.011,70.8927,13.425,0,8.94779,2.9818,3.29076,0.27439,-0.731707,-1.25,-9.58966,0.179626,2.32556,-0.0609756,0.27439,6.21951
277.021,70.8932,13.4568,0,8.94061,2.99617,3.30273,0.213415,-0.548781,-1.55488,-9.5681,0.222737,2.34712,0.487805,0.396341,6.55488
277.031,70.8953,13.4646,0,8.96695,2.98659,3.24525,0.213415,0,-1.64634,-9.52499,0.222737,2.29443,0.0914634,0.396341,6.28049
277.041,70.9011,13.48,0,8.95737,3.01054,3.27878,0.213415,-0.0914634,-1.09756,-9.53218,0.220342,2.31598,-0.121951,0.609756,6.52439
277.051,70.9016,13.4902,0,8.91905,2.99617,3.3171,0.213415,0.213415,-1.46341,-9.55852,0.227527,2.31598,-0.0609756,0.762195,6.37195
277.061,70.9013,13.4951,0,8.92624,3.00335,3.34105,0.487805,0.27439,-1.46341,-9.54415,0.201182,2.30161,-0.121951,0.762195,6.31098
277.071,70.9006,13.4849,0,8.92384,3.01533,3.30513,0.243902,0,-1.34146,-9.5681,0.217947,2.27287,-0.152439,0.762195,6.58537
277.081,70.9093,13.4768,0,8.93103,2.9818,3.33147,0.579268,-0.213415,-1.12805,-9.52499,0.191602,2.26808,-0.396341,0.518293,6.37195
277.091,70.9091,13.4583,0,8.93103,3.00335,3.30513,0.396341,-0.182927,-1.46341,-9.55134,0.201182,2.25371,-0.396341,0.396341,6.52439
277.101,70.9089,13.4538,0,8.91426,3.01293,3.30752,0.396341,-0.0914634,-1.28049,-9.55613,0.196392,2.27766,-0.396341,0.579268,6.64634
277.111,70.9111,13.4591,0,8.91905,3.01293,3.31471,0.365854,0.304878,-1.12805,-9.56092,0.158071,2.29922,-0.121951,0.579268,6.64634
277.121,70.9087,13.4387,0,8.90468,3.01772,3.33387,0.27439,0.396341,-1.34146,-9.54415,0.160466,2.24413,0.27439,0.457317,6.31098
277.131,70.9072,13.4397,0,8.89031,3.00814,3.30992,0,0.396341,-1.34146,-9.60163,0.150886,2.29682,0.152439,0.487805,6.7378
277.141,70.9055,13.4522,0,8.92384,3.03209,3.33626,-0.152439,0.213415,-1.18902,-9.56331,0.186812,2.31359,-0.152439,0.640244,6.67683
277.151,70.9006,13.4364,0,8.8951,3.03688,3.34105,-0.121951,0.27439,-1.25,-9.60882,0.198787,2.26569,-0.27439,0.487805,6.67683
277.161,70.8994,13.4112,0,8.88792,3.03209,3.33387,-0.121951,0,-1.0061,-9.55613,0.179626,2.22737,-0.0304878,0.670732,6.46341
277.171,70.905,13.4197,0,8.89989,3.00096,3.30273,-0.152439,-0.152439,-1.0061,-9.58247,0.203577,2.30401,-0.0914634,0.579268,6.58537
277.181,70.9133,13.3856,0,8.90468,2.98898,3.30992,-0.0304878,-0.304878,-0.97561,-9.56331,0.184417,2.22258,0.121951,0.213415,6.43293
277.191,70.9164,13.3582,0,8.91426,3.00335,3.32189,-0.152439,-0.426829,-1.15854,-9.54894,0.155676,2.22018,0.121951,0.396341,6.34146
277.201,70.9189,13.3481,0,8.95019,3.02491,3.2716,-0.609756,-0.457317,-1.06707,-9.53936,0.136516,2.24413,0.457317,0.609756,6.67683
277.211,70.9286,13.3138,0,8.9454,3.01293,3.34345,-0.304878,-0.396341,-0.731707,-9.58966,0.153281,2.19863,0.304878,0.670732,6.82927
277.221,70.9361,13.2992,0,8.96695,3.00814,3.31471,-0.27439,-0.335366,-0.97561,-9.63756,0.138911,2.24892,0.243902,0.548781,7.16463
277.231,70.9526,13.2868,0,8.9933,2.97461,3.36261,-0.27439,-0.243902,-0.884146,-9.63516,0.182021,2.24892,0.243902,0.701219,6.79878
277.241,70.9708,13.2693,0,9.00048,2.96982,3.28597,-0.152439,-0.0914634,-0.853659,-9.6639,0.201182,2.24174,0.365854,0.640244,7.10366
277.251,70.9925,13.2331,0,8.98372,2.95545,3.25962,-0.243902,-0.426829,-0.762195,-9.64235,0.225132,2.19384,0.213415,0.579268,6.98171
277.261,71.0109,13.2082,0,8.97653,2.94827,3.33387,-0.457317,-0.27439,-0.914634,-9.62558,0.208367,2.20102,0.152439,0.884146,6.82927
277.271,71.031,13.175,0,8.98851,2.94108,3.25244,-0.243902,-0.335366,-0.914634,-9.59684,0.220342,2.15791,0.182927,1.25,6.89024
277.281,71.0446,13.1536,0,8.96935,2.96503,3.28118,-0.487805,-0.121951,-0.914634,-9.62319,0.203577,2.19384,0.243902,1.12805,6.98171
277.291,71.0596,13.1334,0,8.93103,2.92911,3.30513,-0.27439,-0.213415,-1.06707,-9.61361,0.162861,2.18905,0.0914634,1.25,6.89024
277.301,71.0685,13.1067,0,8.9933,2.95785,3.28118,0,0,-1.28049,-9.60163,0.179626,2.1627,0.426829,1.31098,6.7378
277.311,71.0841,13.0886,0,8.96935,2.92671,3.28118,-0.0304878,-0.0304878,-1.12805,-9.58008,0.165256,2.17947,0.121951,1.28049,7.2561
277.321,71.0981,13.0813,0,8.98851,2.93869,3.24765,0.0914634,0.335366,-1.12805,-9.58966,0.162861,2.20821,0.121951,1.46341,7.07317
277.331,71.1036,13.0734,0,8.97893,2.94108,3.30034,0.0304878,0.182927,-1.55488,-9.56331,0.198787,2.19863,0.0304878,1.55488,7.0122
277.341,71.106,13.0491,0,8.96216,2.96024,3.29315,0.365854,0.243902,-1.4939,-9.58247,0.215552,2.15073,0.0609756,1.52439,7.0122
277.351,71.1158,13.0423,0,8.95737,2.9315,3.26681,0.396341,0.365854,-1.31098,-9.5681,0.208367,2.19863,0.0609756,1.40244,7.07317
277.361,71.1189,13.0354,0,8.94061,2.95306,3.29555,-0.0304878,0.335366,-1.43293,-9.60163,0.198787,2.20581,0,1.15854,7.16463
277.371,71.1201,13.0321,0,8.95498,2.9794,3.22609,0.365854,0.792683,-1.31098,-9.59445,0.201182,2.213,0.243902,1.18902,6.92073
277.381,71.1217,13.0324,0,8.93103,2.95306,3.28836,0.396341,1.0061,-1.4939,-9.616,0.213157,2.22737,0.0609756,1.12805,7.13415
277.391,71.1256,13.0126,0,8.96456,2.96264,3.29076,0.487805,0.914634,-1.34146,-9.63756,0.193997,2.17228,0.182927,1.34146,6.98171
277.401,71.1215,13.011,0,8.95258,2.9818,3.30992,0.426829,1.03659,-1.64634,-9.59205,0.220342,2.213,0.213415,1.37195,6.79878
277.411,71.1194,12.994,0,8.97174,2.99617,3.29794,0.335366,0.884146,-1.40244,-9.61361,0.210762,2.17468,0,1.15854,7.10366
277.421,71.1093,13.0041,0,8.92384,3.01772,3.34584,0.27439,1.06707,-1.58537,-9.60642,0.217947,2.24653,0.213415,1.18902,7.19512
277.431,71.1055,12.9929,0,8.91905,2.9818,3.33147,0.487805,0.97561,-1.52439,-9.60163,0.237107,2.18665,0.335366,1.21951,7.2561
277.441,71.1007,12.9981,0,8.94779,3.00335,3.28118,0.457317,1.09756,-1.46341,-9.60642,0.213157,2.23216,-0.0914634,1.15854,7.37805
277.451,71.0996,13.0054,0,8.93342,2.99856,3.30752,0.792683,1.25,-1.18902,-9.61121,0.184417,2.24174,0.0914634,1.34146,7.40854
277.461,71.1043,13.0208,0,8.93821,2.9794,3.34824,0.640244,1.06707,-1.03659,-9.59205,0.179626,2.2585,0.365854,1.09756,7.40854
277.471,71.1053,13.0061,0,8.92145,2.9794,3.365,0.640244,1.12805,-1.21951,-9.63277,0.213157,2.18905,0.426829,1.0061,7.56098
277.481,71.1091,12.9955,0,8.92863,2.96264,3.33147,0.670732,0.853659,-1.25,-9.58726,0.189207,2.18665,0.396341,1.09756,7.83537
277.491,71.1051,12.9996,0,8.92145,2.99617,3.32908,0.365854,0.640244,-1.37195,-9.58966,0.191602,2.22497,0.213415,1.03659,7.68293
277.501,71.105,12.9864,0,8.93103,2.97701,3.30752,0.152439,0.518293,-1.37195,-9.58726,0.186812,2.17947,0.304878,1.03659,7.56098
277.511,71.106,12.9631,0,8.91666,2.96982,3.34584,0.457317,0.792683,-1.31098,-9.59205,0.222737,2.14833,0.426829,1.15854,7.68293
277.521,71.1156,12.9392,0,8.93342,2.9339,3.34105,0.487805,0.518293,-1.21951,-9.60642,0.227527,2.14354,0.335366,1.25,7.2561
277.531,71.1255,12.9317,0,8.91666,2.94587,3.32189,0.27439,0.640244,-1.0061,-9.60163,0.222737,2.18665,0.182927,1.06707,7.34756
277.541,71.1255,12.9157,0,8.92863,2.95545,3.35542,0.0914634,0.579268,-1.55488,-9.59445,0.220342,2.15552,0.426829,1.43293,7.28659
277.551,71.1287,12.9134,0,8.97414,2.96024,3.36261,0.152439,0.701219,-1.43293,-9.59205,0.203577,2.19384,0.27439,1.52439,7.40854
277.561,71.1289,12.8857,0,8.92145,2.94108,3.30992,0.0914634,0.548781,-1.67683,-9.60642,0.198787,2.11241,0.243902,1.70732,7.59146
277.571,71.1332,12.8616,0,8.94061,2.94827,3.33866,0.0304878,0.609756,-1.37195,-9.62319,0.208367,2.12438,0.335366,1.64634,7.59146
277.581,71.1349,12.8518,0,8.96456,2.96024,3.30992,-0.152439,0.457317,-1.4939,-9.60882,0.203577,2.1651,0.121951,1.43293,7.68293
277.591,71.1351,12.8167,0,8.92624,2.93869,3.35782,0.121951,0.609756,-1.70732,-9.63756,0.229922,2.09564,0.365854,1.31098,7.89634
277.601,71.1347,12.8001,0,8.92384,2.95306,3.30992,0.121951,0.487805,-1.58537,-9.63995,0.198787,2.14115,0.487805,1.55488,7.83537
277.611,71.132,12.782,0,8.92624,2.96024,3.31471,-0.27439,0.487805,-1.67683,-9.63277,0.237107,2.13396,0.426829,1.43293,7.7439
277.621,71.1302,12.7629,0,8.90947,2.96503,3.32668,0.243902,0.27439,-1.4939,-9.64235,0.213157,2.12199,0.609756,1.92073,7.34756
277.631,71.1288,12.7505,0,8.91905,2.95306,3.36979,0.121951,0.121951,-1.64634,-9.62558,0.227527,2.13875,0.609756,1.89024,7.59146
277.641,71.1203,12.7519,0,8.95498,2.99377,3.34105,0.640244,-0.304878,-1.85976,-9.65432,0.244292,2.19144,0.884146,1.92073,7.7439
277.651,71.118,12.7362,0,8.97653,2.96264,3.3171,0.182927,-0.243902,-1.82927,-9.58247,0.210762,2.1148,0.97561,2.04268,7.9878
277.661,71.1241,12.7442,0,9.01006,2.93629,3.3195,0.335366,-0.0609756,-1.61585,-9.62079,0.268242,2.20581,1.0061,2.13415,8.01829
277.671,71.1263,12.7178,0,8.9909,2.95306,3.28357,-0.0914634,-0.0304878,-1.64634,-9.5681,0.270637,2.06211,1.31098,2.83537,8.07927
277.681,71.1226,12.7186,0,8.94061,2.96264,3.28597,0.182927,0.27439,-1.79878,-9.53697,0.265847,2.15791,0.914634,2.9878,8.35366
277.691,71.1219,12.7105,0,8.91426,2.94587,3.30273,0.182927,0.152439,-1.67683,-9.56571,0.237107,2.12917,1.67683,3.01829,8.04878
277.701,71.1233,12.7054,0,8.92624,2.93629,3.31471,0.335366,0.579268,-1.67683,-9.58487,0.251477,2.14354,1.31098,3.32317,7.89634
277.711,71.1214,12.6936,0,8.90947,2.96264,3.31471,0.304878,0.304878,-1.55488,-9.60882,0.210762,2.11959,1.37195,3.5061,7.7439
277.721,71.1214,12.6852,0,8.91666,2.93869,3.36021,0.213415,0.121951,-1.70732,-9.6184,0.244292,2.13396,1.18902,3.84146,7.59146
277.731,71.1195,12.666,0,8.97893,2.96264,3.35542,0.457317,0.365854,-1.79878,-9.58247,0.273032,2.07888,1.31098,3.87195,7.68293
277.741,71.1196,12.6467,0,8.96456,2.9339,3.3171,0.213415,0.27439,-1.92073,-9.58487,0.261057,2.07409,1.18902,4.42073,7.86585
277.751,71.1158,12.6365,0,8.96456,2.93629,3.36021,0.731707,0.121951,-2.19512,-9.54894,0.239502,2.10283,1.0061,5.06098,7.80488
277.761,71.111,12.6245,0,8.9933,2.97222,3.29555,0.335366,0.213415,-1.98171,-9.56331,0.249082,2.09564,0.914634,4.96951,8.17073
277.771,71.1069,12.6052,0,8.96695,2.96264,3.34105,0.823171,0.213415,-1.95122,-9.6184,0.244292,2.07409,1.34146,4.90854,7.89634
277.781,71.0955,12.585,0,8.94779,3.01772,3.3674,0.609756,0.243902,-1.82927,-9.6184,0.268242,2.0669,1.03659,5.4878,7.59146
277.791,71.0863,12.5728,0,8.93582,2.99856,3.29076,0.213415,0.396341,-1.85976,-9.6184,0.263452,2.09804,0.945122,5.7622,7.77439
277.801,71.0776,12.5489,0,8.95737,3.00096,3.34824,0.518293,0.213415,-1.89024,-9.64235,0.292192,2.05014,0.97561,6.03659,7.40854
277.811,71.0611,12.5233,0,8.90708,3.05844,3.36261,0.731707,0.426829,-1.61585,-9.60882,0.323328,2.03098,1.15854,5.7622,7.34756
277.821,71.0337,12.4966,0,8.87115,3.13987,3.365,0.731707,0.304878,-0.97561,-9.65193,0.311353,2.03098,1.34146,6.31098,7.28659
277.831,70.9858,12.463,0,8.86157,3.21412,3.32189,0.640244,-0.213415,0.0914634,-9.67348,0.320933,1.99984,1.55488,6.18902,6.95122
277.841,70.9756,12.4318,0,8.84241,3.11113,3.29794,0.487805,-0.213415,0.518293,-9.65911,0.373623,2.00224,1.21951,6.40244,6.67683
277.851,70.9788,12.3869,0,8.87834,3.08479,3.34345,0.0304878,-0.152439,0.823171,-9.71659,0.447869,1.94715,1.12805,6.34146,6.21951
277.861,70.9872,12.3328,0,8.84002,3.07281,3.34824,-0.182927,-0.182927,1.31098,-9.74294,0.450264,1.90404,0.609756,6.06707,5.88415
277.871,71.0034,12.2891,0,8.83044,3.03449,3.39135,-0.670732,0.0304878,1.52439,-9.78844,0.469424,1.94955,0.121951,6.67683,5.79268
277.881,71.0347,12.2556,0,8.84241,2.94108,3.39135,-0.823171,-0.731707,1.4939,-9.79084,0.443079,1.98787,-0.457317,6.31098,6.0061
277.891,71.0781,12.2502,0,8.89271,2.87642,3.39135,-0.457317,-0.762195,1.31098,-9.76689,0.342488,2.10283,-1.25,6.28049,6.03659
277.901,71.1203,12.2446,0,9.01725,2.90995,3.38177,0.243902,-1.21951,1.31098,-9.74294,0.239502,2.09564,-1.28049,6.25,6.43293
277.911,71.1486,12.2278,0,9.07952,3.01054,3.36261,0.335366,-1.70732,1.43293,-9.67827,0.174836,2.03098,-1.0061,5.94512,6.52439
277.921,71.1751,12.2164,0,9.14658,3.0776,3.25004,0.243902,-1.06707,2.10366,-9.61361,0.222737,2.03816,-0.945122,5.64024,7.10366
277.931,71.2086,12.1858,0,9.09149,3.03209,3.16382,-0.640244,-0.152439,2.56098,-9.57529,0.201182,1.94476,-0.853659,5.06098,7.53049
277.941,71.2481,12.1497,0,8.97414,2.95066,3.14945,-0.884146,0.518293,2.68293,-9.57289,0.213157,1.91841,-0.0914634,3.81098,7.77439
277.951,71.2742,12.1246,0,8.87355,3.04167,3.19735,-0.701219,1.64634,3.04878,-9.64714,0.205972,1.98068,-0.152439,2.68293,7.80488
277.961,71.2859,12.0904,0,8.76577,3.20214,3.28357,-0.792683,2.37805,4.02439,-9.69983,0.170046,1.9711,0.0304878,1.67683,7.9878
277.971,71.1509,12.0431,0,7.82692,4.81878,3.32668,0.670732,-0.0609756,12.561,-9.73336,0.160466,1.95673,0.27439,1.0061,8.59756
277.981,71.2623,12.0067,0,8.93582,3.29555,3.28357,-3.38415,4.02439,14.2073,-9.73575,0.237107,2.01182,0.762195,-0.121951,8.75
277.991,71.5051,11.9389,0,9.24717,1.67412,3.75779,-5.33537,2.77439,7.46951,-9.72857,0.234712,1.91841,1.12805,-0.548781,8.96341
278.001,71.7726,11.9123,0,9.08191,1.57592,3.86556,-1.34146,-1.18902,1.25,-9.69983,0.246687,1.98547,1.31098,-0.762195,8.87195
278.011,71.8672,11.8732,0,9.03401,2.29682,3.46799,1.25,-2.86585,-1.52439,-9.69743,0.311353,1.93757,1.37195,-1.06707,8.41463
278.021,71.831,11.8478,0,8.93342,3.06323,3.22609,0.426829,-3.07927,-1.43293,-9.68067,0.352068,1.95913,1.67683,-1.28049,8.2622
278.031,71.7917,11.7945,0,9.03401,3.1279,3.25723,-2.07317,-3.2622,-0.670732,-9.66151,0.352068,1.88967,1.34146,-0.945122,7.59146
278.041,71.798,11.7499,0,9.08431,2.95545,3.21172,-2.13415,-2.0122,-0.213415,-9.6663,0.399968,1.90165,1.7378,-0.97561,7.5
278.051,71.8349,11.7068,0,9.02683,2.81654,3.24765,-1.92073,-1.40244,-0.27439,-9.64474,0.445474,1.88728,1.43293,-1.12805,7.19512
278.061,71.9006,11.6769,0,9.05078,2.68003,3.27399,-1.52439,0.213415,-0.426829,-9.65193,0.490979,1.92081,1.15854,-1.0061,7.16463
278.071,71.9806,11.6211,0,9.0891,2.61776,3.27639,-1.0061,1.40244,-0.426829,-9.62079,0.55325,1.85135,0.792683,-0.884146,6.92073
278.081,72.0491,11.5402,0,9.05317,2.6465,3.24525,-0.945122,1.89024,-0.426829,-9.65672,0.55325,1.84896,0.640244,0.152439,7.0122
278.091,72.1161,11.4642,0,9.04359,2.60099,3.34584,-0.914634,2.10366,-0.609756,-9.69264,0.510139,1.79866,0.457317,0.762195,6.95122
278.101,72.1656,11.4208,0,9.02683,2.5962,3.39614,-0.396341,1.79878,-1.0061,-9.70462,0.459844,1.84896,0.0304878,1.09756,6.95122
278.111,72.2068,11.363,0,9.03641,2.56267,3.42488,-0.0304878,1.34146,-1.46341,-9.72138,0.404758,1.78908,0.335366,1.37195,6.89024
278.121,72.2273,11.3047,0,9.03162,2.61057,3.47517,0.701219,0.243902,-2.04268,-9.77886,0.361648,1.7771,0.701219,1.52439,6.95122
278.131,72.2369,11.2588,0,9.07473,2.65368,3.44164,1.15854,-0.792683,-2.43902,-9.78366,0.318538,1.79147,0.762195,1.98171,6.92073
278.141,72.2341,11.2144,0,9.03641,2.72314,3.45122,1.31098,-1.61585,-2.56098,-9.74773,0.385598,1.77231,0.762195,2.40854,6.85976
278.151,72.2253,11.1677,0,8.95977,2.73751,3.33866,1.25,-2.04268,-2.68293,-9.74054,0.373623,1.75315,1.06707,2.46951,6.70732
278.161,72.2076,11.1157,0,8.89989,2.7902,3.31231,1.55488,-1.92073,-2.65244,-9.69264,0.433499,1.72441,0.914634,2.22561,6.4939
278.171,72.182,11.1079,0,8.87115,2.84289,3.25004,1.37195,-1.92073,-2.68293,-9.6663,0.423918,1.87291,0.640244,2.16463,6.64634
278.181,72.1531,11.0876,0,8.8951,2.87881,3.27878,0.731707,-1.25,-2.68293,-9.67827,0.421523,1.83698,0.457317,1.55488,6.52439
278.191,72.1248,11.0711,0,8.9454,2.90276,3.26441,0.518293,-0.762195,-2.59146,-9.66151,0.383203,1.84417,0.0914634,1.46341,6.25
278.201,72.096,11.0792,0,8.95498,2.91713,3.31231,0,-0.731707,-2.56098,-9.69264,0.373623,1.91841,-0.182927,0.945122,6.18902
278.211,72.0656,11.0836,0,8.94779,2.9339,3.33626,-0.548781,-0.945122,-2.53049,-9.7118,0.308958,1.91123,-0.213415,0.426829,6.12805
278.221,72.0318,11.0613,0,8.93582,2.95545,3.32668,-0.518293,-0.304878,-2.62195,-9.72378,0.316143,1.86812,-0.457317,-0.0304878,5.94512
278.231,71.999,11.0712,0,8.93582,2.96743,3.3171,-0.884146,-0.670732,-2.40854,-9.72378,0.320933,1.9232,-0.884146,-0.640244,6.06707
278.241,71.9652,11.0827,0,8.92863,2.9818,3.36979,-1.34146,-0.365854,-2.34756,-9.73575,0.347278,1.93757,-0.823171,-1.18902,5.94512
278.251,71.9431,11.0972,0,8.92145,2.92432,3.37458,-1.58537,-0.213415,-1.98171,-9.73575,0.371228,1.95194,-1.09756,-1.46341,5.70122
278.261,71.9151,11.1128,0,8.88792,2.95066,3.39853,-1.40244,-0.579268,-2.10366,-9.72378,0.332908,1.95913,-1.0061,-1.76829,5.64024
278.271,71.8848,11.1352,0,8.90229,2.99617,3.39135,-1.52439,-0.579268,-1.7378,-9.67827,0.313748,1.9735,-1.28049,-1.67683,5.97561
278.281,71.8612,11.1614,0,8.90708,2.98659,3.37698,-1.43293,-1.03659,-1.06707,-9.66151,0.304167,1.99505,-1.09756,-2.13415,5.73171
278.291,71.8414,11.1812,0,8.88313,2.95785,3.3674,-1.31098,-0.762195,-1.15854,-9.65672,0.251477,1.98308,-1.25,-3.01829,6.06707
278.301,71.838,11.1972,0,8.90229,2.90276,3.32189,-0.945122,-1.31098,-0.731707,-9.63277,0.234712,1.96871,-1.12805,-3.87195,6.37195
278.311,71.8323,11.2424,0,8.90468,2.92432,3.3195,-0.853659,-1.37195,-0.518293,-9.616,0.244292,2.09564,-0.518293,-4.63415,6.85976
278.321,71.8223,11.2745,0,8.92863,2.95306,3.28357,-0.518293,-1.0061,-0.457317,-9.63995,0.299377,2.05253,-0.304878,-5.33537,6.82927
278.331,71.7568,11.3134,0,8.8017,3.24765,3.28597,-0.396341,-1.12805,0.823171,-9.64235,0.306563,2.08846,-0.426829,-5.85366,7.37805
278.341,71.7053,11.3424,0,8.66518,3.61169,3.24765,-1.55488,0.640244,3.9939,-9.64714,0.361648,2.05253,-0.0914634,-6.43293,6.98171
278.351,71.6956,11.4056,0,8.64123,3.62127,3.08718,-4.08537,5.12195,8.07927,-9.64953,0.361648,2.2106,0.0914634,-7.10366,6.89024
278.361,71.7895,11.4743,0,8.77056,2.692,3.03688,-5.33537,3.81098,7.04268,-9.71899,0.292192,2.2609,-0.365854,-8.68902,6.61585
278.371,72.1416,11.5607,0,9.64714,1.47054,3.44643,-5.21341,0,-0.304878,-9.73575,0.273032,2.3567,-0.945122,-10.061,6.34146
278.381,72.2691,11.6834,0,9.92257,1.65017,3.41051,5.57927,1.67683,-4.35976,-9.75491,0.361648,2.54112,-1.43293,-11.4634,5.82317
278.391,72.271,11.8101,0,9.79803,2.96264,3.17819,11.6768,-0.27439,-1.89024,-9.74054,0.450264,2.57704,-2.65244,-12.9878,5.27439
278.401,72.1472,11.8898,0,9.34297,3.82006,3.32189,2.62195,-0.640244,-1.37195,-9.65432,0.514929,2.36388,-3.41463,-13.1098,5.91463
278.411,71.9291,11.943,0,8.33467,3.51828,3.51828,-5.94512,0.640244,-0.701219,-9.52978,0.622705,2.22976,-2.89634,-12.622,6.85976
278.421,71.8077,11.9993,0,8.13828,3.06802,3.50631,-7.43902,0.640244,0.731707,-9.52978,0.60594,2.25371,-1.76829,-12.378,7.86585
278.431,71.8583,12.0405,0,8.47597,2.68721,3.42488,-4.32927,2.28659,3.87195,-9.58966,0.514929,2.2106,-0.853659,-11.8902,8.53659
278.441,71.9684,12.0656,0,8.79691,2.46927,3.44883,0.213415,5.7622,6.18902,-9.5681,0.421523,2.14115,-0.0609756,-11.8902,8.71951
278.451,72.1084,12.1146,0,9.08431,2.35191,3.45122,1.52439,6.03659,7.10366,-9.6184,0.344883,2.26329,0.182927,-12.4085,8.38415
278.461,72.2438,12.0817,0,9.16095,2.20102,3.63324,0.579268,1.55488,4.7561,-9.72617,0.311353,1.93039,-0.213415,-12.0122,7.68293
278.471,72.4078,12,0,9.10826,2.12678,3.53265,-1.28049,-1.46341,0.884146,-9.80281,0.263452,1.72202,-0.640244,-10.9756,7.0122
278.481,72.4715,11.9261,0,9.01725,2.28245,3.42248,-1.37195,-3.29268,-2.04268,-9.86269,0.294587,1.75315,-1.21951,-10.9756,6.64634
278.491,72.458,11.8642,0,9.00048,2.65608,3.35303,-0.731707,-3.81098,-3.68902,-9.86509,0.344883,1.79387,-1.37195,-11.4024,6.52439
278.501,72.4248,11.8248,0,9.00767,2.83331,3.3674,0.0914634,-2.83537,-3.56707,-9.85072,0.376018,1.88009,-1.64634,-12.9878,7.43902
278.511,72.3911,11.8113,0,8.96216,2.82612,3.38177,0.792683,-2.95732,-3.59756,-9.83395,0.316143,1.98547,-1.64634,-14.1159,8.10976
278.522,72.3741,11.8163,0,8.98611,2.7423,3.38177,1.31098,-4.84756,-3.14024,-9.82916,0.162861,2.06451,-1.0061,-15.1829,8.56707
278.531,72.3533,11.8508,0,9.06754,2.85007,3.27639,1.92073,-5.15244,-2.53049,-9.79803,0.0646655,2.19144,-0.182927,-16.0976,8.47561
278.541,72.3204,11.9343,0,9.12981,3.01772,3.13508,1.7378,-4.32927,-1.70732,-9.65672,0.0191602,2.38544,0.457317,-16.9512,8.14024
278.551,72.2829,12.0243,0,9.11065,3.05844,3.10874,1.55488,-2.80488,-0.670732,-9.57529,0.0646655,2.40939,0.97561,-17.1646,6.89024
278.561,72.2523,12.1251,0,9.0388,3.00096,3.18059,0.914634,-1.98171,-0.396341,-9.43638,0.172441,2.43813,1.40244,-16.5549,5.97561
278.572,72.2272,12.2424,0,8.90947,2.9339,3.20454,-0.701219,-1.85976,-0.396341,-9.31663,0.399968,2.49801,1.89024,-15.5183,5.36585
278.581,72.2296,12.3653,0,8.78254,2.80217,3.32908,-1.09756,-2.28659,-0.182927,-9.29747,0.617915,2.53872,1.85976,-14.8171,5.73171
278.591,72.2489,12.4878,0,8.77535,2.71116,3.44404,-1.25,-2.5,-0.609756,-9.42201,0.718506,2.59381,1.79878,-13.5061,6.25
278.601,72.2929,12.5821,0,8.78014,2.62015,3.47038,-0.518293,-3.23171,-0.548781,-9.52978,0.742456,2.51956,1.61585,-12.378,6.55488
278.611,72.3483,12.6577,0,8.84241,2.61536,3.44643,0.304878,-3.04878,-0.335366,-9.67827,0.701741,2.49082,0.884146,-11.5244,6.37195
278.621,72.3939,12.7247,0,9.01485,2.71595,3.45362,0.640244,-3.90244,0.0304878,-9.75491,0.603545,2.48603,0.213415,-10.9146,6.43293
278.631,72.4184,12.8109,0,9.10826,2.80217,3.42488,1.09756,-4.87805,0.0914634,-9.81479,0.522114,2.60099,-0.396341,-11.6159,6.28049
278.641,72.4384,12.8923,0,9.19448,2.8381,3.34105,1.0061,-4.54268,0.213415,-9.86988,0.385598,2.60818,-0.213415,-13.2012,5.91463
278.651,72.4564,12.9753,0,9.22322,2.82852,3.18298,0.0914634,-4.66463,-0.304878,-9.76449,0.249082,2.60099,-0.0609756,-14.6951,6.06707
278.661,72.4787,13.0455,0,9.12742,2.66566,3.17101,-0.0914634,-4.14634,-1.37195,-9.60642,0.174836,2.51477,0.335366,-15.6707,6.7378
278.671,72.4976,13.1106,0,9.04359,2.53393,3.19735,-0.0304878,-4.08537,-2.46951,-9.42919,0.205972,2.45729,0.701219,-16.8902,7.5
278.681,72.5119,13.1177,0,8.98132,2.5028,3.25004,0.823171,-4.39024,-2.89634,-9.31663,0.210762,2.18665,0.640244,-16.4329,8.5061
278.691,72.5076,13.1086,0,8.96695,2.6441,3.26202,2.40854,-5.27439,-2.83537,-9.3765,0.213157,2.13157,1.15854,-16.25,8.81098
278.701,72.4854,13.1005,0,9.01485,2.85965,3.29794,4.2378,-6.46341,-2.0122,-9.57529,0.100591,2.17947,1.76829,-16.3415,8.65854
278.711,72.4475,13.0998,0,9.06036,3.00335,3.43925,5.7622,-7.80488,-0.182927,-9.78366,0.00479004,2.2585,1.79878,-16.6159,7.46951
278.721,72.4525,13.1756,0,9.10347,2.92192,3.43925,7.0122,-10.061,1.21951,-9.91538,0.0335303,2.6441,1.52439,-16.8902,6.06707
278.731,72.4978,13.271,0,9.06036,2.66566,3.52786,8.44512,-12.7134,1.18902,-9.87946,0.162861,2.7399,1.15854,-16.8293,5.45732
278.741,72.5769,13.4127,0,8.96695,2.50759,3.49433,8.87195,-15.2744,0.609756,-9.65193,0.440684,2.90755,0.914634,-17.4085,5.91463
278.751,72.635,13.544,0,8.8472,2.49322,3.28597,9.20732,-16.0976,-0.792683,-9.38129,0.593965,2.80457,0.792683,-16.9207,7.5
278.761,72.6619,13.6654,0,8.8951,2.56986,2.99138,10.5183,-13.5976,-1.31098,-9.31423,0.656235,2.76385,0.365854,-16.5549,9.26829
278.771,72.6332,13.7427,0,8.94779,2.87881,2.692,10.6707,-9.32927,-0.182927,-9.38848,0.560435,2.61057,0.426829,-16.0366,10.122
278.781,72.6096,13.8145,0,9.09868,3.11113,2.60099,9.08537,-5.73171,1.67683,-9.57289,0.409548,2.65129,-0.0304878,-15.2744,10.061
278.791,72.6008,13.878,0,9.11544,3.15903,2.80457,6.34146,-4.29878,2.92683,-9.82197,0.280217,2.6944,-0.609756,-15.4878,8.07927
278.801,72.6208,13.9354,0,9.22083,3.08239,2.96982,3.75,-3.53659,4.29878,-9.98244,0.306563,2.72074,-1.55488,-16.372,5.94512
278.811,72.6618,13.9677,0,9.10826,2.91234,3.14227,1.4939,-5.94512,4.90854,-10.1046,0.371228,2.6441,-2.43902,-17.6829,3.56707
278.821,72.7234,14.0211,0,9.15376,2.71116,3.13748,-0.213415,-6.7378,4.54268,-10.0064,0.55325,2.72314,-3.23171,-18.8415,2.46951
278.831,72.7976,14.0959,0,9.0867,2.50519,3.17101,-0.731707,-6.61585,3.59756,-9.8603,0.60115,2.79259,-3.59756,-19.3598,2.34756
278.841,72.8767,14.1631,0,8.97893,2.38304,3.05365,-0.823171,-6.31098,2.46951,-9.69983,0.603545,2.72553,-4.11585,-19.9085,3.14024
278.851,72.9706,14.2265,0,8.92384,2.34472,3.10395,-1.46341,-7.34756,1.06707,-9.52978,0.550855,2.67284,-4.69512,-19.8476,4.08537
278.861,73.0754,14.3097,0,8.85678,2.3064,3.17819,-2.22561,-8.93293,-0.579268,-9.4244,0.433499,2.7423,-4.42073,-20.5183,5.18293
278.871,73.115,14.3936,0,8.85918,2.36867,3.22609,-2.65244,-10.7012,-1.64634,-9.37171,0.325723,2.74469,-3.71951,-21.5244,6.25
278.881,73.1285,14.4579,0,8.90708,2.4549,3.13987,-2.19512,-11.5549,-2.28659,-9.38848,0.232317,2.67524,-3.41463,-22.5305,7.22561
278.891,73.1445,14.5313,0,9.00767,2.47406,3.05844,-2.0122,-12.1341,-2.16463,-9.46512,0.193997,2.74948,-2.65244,-22.8659,7.53049
278.901,73.1595,14.6356,0,9.19927,2.47645,2.89079,-1.37195,-12.378,-2.59146,-9.50583,0.237107,2.91474,-2.10366,-23.9024,7.28659
278.911,73.1805,14.7458,0,9.31423,2.45969,2.81654,-1.37195,-12.8354,-2.56098,-9.60642,0.392783,2.99138,-1.85976,-24.9085,6.85976
278.921,73.2058,14.8704,0,9.58008,2.38304,2.65847,-0.884146,-10.6707,-3.47561,-9.61121,0.538879,3.08,-2.16463,-24.9695,6.52439
278.931,73.2289,15.0215,0,9.58966,2.23695,2.61057,-0.945122,-11.1585,-5.18293,-9.52978,0.637075,3.19975,-2.43902,-25.2744,6.46341
278.941,73.2251,15.1807,0,9.56092,2.28724,2.52196,-0.487805,-9.2378,-7.16463,-9.39327,0.687371,3.21891,-2.9878,-25.4878,6.64634
278.951,73.199,15.3306,0,9.58487,2.39023,2.45969,0.0304878,-7.04268,-8.32317,-9.35734,0.598755,3.19256,-3.35366,-25.7622,6.79878
278.961,73.1479,15.4814,0,9.49386,2.55309,2.48603,0.945122,-7.53049,-8.78049,-9.37171,0.450264,3.22849,-2.77439,-26.25,7.07317
278.971,73.1002,15.6227,0,9.47949,2.53633,2.54591,2.07317,-5.03049,-8.68902,-9.35495,0.308958,3.20693,-2.40854,-25.9451,7.10366
278.981,73.0595,15.768,0,9.53936,2.53872,2.54351,3.32317,-3.2622,-8.23171,-9.43638,0.165256,3.27878,-2.13415,-26.6768,6.98171
278.991,73.0206,15.9145,0,9.4747,2.43334,2.51238,3.84146,-3.35366,-9.14634,-9.38129,0.153281,3.29076,-2.43902,-27.622,6.92073
279.001,72.975,16.054,0,9.40764,2.3567,2.50759,5,-1.61585,-10.6098,-9.3789,0.198787,3.28357,-2.07317,-28.7805,7.22561
279.011,72.9037,16.2669,0,9.43877,2.53154,2.40699,6.03659,0,-11.372,-9.3286,0.239502,3.63324,-1.89024,-30.3659,7.22561
279.021,72.8142,16.4916,0,9.38848,2.68961,2.51717,6.31098,0.0304878,-11.4024,-9.25915,0.244292,3.70031,-2.31707,-31.8902,7.56098
279.031,72.7192,16.7242,0,9.45314,2.77583,2.47885,6.95122,1.67683,-11.372,-9.16574,0.201182,3.74102,-2.22561,-32.5305,8.23171
279.041,72.6131,16.9586,0,9.3789,2.95545,2.69919,7.7439,1.7378,-10.3963,-9.02683,0.167651,3.73623,-2.62195,-32.2256,8.29268
279.051,72.499,17.1887,0,9.26633,3.16861,2.72314,8.2622,2.28659,-8.59756,-8.8951,0.146096,3.7051,-2.19512,-31.7683,8.68902
279.061,72.382,17.4373,0,9.1346,3.29315,2.81175,7.5,2.19512,-7.19512,-8.84241,0.150886,3.81048,-2.13415,-30.8841,8.96341
279.071,72.2851,17.7078,0,9.05557,3.18538,2.85726,6.58537,1.55488,-6.28049,-8.84481,0.0814307,3.95897,-1.64634,-31.25,8.78049
279.081,72.1934,17.9587,0,8.92145,3.0273,2.92432,6.03659,0.853659,-7.2561,-8.86876,0.0694556,3.92783,-1.25,-31.6768,9.05488
279.091,72.0988,18.212,0,8.7993,2.92911,2.88839,5.15244,-0.0914634,-8.41463,-8.89031,0.0670605,3.99489,-1.06707,-31.7378,8.47561
279.101,71.9869,18.4591,0,8.72506,2.93869,2.96264,4.63415,-0.0609756,-9.96951,-8.95737,0.0383203,4.04279,-1.15854,-32.1951,8.07927
279.111,71.8619,18.7196,0,8.70111,2.98898,3.04167,3.87195,-1.98171,-10.8232,-8.94061,0.0359253,4.14578,-0.914634,-32.378,7.95732
279.121,71.719,18.9974,0,8.83762,3.19975,3.0297,2.9878,-4.11585,-10.9756,-8.95019,0.0526904,4.28229,-0.487805,-33.5061,7.68293
279.131,71.5796,19.2661,0,8.95019,3.29076,3.00096,2.89634,-5.36585,-10.3354,-8.92145,0.0550855,4.2775,0.243902,-33.9024,7.62195
279.141,71.4476,19.5275,0,9.04359,3.43925,2.84528,2.07317,-5.88415,-8.56707,-8.86876,0.112566,4.26792,1.06707,-34.0549,7.46951
279.151,71.3417,19.7798,0,9.19927,3.37937,2.69919,0.670732,-5.70122,-7.5,-8.76577,0.189207,4.22481,0.884146,-33.689,7.13415
279.161,71.2571,20.052,0,9.13939,3.23328,2.68482,-0.335366,-5.85366,-6.95122,-8.7035,0.232317,4.33738,0.640244,-33.0793,6.79878
279.171,71.1795,20.325,0,9.03401,3.15424,2.64171,-1.15854,-6.46341,-6.89024,-8.68913,0.301772,4.38528,0.579268,-33.5366,7.07317
279.181,71.1099,20.5832,0,9.06275,3.09916,2.67763,-1.40244,-5.7622,-6.98171,-8.6556,0.325723,4.34936,0.640244,-33.5671,6.85976
279.191,71.0366,20.8543,0,8.97653,3.13269,2.70158,-1.52439,-6.7378,-6.76829,-8.63165,0.294587,4.44755,1.03659,-33.9939,6.31098
279.201,70.9606,21.1276,0,8.97414,3.23088,2.72314,-1.37195,-6.43293,-6.03659,-8.65081,0.234712,4.5194,1.61585,-34.6951,6.28049
279.211,70.8915,21.3971,0,8.98372,3.27878,2.7399,-1.18902,-5.97561,-4.96951,-8.57656,0.215552,4.51461,2.53049,-34.6037,6.12805
279.221,70.8422,21.6813,0,8.91426,3.14945,2.77104,-1.67683,-6.58537,-4.29878,-8.52148,0.239502,4.60802,2.62195,-34.9085,6.28049
279.231,70.8137,21.9849,0,8.92624,2.99377,2.76625,-1.85976,-6.85976,-4.20732,-8.47358,0.301772,4.73016,2.31707,-35.7317,6.55488
279.241,70.7919,22.2651,0,8.97414,2.886,2.692,-1.95122,-7.04268,-5.03049,-8.51908,0.356858,4.69903,1.43293,-36.4939,6.85976
279.251,70.7761,22.5661,0,9.12742,2.78062,2.61536,-2.40854,-7.80488,-6.25,-8.61968,0.452659,4.91219,1.06707,-37.7134,7.71341
279.261,70.7587,22.8597,0,9.30944,2.74948,2.57704,-1.52439,-7.77439,-7.43902,-8.6556,0.510139,4.9553,0.609756,-38.2012,7.92683
279.271,70.7223,23.1568,0,9.49625,2.8836,2.47166,-0.304878,-7.31707,-8.5061,-8.63405,0.452659,5.01996,0.670732,-38.2927,8.71951
279.281,70.6715,23.4594,0,9.51541,3.09676,2.33035,0.243902,-5.64024,-7.7439,-8.50711,0.421523,5.03194,0.945122,-39.0244,8.59756
279.291,70.618,23.7606,0,9.38608,3.16382,2.33035,0.182927,-4.81707,-6.89024,-8.3203,0.325723,4.97446,1.40244,-38.689,8.32317
279.301,70.5741,24.0594,0,9.35495,3.11113,2.28485,-0.27439,-3.59756,-6.4939,-8.24126,0.347278,4.97446,1.58537,-38.5366,8.01829
279.311,70.547,24.3672,0,9.24717,2.85726,2.37586,-0.304878,-2.59146,-7.37805,-8.18139,0.368833,5.04152,0.884146,-38.3537,7.65244
279.321,70.5163,24.6748,0,9.17532,2.71116,2.44531,0.304878,-2.28659,-9.2378,-8.29395,0.464634,5.17085,0.579268,-39.2378,7.80488
279.331,70.4768,24.9802,0,9.12023,2.63692,2.50998,0.853659,-2.13415,-10.8841,-8.35143,0.462239,5.25707,0.0609756,-39.7561,7.92683
279.341,70.4135,25.2846,0,9.06036,2.73032,2.62015,1.61585,-2.68293,-12.0732,-8.32269,0.467029,5.29539,-0.152439,-40.2744,7.7439
279.351,70.3221,25.5848,0,9.07233,2.97222,2.56986,2.31707,-3.20122,-12.2866,-8.26282,0.433499,5.29778,-0.548781,-40.5488,7.80488
279.361,70.2248,25.8701,0,9.11305,3.08718,2.58423,2.04268,-4.02439,-11.8902,-8.18139,0.428708,5.23072,-0.152439,-39.7561,7.28659
279.371,70.1356,26.1761,0,9.21843,3.11113,2.52196,2.16463,-3.78049,-11.4024,-8.0305,0.421523,5.29539,0.27439,-39.6646,6.95122
279.381,70.0387,26.4976,0,9.30465,3.19017,2.51238,1.55488,-3.20122,-11.7988,-7.96584,0.392783,5.39358,0.609756,-39.0854,6.76829
279.391,69.9364,26.8104,0,9.30465,3.25244,2.44292,0.670732,-1.55488,-11.8598,-7.92512,0.359253,5.3864,0.792683,-38.9024,6.64634
279.401,69.8271,27.1167,0,9.15376,3.34824,2.48124,0.731707,-0.0609756,-11.0976,-7.95386,0.361648,5.43669,1.25,-38.7195,6.79878
279.411,69.7063,27.4153,0,8.95019,3.49433,2.42855,0.609756,0.823171,-9.96951,-7.97302,0.347278,5.47262,1.28049,-38.872,7.16463
279.421,69.5911,27.7142,0,8.83523,3.45601,2.63213,0.335366,-0.213415,-9.57317,-8.01853,0.359253,5.56603,1.46341,-39.6646,7.5
279.431,69.4908,28.011,0,8.76817,3.30034,2.76385,0.27439,-2.46951,-9.78659,-8.06643,0.325723,5.64985,2.07317,-40.7012,7.77439
279.441,69.4071,28.3395,0,8.84241,3.09437,2.74469,1.0061,-4.93902,-11.0366,-8.04727,0.313748,5.8678,2.65244,-41.9512,8.07927
279.451,69.3176,28.6538,0,8.89271,3.06562,2.82612,0.731707,-6.82927,-12.3476,-7.99458,0.316143,5.82229,2.9878,-42.9573,7.62195
279.461,69.2192,28.9759,0,9.00767,3.15903,2.87163,-0.365854,-7.95732,-12.8049,-7.81016,0.385598,5.79595,3.62805,-42.0122,7.56098
279.471,69.102,29.3449,0,9.07712,3.32908,2.85247,-1.34146,-9.5122,-13.2622,-7.60898,0.364043,5.9636,3.65854,-41.4329,7.5
279.481,68.9772,29.7231,0,9.06515,3.48475,2.75667,-1.52439,-10.7622,-12.4695,-7.48204,0.349673,5.99234,4.02439,-41.2805,7.10366
279.491,68.8585,30.1007,0,9.10826,3.52307,2.49322,-1.76829,-9.26829,-11.8598,-7.38145,0.308958,5.98994,4.45122,-40.6402,7.07317
279.501,68.7458,30.4733,0,8.93342,3.38895,2.36628,-2.62195,-9.96951,-12.2561,-7.2593,0.263452,5.94444,4.90854,-39.8171,6.70732
279.511,68.6543,30.8519,0,8.87355,3.15424,2.37586,-3.2622,-10.3354,-12.7744,-7.22817,0.191602,6.03066,5.15244,-39.3598,6.37195
279.521,68.5734,31.2355,0,9.11784,3.09676,2.30161,-1.64634,-9.11585,-13.5366,-7.21619,0.213157,6.12885,6.12805,-39.3598,5.91463
279.531,68.4678,31.6439,0,9.01485,3.24046,2.39741,-1.4939,-10.7317,-14.1463,-7.24014,0.335303,6.37315,6.31098,-39.2073,5.7622
279.541,68.3627,32.0679,0,9.1849,3.34105,2.25611,-1.37195,-10.3659,-13.872,-7.23535,0.498164,6.55038,5.85366,-39.3598,5.85366
279.551,68.2459,32.5094,0,9.12023,3.42967,2.28006,-0.640244,-9.84756,-14.0244,-7.14195,0.64905,6.66534,5.57927,-39.1159,5.45732
279.561,68.1188,32.9674,0,9.12742,3.58534,2.1148,-1.67683,-8.01829,-13.5976,-6.9743,0.713716,6.70845,5,-38.3537,5.73171
279.571,68.0086,33.4381,0,9.15137,3.4632,2.19144,-1.40244,-8.93293,-13.5976,-6.8306,0.694556,6.75156,4.35976,-37.5915,5.64024
279.581,67.9081,33.9268,0,9.2831,3.41051,2.16031,0.243902,-9.63415,-13.9634,-6.73958,0.59157,6.88089,3.90244,-37.1646,5.7622
279.591,67.802,34.3995,0,9.2807,3.43925,2.1651,0.670732,-10.7317,-14.4207,-6.65336,0.505349,6.81383,4.7561,-36.7378,5.27439
279.601,67.6788,34.8758,0,9.25196,3.52547,2.17947,0.670732,-8.71951,-15.3049,-6.59349,0.423918,6.88808,5.21341,-35.6098,4.69512
279.611,67.5497,35.354,0,9.04359,3.51589,2.13875,0.762195,-7.43902,-15.3659,-6.55996,0.431104,6.98148,5.45732,-33.8415,4.78659
279.621,67.4178,35.8339,0,8.97893,3.6045,2.05732,0.731707,-7.28659,-14.6341,-6.54798,0.502954,7.09884,5.21341,-32.5915,4.84756
279.631,67.28,36.3058,0,8.943,3.73384,2.05014,1.58537,-5.42683,-13.9024,-6.53601,0.543669,7.15632,4.5122,-31.8293,5.60976
279.641,67.1546,36.7656,0,8.9909,3.68114,1.97829,1.43293,-3.84146,-13.7195,-6.50008,0.59157,7.15871,3.5061,-31.5244,6.15854
279.651,67.0244,37.2277,0,8.8017,3.61408,2.3064,2.04268,-4.57317,-14.3598,-6.46176,0.550855,7.24733,2.59146,-31.4634,6.12805
279.661,66.8906,37.695,0,8.73224,3.67157,2.45729,2.77439,-6.12805,-13.9939,-6.33722,0.486189,7.25691,2.22561,-31.8902,6.52439
279.671,66.7421,38.1819,0,8.74661,3.88712,2.38783,1.28049,-6.03659,-13.4146,-6.18873,0.467029,7.33115,2.13415,-31.9817,6.46341
279.681,66.5988,38.6836,0,8.83044,4.00926,2.24653,-1.31098,-6.09756,-12.2561,-6.00671,0.459844,7.33834,1.67683,-31.1585,6.34146
279.691,66.4496,39.1793,0,8.87834,4.10746,2.04535,-3.78049,-4.29878,-12.3171,-5.89654,0.479004,7.29523,1.31098,-29.939,6.28049
279.701,66.2861,39.6906,0,8.6556,4.17452,2.17228,-5.33537,-2.83537,-12.1951,-5.73607,0.574805,7.32876,0.884146,-28.4451,6.21951
279.711,66.1317,40.1943,0,8.66279,4.15775,2.32317,-5.45732,-1.34146,-11.8293,-5.74326,0.673001,7.42456,0.243902,-27.1646,6.67683
279.721,65.9791,40.6534,0,8.54303,4.11704,2.43334,-5.03049,-3.2622,-11.7683,-5.81032,0.593965,7.34552,-0.335366,-26.4939,6.7378
279.731,65.8365,41.1025,0,8.52866,4.07393,2.33035,-4.17683,-3.90244,-11.4634,-5.80313,0.450264,7.39103,-0.365854,-26.5549,6.52439
279.741,65.684,41.5367,0,8.50232,4.28948,2.39023,-3.17073,-5,-10.2439,-5.78637,0.318538,7.38864,0.121951,-26.9207,5.67073
279.751,65.5276,41.9785,0,8.53824,4.57928,2.24174,-2.92683,-4.72561,-8.01829,-5.68099,0.222737,7.41977,0.243902,-26.9207,5.30488
279.761,65.3928,42.4142,0,8.47118,4.53856,2.43813,-2.92683,-6.37195,-6.15854,-5.61153,0.110171,7.4054,1.28049,-27.2561,5.15244
279.771,65.2972,42.84,0,8.72266,4.43558,2.35909,-3.17073,-4.72561,-4.90854,-5.51573,0.122146,7.32876,2.0122,-26.6159,5.12195
279.781,65.2187,43.2693,0,8.53585,4.20326,2.42376,-3.71951,-7.13415,-4.87805,-5.54208,0.246687,7.5036,2.34756,-26.5854,5.06098
279.791,65.169,43.6792,0,8.72027,4.0404,2.27048,-3.59756,-6.18902,-4.90854,-5.63548,0.471819,7.61377,2.31707,-25.8232,5.51829
279.801,65.1671,44.0686,0,8.8472,3.71228,2.00224,-3.9939,-3.32317,-4.5122,-5.70015,0.560435,7.67125,2.2561,-25.4268,6.64634
279.811,65.1225,44.4346,0,8.58136,3.76258,2.19623,-3.2622,-6.95122,-6.92073,-5.772,0.58199,7.71196,1.64634,-25.0915,6.98171
279.821,65.0825,44.7697,0,8.71787,3.81287,2.08127,-2.22561,-5.54878,-6.64634,-5.87019,0.593965,7.72633,1.55488,-24.9695,7.19512
279.831,65.0336,45.0923,0,8.79212,4.08111,1.88249,-1.28049,-5.97561,-5.03049,-5.85822,0.598755,7.71675,1.09756,-24.3293,6.58537
279.841,64.991,45.4248,0,8.81846,4.15296,1.81303,-1.31098,-4.7561,-3.81098,-5.70494,0.723296,7.67364,0.670732,-23.8415,5.88415
279.851,64.9643,45.7812,0,8.78972,4.16015,1.98308,-1.40244,-4.29878,-1.92073,-5.50615,0.771196,7.66406,0.0609756,-23.7805,5.4878
279.861,64.9217,46.1199,0,8.73224,4.23918,2.01421,-1.25,-2.80488,-0.335366,-5.53729,0.941243,7.68322,-0.609756,-23.4146,4.39024
279.871,64.9618,46.4387,0,8.84481,3.98292,2.13875,-1.03659,-1.92073,0.426829,-5.59716,1.00591,7.72154,-1.76829,-21.8598,4.05488
279.881,65.1092,46.7378,0,8.92624,3.63324,2.15312,0.27439,-1.82927,0.213415,-5.66901,0.981958,7.77184,-2.56098,-20.061,3.38415
279.891,65.2218,46.9943,0,9.12023,3.61887,2.17707,1.09756,-2.04268,-0.640244,-5.8175,0.847837,7.75507,-2.86585,-18.5061,2.83537
279.901,65.3028,47.2222,0,9.2304,3.7027,2.10762,1.52439,-2.77439,-0.945122,-5.95641,0.63947,7.80776,-2.89634,-17.561,2.2561
279.911,65.3466,47.4589,0,9.09868,3.82485,2.13157,1.64634,-2.68293,-1.18902,-5.88456,0.328118,7.84129,-3.23171,-17.561,1.28049
279.921,65.3733,47.6761,0,9.0388,3.82724,2.10043,1.25,-2.31707,-1.7378,-5.88696,0.237107,7.77184,-2.56098,-17.4695,1.0061
279.931,65.3992,47.8758,0,8.83523,3.73384,2.20581,1.25,-3.35366,-1.89024,-5.82708,0.141306,7.63053,-1.43293,-17.2561,1.52439
279.941,65.4003,48.078,0,8.77296,3.82485,2.19863,0.945122,-3.14024,-2.40854,-5.70015,0.177231,7.53713,-0.335366,-16.6768,2.62195
279.951,65.3622,48.3211,0,8.50471,3.98052,2.31359,0.884146,-4.66463,-2.77439,-5.51333,0.320933,7.62574,1.25,-16.7378,3.9939
279.961,65.3223,48.5503,0,8.5095,3.9446,2.37825,0.457317,-5.79268,-3.56707,-5.60195,0.285007,7.71675,2.19512,-17.6829,5.09146
279.971,65.2799,48.7267,0,8.40173,3.92065,2.47645,-1.15854,-6.7378,-3.59756,-5.75523,0.411943,7.61377,2.56098,-17.9878,4.87805
279.981,65.2181,48.8955,0,8.42089,4.03561,2.19623,-2.0122,-8.90244,-4.45122,-5.81511,0.632285,7.69041,2.04268,-16.9512,4.39024
279.991,65.1709,49.0544,0,8.52866,3.90867,2.22737,-3.01829,-10.0305,-5.15244,-5.87498,0.682581,7.74789,0.823171,-16.4939,3.17073
280.001,65.1114,49.2157,0,8.43765,3.94939,2.4046,-3.84146,-12.622,-5.54878,-5.89414,0.778381,7.83411,-0.27439,-16.6768,1.92073
280.011,65.0695,49.3478,0,8.82804,3.98292,2.20342,-5.57927,-11.372,-5.51829,-5.98515,0.711321,7.791,-1.12805,-17.2256,0.823171
280.021,65.0105,49.4557,0,8.76338,4.12422,2.3088,-6.43293,-15.2134,-5.45732,-6.0115,0.699346,7.69041,-2.19512,-17.5305,-0.335366
280.031,64.925,49.5489,0,8.59812,4.40684,2.20342,-8.56707,-11.9512,-4.2378,-5.95881,0.64905,7.5515,-2.16463,-17.0122,-0.914634
280.041,64.8961,49.6541,0,9.01964,4.16973,1.97589,-8.93293,-11.8293,-3.5061,-5.89893,0.56283,7.58263,-1.28049,-17.7439,-1.03659
280.051,64.8718,49.7736,0,8.68913,4.01166,2.33514,-9.72561,-15.5488,-3.20122,-5.90372,0.423918,7.71436,-0.579268,-19.9695,-0.548781
280.061,64.8744,49.8901,0,8.97893,3.86077,2.19384,-9.14634,-13.4756,-3.68902,-5.95881,0.261057,7.79579,0.701219,-21.7683,0.27439
280.071,64.8785,50.0135,0,8.89989,3.70989,2.10283,-9.17683,-14.3902,-4.7561,-5.88217,0.419128,7.77663,1.55488,-22.4085,1.67683
280.081,64.8896,50.1339,0,9.0388,3.54463,1.90165,-6.79878,-14.0854,-6.46341,-5.90133,0.366438,7.81495,2.46951,-22.5915,3.65854
280.091,64.8885,50.2513,0,8.97174,3.53026,1.78908,-6.03659,-17.4695,-7.53049,-5.94683,0.325723,7.8868,3.41463,-23.2622,4.45122
280.101,64.8555,50.3856,0,8.85918,3.7027,1.85614,-5.94512,-17.4085,-8.32317,-5.84385,0.392783,7.90356,3.84146,-24.4207,4.32927
280.111,64.7973,50.5511,0,8.87115,3.8488,1.91841,-6.15854,-17.8963,-9.39024,-5.69536,0.455054,7.96584,3.9939,-26.2195,4.32927
280.121,64.7348,50.6935,0,8.89031,3.91346,1.8274,-6.67683,-17.7439,-9.32927,-5.69775,0.493374,7.84608,3.65854,-26.6768,3.32317
280.131,64.6473,50.856,0,8.74901,4.1817,1.59748,-5.67073,-15.7012,-8.35366,-5.58519,0.608335,7.87722,3.23171,-27.2561,2.65244
280.141,64.5808,51.0073,0,8.86397,4.13141,1.40109,-5.45732,-16.8293,-7.53049,-5.58998,0.627495,7.84848,2.95732,-27.8354,2.2561
280.151,64.5592,51.088,0,8.91426,3.77934,1.45857,-5.64024,-17.1341,-7.19512,-5.85343,0.476609,7.7407,2.62195,-28.4146,1.25
280.161,64.5507,51.1668,0,9.21364,3.71947,1.47294,-4.57317,-16.128,-7.92683,-6.0594,0.344883,8.02092,2.83537,-29.6341,-0.152439
280.171,64.5353,51.3019,0,9.48428,3.83922,1.36756,-4.54268,-14.9085,-8.53659,-5.77679,0.366438,8.07361,2.86585,-33.0183,-0.518293
280.181,64.5016,51.4033,0,9.45554,3.86796,1.43701,-3.96341,-15.3049,-10,-5.76481,0.419128,7.84608,3.38415,-34.0244,-0.152439
280.191,64.4665,51.5115,0,9.61361,3.87754,1.00112,-3.07927,-16.2195,-10.7927,-5.95402,0.136516,8.18378,3.90244,-35.0915,0.548781
280.201,64.4091,51.6106,0,9.55373,4.01645,0.55325,-5.12195,-15.6707,-11.4329,-5.99234,0.193997,8.19815,4.26829,-36.0061,0.792683
280.211,64.35,51.7762,0,9.41243,3.92065,1.02028,-7.56098,-10.6707,-12.1037,-5.69296,0.229922,8.31551,3.93293,-37.9573,1.34146
280.221,64.3006,51.9708,0,9.38848,3.84401,1.2526,-8.59756,-8.01829,-11.9512,-5.56842,0.263452,8.41131,3.35366,-39.5427,2.04268
280.231,64.2339,52.1841,0,9.23999,3.91346,1.2502,-10.8232,-13.8415,-12.4085,-5.55166,0.459844,8.60052,2.04268,-40.5793,2.46951
280.241,64.1804,52.3837,0,9.31902,3.79371,1.25499,-13.7805,-9.84756,-12.8354,-5.55405,0.366438,8.5598,0.97561,-40.7012,2.46951
280.251,64.1504,52.5732,0,9.70462,3.60929,0.919688,-13.2927,-10.0305,-14.1159,-5.55166,0.378413,8.54064,0.487805,-39.2988,1.43293
280.261,64.0992,52.7956,0,9.95131,3.75539,0.684976,-11.4939,-13.5061,-15.7927,-5.46304,0.277822,8.74182,0.152439,-38.689,0.396341
280.271,64.0251,53.0329,0,9.95131,3.7985,1.26218,-7.71341,-16.2195,-17.7744,-5.45585,0.0934058,8.93582,0.0914634,-39.5122,0.152439
280.281,63.9115,53.2764,0,9.62319,3.96855,1.39151,-6.85976,-13.4146,-18.872,-5.39119,-0.122146,8.96695,1.67683,-39.8171,-0.27439
280.291,63.7651,53.5441,0,9.5705,4.17691,1.29571,-7.34756,-9.90854,-20.061,-5.27144,-0.340093,9.06994,3.10976,-40.3963,-0.945122
280.301,63.6009,53.8152,0,9.31902,4.26074,1.37235,-3.14024,-10.5183,-20.1524,-5.38161,-0.268242,9.39327,4.54268,-40.3049,-0.914634
280.311,63.4255,54.1578,0,9.3765,4.45474,1.40588,-0.304878,-10.9451,-19.9085,-5.02715,-0.368833,9.56092,5.79268,-41.0671,-0.579268
280.321,63.2543,54.5523,0,9.59445,4.49306,1.44659,1.15854,-10.4573,-20.4878,-4.74453,-0.134121,9.69264,6.09756,-40.4268,-0.304878
280.331,63.0823,55.007,0,9.58487,4.53856,1.24541,2.9878,-12.4695,-20.4268,-4.4739,0.0646655,9.97526,6.03659,-38.872,0.518293
280.341,62.8918,55.4624,0,9.59445,4.79483,1.03944,1.95122,-11.0976,-20.1829,-4.38049,0.265847,9.99202,5.36585,-36.0061,1.25
280.351,62.7101,55.93,0,9.9082,4.83075,1.11847,1.40244,-4.63415,-20.8232,-4.26074,0.335303,10.0902,4.84756,-33.2012,1.79878
280.361,62.4871,56.4162,0,9.63995,5.0032,1.40348,-0.945122,-1.89024,-22.4695,-4.09309,0.191602,10.1573,5.06098,-31.3415,1.25
280.371,62.2361,56.894,0,9.30465,4.89542,1.70765,-4.2378,-2.2561,-25.122,-4.05716,0.0694556,10.2124,5.60976,-30.122,0.182927
280.381,61.9721,57.37,0,9.43159,4.81159,1.87291,-5.82317,-7.95732,-28.4451,-3.95178,-0.0646655,10.1764,6.58537,-27.6524,-1.18902
280.391,61.707,57.8544,0,9.6663,4.67987,1.54,-6.79878,-10.1829,-31.5244,-3.83203,-0.165256,10.2387,7.53049,-24.7561,-2.40854
280.401,61.4194,58.3753,0,9.88664,4.72058,1.51365,-7.83537,-10.4573,-35,-3.49194,-0.00479004,10.083,9.42073,-21.9512,-2.19512
280.411,61.0712,58.9149,0,9.70701,5.03673,1.20469,-9.20732,-5.15244,-37.8963,-3.25723,0.0407153,9.97286,10.9756,-18.3841,-1.09756
280.421,60.6949,59.4362,0,9.36213,5.099,1.10171,-9.60366,-4.20732,-39.1159,-3.20693,0.112566,9.87467,11.7073,-14.3293,-0.182927
280.431,60.3327,59.917,0,8.92624,4.79962,1.26457,-8.17073,-3.71951,-39.0854,-3.32429,0.433499,9.94652,11.5549,-11.2195,0.335366
280.441,59.9845,60.3958,0,9.03641,4.84033,1.20469,-6.89024,-4.48171,-38.5671,-3.24286,0.711321,9.95849,11.128,-8.75,0.853659
280.451,59.6186,60.8099,0,8.69392,4.94332,1.3963,-6.89024,-8.38415,-38.1402,-3.37698,0.931663,9.69264,10.061,-5.97561,0.457317
280.461,59.3017,61.188,0,8.91426,4.7134,1.25739,-7.53049,-6.98171,-37.4695,-3.54942,1.12566,9.83156,8.65854,-3.87195,-0.0609756
280.471,59.0009,61.5313,0,8.99809,4.56491,1.37953,-7.16463,-8.56707,-38.4451,-3.68594,1.23823,9.83635,6.61585,-2.9878,-0.548781
280.481,58.7047,61.8813,0,8.9933,4.38049,1.12805,-6.28049,-6.03659,-40.4878,-3.62366,1.2023,9.75252,4.90854,-2.40854,-0.487805
280.491,58.41,62.306,0,9.10826,4.31343,1.2526,-3.93293,-4.05488,-42.2256,-3.49673,1.14242,9.59684,3.71951,-1.34146,0.243902
280.501,58.1206,62.9499,0,8.88792,4.15775,1.2023,-2.77439,-2.40854,-42.8354,-3.33147,1.04183,9.55373,3.14024,-0.396341,1.28049
280.511,57.8322,63.4097,0,8.84002,4.25116,1.23344,-0.365854,-1.46341,-42.0732,-3.16143,0.890947,9.34537,2.7439,1.52439,2.5
280.521,57.5297,63.7508,0,8.73464,4.50024,1.09452,1.43293,0.426829,-40.8841,-3.04407,0.826282,9.2328,1.98171,4.08537,3.59756
280.531,57.2109,64.0783,0,8.5119,4.82117,0.862207,3.71951,2.77439,-38.5366,-2.97222,0.802332,9.16574,0.823171,6.76829,4.72561
280.541,56.8854,64.3947,0,7.99937,4.84991,0.989143,7.13415,1.58537,-36.4024,-2.9339,0.847837,9.0891,-0.670732,9.08537,5.70122
280.551,56.5803,64.687,0,8.06882,4.81638,1.16877,10.2134,4.05488,-35.7927,-2.91474,0.900527,8.88073,-1.4939,10.8232,6.76829
280.561,56.2899,64.9353,0,8.4137,4.91219,1.14482,11.4634,5.36585,-36.0366,-2.96743,0.898132,8.62446,-1.28049,11.4634,7.07317
280.571,55.9799,65.1573,0,8.26761,5.0032,1.26218,13.2012,3.93293,-36.7988,-3.05604,0.764011,8.67716,-0.914634,11.4329,7.04268
280.581,55.6469,65.3162,0,8.31551,5.29539,1.25739,14.6646,5.85366,-37.1037,-3.25004,0.61552,8.56699,-0.426829,11.2805,6.70732
280.591,55.2879,65.4483,0,8.01853,5.42711,1.15919,16.0366,7.37805,-37.1646,-3.37219,0.500559,8.65321,-0.762195,11.2805,6.4939
280.601,54.9227,65.5632,0,7.74789,5.48938,1.21906,17.439,8.71951,-36.0366,-3.42248,0.469424,8.64602,-0.731707,11.2805,6.37195
280.611,54.5575,65.6743,0,7.5491,5.48938,1.47294,18.0488,7.95732,-35.3354,-3.3674,0.579595,8.51669,-1.89024,11.7378,6.79878
280.621,54.2138,65.7901,0,7.65927,5.4343,1.50647,18.1707,11.189,-35.2439,-3.33387,0.725691,8.53345,-2.9878,12.4085,8.20122
280.631,53.8783,65.9064,0,7.84129,5.55645,1.66933,18.75,8.96341,-35.1829,-3.32668,0.833467,8.56938,-4.48171,11.5854,9.7561
280.641,53.5243,65.9885,0,7.75268,5.68817,1.64298,18.1402,9.26829,-35.8232,-3.40572,0.833467,8.44484,-5.15244,11.2805,11.25
280.651,53.1427,66.0213,0,7.58742,5.94444,1.86572,17.7439,9.60366,-35.6707,-3.49433,0.799937,8.18139,-4.69512,11.4024,12.0122
280.661,52.7306,66.0323,0,7.21619,6.21029,1.93518,17.8659,8.93293,-34.1768,-3.52068,0.713716,8.04248,-4.20732,11.7073,12.439
280.671,52.3112,66.0207,0,7.13955,6.35159,1.81303,17.2256,11.6463,-33.8415,-3.67157,0.598755,8.16702,-2.89634,10.7927,12.439
280.681,51.8784,65.9665,0,6.89047,6.41865,2.01182,15.7012,10.1829,-33.3841,-3.80329,0.483794,8.04487,-1.43293,9.35976,12.0427
280.691,51.4366,65.8943,0,6.64618,6.26298,2.12917,16.7378,5.88415,-34.5122,-3.87754,0.361648,8.01613,-0.0609756,7.34756,11.4939
280.701,51.013,65.8327,0,6.91921,6.34441,1.93757,16.9512,4.7561,-35.1524,-3.93262,0.376018,8.21731,1.12805,4.54268,11.25
280.711,50.5806,65.7532,0,7.03417,6.62702,1.82021,15.1829,3.53659,-35.3354,-3.93981,0.421523,8.28437,1.64634,1.85976,11.6463
280.721,50.1545,65.6148,0,7.13237,6.84018,1.67891,14.1768,4.05488,-34.5427,-3.91346,0.534089,8.2724,1.4939,0.487805,12.439
280.731,49.7384,65.5505,0,7.19224,6.93598,1.40588,12.3171,5.94512,-34.0549,-3.87035,0.627495,8.32269,0.396341,-0.609756,13.4146
280.741,49.3319,65.5063,0,7.10602,6.83539,1.30768,10.6402,5.79268,-34.0854,-3.85838,0.713716,8.25324,-0.0304878,-1.4939,13.9024
280.751,48.9388,65.4742,0,7.08447,6.73719,1.43222,8.84146,7.28659,-34.2073,-3.90149,0.704136,8.33706,-0.243902,-2.13415,14.6951
280.761,48.5448,65.4325,0,6.86892,6.64378,1.55437,8.23171,7.46951,-34.1159,-3.98292,0.665815,8.35622,-0.396341,-3.35366,14.939
280.771,48.152,65.3869,0,6.81623,6.63181,1.40109,7.68293,5.82317,-34.4512,-4.04998,0.58199,8.40891,-0.609756,-4.90854,14.2683
280.781,47.7666,65.3517,0,6.73958,6.61744,1.51844,8.01829,4.35976,-33.9634,-4.07153,0.505349,8.52387,-0.823171,-6.79878,13.3841
280.791,47.3856,65.3387,0,6.67731,6.76114,1.31247,8.93293,1.70732,-32.5,-3.97813,0.519719,8.52387,-1.55488,-8.23171,12.4695
280.801,47.0307,65.3657,0,6.66773,6.72042,1.17356,10.3049,-0.609756,-30.8841,-3.86796,0.613125,8.67716,-2.59146,-9.26829,11.7378
280.811,46.7214,65.4128,0,7.01022,6.74198,0.840652,11.372,-1.76829,-29.6951,-3.77695,0.62031,8.68913,-2.9878,-10.1829,11.7378
280.821,46.45,65.486,0,7.29283,6.62223,0.613125,12.0427,-2.22561,-29.8171,-3.6524,0.646655,8.69153,-3.41463,-10.5793,11.8598
280.831,46.1817,65.5766,0,7.38145,6.64857,0.730481,11.311,-1.28049,-30.5183,-3.60211,0.574805,8.79451,-3.53659,-9.90854,12.2561
280.841,45.9169,65.6631,0,7.42696,6.74677,0.701741,11.128,1.31098,-30.2134,-3.59253,0.459844,8.76577,-3.10976,-8.96341,12.5
280.851,45.651,65.7427,0,7.32157,6.8761,0.65384,9.42073,4.39024,-28.9329,-3.58534,0.325723,8.71308,-2.62195,-7.83537,12.0122
280.861,45.3933,65.8247,0,7.14913,6.73958,0.807122,9.39024,5.15244,-28.4146,-3.56858,0.253872,8.73224,-2.65244,-6.76829,11.6768
280.871,45.1268,65.9129,0,6.83299,6.64857,1.0586,9.78659,5.09146,-27.9878,-3.559,0.253872,8.81367,-2.92683,-6.46341,11.3415
280.881,44.862,66.0107,0,6.69168,6.67013,0.850232,11.0976,4.60366,-26.9512,-3.47038,0.349673,8.73703,-3.68902,-6.21951,11.0366
280.891,44.5892,66.1137,0,6.5384,6.8282,0.850232,10.4573,3.17073,-25.5793,-3.44883,0.469424,8.78493,-4.32927,-6.15854,10.9756
280.901,44.3517,66.2101,0,6.82341,6.97669,0.869392,11.0671,2.71341,-23.7805,-3.45841,0.59636,8.78254,-5.09146,-6.37195,10.8537
280.911,44.1444,66.3033,0,7.06291,7.10363,0.744851,11.7073,3.53659,-22.1341,-3.50391,0.61552,8.90229,-5.33537,-5.79268,10.7927
280.921,43.9632,66.3795,0,7.24972,7.13237,0.464634,10.5488,6.58537,-21.189,-3.55421,0.65384,8.87594,-6.03659,-5.2439,10.7012
280.931,43.8204,66.4371,0,7.41259,6.82341,0.359253,9.14634,11.2195,-21.5244,-3.60929,0.57241,8.80888,-6.55488,-3.59756,10.3049
280.941,43.6599,66.4738,0,6.84736,6.41626,1.01309,8.9939,11.5244,-22.5915,-3.68833,0.483794,8.72985,-6.18902,-1.95122,9.48171
280.951,43.4683,66.5434,0,6.42344,6.22466,1.19272,10.3659,13.3232,-24.1159,-3.70989,0.387993,8.81846,-5.18293,-0.518293,8.90244
280.961,43.2438,66.6348,0,6.44979,6.56475,1.06578,12.2561,12.1646,-25,-3.7051,0.318538,8.84241,-5.18293,-0.0914634,7.77439
280.971,42.9733,66.7273,0,6.32764,7.07249,1.01309,13.4756,7.71341,-24.6951,-3.68354,0.268242,8.83762,-4.93902,-0.121951,7.0122
280.981,42.6845,66.8416,0,6.43781,7.58982,0.936453,11.6463,8.32317,-24.0244,-3.64043,0.244292,8.89271,-5.09146,-0.243902,6.58537
280.991,42.4,66.9901,0,6.4905,7.77423,1.01549,9.20732,8.81098,-23.2622,-3.59013,0.287402,8.87834,-4.60366,-0.0609756,6.37195
281.001,42.1336,67.0978,0,6.50727,7.67364,1.20709,8.2622,8.71951,-22.8963,-3.56858,0.352068,8.8496,-4.90854,0.457317,6.70732
281.011,41.8758,67.1585,0,6.43781,7.47965,1.17595,6.4939,8.75,-23.4146,-3.58534,0.404758,8.82565,-5.27439,1.0061,7.19512
281.021,41.6252,67.21,0,6.28932,7.14195,1.15919,5.03049,8.84146,-24.5427,-3.64043,0.464634,9.02443,-6.12805,1.43293,7.22561
281.031,41.3794,67.2581,0,6.13604,7.04615,1.59987,4.93902,3.59756,-23.9024,-3.68833,0.467029,9.15376,-6.67683,1.40244,7.59146
281.041,41.1502,67.261,0,6.29172,7.14195,1.55197,5.45732,-0.243902,-23.3841,-3.80329,0.502954,9.10586,-6.89024,2.37805,7.28659
281.051,40.9259,67.2553,0,6.42584,7.38385,1.55197,5.94512,-0.731707,-22.6524,-3.82724,0.457449,9.07952,-6.15854,3.93293,7.34756
281.061,40.7101,67.2536,0,6.62462,7.597,1.54958,5.54878,-2.86585,-22.3476,-3.81048,0.359253,9.08191,-5.18293,5.51829,7.19512
281.071,40.5033,67.254,0,6.7803,7.65209,1.46096,4.7561,-3.53659,-22.8049,-3.74821,0.217947,8.96216,-3.90244,7.95732,7.0122
281.081,40.292,67.2512,0,6.81623,7.64011,1.3939,3.10976,-2.77439,-24.0854,-3.78174,0.0119751,9.00767,-2.10366,8.5061,6.98171
281.091,40.0569,67.2448,0,6.70845,7.56826,1.41306,2.19512,-1.76829,-26.5549,-3.78413,-0.165256,8.97414,-0.487805,9.5122,7.16463
281.101,39.788,67.2378,0,6.46655,7.67125,1.4897,1.76829,-1.70732,-27.5915,-3.76258,-0.232317,8.91666,1.55488,10.7622,7.19512
281.111,39.5221,67.2325,0,6.4426,7.73112,1.53521,1.70732,-1.85976,-27.1646,-3.74821,-0.189207,8.89989,2.5,11.9207,7.22561
281.121,39.2684,67.2291,0,6.44021,7.74549,1.21906,-0.121951,-2.62195,-26.3415,-3.71947,-0.0574805,8.85199,3.75,12.439,7.5
281.131,39.0133,67.2142,0,6.2534,7.5994,1.26457,-2.86585,-2.9878,-26.4024,-3.73144,0.162861,8.75619,4.42073,13.2927,8.07927
281.141,38.7719,67.1965,0,6.12406,7.35271,1.33403,-2.95732,-3.41463,-26.2195,-3.69552,0.383203,8.63884,4.96951,14.5732,8.84146
281.151,38.553,67.1761,0,6.19352,7.13955,1.26936,-1.28049,-5.51829,-26.7683,-3.69552,0.56762,8.6053,5.64024,15.5488,9.87805
281.161,38.3337,67.1357,0,6.2031,7.19464,1.02986,-0.304878,-7.53049,-26.8902,-3.78892,0.720901,8.6053,5.7622,16.2805,10.8537
281.171,38.116,67.0828,0,6.13604,7.2138,1.06099,0.853659,-8.32317,-26.4024,-3.86317,0.857417,8.62926,5.51829,16.7988,11.4329
281.181,37.8978,67.0178,0,6.09532,7.36708,0.967588,0.182927,-8.75,-25.3049,-3.89909,0.941243,8.56699,4.96951,17.439,11.7683
281.191,37.7221,66.9739,0,6.46416,7.45809,0.756826,0.487805,-6.52439,-24.0854,-3.86796,1.03225,8.68674,4.17683,18.1098,12.3171
281.201,37.5694,66.9206,0,6.61983,7.45809,0.687371,0.27439,-5.42683,-23.4756,-3.90628,1.1065,8.66039,2.71341,19.0244,12.2256
281.211,37.4472,66.8725,0,6.77072,7.28565,0.66342,1.43293,-3.68902,-23.3537,-3.87514,1.15679,8.62446,0.945122,20.0305,11.8902
281.221,37.3327,66.8328,0,6.59349,7.20182,0.740061,1.25,-1.37195,-21.9512,-3.88233,1.17835,8.70829,-0.670732,20.2744,11.5549
281.231,37.2148,66.7793,0,6.46655,7.24254,0.58199,1.40244,2.16463,-21.0671,-3.90149,1.07057,8.59573,-2.46951,21.3415,10.8232
281.241,37.0807,66.7127,0,6.25579,7.28804,0.677791,1.98171,4.17683,-20.6707,-3.93981,0.969983,8.52866,-3.71951,22.0732,9.48171
281.251,36.9363,66.6232,0,6.14083,7.39103,0.708926,3.20122,3.81098,-20.122,-4.05716,0.797541,8.53106,-4.17683,22.8659,8.2622
281.261,36.7793,66.5157,0,6.0115,7.46288,0.641865,3.07927,4.2378,-19.939,-4.1362,0.632285,8.49034,-4.32927,23.4146,6.61585
281.271,36.5977,66.3882,0,5.772,7.58263,0.778381,4.7561,3.01829,-19.5427,-4.25595,0.397573,8.50471,-4.69512,24.2073,5.09146
281.281,36.4106,66.2534,0,5.73607,7.75028,0.689766,4.87805,1.61585,-18.9024,-4.3302,0.304167,8.53585,-5.03049,24.1159,3.87195
281.291,36.2128,66.1311,0,5.63069,7.74789,0.706531,4.45122,2.65244,-19.3598,-4.35175,0.261057,8.64842,-5.7622,24.6341,3.17073
281.301,35.9802,65.9899,0,5.26904,7.67125,0.771196,4.81707,-0.640244,-20.2134,-4.44276,0.203577,8.60291,-6.43293,24.8171,2.77439
281.311,35.7361,65.8489,0,5.1924,7.74789,0.747246,6.12805,-5.18293,-20.5183,-4.48827,0.294587,8.64123,-7.07317,24.8476,3.20122
281.321,35.4851,65.7121,0,5.16845,7.9347,0.862207,7.16463,-7.89634,-20.1829,-4.49545,0.385598,8.64123,-7.86585,24.6341,3.59756
281.331,35.2303,65.5794,0,5.17085,8.14546,0.740061,6.85976,-9.35976,-19.7256,-4.48348,0.395178,8.6053,-7.71341,23.7195,4.60366
281.341,34.9818,65.4416,0,5.2403,8.34904,0.857417,6.7378,-11.0366,-18.9939,-4.5218,0.349673,8.58136,-6.61585,23.1707,4.81707
281.351,34.7455,65.2935,0,5.33131,8.4161,0.886157,6.28049,-13.1707,-18.75,-4.59604,0.277822,8.57656,-6.31098,22.4695,4.78659
281.361,34.5167,65.1264,0,5.41993,8.49513,0.699346,3.47561,-12.9268,-18.8415,-4.66789,0.141306,8.48555,-5.67073,22.4695,4.72561
281.371,34.3022,64.9659,0,5.47022,8.3682,0.929268,2.71341,-11.9512,-19.1463,-4.64155,0.110171,8.43765,-5.4878,22.5915,3.96341
281.381,34.085,64.8102,0,5.44148,8.32509,0.850232,2.16463,-12.7439,-19.8476,-4.63197,0.162861,8.40652,-5.2439,22.8049,3.56707
281.391,33.8393,64.6615,0,5.1948,8.35622,0.809517,0.518293,-13.75,-20.5488,-4.59844,0.229922,8.35383,-5.57927,22.8049,3.2622
281.401,33.6063,64.5159,0,5.28581,8.25563,1.02746,0.823171,-14.1159,-21.311,-4.57928,0.304167,8.29395,-5.79268,22.439,3.47561
281.411,33.387,64.3585,0,5.38879,8.20055,0.905317,0.609756,-12.9573,-21.7683,-4.56012,0.225132,8.10954,-5.39634,22.2866,3.75
281.421,33.1841,64.1943,0,5.42711,8.18378,0.905317,0.121951,-12.5305,-21.0366,-4.5218,0.102986,7.9347,-3.78049,21.9817,3.68902
281.431,32.9976,64.0366,0,5.54208,8.23408,0.871787,0.0609756,-12.3476,-20.5793,-4.49306,-0.0670605,7.8844,-2.80488,22.1646,3.53659
281.441,32.8134,63.8977,0,5.47501,8.34425,0.637075,-1.15854,-9.39024,-19.3598,-4.4739,-0.153281,7.95146,-2.04268,21.5244,3.10976
281.451,32.6468,63.7599,0,5.52052,8.29156,0.742456,-2.56098,-7.86585,-18.7195,-4.44516,-0.158071,7.86285,-1.25,20.8841,3.04878
281.461,32.4931,63.6391,0,5.41035,8.05206,0.704136,-3.01829,-7.40854,-18.2317,-4.41642,-0.0958008,7.90596,-0.670732,20.6098,3.07927
281.471,32.3576,63.5107,0,5.36245,7.84608,0.457449,-2.16463,-8.14024,-17.622,-4.39247,0.0359253,7.76465,-0.182927,21.0976,4.02439
281.481,32.2327,63.3956,0,5.34808,7.67125,0.344883,-2.46951,-9.87805,-17.8963,-4.39726,0.112566,7.8389,0.27439,21.6768,4.96951
281.491,32.1123,63.2561,0,5.28341,7.61856,0.495769,-2.07317,-8.56707,-17.4085,-4.47869,0.112566,7.75268,0.762195,22.7134,5.7622
281.501,32.021,63.0956,0,5.39358,7.59221,0.795146,-0.518293,-10.1829,-16.0061,-4.56251,0.0742456,7.69041,1.46341,23.3232,6.06707
281.511,31.9631,62.9227,0,5.56842,7.69759,0.356858,0.27439,-13.628,-13.7805,-4.59365,0.00479004,7.5994,2.0122,24.1768,5.88415
281.521,31.9258,62.7348,0,5.55405,7.75507,0.399968,-0.701219,-11.8598,-11.25,-4.57209,0.0191602,7.40301,2.0122,24.6341,5.4878
281.531,31.9126,62.5508,0,5.56124,7.70957,0.443079,-1.70732,-11.3415,-9.26829,-4.44276,0.0958008,7.17069,1.89024,26.4329,4.87805
281.541,31.9163,62.3863,0,5.45825,7.53952,0.548459,-2.53049,-9.87805,-7.77439,-4.31343,0.203577,7.04854,1.55488,27.9573,4.69512
281.551,31.946,62.2191,0,5.31455,7.26649,0.500559,-0.823171,-7.46951,-5.79268,-4.23679,0.313748,6.86173,0.609756,28.75,5.18293
281.561,31.9774,62.045,0,5.099,7.25451,0.378413,-1.25,-7.65244,-3.90244,-4.28229,0.409548,6.84497,-0.304878,29.8171,5.54878
281.571,32.0446,61.828,0,4.99841,7.23535,0.354463,0.152439,-8.84146,-2.13415,-4.5218,0.378413,6.88808,-1.21951,30.2744,5.33537
281.581,32.2379,61.5308,0,5.03194,7.42696,0.378413,1.40244,-10.3963,-0.213415,-4.68705,0.402363,6.56475,-1.40244,30.6098,4.78659
281.591,32.2601,61.1994,0,4.93134,7.77423,0.450264,1.79878,-13.628,1.79878,-4.79962,0.416733,6.445,-2.34756,33.2317,4.72561
281.601,32.2714,60.8794,0,4.92416,8.01134,0.313748,2.07317,-10.9451,2.80488,-4.91937,0.390388,6.59828,-2.68293,35.0915,4.29878
281.611,32.2399,60.5166,0,4.59604,8.11912,0.57241,0.792683,-11.9207,3.17073,-4.93614,0.397573,6.29651,-2.9878,38.1402,4.2378
281.621,32.2265,60.1631,0,4.73256,8.13588,0.5772,-0.548781,-15.9146,3.29268,-4.97206,0.368833,6.31806,-1.58537,41.8598,3.87195
281.631,32.2408,59.9137,0,4.88824,8.09038,0.720901,-0.853659,-17.1037,3.81098,-5.20917,0.349673,7.18745,0,40.8537,3.75
281.641,32.2667,59.6127,0,4.96727,8.10954,1.01309,-0.640244,-17.561,4.2378,-5.53968,0.232317,7.22098,2.22561,39.2988,2.68293
281.651,32.3156,59.062,0,5.23551,8.18618,0.962798,-1.92073,-15.2439,4.29878,-5.59956,0.153281,5.78637,4.93902,46.9512,1.46341
281.661,32.4066,58.7189,0,5.61393,8.24605,0.895737,-2.77439,-14.878,5.30488,-5.62111,0.0742456,6.86173,5.30488,56.4939,0.762195
281.671,32.5196,58.4606,0,5.93965,8.39933,0.641865,-2.77439,-15.7317,5.67073,-6.01629,-0.153281,7.83411,4.90854,56.372,-0.396341
281.681,32.6083,58.1111,0,5.79116,8.52627,0.737666,-2.9878,-14.9085,5.64024,-6.3013,-0.349673,7.48683,5.09146,56.7073,-1.89024
281.691,32.7098,57.8068,0,6.08574,8.78733,0.155676,-3.35366,-14.8171,6.06707,-6.59349,-0.479004,8.05445,4.90854,54.3902,-2.83537
281.701,32.7757,57.5042,0,5.88935,9.12981,0.0718506,-3.65854,-12.1951,6.4939,-6.91442,-0.431104,8.36341,3.65854,50.8232,-2.71341
281.711,32.8176,57.1602,0,5.64267,9.26394,0.162861,-5.2439,-12.8354,7.19512,-7.12758,-0.201182,8.21731,3.59756,49.6341,-1.18902
281.722,32.8627,56.8007,0,5.60674,9.20166,0.273032,-6.21951,-14.4207,7.59146,-7.23775,0.146096,8.13109,4.96951,49.1159,2.31707
281.731,32.9196,56.4531,0,5.59477,9.22322,0.208367,-6.40244,-12.378,9.11585,-7.38864,0.318538,8.28198,5.15244,48.811,5.7622
281.741,32.9922,56.067,0,5.55884,9.08191,0.5772,-6.06707,-13.1707,10.3659,-7.62335,0.364043,8.15983,6.12805,48.872,8.71951
281.751,33.1018,55.6245,0,5.92288,9.0412,0.414338,-3.44512,-13.2012,10.7012,-7.84608,0.368833,7.8844,7.56098,49.939,9.14634
281.761,33.1997,55.201,0,5.95402,9.12981,0.201182,-3.44512,-11.128,9.96951,-7.90117,0.287402,7.95146,8.04878,50.8841,8.75
281.771,33.3001,54.7789,0,6.18155,9.03401,0.0263452,-1.55488,-9.72561,7.83537,-8.02571,0.193997,7.96584,7.95732,49.2683,7.28659
281.781,33.385,54.3455,0,6.31327,8.95258,-0.141306,-1.0061,-8.68902,4.78659,-8.01613,0.119751,7.75986,8.47561,47.5915,5.7622
281.791,33.428,53.9552,0,6.14562,8.86397,0.129331,-0.609756,-7.9878,-0.152439,-8.02092,0.00479004,7.94188,8.56707,45.6707,4.87805
281.801,33.4101,53.536,0,6.16718,8.80649,0.0981958,-1.06707,-2.62195,-5.06098,-8.01374,-0.0191602,7.62814,8.2622,44.4817,4.48171
281.811,33.321,53.0952,0,5.8654,8.77296,0.217947,-0.823171,-1.58537,-9.81707,-8.05445,0.00718506,7.41259,8.38415,44.1463,4.63415
281.821,33.1538,52.6916,0,5.57561,8.95977,0.225132,-0.97561,-1.28049,-14.1463,-8.10235,0.0598755,7.58503,8.2622,42.0732,5.18293
281.831,32.9536,52.2959,0,5.5301,8.92624,0.239502,-1.03659,-0.0609756,-17.622,-8.09756,0.213157,7.52276,8.20122,38.9024,5.85366
281.841,32.7142,51.9012,0,5.384,8.89989,0.287402,-0.548781,-3.5061,-20.7927,-7.99937,0.323328,7.33355,8.56707,37.2866,6.64634
281.851,32.4619,51.5293,0,5.37921,8.83523,0.399968,-0.97561,-2.5,-22.9268,-7.87722,0.464634,7.26649,8.53659,36.5549,7.0122
281.861,32.192,51.187,0,5.31694,8.89989,0.397573,-1.52439,-2.2561,-24.2683,-7.73591,0.55325,7.23056,8.32317,36.4329,6.92073
281.871,31.9217,50.8377,0,5.34568,8.77535,0.447869,-1.70732,-2.31707,-25.8537,-7.61137,0.632285,6.98627,8.14024,36.9817,7.07317
281.881,31.6425,50.4932,0,5.29778,8.69871,0.534089,-2.56098,-3.04878,-27.3171,-7.52515,0.55325,6.85215,8.01829,36.7378,6.92073
281.891,31.3835,50.1705,0,5.47022,8.36341,0.399968,-1.89024,-1.64634,-29.5732,-7.48683,0.524509,6.86652,7.9878,36.3415,6.82927
281.901,31.1121,49.8439,0,5.47501,7.97062,0.570015,-2.65244,-3.17073,-34.0244,-7.5012,0.450264,6.77791,7.56098,35.7622,6.61585
281.911,30.8016,49.4891,0,5.33131,7.98739,0.378413,-2.46951,-2.37805,-37.0122,-7.47725,0.447869,6.51445,7.89634,36.311,6.09756
281.921,30.434,49.134,0,5.05589,8.50232,0.328118,-2.68293,-0.640244,-37.378,-7.49402,0.423918,6.44739,7.56098,37.1951,6.03659
281.931,30.0705,48.8017,0,5.0966,8.82086,0.359253,-2.83537,-2.46951,-36.25,-7.47007,0.426313,6.47613,6.89024,36.6159,6.25
281.941,29.7474,48.469,0,5.35047,8.62446,0.320933,-2.31707,-0.487805,-36.5244,-7.42696,0.474214,6.36117,6.09756,36.372,6.52439
281.951,29.4301,48.1338,0,5.25467,8.39933,0.253872,-2.80488,1.18902,-37.0427,-7.44133,0.502954,6.28453,6.0061,36.0366,6.58537
281.961,29.101,47.8023,0,4.98404,8.34185,0.522114,-1.43293,0,-36.4939,-7.46288,0.593965,6.24861,5.51829,35.7012,7.19512
281.971,28.7704,47.4509,0,4.92177,8.46639,0.244292,-0.97561,1.15854,-35.9146,-7.47486,0.732876,6.07616,4.48171,35.9146,7.65244
281.981,28.4424,47.0696,0,4.80201,8.25324,0.340093,0.213415,-1.95122,-36.372,-7.53713,0.883762,5.88935,4.20732,36.4939,7.71341
281.991,28.0919,46.7006,0,4.69663,8.3658,0.289797,0.945122,-0.762195,-37.5305,-7.56587,0.929268,5.89654,3.01829,36.372,8.2622
282.001,27.7444,46.3503,0,4.73974,8.45681,0.387993,0.731707,0.304878,-37.8659,-7.66167,0.989143,5.99234,2.19512,35.3354,8.44512
282.011,27.4098,45.9814,0,4.7613,8.39694,0.409548,2.16463,-0.213415,-37.8354,-7.67843,0.984353,5.82948,1.46341,34.9085,8.07927
282.021,27.0861,45.6005,0,4.78764,8.37778,0.555645,3.2622,-0.548781,-37.8049,-7.64011,0.886157,5.66183,0.487805,36.0976,7.7439
282.031,26.7656,45.2536,0,4.77567,8.42568,0.481399,4.05488,0.396341,-37.7134,-7.59221,0.785566,5.72649,-0.548781,37.0732,7.16463
282.041,26.4436,44.9071,0,4.81159,8.54543,0.423918,4.29878,1.31098,-38.2012,-7.57066,0.740061,5.64027,-1.40244,37.0732,6.7378
282.051,26.098,44.5626,0,4.62478,8.69153,0.807122,4.45122,2.65244,-38.4756,-7.51318,0.65863,5.53729,-1.92073,37.2866,6.79878
282.061,25.7478,44.2153,0,4.49785,8.78493,0.61073,3.68902,2.95732,-37.8049,-7.48204,0.641865,5.4319,-2.5,37.7439,6.64634
282.071,25.3773,43.8991,0,4.23679,8.85678,0.548459,3.29268,4.05488,-37.439,-7.47007,0.656235,5.51094,-2.77439,37.6524,7.16463
282.081,25.0043,43.5564,0,4.06914,8.88313,0.56283,3.20122,3.71951,-36.4939,-7.49641,0.675395,5.33371,-2.5,37.5,7.0122
282.091,24.6479,43.2068,0,4.038,8.72745,0.593965,2.68293,3.10976,-36.0061,-7.5491,0.673001,5.26904,-2.59146,37.7134,7.37805
282.101,24.3137,42.8281,0,4.0859,8.50711,0.452659,3.04878,2.56098,-36.1585,-7.64251,0.706531,5.12295,-2.40854,38.4756,7.37805
282.111,23.9837,42.4653,0,4.038,8.47597,0.536484,3.71951,1.21951,-36.0366,-7.76465,0.775986,5.20917,-2.77439,38.7195,7.77439
282.121,23.6386,42.0948,0,3.93262,8.63884,0.385598,3.56707,0.518293,-36.2195,-7.8868,0.866997,5.18043,-2.83537,38.4756,7.86585
282.131,23.2933,41.7,0,3.95418,8.79451,0.433499,3.53659,-0.670732,-36.4024,-8.0784,0.864602,5.11097,-3.32317,39.1159,8.10976
282.141,22.9447,41.3006,0,3.90628,8.89989,0.433499,3.68902,-0.518293,-36.4024,-8.15504,0.802332,5.05828,-3.90244,39.6951,8.23171
282.151,22.6084,40.8952,0,3.90149,8.93821,0.471819,2.0122,-1.64634,-35.6098,-8.21252,0.749641,4.98643,-4.05488,40.5793,7.83537
282.161,22.2978,40.4966,0,4.10267,8.93582,0.440684,2.53049,-1.67683,-35.8841,-8.29635,0.718506,4.99122,-4.45122,41.1585,7.83537
282.171,21.9836,40.1047,0,3.96376,8.92384,0.452659,3.5061,-2.19512,-35.4268,-8.24605,0.646655,4.91698,-4.2378,41.5244,7.37805
282.181,21.662,39.7146,0,3.87275,9.07473,0.320933,3.93293,-0.0914634,-35.122,-8.16462,0.59157,4.80201,-4.63415,42.2561,7.37805
282.191,21.334,39.328,0,3.70989,9.09628,0.220342,4.32927,-1.67683,-34.5427,-8.04727,0.560435,4.67747,-4.69512,43.2317,6.98171
282.201,20.9921,38.9361,0,3.47517,9.00288,0.234712,4.02439,-1.61585,-34.4207,-7.99458,0.550855,4.55054,-4.54268,44.0549,7.10366
282.211,20.6423,38.5423,0,3.28597,8.99569,0.471819,3.38415,-3.44512,-33.811,-8.0305,0.493374,4.49066,-4.48171,45.1524,6.92073
282.222,20.3137,38.1702,0,3.38895,8.83283,0.479004,4.08537,-5.91463,-34.2378,-7.97781,0.502954,4.49066,-4.60366,46.189,7.10366
282.231,19.9739,37.7898,0,3.365,8.87115,0.450264,4.87805,-5.88415,-35.6098,-8.13349,0.514929,4.4715,-4.78659,47.439,7.28659
282.241,19.6478,37.3988,0,3.45601,8.97653,0.376018,4.78659,-4.90854,-35.4878,-8.26761,0.613125,4.4236,-4.78659,47.4695,7.7439
282.251,19.3278,36.9778,0,3.53984,9.11065,0.565225,5.15244,-5.12195,-35.8841,-8.51429,0.608335,4.33978,-4.90854,48.2622,7.37805
282.261,18.9955,36.565,0,3.38177,9.21125,0.352068,6.18902,-5.64024,-35.6098,-8.6077,0.673001,4.34696,-4.7561,48.9634,7.46951
282.271,18.6671,36.1142,0,3.68833,9.62558,-0.112566,5.4878,-2.0122,-37.5305,-8.72027,0.65863,4.14578,-4.96951,49.6341,7.56098
282.281,18.2979,35.6544,0,3.05844,9.36453,0.217947,4.72561,-4.7561,-36.4939,-8.66997,0.61552,3.99729,-4.69512,50.3659,7.56098
282.291,17.9356,35.2025,0,2.91474,9.3286,0.0479004,4.2378,-3.81098,-35.0305,-8.68913,0.57241,3.95897,-4.35976,50.9146,7.43902
282.301,17.5776,34.7557,0,2.87642,9.26633,0.189207,4.48171,-8.62805,-35.122,-8.68195,0.565225,3.8967,-4.42073,50.8841,6.85976
282.311,17.229,34.3114,0,2.84289,9.15616,0.244292,5.27439,-9.20732,-34.9085,-8.64842,0.476609,3.81287,-4.66463,51.5549,6.21951
282.321,16.8756,33.8697,0,2.75188,9.20885,0.138911,6.37195,-12.0732,-34.8476,-8.67716,0.447869,3.75779,-4.48171,52.378,5.79268
282.331,16.5376,33.4123,0,2.76146,9.21843,0.0910107,5.51829,-14.5732,-34.0854,-8.67237,0.428708,3.6069,-4.69512,53.2317,4.7561
282.341,16.2294,32.9245,0,2.94827,9.19209,0.265847,6.79878,-14.3293,-33.9939,-8.61489,0.416733,3.36979,-4.66463,54.4207,4.54268
282.351,15.9024,32.4733,0,2.81654,9.31663,0.146096,5.7622,-15.9146,-34.5732,-8.66279,0.443079,3.46559,-4.45122,55.061,4.39024
282.361,15.5794,32.0419,0,2.79259,9.31184,-0.0335303,6.21951,-14.5732,-34.5732,-8.57417,0.481399,3.43925,-4.54268,55.9756,4.48171
282.371,15.2529,31.5726,0,2.77104,9.35734,-0.0981958,5.60976,-14.7256,-35.1829,-8.6556,0.512534,3.23088,-5.06098,56.5549,4.66463
282.381,14.9135,31.1206,0,2.54351,9.34776,0.0934058,6.12805,-17.1341,-34.5732,-8.79212,0.481399,3.27639,-5.51829,56.3415,4.7561
282.391,14.5771,30.6394,0,2.52196,9.40764,-0.0407153,7.0122,-17.378,-34.5122,-8.95737,0.524509,3.1279,-6.82927,56.7378,4.63415
282.401,14.261,30.1425,0,2.62255,9.41722,-0.136516,7.16463,-15.7622,-34.2683,-9.0412,0.522114,3.00335,-7.43902,57.1037,4.81707
282.411,13.9411,29.6481,0,2.53872,9.38848,-0.00239502,7.62195,-17.378,-34.4207,-9.137,0.579595,2.95785,-7.77439,56.5854,4.96951
282.421,13.6125,29.1265,0,2.38783,9.36453,-0.364043,6.12805,-12.0732,-34.2683,-9.08191,0.546064,2.73511,-7.71341,57.3171,5.09146
282.431,13.3048,28.6194,0,2.65129,9.36213,-0.316143,6.43293,-13.4451,-35.8841,-9.11305,0.450264,2.71835,-7.2561,58.3537,5
282.441,12.9839,28.132,0,2.48603,9.23759,-0.490979,7.56098,-12.6829,-36.3415,-9.10107,0.385598,2.71356,-7.0122,58.811,4.84756
282.451,12.6701,27.6369,0,2.65129,9.38369,-0.387993,9.26829,-12.7439,-37.7134,-9.12502,0.294587,2.60339,-6.82927,59.3902,4.60366
282.461,12.3238,27.1421,0,2.28006,9.42919,-0.222737,9.45122,-13.689,-37.2256,-9.17532,0.263452,2.53393,-6.7378,59.9695,3.68902
282.471,12.0085,26.6371,0,2.50759,9.58247,-0.416733,10.2744,-10.9756,-36.9512,-9.2831,0.268242,2.43334,-6.70732,60.5488,3.01829
282.481,11.6839,26.0961,0,2.35191,9.67588,-0.241897,10.061,-8.84146,-36.4939,-9.2328,0.241897,2.17947,-6.58537,61.6463,2.37805
282.491,11.3545,25.5754,0,2.12678,9.5705,-0.416733,6.89024,-5.27439,-35.3354,-9.17053,0.256267,2.16031,-7.07317,62.1951,1.61585
282.501,10.9946,25.0538,0,1.82021,9.40285,-0.680186,6.55488,-5.06098,-35.9146,-9.12023,0.323328,2.05732,-7.71341,62.4695,0.945122
282.511,10.6141,24.5361,0,1.62861,9.46512,-0.775986,6.18902,-3.9939,-36.311,-9.06994,0.349673,1.97589,-8.62805,62.5,0.823171
282.521,10.2422,24.0425,0,1.67172,9.39087,-0.186812,7.22561,-4.96951,-36.8902,-9.10107,0.359253,1.99745,-8.93293,61.9207,0.518293
282.531,9.83635,23.5245,0,1.38193,9.32381,-0.0167651,11.1585,-5.09146,-37.7134,-9.11544,0.325723,1.81782,-9.54268,64.1159,0.243902
282.541,9.43495,22.9797,0,1.41546,9.62558,-0.419128,9.96951,-4.96951,-37.9573,-9.03162,0.268242,1.60706,-10.3354,65.1219,-0.121951
282.551,9.02663,22.4201,0,1.09931,9.63037,-0.134121,7.80488,-10.0915,-35.7012,-9.02922,0.196392,1.45857,-10.3659,65.9756,-0.0609756
282.561,8.6584,21.8713,0,1.37714,9.55852,-0.328118,7.59146,-7.83537,-35.8841,-8.9909,0.189207,1.40588,-11.0671,66.1281,-0.304878
282.571,8.27758,21.3345,0,1.20948,9.51302,-0.574805,9.5122,-4.7561,-35.9756,-9.09389,0.172441,1.38193,-11.9207,65.3659,-0.579268
282.581,7.91538,20.8088,0,1.3005,9.76449,0.0574805,8.90244,-8.59756,-35.5488,-9.17292,0.193997,1.35079,-11.9512,64.4512,0.0914634
282.591,7.5146,20.2978,0,0.993933,9.9082,0.426313,7.13415,-6.70732,-36.4329,-9.30465,0.162861,1.34361,-11.5244,62.9573,0.640244
282.602,7.14903,19.7792,0,1.25739,9.90101,-0.0502954,5.67073,-0.731707,-36.7378,-9.46272,0.198787,1.24781,-11.4634,62.8354,1.21951
282.611,6.82036,19.2588,0,1.52323,9.73096,-0.402363,3.29268,0.27439,-37.1037,-9.5705,0.107776,1.16637,-11.311,62.5915,1.03659
282.621,6.48783,18.7366,0,1.46575,9.57529,0.232317,5,0.152439,-37.7744,-9.51302,0.0407153,1.06339,-10.6402,61.9817,0.853659
282.631,6.18001,18.2166,0,1.54479,9.67827,-0.191602,6.58537,12.0732,-36.6768,-9.60642,0.0263452,0.993933,-10.2134,60.7317,0.823171
282.641,5.843,17.6919,0,1.21188,9.74054,0.0479004,5.57927,10.6098,-36.25,-9.62319,-0.0455054,0.886157,-9.66463,59.6037,0.640244
282.651,5.49283,17.1726,0,0.960403,9.58247,-0.153281,5.42683,16.8598,-35.4878,-9.59205,-0.0167651,0.816702,-9.05488,58.1707,0.731707
282.661,5.14304,16.6758,0,0.890947,9.46512,-0.234712,5.33537,16.9207,-35.4573,-9.6184,-0.0215552,0.826282,-8.84146,57.1646,0.609756
282.671,4.75365,16.1727,0,0.438289,9.43638,-0.0502954,5.51829,10.8841,-34.6646,-9.74773,-0.0526904,0.723296,-8.14024,55.3049,0.853659
282.681,4.37369,15.688,0,0.366438,9.33339,-0.292192,3.78049,18.2012,-33.6585,-9.82437,-0.0479004,0.720901,-7.46951,53.3841,0.701219
282.691,3.97945,15.1833,0,0.110171,9.33579,-0.265847,5.91463,17.439,-32.6829,-9.8579,-0.0287402,0.550855,-6.52439,51.2805,0.304878
282.701,3.62652,14.7141,0,0.193997,9.51781,-0.220342,4.84756,12.7744,-30.2744,-10.0016,-0.0670605,0.6251,-5.70122,48.7805,0.396341
282.711,3.32004,14.2519,0,0.342488,9.51541,-0.167651,5.2439,13.9939,-28.0793,-10.277,-0.234712,0.58678,-4.32927,45.5793,-0.487805
282.721,3.06002,13.7736,0,0.469424,9.72617,-0.244292,4.11585,12.8963,-25.3963,-10.3513,-0.316143,0.431104,-2.5,42.8354,-1.40244
282.731,2.8263,13.2933,0,0.459844,9.54655,0.0886157,5.64024,11.2805,-23.2317,-10.3393,-0.241897,0.332908,-0.701219,40.1524,-1.85976
282.741,2.56007,12.8196,0,-0.0455054,9.76689,-0.265847,6.89024,14.5732,-20.8537,-10.3968,-0.385598,0.275427,1.37195,37.561,-2.0122
282.751,2.28408,12.3289,0,-0.308958,9.92257,-0.428708,4.93902,16.4329,-19.2988,-10.4135,-0.392783,0.110171,2.43902,36.0366,-2.43902
282.761,2.00648,11.8287,0,-0.469424,10.0399,-0.486189,3.01829,11.5244,-18.2012,-10.4519,-0.342488,-0.0239502,4.5122,34.6341,-2.31707
282.771,1.73764,11.3725,0,-0.469424,10.1357,0.0143701,1.52439,1.15854,-17.9268,-10.4495,-0.273032,0.0862207,5.67073,33.2317,-1.95122
282.781,1.50255,10.9385,0,-0.304167,10.0974,0.0670605,2.10366,-4.45122,-16.9207,-10.3776,-0.107776,0.102986,6.37195,31.4939,-0.97561
282.791,1.29235,10.5004,0,-0.0742456,10.1812,-0.0886157,2.46951,-5.27439,-17.5305,-10.2962,0.0143701,0.00479004,6.92073,30.5793,0.0304878
282.801,1.07412,10.0386,0,-0.0646655,9.97047,-0.155676,2.71341,-3.38415,-18.872,-10.174,0.0383203,-0.179626,7.04268,30.1829,1.25
282.811,0.811164,9.58794,0,-0.426313,9.83156,-0.443079,1.18902,2.83537,-19.5732,-10.0279,0.0886157,-0.208367,6.76829,30.6098,2.31707
282.821,0.593675,9.10582,0,0.100591,9.79803,-0.00239502,1.85976,2.31707,-21.7378,-9.87706,0.0862207,-0.419128,6.64634,31.7073,2.77439
282.831,0.37106,8.62781,0,0.162861,9.65911,-0.301772,2.13415,2.56098,-23.4756,-9.71659,0.102986,-0.476609,6.28049,31.7073,2.9878
282.841,0.149212,8.18231,0,0.205972,9.7118,-0.304167,2.13415,1.34146,-24.3598,-9.73096,0.0742456,-0.419128,6.15854,31.4939,3.47561
282.851,-0.0457262,7.73109,0,0.325723,9.63995,-0.268242,2.53049,4.26829,-23.5366,-9.77407,0.0143701,-0.522114,5.94512,31.189,3.87195
282.861,-0.206397,7.30707,0,0.673001,9.75491,-0.555645,3.44512,6.92073,-24.5427,-9.79084,-0.0263452,-0.483794,6.25,29.8476,4.05488
282.871,-0.37113,6.9366,0,0.673001,9.80521,-0.59636,2.43902,13.5976,-25.2439,-9.91299,-0.0910107,-0.330513,6.46341,27.9878,4.84756
282.881,-0.566783,6.56015,0,0.337698,9.93454,-0.191602,1.18902,11.8598,-24.6951,-9.95131,-0.138911,-0.423918,6.18902,26.372,5.54878
282.891,-0.741769,6.19996,0,0.325723,9.80281,-0.160466,-0.457317,11.0671,-22.8963,-10.1142,-0.244292,-0.426313,6.15854,24.6037,5.79268
282.901,-0.870008,5.85986,0,0.423918,9.72138,-0.287402,-0.27439,12.8659,-19.6951,-10.186,-0.222737,-0.404758,6.21951,22.8354,6.28049
282.911,-0.96082,5.51638,0,0.390388,9.72857,-0.201182,1.31098,14.1159,-15.7317,-10.1836,-0.191602,-0.481399,6.70732,21.7073,7.7439
282.922,-1.05416,5.21869,0,0.0550855,9.92257,-0.462239,1.79878,11.2195,-12.1341,-10.1932,-0.117356,-0.337698,7.2561,20.8841,9.02439
282.931,-1.14115,4.91594,0,-0.184417,10.1405,-0.431104,0.731707,6.67683,-8.90244,-10.289,-0.0934058,-0.419128,7.62195,18.9634,9.96951
282.941,-1.21627,4.63036,0,-0.301772,10.0854,-0.593965,-0.0304878,1.28049,-6.4939,-10.3177,-0.0311353,-0.397573,7.43902,17.9878,10.8841
282.951,-1.25699,4.34778,0,-0.241897,9.84353,-0.608335,0.396341,-0.365854,-3.75,-10.3225,0.0263452,-0.435894,7.16463,17.6524,11.4939
282.961,-1.27181,4.05623,0,-0.232317,9.74294,-0.524509,1.55488,-1.12805,-1.15854,-10.2411,0.126936,-0.524509,6.61585,16.7378,11.4024
282.971,-1.31476,3.7554,0,-0.356858,9.81,-0.684976,1.55488,-1.61585,0.121951,-10.1405,0.165256,-0.613125,5.82317,16.25,11.5549
282.981,-1.35707,3.4417,0,-0.450264,9.91059,-0.66342,0.27439,-3.84146,0.670732,-10.0543,0.184417,-0.718506,4.66463,15.8841,11.4024
282.991,-1.40471,3.10509,0,-0.373623,9.78844,-0.56762,0.457317,-6.03659,-0.0914634,-9.92017,0.184417,-0.864602,3.47561,15.6707,11.5244
283.001,-1.48067,2.78386,0,-0.450264,9.67588,-0.57241,0.97561,-5.42683,-0.121951,-9.8555,0.126936,-0.850232,2.37805,15.3963,11.5854
283.011,-1.33722,2.4467,0,0.318538,9.77647,-0.364043,1.67683,-2.92683,-0.518293,-9.86748,0.0455054,-0.977168,1.61585,15.061,11.372
283.021,-1.30054,2.08332,0,0.146096,9.79084,-0.502954,2.07317,0.213415,-1.98171,-9.87227,0.00239502,-1.152,1.09756,14.939,11.2805
283.031,-1.30449,1.71706,0,-0.0718506,9.82197,-0.356858,1.61585,-1.21951,-2.5,-9.83156,-0.0383203,-1.22386,0.609756,14.1159,11.9207
283.041,-1.29815,1.36086,0,0.124541,9.8603,-0.56762,0.335366,1.82927,-3.68902,-9.87946,-0.0502954,-1.2502,0.762195,13.2622,11.7683
283.051,-1.30815,1.01597,0,0.0215552,9.86509,-0.5772,-0.487805,2.46951,-4.02439,-10.0735,-0.138911,-1.28852,0.518293,11.9207,11.8902
283.061,-1.35422,0.6916,0,-0.256267,9.78126,-0.467029,-0.487805,0.97561,-4.29878,-10.2004,-0.0934058,-1.27415,0.701219,11.128,11.8902
283.071,-1.43043,0.375477,0,-0.476609,9.80521,-0.548459,-0.762195,-0.121951,-4.81707,-10.2531,-0.0934058,-1.30289,0.792683,9.87805,11.9817
283.081,-1.51187,0.0506905,0,-0.560435,9.78126,-0.58678,-0.640244,-1.28049,-4.45122,-10.2363,-0.0215552,-1.39869,1.18902,8.93293,12.1037
283.091,-1.57547,-0.26288,0,-0.421523,9.70462,-0.579595,-0.731707,-1.28049,-4.45122,-10.2124,-0.00479004,-1.40348,1.34146,7.89634,12.1037
283.101,-1.60956,-0.55052,0,-0.285007,9.74054,-0.55804,-0.731707,-1.52439,-3.2622,-10.1549,0.0479004,-1.33403,1.21951,7.22561,12.1951
283.111,-1.61379,-0.829162,0,-0.158071,9.75252,-0.548459,-1.31098,-2.65244,-2.16463,-10.1022,0.00239502,-1.33642,1.52439,6.12805,11.9207
283.121,-1.59904,-1.08008,0,-0.158071,9.79084,-0.59636,-1.4939,-3.14024,-0.97561,-10.1142,-0.00239502,-1.25739,2.10366,5.06098,11.4329
283.131,-1.5484,-1.33422,0,-0.107776,9.94173,-0.60115,-1.25,-2.56098,-0.0609756,-10.0758,-0.0167651,-1.30529,2.31707,4.54268,10.6402
283.141,-1.51077,-1.57542,0,-0.119751,10.0256,-0.713716,-0.731707,-3.47561,0.670732,-10.1118,0.0215552,-1.28852,2.56098,4.02439,10.0915
283.151,-1.45465,-1.80426,0,-0.0167651,10.0327,-0.579595,-0.945122,-5.09146,0.792683,-10.016,0.0598755,-1.2526,2.89634,3.68902,9.60366
283.161,-1.37234,-2.0433,0,0.0814307,9.94891,-0.711321,-1.82927,-5.91463,0.518293,-9.94652,0.105381,-1.31966,2.89634,3.53659,9.45122
283.171,-1.24798,-2.29217,0,0.282612,9.85311,-0.64426,-2.04268,-5.4878,0.670732,-9.84593,0.122146,-1.37714,2.2561,3.38415,9.45122
283.181,-1.06042,-2.52302,0,0.366438,9.66869,-0.61073,-0.609756,-4.08537,0.27439,-9.8124,0.167651,-1.35079,1.70732,3.62805,9.5122
283.191,-0.8609,-2.7545,0,0.378413,9.70701,-0.687371,-0.548781,-0.304878,0.0609756,-9.8124,0.208367,-1.36516,0.792683,3.10976,9.48171
283.201,-0.716744,-2.97883,0,0.335303,9.72138,-0.593965,-0.701219,0.97561,0.365854,-9.86509,0.246687,-1.37235,0.396341,2.89634,9.7561
283.211,-0.580634,-3.21659,0,0.280217,9.78126,-0.555645,-0.97561,2.65244,-0.0609756,-9.87467,0.268242,-1.37953,-0.152439,2.10366,9.60366
283.221,-0.495656,-3.46345,0,0.208367,9.83635,-0.464634,-1.0061,2.56098,0.426829,-9.89622,0.273032,-1.35558,-0.487805,1.52439,9.02439
283.231,-0.44787,-3.77898,0,0.0886157,9.85072,-0.665815,-1.7378,2.7439,0.518293,-9.94652,0.241897,-1.39151,-0.701219,0.701219,8.71951
283.241,-0.428184,-4.12437,0,-0.0191602,9.85072,-0.524509,-1.89024,0.853659,0.670732,-9.97765,0.234712,-1.42504,-0.97561,0.396341,8.23171
283.251,-0.42533,-4.46955,0,-0.0838257,9.87227,-0.62031,-2.19512,-0.762195,0.548781,-9.94412,0.198787,-1.47054,-1.03659,0.396341,7.62195
283.261,-0.421843,-4.82713,0,-0.0670605,9.78844,-0.543669,-2.5,-1.98171,0.182927,-9.96807,0.186812,-1.60466,-0.945122,0.457317,7.07317
283.271,-0.391149,-5.15927,0,0.0407153,9.79563,-0.495769,-2.37805,-2.19512,-0.27439,-9.96807,0.182021,-1.56155,-1.18902,0.335366,7.19512
283.281,-0.336132,-5.46632,0,0.0958008,9.74773,-0.371228,-1.98171,-2.5,-0.0914634,-9.93933,0.143701,-1.61664,-1.18902,0.518293,6.95122
283.291,-0.274955,-5.7862,0,0.122146,9.73815,-0.433499,-1.18902,-1.64634,-0.0914634,-9.95131,0.143701,-1.5879,-1.06707,-0.182927,6.79878
283.301,-0.215655,-5.97473,0,0.131726,9.8124,-0.474214,-1.52439,-0.548781,0.0914634,-9.99681,0.160466,-1.47773,-0.914634,-0.579268,6.76829
283.311,-0.133345,-6.10286,0,0.215552,9.8076,-0.457449,-1.55488,-0.548781,0.121951,-10.0399,0.162861,-1.45857,-0.853659,-1.21951,6.7378
283.321,-0.0547564,-6.2048,0,0.225132,9.8603,-0.656235,-1.79878,1.25,-0.0609756,-10.0303,0.193997,-1.44659,-0.579268,-1.82927,6.82927
283.331,-0.00320798,-6.29127,0,0.153281,9.78126,-0.570015,-1.95122,1.31098,0.243902,-10.0351,0.208367,-1.44659,-1.06707,-2.65244,6.52439
283.341,0.0567448,-6.38187,0,0.203577,9.82916,-0.455054,-1.76829,1.06707,0.335366,-9.97765,0.258662,-1.47294,-1.09756,-2.77439,6.28049
283.351,0.118795,-6.46786,0,0.191602,9.75491,-0.426313,-0.609756,1.12805,0.121951,-9.94652,0.265847,-1.47533,-1.4939,-3.17073,6.31098
283.361,0.144775,-6.56601,0,0.117356,9.80042,-0.423918,-0.609756,1.25,-0.27439,-9.89143,0.289797,-1.53042,-1.43293,-3.10976,6.06707
283.371,0.147802,-6.66235,0,0.0742456,9.8555,-0.392783,-1.06707,1.82927,-0.792683,-9.8555,0.253872,-1.54,-1.67683,-3.35366,5.97561
283.381,0.148563,-6.74611,0,0.0766406,9.8603,-0.387993,-2.04268,0.853659,-0.97561,-9.86988,0.277822,-1.50886,-2.10366,-3.47561,5.85366
283.391,0.139749,-6.83146,0,0.0694556,9.78366,-0.390388,-1.92073,1.46341,-1.64634,-9.93694,0.261057,-1.54958,-2.16463,-4.02439,5.64024
283.401,0.125667,-6.90903,0,0.0455054,9.7621,-0.438289,-1.52439,3.04878,-1.79878,-9.89622,0.225132,-1.52802,-2.22561,-4.48171,5.67073
283.411,0.103706,-6.98385,0,0,9.80521,-0.277822,-1.7378,1.7378,-1.92073,-9.92975,0.213157,-1.5376,-1.82927,-4.93902,5.67073
283.421,0.0827041,-7.05845,0,0.00239502,9.88185,-0.359253,-1.4939,-0.0914634,-1.92073,-9.92017,0.205972,-1.54958,-1.67683,-5.2439,5.82317
283.431,0.0790871,-7.10148,0,0.124541,9.79323,-0.399968,-0.792683,-0.487805,-2.04268,-9.99681,0.227527,-1.43462,-1.7378,-5.57927,5.70122
283.441,0.0852925,-7.1291,0,0.170046,9.81719,-0.457449,-1.31098,0.762195,-1.82927,-10.0854,0.205972,-1.38672,-1.37195,-6.37195,5.60976
283.451,0.0870341,-7.14799,0,0.131726,9.84593,-0.366438,-1.21951,1.95122,-1.70732,-10.107,0.220342,-1.35558,-1.4939,-6.82927,5.67073
283.461,0.0896236,-7.1707,0,0.158071,9.78366,-0.493374,-1.61585,2.56098,-1.95122,-10.0591,0.241897,-1.36995,-1.28049,-7.0122,5.27439
283.471,0.0912844,-7.19164,0,0.203577,9.79084,-0.486189,-2.13415,2.83537,-2.46951,-9.99681,0.287402,-1.35798,-1.28049,-7.40854,5
283.481,0.106422,-7.20647,0,0.280217,9.73096,-0.335303,-2.16463,3.35366,-2.31707,-9.93694,0.270637,-1.32684,-1.46341,-7.9878,5.2439
283.499,0.108022,-7.20255,0,0.234712,9.7621,-0.325723,-2.16463,5.91463,-2.77439,-9.88904,0.179626,-1.24062,-1.95122,-8.71951,5.60976
283.505,0.109638,-7.21107,0,0.251477,9.72378,-0.490979,-2.16463,6.70732,-2.95732,-9.87467,0.134121,-1.29331,-2.34756,-8.90244,5.4878
283.511,0.102496,-7.22509,0,0.205972,9.76449,-0.517324,-2.56098,7.16463,-3.17073,-9.89383,0.0886157,-1.32205,-2.71341,-9.26829,5.54878
283.521,0.0806988,-7.2331,0,0.153281,9.7142,-0.483794,-2.28659,7.62195,-3.93293,-9.92975,0.0383203,-1.30289,-3.14024,-9.66463,5.73171
283.531,0.0360131,-7.24759,0,0.00718506,9.73336,-0.447869,-3.38415,9.02439,-4.48171,-10.004,0.00958008,-1.34361,-3.5061,-10.1829,5.4878
283.541,-0.0197818,-7.23726,0,-0.0431104,9.6663,-0.438289,-4.48171,8.68902,-5.09146,-10.0447,0.00479004,-1.24062,-3.93293,-10.9756,5.64024
283.551,-0.0888281,-7.25699,0,-0.146096,9.68785,-0.55325,-4.54268,7.28659,-5.30488,-9.96089,0.0598755,-1.36277,-4.48171,-11.0976,5.60976
283.561,-0.162227,-7.2865,0,-0.203577,9.77886,-0.60115,-4.66463,6.25,-5.21341,-9.99921,0.0215552,-1.41546,-4.87805,-11.0671,5.45732
283.571,-0.240171,-7.30162,0,-0.253872,9.84353,-0.646655,-4.42073,4.96951,-5.2439,-9.97765,-0.0838257,-1.35319,-5.09146,-11.128,5.79268
283.581,-0.313279,-7.31026,0,-0.222737,9.91059,-0.704136,-4.66463,4.57317,-5.30488,-9.90101,-0.141306,-1.31726,-5.39634,-11.8293,5.7622
283.591,-0.389992,-7.31125,0,-0.294587,9.86269,-0.579595,-4.7561,2.56098,-4.93902,-9.83635,-0.225132,-1.27655,-5.39634,-11.9817,6.21951
283.601,-0.465751,-7.31792,0,-0.306563,9.84832,-0.711321,-6.09756,-0.121951,-4.84756,-9.82677,-0.383203,-1.3005,-5.2439,-11.9512,6.55488
283.611,-0.530708,-7.35014,0,-0.227527,9.82916,-0.62989,-6.31098,-2.37805,-4.84756,-9.83635,-0.490979,-1.41546,-5.18293,-11.5244,6.79878
283.621,-0.578487,-7.38462,0,-0.102986,9.77407,-0.783171,-6.70732,-4.5122,-4.72561,-9.83395,-0.514929,-1.42983,-4.96951,-10.4878,6.92073
283.631,-0.605882,-7.46797,0,0.0670605,9.72857,-0.893342,-7.07317,-4.90854,-4.81707,-9.79803,-0.58678,-1.64538,-4.26829,-8.84146,6.79878
283.641,-0.629151,-7.55757,0,0.110171,9.93933,-0.783171,-7.92683,-4.11585,-4.93902,-9.92496,-0.64426,-1.70765,-3.07927,-7.04268,6.95122
283.651,-0.653235,-7.62392,0,0.129331,10.0184,-0.766406,-8.41463,-4.05488,-5.27439,-9.98484,-0.673001,-1.62861,-1.89024,-6.76829,6.46341
283.661,-0.677529,-7.68999,0,0.162861,10.0088,-0.864602,-8.56707,-3.04878,-5.73171,-9.93694,-0.677791,-1.63101,-0.762195,-6.55488,6.7378
283.671,-0.698476,-7.7248,0,0.203577,9.88904,-0.883762,-9.39024,-3.90244,-5.94512,-9.84832,-0.708926,-1.4897,0.27439,-6.89024,6.79878
283.681,-0.726355,-7.73047,0,0.150886,9.89383,-0.869392,-9.57317,-4.39024,-6.06707,-9.72857,-0.735271,-1.35079,0.762195,-7.46951,6.95122
283.691,-0.756012,-7.71133,0,0.0766406,9.9561,-0.931663,-10.0305,-4.96951,-5.42683,-9.68546,-0.833467,-1.23823,0.701219,-7.65244,7.13415
283.701,-0.798917,-7.69671,0,-0.0167651,9.9537,-1.08494,-10.9451,-6.18902,-5.73171,-9.70701,-0.924478,-1.25739,1.28049,-7.68293,6.58537
283.711,-0.826143,-7.67591,0,0.0718506,9.94891,-1.22146,-12.7439,-7.95732,-5.27439,-9.75252,-0.981958,-1.23344,0.701219,-7.2561,5.70122
283.721,-0.813365,-7.64613,0,0.359253,9.8124,-1.30289,-13.6585,-8.23171,-4.7561,-9.81,-0.984353,-1.19751,0.792683,-7.04268,4.78659
283.731,-0.763653,-7.58932,0,0.677791,9.78844,-1.2981,-14.5122,-6.15854,-4.81707,-9.82197,-0.948428,-1.07536,0.853659,-6.79878,4.35976
283.741,-0.697852,-7.5314,0,0.778381,9.77407,-1.18793,-15.1524,-3.38415,-4.39024,-9.84593,-0.941243,-1.06339,0.640244,-7.2561,4.87805
283.751,-0.611231,-7.47379,0,0.862207,9.70701,-1.07297,-15.2134,-1.40244,-3.59756,-9.8579,-0.902922,-1.0562,0.792683,-7.59146,5.64024
283.761,-0.488644,-7.40519,0,0.898132,9.7142,-1.07297,-15.122,-0.365854,-2.19512,-9.81479,-0.950823,-0.993933,1.0061,-8.14024,6.46341
283.771,-0.182386,-7.33776,0,0.855022,9.80281,-0.938848,-15.9451,-0.426829,-0.0304878,-9.68785,-0.974773,-0.974773,1.25,-8.59756,7.62195
283.781,-0.0573405,-7.2623,0,0.708926,9.90101,-0.704136,-16.8293,-2.7439,2.0122,-9.5681,-0.993933,-0.917292,2.0122,-8.71951,8.93293
283.791,0.0669489,-7.17506,0,0.66821,9.9058,-0.555645,-17.8354,-7.16463,4.54268,-9.57289,-0.953218,-0.855022,2.34756,-8.90244,9.7561
283.801,0.220025,-7.07738,0,0.680186,9.84353,-0.366438,-18.6585,-12.1951,7.68293,-9.64714,-0.835862,-0.802332,2.95732,-9.11585,10.5793
283.811,0.407027,-6.97739,0,0.677791,9.84593,-0.196392,-18.5061,-14.878,11.4939,-9.76689,-0.696951,-0.785566,3.44512,-9.26829,11.1585
283.821,0.632732,-6.89957,0,0.713716,9.94891,0.0239502,-18.1098,-16.2805,15.4878,-9.76928,-0.534089,-0.864602,3.59756,-9.05488,11.7378
283.831,0.918567,-6.81097,0,0.890947,9.84832,0.155676,-19.2683,-16.25,19.9085,-9.77647,-0.517324,-0.804727,3.44512,-8.59756,11.7988
283.841,1.26837,-6.71473,0,1.1065,9.73096,0.0886157,-20.7927,-13.5366,24.3293,-9.8076,-0.471819,-0.759221,2.7439,-9.17683,12.4085
283.851,1.68771,-6.62491,0,1.38911,9.63037,0.0550855,-21.8902,-9.66463,28.628,-9.84593,-0.428708,-0.773591,2.77439,-9.17683,13.0793
283.861,2.16928,-6.53773,0,1.5376,9.34058,0.00239502,-22.8963,-6.28049,33.5061,-9.86509,-0.467029,-0.771196,2.28659,-9.32927,14.1159
283.871,2.72216,-6.45047,0,1.72681,9.22562,0.0862207,-23.5671,-3.17073,39.2073,-9.96568,-0.5772,-0.764011,3.84146,-10.061,15.3049
283.881,3.38067,-6.34953,0,2.02379,9.1346,0.124541,-24.5122,-1.34146,47.2561,-10.0399,-0.766406,-0.694556,6.64634,-11.25,16.2195
283.891,4.11832,-6.2406,0,2.13636,9.09149,0.282612,-28.0793,5.79268,55.1829,-9.98005,-0.775986,-0.63947,11.0671,-13.6585,16.6463
283.901,5.01019,-6.15929,0,2.72793,9.31423,0.455054,-32.7744,5.21341,66.0976,-9.78844,-0.766406,-0.730481,16.3415,-16.2805,16.6159
283.911,6.06603,-6.12588,0,3.22849,9.40524,0.737666,-36.4634,2.43902,79.2988,-9.38608,-0.546064,-0.888552,22.8963,-18.628,16.4024
283.921,7.32258,-6.09285,0,4.16733,9.46512,0.699346,-35.5793,5.2439,92.1037,-9.06036,-0.208367,-0.855022,29.4207,-20.061,15.7622
283.931,8.66054,-6.04193,0,4.46432,9.81479,0.534089,-28.0183,5.33537,101.555,-8.91905,0.148491,-0.766406,34.0854,-21.0671,14.6341
283.941,9.98526,-5.93277,0,4.35654,10.392,0.220342,-17.8049,11.4024,106.433,-9.05317,0.589175,-0.536484,37.2256,-21.4024,13.5061
283.951,11.2299,-5.85126,0,3.66198,11.1584,0.263452,-8.53659,16.5244,110.305,-9.3765,1.03944,-0.651445,38.689,-20.1829,12.9878
283.961,12.3767,-5.78866,0,2.74469,11.6302,0.65863,-2.59146,16.6159,112.835,-9.99202,1.35798,-0.761616,38.628,-17.8659,12.622
283.971,13.4599,-5.76344,0,2.12438,11.7691,1.22864,-0.0304878,16.4024,114.909,-10.7153,1.5879,-0.979563,36.6463,-14.4512,13.3232
283.981,14.4781,-5.8111,0,1.2502,11.2422,2.10762,3.84146,8.93293,118.415,-11.1632,1.8274,-1.37474,33.3537,-10.8232,14.0244
283.991,15.3825,-5.9194,0,0.0407153,11.0195,3.92065,11.2195,-14.5122,121.402,-11.5033,2.17468,-1.73639,29.3902,-7.71341,15.7317
284.001,16.2762,-6.04932,0,-0.0981958,11.0339,4.68466,19.1768,-39.6951,123.628,-11.5033,2.29203,-1.86812,25.7317,-5.51829,18.0183
284.011,17.179,-6.1598,0,0.438289,10.8399,4.17931,25.3963,-61.7378,120.61,-11.3572,2.01182,-1.76992,22.1951,-4.96951,19.2988
284.021,18.0037,-6.2715,0,0.756826,11.6757,2.14354,20.2134,-66.0976,111.646,-11.1297,1.56395,-1.76513,18.872,-6.64634,19.0854
284.031,18.7266,-6.37394,0,1.40588,11.4721,0.0526904,6.31098,-53.9634,96.25,-10.9812,1.3484,-1.71962,17.3476,-8.47561,17.8354
284.041,19.3181,-6.4884,0,1.8777,10.3992,-1.16158,-0.27439,-30.9451,77.6829,-10.8087,1.20469,-1.77231,16.9817,-9.66463,16.5549
284.051,19.8498,-6.60138,0,2.87881,10.0016,-1.84177,-0.701219,-3.17073,60.9146,-10.6578,1.17116,-1.76273,17.7439,-10.0915,16.1585
284.061,20.3176,-6.69351,0,3.36979,9.35255,-1.25499,-0.518293,10.122,47.8049,-10.4591,1.07536,-1.65256,18.6585,-10.2439,16.6159
284.071,20.7377,-6.78357,0,3.365,8.78972,0.134121,0.823171,-0.0914634,41.5854,-10.1836,1.00591,-1.61664,19.5122,-10.6707,16.8293
284.081,21.1517,-6.85872,0,3.42248,8.36341,0.972378,5.4878,-18.3537,39.1463,-9.85072,0.993933,-1.51365,20.2134,-10.9756,17.2256
284.091,21.5716,-6.90995,0,3.62606,8.02811,0.809517,11.5244,-26.0366,36.4024,-9.59445,1.09213,-1.38432,20.6098,-11.7073,17.2866
284.101,21.9801,-6.93946,0,3.88951,7.77902,0.490979,15.8232,-22.4695,31.4939,-9.31423,1.18793,-1.26218,20.4573,-12.5305,17.0122
284.111,22.3813,-6.9349,0,4.3781,7.64251,0.0359253,19.5122,-10.5488,24.9695,-9.05557,1.3005,-1.09452,19.4207,-13.5976,16.9512
284.121,22.7655,-6.88224,0,4.98164,7.75507,-0.234712,20.2134,9.69512,18.1098,-8.91666,1.47294,-0.886157,17.8049,-14.2683,16.372
284.131,23.1222,-6.76152,0,5.47741,7.58982,-0.179626,21.311,32.4085,9.7561,-8.83523,1.66214,-0.603545,15.6707,-14.9695,15.3963
284.141,23.4819,-6.64448,0,5.81271,7.63532,0.146096,20.1829,57.5915,2.62195,-8.79691,1.85375,-0.59636,13.811,-14.5732,14.9695
284.151,23.7934,-6.54496,0,5.77918,7.66167,0.435894,18.1402,81.4634,-2.34756,-8.87834,2.01421,-0.651445,11.2195,-13.1707,14.5732
284.161,23.972,-6.45558,0,5.2906,7.80297,0.775986,16.0671,93.5061,-3.9939,-9.05078,2.09564,-0.687371,8.10976,-11.1585,13.9939
284.171,24.102,-6.37914,0,4.74214,7.92512,0.910107,14.3598,99.2073,-3.07927,-9.22322,2.07169,-0.737666,5.73171,-9.5122,12.8354
284.181,24.2414,-6.29978,0,4.04758,7.98499,0.677791,15.2744,97.5305,-1.0061,-9.39806,2.00463,-0.725691,3.23171,-7.7439,11.5549
284.191,24.2737,-6.2644,0,3.59253,7.86764,0.687371,20,92.7439,0.579268,-9.47709,1.85135,-0.902922,1.21951,-6.85976,10.4268
284.201,24.0101,-6.25712,0,3.18777,8.01134,0.958008,27.6524,87.0732,0.396341,-9.51062,1.65256,-1.01788,-0.731707,-5.27439,9.32927
284.211,23.2891,-6.26885,0,2.68482,8.42089,0.991538,30.9451,78.7195,0.0609756,-9.55373,1.48252,-1.09931,-2.5,-4.14634,7.56098
284.221,22.7353,-6.32072,0,2.52914,8.63644,0.847837,24.6037,68.811,0.365854,-9.57529,1.32445,-1.2526,-3.68902,-2.86585,6.21951
284.231,22.4005,-6.41824,0,2.75188,8.51429,1.30529,23.6585,56.6463,-0.579268,-9.6639,1.17835,-1.40588,-5.45732,-1.98171,4.66463
284.241,22.1243,-6.52217,0,2.95785,8.55501,1.53281,20.0305,41.5244,-0.182927,-9.81,1.11608,-1.47054,-5.97561,-1.89024,2.89634
284.251,22.0831,-6.61716,0,3.14227,8.5119,1.85614,18.2927,25.4878,1.79878,-9.98963,1.01788,-1.53521,-6.09756,-2.7439,1.25
284.261,22.1061,-6.72068,0,3.43685,8.64602,1.87051,17.3476,12.2866,3.2622,-9.98005,1.07297,-1.59029,-5.4878,-2.86585,0.182927
284.271,22.1957,-6.80809,0,4.01166,8.66518,1.78189,17.7744,5.12195,2.86585,-10.0543,1.06339,-1.57832,-5.30488,-4.57317,-0.640244
284.281,22.3163,-6.88157,0,4.31582,8.74901,1.76034,14.6646,-0.762195,3.62805,-10.0375,1.07536,-1.53042,-4.20732,-4.87805,-0.792683
284.291,22.4684,-6.99151,0,4.43797,8.61249,1.98547,12.561,-9.29878,5.33537,-9.94891,1.07297,-1.69088,-3.44512,-4.69512,-1.43293
284.301,22.6632,-7.09104,0,4.65113,8.44723,1.90165,12.2256,-12.0122,6.85976,-9.85311,1.0562,-1.64777,-2.34756,-4.72561,-1.58537
284.311,22.8803,-7.19698,0,4.84752,8.42807,1.31726,10.4878,-12.9878,7.34756,-9.8076,1.02986,-1.67651,-1.31098,-3.90244,-2.34756
284.321,23.1137,-7.31597,0,4.94572,8.22689,1.11368,9.17683,-13.8415,7.19512,-9.72138,1.01309,-1.72441,-0.518293,-3.44512,-3.44512
284.331,23.3713,-7.46836,0,5.099,7.90117,1.12566,10.9756,-11.6768,6.34146,-9.61361,1.0586,-1.81542,0.0609756,-2.59146,-3.71951
284.341,23.6295,-7.61621,0,5.17324,7.76705,0.919688,11.9512,-8.44512,4.81707,-9.52739,1.15919,-1.7795,0.335366,-2.31707,-3.93293
284.351,23.8968,-7.7274,0,5.1948,7.61856,0.637075,11.4329,-3.56707,3.78049,-9.49386,1.26697,-1.69807,-0.121951,-2.89634,-3.5061
284.361,24.2074,-7.81208,0,5.24749,7.45809,0.661025,10.6098,0.548781,2.68293,-9.45075,1.38672,-1.62861,-0.518293,-3.75,-3.10976
284.371,24.7252,-7.86652,0,5.17803,7.35032,0.63947,11.7378,4.48171,1.21951,-9.50583,1.42025,-1.5376,-0.731707,-4.84756,-3.07927
284.381,25.5477,-7.92084,0,5.18282,7.33115,0.677791,13.2012,7.56098,-0.426829,-9.4747,1.50647,-1.54239,-1.12805,-5.12195,-3.20122
284.391,25.811,-7.96482,0,5.26186,7.4078,0.716111,14.1159,8.84146,-2.19512,-9.51062,1.58311,-1.51365,-1.64634,-5.12195,-3.41463
284.401,25.9572,-8.00747,0,5.18043,7.5994,0.838257,15.061,10.3659,-3.78049,-9.50344,1.56874,-1.51365,-1.58537,-4.90854,-3.68902
284.411,26.051,-8.03354,0,5.14211,7.79818,0.934058,14.6037,12.2561,-5.7622,-9.54176,1.59748,-1.45617,-1.98171,-4.69512,-3.81098
284.421,26.1138,-8.0684,0,5.15408,7.94907,1.05381,13.7805,14.3598,-7.71341,-9.61361,1.59748,-1.50886,-2.59146,-4.57317,-4.29878
284.431,26.157,-8.09044,0,5.12055,7.97781,1.18314,12.5915,15.5183,-9.02439,-9.69025,1.52563,-1.47054,-3.2622,-4.08537,-4.90854
284.441,26.1907,-8.11822,0,5.10379,7.93709,1.35319,12.8049,13.872,-10,-9.81479,1.54479,-1.51365,-3.75,-3.23171,-5.36585
284.451,26.2116,-8.16985,0,5.08223,7.94667,1.52802,13.5976,9.39024,-10.9451,-9.99202,1.5855,-1.63101,-4.5122,-2.19512,-5.64024
284.461,26.2421,-8.2353,0,5.29539,7.97781,1.49689,14.7866,3.96341,-11.9207,-10.0735,1.56155,-1.69328,-5.30488,-1.70732,-6.0061
284.471,26.3061,-8.32839,0,5.64746,7.8844,1.45857,19.0549,2.19512,-12.5915,-10.083,1.61185,-1.76273,-6.28049,-1.03659,-6.37195
284.481,26.4133,-8.46544,0,6.27016,8.2221,1.20709,19.7561,5.33537,-11.5549,-9.94652,1.61664,-1.87051,-7.19512,-0.945122,-6.28049
284.491,26.5526,-8.47238,0,6.58151,8.54064,0.308958,16.7683,13.5671,-8.65854,-9.92257,1.6837,-1.50168,-8.90244,-1.46341,-6.31098
284.501,26.5461,-8.35879,0,5.98755,9.87946,-0.608335,16.5549,20.7622,-10.1829,-10.3321,1.60945,-1.02267,-9.96951,-4.69512,-6.79878
284.511,26.2367,-8.10739,0,4.18649,11.853,-0.265847,20.5793,23.2012,-17.1037,-11.1871,1.33882,-0.402363,-9.35976,-10,-7.9878
284.521,25.5957,-7.87187,0,1.76752,14.0228,1.15919,24.9695,15.1524,-26.5244,-11.9895,0.843047,-0.467029,-6.12805,-14.2683,-9.17683
284.531,24.8431,-7.73228,0,0.335303,14.0396,2.01661,20.9146,-11.128,-27.3476,-12.4062,0.138911,-0.958008,-1.43293,-13.9024,-8.62805
284.541,24.2518,-7.66138,0,1.08734,11.9847,2.61776,12.3171,-43.8415,-20.2134,-12.0182,-0.153281,-1.26218,2.19512,-10.8232,-5.39634
284.551,24.034,-7.67285,0,3.77216,10.5549,2.83331,11.128,-63.811,-12.8659,-11.4626,-0.227527,-1.60945,5.54878,-8.41463,-1.12805
284.561,24.2861,-7.73438,0,6.93598,9.86988,2.84528,11.372,-59.5122,-0.0609756,-10.8399,-0.184417,-1.76752,9.45122,-7.07317,2.43902
284.571,24.8525,-7.75637,0,10.3704,9.11305,1.62143,19.878,-39.8476,7.9878,-10.7441,-0.0526904,-1.57113,13.2927,-6.18902,3.32317
284.581,25.3662,-7.68738,0,10.5261,9.94173,-1.01549,29.8476,-10.2744,7.95732,-11.0818,0.337698,-1.17356,15.0305,-4.93902,1.46341
284.591,25.4709,-7.56112,0,6.33004,10.9381,-1.51126,23.8415,21.0976,0.457317,-11.3859,0.883762,-0.958008,12.9268,-1.28049,-2.10366
284.601,24.955,-7.45046,0,1.4442,10.2411,-0.428708,16.8293,33.1402,-17.0427,-11.4626,1.62622,-0.955613,8.9939,3.90244,-4.66463
284.611,23.8035,-7.2825,0,-2.56986,9.01964,0.843047,12.7439,10.4573,-34.1159,-11.2207,2.41657,-0.62031,3.71951,9.08537,-4.08537
284.622,22.3869,-7.06424,0,-3.09197,7.44372,1.17356,18.0488,-26.25,-49.939,-11.1033,2.73032,-0.330513,-2.43902,13.3232,-0.335366
284.631,21.1794,-6.73445,0,-1.06099,7.80776,0.56762,22.6524,-53.811,-61.7378,-11.235,2.48124,0.263452,-7.62195,16.0366,2.92683
284.641,20.3794,-6.31239,0,2.24413,9.25675,-0.713716,21.8598,-62.7439,-66.2195,-11.4218,1.89446,0.799937,-13.1402,16.7073,4.14634
284.651,19.8004,-5.84589,0,4.11943,10.4399,-2.62734,21.4939,-49.2378,-61.4329,-11.453,1.30768,1.11129,-17.0732,14.9695,4.29878
284.661,19.3277,-5.34863,0,4.67508,11.0315,-3.82245,26.5549,-23.3232,-54.6951,-11.3763,0.531694,1.35079,-19.2378,12.1646,2.77439
284.671,18.7999,-4.81838,0,3.76018,11.4075,-3.40572,29.0854,-5.33537,-51.6463,-11.271,-0.126936,1.59987,-20.9146,7.95732,-0.121951
284.681,18.1259,-4.27389,0,2.3088,11.1009,-1.52563,24.9695,-0.914634,-54.3902,-10.859,-0.66821,1.69567,-22.9878,4.63415,-2.92683
284.691,17.3581,-3.69826,0,1.60706,9.94173,-0.306563,21.3415,1.46341,-60.0915,-10.0878,-0.996328,1.69088,-26.372,3.10976,-4.90854
284.701,16.5687,-3.10621,0,1.61185,8.91666,-0.680186,19.4817,1.18902,-66.0366,-9.12742,-1.08255,1.59029,-29.1159,3.44512,-5.12195
284.711,15.8071,-2.35984,0,1.98308,8.38257,-1.40109,16.7073,1.61585,-71.0671,-8.39933,-0.912502,1.79387,-31.6768,3.2622,-3.68902
284.721,15.0102,-1.37622,0,1.75794,8.34904,-1.75315,15.6707,1.92073,-73.3232,-8.02092,-0.694556,1.7292,-34.3293,2.59146,-0.792683
284.731,14.1426,-0.110813,0,1.18553,8.68913,-2.12678,15.6707,2.89634,-73.75,-7.92512,-0.450264,1.56874,-36.311,1.95122,2.95732
284.741,13.2466,0.884515,0,0.725691,8.91187,-2.37586,16.6768,1.21951,-72.0732,-8.10714,-0.390388,1.21427,-36.6768,1.61585,6.61585
284.751,12.381,1.33851,0,0.584385,8.82565,-2.47406,17.1037,0.396341,-69.0244,-8.47597,-0.538879,0.898132,-35.7012,1.7378,9.17683
284.761,11.5891,1.50491,0,0.711321,8.57656,-2.66087,18.3537,0.731707,-65.2134,-9.01964,-0.862207,0.627495,-33.0793,1.92073,9.26829
284.771,10.8411,1.55383,0,0.646655,8.61728,-2.48124,20.1524,0.792683,-61.4329,-9.50344,-1.27176,0.433499,-29.5732,2.92683,6.85976
284.781,10.0972,1.57623,0,0.344883,8.9933,-2.51477,20.8537,-1.03659,-58.2622,-9.8555,-1.70046,0.361648,-25.7012,3.23171,3.20122
284.791,9.35787,1.57036,0,0.0910107,9.09389,-2.15073,20.0915,-9.5122,-56.0061,-9.92496,-1.94476,0.251477,-22.2561,3.65854,-0.97561
284.801,8.66762,1.53596,0,0.261057,9.08431,-2.09325,19.5427,-18.3841,-54.6951,-9.8124,-1.84417,0.126936,-19.5122,4.35976,-4.14634
284.811,8.04727,1.50652,0,0.57241,9.06275,-2.07888,18.8415,-24.878,-52.9878,-9.58247,-1.60945,0.138911,-17.2561,4.66463,-5.27439
284.821,7.49666,1.48631,0,0.862207,9.0867,-2.00703,18.9634,-26.0061,-50.8232,-9.30944,-1.20948,0.167651,-16.128,4.90854,-4.7561
284.831,6.99444,1.47147,0,1.04662,9.45314,-1.6358,18.0488,-22.9878,-48.8415,-9.2304,-0.941243,0.184417,-16.6768,4.96951,-3.44512
284.841,6.48975,1.41211,0,0.797541,10.107,-1.12326,15.8537,-21.4939,-46.4329,-9.29028,-0.919688,0.00479004,-17.2256,4.96951,-2.16463
284.851,5.97059,1.33744,0,0.433499,10.7321,-1.02267,11.8598,-22.8354,-44.4512,-9.40524,-0.979563,-0.0694556,-17.8354,5.39634,-1.4939
284.861,5.43054,1.22347,0,0.0143701,10.7153,-0.960403,8.59756,-30.9451,-43.0793,-9.48667,-1.06818,-0.246687,-16.8598,5.79268,-0.853659
284.871,4.87482,1.06112,0,-0.304167,10.1908,-1.02986,5.82317,-40.2134,-42.1341,-9.49146,-1.03704,-0.469424,-16.189,6.89024,-0.0609756
284.881,4.33928,0.862797,0,-0.256267,9.52978,-1.28613,4.42073,-46.5549,-41.5549,-9.51302,-1.06339,-0.64905,-14.5732,7.43902,1.25
284.891,3.86369,0.685832,0,0.222737,9.11544,-1.83219,3.07927,-51.8598,-42.5305,-9.50104,-1.0586,-0.59157,-12.5,7.62195,2.04268
284.901,3.40777,0.509219,0,0.395178,8.92624,-2.05972,3.84146,-52.4695,-43.811,-9.47949,-1.1065,-0.617915,-9.87805,7.07317,3.14024
284.911,2.97364,0.349957,0,0.58678,9.09389,-2.25132,6.58537,-47.8659,-44.878,-9.46272,-1.1041,-0.57241,-7.46951,6.25,3.14024
284.921,2.54277,0.217367,0,0.694556,9.331,-2.32556,9.17683,-44.4207,-46.5854,-9.42201,-1.12087,-0.483794,-5.57927,5.67073,3.20122
284.931,2.13221,0.0742264,0,0.905317,9.30226,-2.37346,10.6707,-35.5488,-48.0488,-9.40285,-1.09931,-0.546064,-3.62805,5.33537,2.68293
284.941,1.72729,-0.0644293,0,0.991538,9.20646,-2.29203,11.8598,-24.4207,-49.5122,-9.32621,-1.16637,-0.536484,-2.68293,4.48171,2.28659
284.951,1.28851,-0.212046,0,0.740061,9.1346,-2.08846,12.1951,-17.7439,-50.7012,-9.26154,-1.08973,-0.56283,-1.79878,3.59756,2.46951
284.961,0.8232,-0.358415,0,0.541274,9.01964,-2.19384,11.7073,-13.2927,-51.8598,-9.09628,-1.17835,-0.546064,-1.76829,3.2622,3.10976
284.971,0.36616,-0.514873,0,0.560435,8.92863,-2.10043,12.561,-10.4268,-52.2866,-8.96456,-1.16398,-0.531694,-2.19512,2.65244,4.84756
284.981,-0.105969,-0.700176,0,0.361648,9.10107,-2.00703,12.7439,-8.62805,-52.0732,-8.85199,-1.19511,-0.529299,-2.28659,2.04268,6.85976
284.991,-0.55956,-1.01406,0,0.474214,9.2352,-1.8753,13.5366,-7.19512,-52.5,-8.74661,-1.21667,-0.608335,-2.9878,1.28049,8.90244
285.001,-1.0374,-1.50228,0,0.205972,9.26394,-1.89686,14.9085,-6.79878,-52.5,-8.70111,-1.24062,-0.60115,-3.35366,0.487805,10.6098
285.011,-1.49817,-2.15712,0,0.196392,9.48667,-2.09564,14.939,-3.59756,-51.5549,-8.71069,-1.29331,-0.704136,-3.04878,0.152439,11.8902
285.021,-1.95281,-2.85188,0,0.215552,9.60642,-2.12917,14.0854,-0.396341,-52.0732,-8.67476,-1.36516,-0.991538,-2.43902,0.518293,12.7744
285.031,-2.43076,-3.22196,0,-0.0239502,9.79084,-1.86093,13.3537,-2.46951,-52.4695,-8.65321,-1.55676,-1.20948,-1.21951,1.79878,13.3841
285.041,-2.88766,-3.5218,0,-0.0502954,9.68546,-1.84896,11.9512,-5.42683,-50.9756,-8.64602,-1.68849,-1.52084,0.548781,3.68902,13.628
285.051,-3.30539,-3.83797,0,-0.0526904,9.4268,-1.75555,8.04878,-15.9756,-47.8659,-8.54543,-1.69328,-1.70046,3.10976,5.15244,14.5427
285.061,-3.63583,-4.12431,0,0.387993,9.07952,-1.81782,4.54268,-21.311,-45.4573,-8.55022,-1.67891,-1.64538,5.97561,5.4878,16.0366
285.071,-3.88185,-4.38449,0,0.756826,9.04359,-2.22497,2.77439,-22.378,-42.2866,-8.58375,-1.66214,-1.59748,8.53659,5.54878,17.8659
285.081,-4.09667,-4.6352,0,0.673001,9.06754,-2.34472,0.640244,-26.5854,-38.5061,-8.66039,-1.6837,-1.61664,10.8232,5.51829,19.0244
285.091,-4.24335,-4.88172,0,1.01309,9.0867,-2.43334,-0.335366,-25.4878,-36.311,-8.91905,-1.60227,-1.69567,12.8963,5.79268,19.8171
285.101,-4.34106,-5.10848,0,1.346,9.18729,-2.68482,-0.609756,-19.3902,-35.6402,-9.25436,-1.41546,-1.72441,14.7256,6.61585,19.6646
285.111,-4.46511,-5.2799,0,1.13045,9.27352,-2.63213,-0.213415,-20.0305,-35.7012,-9.74054,-1.14482,-1.61185,15.9756,7.16463,19.5122
285.121,-4.61769,-5.38779,0,0.914897,9.26633,-2.64171,0.213415,-13.9329,-36.189,-10.1309,-0.814307,-1.41785,15.3659,6.70732,19.0854
285.131,-4.79193,-5.45732,0,0.665815,9.31423,-2.44771,-0.152439,-13.4451,-35.5488,-10.198,-0.385598,-1.27176,13.9329,6.34146,19.2073
285.141,-4.97217,-5.40192,0,0.411943,9.45554,-2.49322,-0.762195,-11.1585,-33.2622,-10.3249,-0.237107,-0.732876,11.6463,4.2378,19.4512
285.151,-5.15751,-5.22708,0,0.0934058,9.72138,-2.5004,-3.71951,-16.2805,-30.1829,-10.5022,-0.165256,-0.361648,7.10366,1.21951,18.6585
285.161,-5.26579,-5.11471,0,0.62031,9.7621,-2.98419,-5.88415,-14.3293,-28.9939,-10.5405,-0.0910107,-0.60594,2.37805,-0.701219,18.0793
285.171,-5.34669,-5.21923,0,0.63947,9.50104,-3.14466,-8.20122,-11.0061,-26.8598,-10.5046,0.0215552,-1.23583,-0.762195,0.335366,17.561
285.181,-5.41944,-5.44335,0,0.414338,9.36453,-2.96024,-8.87195,-2.65244,-23.5061,-10.4088,0.0311353,-1.98068,-2.19512,4.08537,18.0793
285.191,-5.48108,-5.7998,0,0.232317,9.79563,-2.74709,-9.60366,3.78049,-20.122,-10.289,-0.349673,-2.64171,-1.03659,8.84146,17.8049
285.201,-5.50188,-6.30657,0,0.395178,10.0663,-2.79978,-8.65854,4.72561,-17.8963,-10.1333,-0.890947,-3.39614,2.80488,13.872,16.8902
285.211,-5.5208,-6.776,0,0.155676,10.2291,-2.52435,-7.83537,-3.90244,-14.939,-10.289,-1.5879,-3.35782,8.38415,17.5305,14.3293
285.221,-5.43704,-7.11259,0,0.840652,10.4183,-2.75427,-9.60366,-8.84146,-12.1341,-10.6722,-2.06451,-2.89558,13.9024,19.3293,10.7317
285.231,-5.27401,-7.29578,0,1.29571,10.6435,-2.84049,-11.9817,-15.9756,-8.62805,-11.2422,-2.25371,-2.31598,18.4756,19.8171,6.98171
285.241,-4.98876,-7.40541,0,1.98787,10.6818,-3.24046,-14.7561,-16.4634,-3.56707,-11.9775,-2.03337,-2.10522,21.7073,19.2988,2.86585
285.251,-4.59305,-7.52741,0,2.53633,10.9476,-3.14945,-18.4146,-14.2683,1.95122,-12.229,-1.37714,-2.24174,23.5976,19.9085,0.335366
285.261,-4.10963,-7.57694,0,2.92671,11.0794,-2.71356,-22.8049,-14.1159,9.7561,-12.3823,-0.790356,-1.88728,22.9268,22.5915,-0.792683
285.271,-3.49224,-7.43205,0,3.43206,11.0674,-2.09564,-27.1646,-13.2012,19.4512,-12.4517,-0.275427,-0.828677,19.7866,22.3476,-0.914634
285.281,-2.74662,-7.0654,0,3.74342,11.2422,-1.52802,-31.6463,-9.69512,31.372,-12.4876,0.383203,0.419128,14.7256,19.2988,1.52439
285.291,-1.90316,-6.53174,0,3.69312,11.5584,-1.1999,-38.811,-6.89024,44.2988,-12.7104,1.06818,1.4442,8.90244,14.4817,5.70122
285.301,-1.02305,-5.96303,0,2.9818,11.4721,-1.4442,-51.372,-4.54268,56.189,-12.9858,1.55916,1.79866,2.13415,11.3415,8.93293
285.311,-0.14113,-5.42909,0,2.00463,11.0506,-0.864602,-61.6159,1.34146,66.9207,-12.993,2.00224,1.72681,-4.45122,10.122,9.90854
285.321,0.78884,-5.11666,0,1.33403,10.404,0.397573,-62.8354,3.87195,79.6951,-12.5068,1.52323,0.550855,-5.15244,12.4085,7.65244
285.332,1.86305,-4.79922,0,1.32684,9.93694,0.55325,-64.0244,5.18293,95.7012,-11.259,1.12326,0.584385,-4.60366,14.4817,2.07317
285.341,3.05825,-4.48748,0,1.0083,9.98484,0.536484,-67.8963,3.53659,113.994,-9.5681,0.0981958,0.529299,-0.396341,18.872,-5.42683
285.351,4.28257,-4.13367,0,0.0814307,10.2627,-0.131726,-69.6341,-6.34146,130.244,-8.56699,-0.807122,0.680186,5.33537,18.689,-12.3171
285.361,5.48141,-3.71115,0,-1.08734,10.5501,-0.534089,-65.1829,-22.1037,143.079,-8.2724,-1.88488,0.958008,13.2317,14.0854,-17.6524
285.371,6.63383,-3.33684,0,-1.94476,11.3117,-0.938848,-54.0244,-33.2012,148.689,-8.33946,-2.56986,0.843047,21.5549,8.5061,-19.939
285.381,7.68778,-2.88469,0,-2.77343,12.1691,-1.57353,-43.5366,-43.2622,147.287,-8.91666,-2.77343,0.967588,28.0793,2.71341,-17.5915
285.391,8.70055,-2.52727,0,-2.66087,12.8229,-1.68849,-35.5183,-52.6829,142.957,-9.95131,-2.26329,0.804727,31.6159,-1.85976,-11.6159
285.401,9.72367,-2.29572,0,-1.73878,13.1487,-1.3939,-30.8537,-57.8659,137.53,-10.8542,-1.10171,0.59636,32.1951,-3.14024,-2.22561
285.411,10.8317,-2.14429,0,0.0574805,12.7152,-1.09452,-25.5488,-53.5366,132.378,-11.3907,0.318538,0.280217,29.9695,-2.65244,7.83537
285.421,12.0099,-1.90825,0,1.2023,11.6733,-0.522114,-17.378,-43.2012,130.335,-11.8961,2.07169,0.785566,27.4695,-4.2378,16.9207
285.431,13.2534,-1.69815,0,2.13157,10.7225,0.119751,-5.15244,-31.4634,128.445,-10.7752,2.52196,0.538879,22.6524,1.58537,22.5305
285.441,14.4329,-1.54043,0,2.26808,11.0889,0.416733,6.43293,-18.872,123.811,-10.0279,2.68721,0.383203,17.9573,3.62805,23.9634
285.451,15.5926,-1.38485,0,2.60339,11.4482,0.316143,13.689,-5.39634,121.646,-9.52739,2.19863,0.368833,14.2073,3.68902,21.0061
285.461,16.775,-1.28429,0,3.14945,11.1344,0.162861,17.8354,12.4695,120.244,-9.30944,1.42743,0.124541,11.7683,2.7439,14.5427
