time,angle1,angle2,intgangle,accX1,accY1,accZ1,gyroX1,gyroY1,gyroZ1,accX2,accY2,accZ2,gyroX2,gyroY2,gyroZ2
239.639,64.894,55.5192,0,9.9537,3.53265,2.58183,-6.06707,26.6463,27.7134,-9.64714,0.469424,5.48699,11.7683,99.2683,12.9573
239.649,65.2777,54.4462,0,9.59924,3.24765,2.68003,-4.20732,24.2073,26.0671,-9.20885,0.58678,5.08463,11.6463,97.4695,14.6646
239.659,65.6673,53.3577,0,9.34537,3.01293,2.69679,-2.71341,23.0488,25.7622,-8.76338,0.807122,4.55054,11.128,97.2866,15.8841
239.669,66.0621,52.2723,0,8.92384,2.82373,2.85726,-1.31098,20.0915,26.4634,-8.48795,1.05381,4.22002,9.66463,98.4756,16.7988
239.679,66.46,51.1557,0,8.66279,2.59381,3.03928,0.243902,16.3415,25.7622,-8.35622,1.29092,3.82006,7.43902,99.3902,16.8902
239.689,66.8663,49.9899,0,8.44723,2.39023,3.10874,1.98171,13.2622,25.6707,-8.35862,1.38672,3.4129,4.78659,99.9085,16.6463
239.699,67.2443,48.7675,0,8.26042,2.43094,3.12311,4.05488,8.62805,24.8171,-8.42568,1.57592,3.00335,2.0122,100.549,16.128
239.709,67.6042,47.5557,0,8.28198,2.38544,2.92192,4.57317,7.68293,23.0793,-8.42568,1.53042,2.84528,0.213415,99.6341,14.8476
239.719,67.9688,46.3193,0,8.45681,2.24892,2.79259,3.84146,6.64634,21.8902,-8.42089,1.47294,2.54591,-1.79878,98.811,13.1707
239.729,68.3245,45.0531,0,8.44005,2.15791,2.97701,4.11585,3.41463,20.6098,-8.40891,1.41785,2.22737,-4.39024,98.9634,11.1585
239.739,68.6458,43.8318,0,8.5119,2.24413,2.99138,5.70122,2.40854,18.689,-8.48316,1.28852,2.22497,-6.03659,97.8963,9.42073
239.749,68.9158,42.7141,0,8.56699,2.53393,2.95545,6.70732,-0.457317,17.5915,-8.68434,1.19032,2.5028,-6.82927,95.1524,7.92683
239.759,69.1401,41.6193,0,8.76817,2.84528,2.70877,5.94512,-1.28049,16.5549,-8.79212,1.152,2.44292,-7.22561,93.1098,6.95122
239.769,69.3209,40.4923,0,9.07233,3.27639,2.33993,3.68902,2.5,16.4024,-9.03162,1.09213,2.18665,-7.56098,90.7317,6.21951
239.779,69.4722,39.4248,0,9.38848,3.6524,1.91841,0.152439,7.53049,16.6159,-9.52978,1.04183,2.37107,-7.95732,88.0183,5.70122
239.789,69.6168,38.4197,0,9.63995,3.91107,1.74357,-4.29878,11.1585,17.9268,-9.95131,0.977168,2.56746,-7.83537,85.9451,6.09756
239.799,69.7747,37.4688,0,9.69264,3.87514,1.93757,-8.32317,12.5,18.9939,-10.2746,0.919688,2.71835,-7.43902,82.8659,6.18902
239.809,69.9564,36.5653,0,9.83156,3.72426,2.1627,-11.6159,13.2927,19.6037,-10.6028,0.929268,2.85007,-6.82927,79.6037,6.34146
239.819,70.15,35.6906,0,9.84353,3.5566,2.39023,-12.9878,14.6646,19.3902,-10.8183,0.943638,2.86923,-6.58537,76.3415,7.04268
239.829,70.3386,34.8028,0,9.50823,3.43206,2.55309,-13.9329,13.811,19.2378,-10.8878,0.948428,2.64171,-6.09756,73.8415,7.71341
239.839,70.5268,33.9189,0,9.42201,3.33866,2.78541,-13.2622,15.7622,18.9024,-10.9428,0.850232,2.49322,-5.79268,71.4329,8.23171
239.849,70.707,33.0631,0,9.01246,3.20214,3.13987,-11.9817,12.622,18.5671,-10.8423,0.826282,2.43334,-4.84756,68.7195,8.38415
239.859,70.8841,32.2563,0,8.90708,3.19256,3.21651,-10.9756,10.4878,18.9329,-10.7776,0.833467,2.49082,-3.68902,65.5488,8.32317
239.869,71.0749,31.4675,0,8.99809,3.15903,3.14706,-9.69512,10.6402,19.939,-10.7944,0.852627,2.42136,-2.95732,61.8902,8.32317
239.878,71.2851,30.6803,0,9.25915,3.02251,3.04167,-10.1829,11.7683,19.7256,-10.7201,0.958008,2.25611,-2.22561,59.6646,7.80488
239.888,71.5017,29.9329,0,9.14897,2.86205,3.06083,-9.81707,11.311,19.3598,-10.6435,1.06339,2.28006,-1.40244,57.561,8.04878
239.899,71.7252,29.1992,0,9.31184,2.77343,3.02251,-7.77439,12.0122,18.9024,-10.6267,1.17116,2.19623,-1.03659,55.2439,8.20122
239.909,71.929,28.4605,0,9.12742,2.77343,3.21412,-5.88415,8.35366,17.9878,-10.5022,1.2502,2.00463,-1.0061,52.8659,8.47561
239.919,72.1219,27.7211,0,9.18969,2.71835,3.20214,-4.7561,9.45122,16.4329,-10.4255,1.29092,1.84656,-0.609756,51.2805,8.14024
239.929,72.306,26.946,0,9.15376,2.65129,3.1758,-4.63415,7.46951,15.2744,-10.289,1.25739,1.51844,-0.518293,50.2439,7.86585
239.939,72.4697,26.209,0,9.06275,2.65129,3.21891,-3.2622,5.36585,13.872,-10.1693,1.22146,1.53521,-0.365854,50.3354,7.31707
239.949,72.6157,25.5323,0,9.06275,2.74709,3.05125,-2.95732,4.66463,13.5366,-10.1237,1.1041,1.66933,-0.0609756,49.1768,6.40244
239.959,72.774,24.8382,0,9.11784,2.62734,3.07521,-2.83537,3.68902,13.4756,-9.98963,1.0586,1.44659,0.243902,47.1037,5.60976
239.969,72.9614,24.1449,0,9.12981,2.22497,3.25244,-2.10366,3.65854,11.9207,-9.94173,0.972378,1.31726,0.457317,44.0549,5.64024
239.979,73.1372,23.4875,0,9.06994,2.14354,3.20454,-0.884146,3.32317,10.3049,-9.69743,0.946033,1.32205,0.426829,44.2988,5.97561
239.989,73.2717,22.8884,0,8.85199,2.37825,3.20214,-1.03659,1.52439,10,-9.64953,0.845442,1.45378,0.762195,42.3171,6.61585
239.999,73.4067,22.2854,0,8.92145,2.32556,3.09197,-0.914634,3.47561,9.45122,-9.73096,0.886157,1.34361,0.914634,40.6402,7.16463
240.009,73.5537,21.6595,0,9.03401,2.24892,3.05844,-0.609756,3.75,9.66463,-9.65911,1.01788,1.13045,0.823171,39.3598,7.28659
240.019,73.6888,21.049,0,9.09149,2.30161,3.08718,-0.213415,4.69512,9.20732,-9.84114,1.09931,1.10889,0.365854,37.561,7.92683
240.029,73.8134,20.469,0,9.14418,2.34712,3.02251,-0.0609756,5.94512,8.81098,-9.92496,1.21188,1.14482,0.0914634,36.0061,8.14024
240.038,73.9296,19.9055,0,9.10586,2.33275,3.13508,1.06707,5.60976,8.14024,-9.97765,1.32445,1.12087,-0.213415,34.1768,7.92683
240.049,74.0199,19.3817,0,8.98132,2.5004,3.21651,1.58537,4.66463,8.17073,-9.96807,1.41546,1.19511,-0.670732,32.1646,8.07927
240.059,74.1296,18.8748,0,9.1849,2.18905,3.24765,1.12805,4.11585,5.91463,-10.0351,1.35798,1.18553,-1.55488,31.2805,7.13415
240.069,74.2309,18.3775,0,9.28549,2.0669,3.27878,1.79878,4.63415,3.07927,-10.0375,1.29571,1.13763,-2.77439,30.4573,6.61585
240.079,74.3116,17.8965,0,9.25915,2.22018,3.2237,2.68293,5.64024,1.06707,-10.1381,1.2502,1.13284,-3.81098,29.3598,6.58537
240.089,74.3312,17.4266,0,9.16574,2.50759,3.30034,3.65854,4.84756,0.335366,-10.2195,1.15919,1.1041,-4.11585,27.5305,6.64634
240.099,74.3336,16.9659,0,9.17292,2.64171,3.32189,4.17683,4.90854,1.37195,-10.3465,1.1065,1.07297,-4.29878,25.5488,6.85976
240.109,74.3439,16.4932,0,9.29028,2.7423,3.37219,5,4.81707,2.77439,-10.5046,1.06339,0.946033,-4.42073,23.7805,7.22561
240.119,74.3684,16.0293,0,9.30705,2.7423,3.37698,5.73171,4.08537,4.08537,-10.5333,1.0107,0.900527,-3.93293,21.6463,7.5
240.129,74.3926,15.5923,0,9.20166,2.87642,3.41769,6.09756,4.11585,6.0061,-10.4854,1.03465,0.934058,-3.71951,19.5122,7.89634
240.139,74.4454,15.1648,0,9.25436,2.73751,3.30273,6.21951,4.57317,7.16463,-10.3417,1.04183,0.883762,-3.56707,17.6829,8.07927
240.148,74.5209,14.7386,0,9.29028,2.63931,3.26681,6.28049,5.15244,8.32317,-10.1501,1.04183,0.795146,-3.01829,15.7927,8.10976
240.159,74.5873,14.2822,0,9.26394,2.89558,3.0297,6.0061,6.64634,10.6098,-10.1429,1.04423,0.58199,-2.56098,14.3598,7.65244
240.169,74.6801,13.8446,0,9.20646,2.66087,3.09197,4.29878,5.18293,10.9146,-10.1381,1.00591,0.584385,-2.2561,13.3537,7.40854
240.179,74.8065,13.4004,0,9.23999,2.29922,3.15185,3.44512,7.40854,10.1524,-10.1956,0.938848,0.479004,-1.55488,12.6524,6.67683
240.189,74.9259,12.9394,0,9.08431,2.1627,3.2237,3.07927,7.2561,8.5061,-10.1956,0.898132,0.323328,-1.31098,11.4939,6.15854
240.198,75.0231,12.4705,0,8.85439,2.11241,3.51828,3.35366,6.34146,6.52439,-10.1549,0.869392,0.203577,-0.213415,10.2134,6.03659
240.209,75.0858,12.0544,0,8.68195,2.213,3.66677,3.59756,5.85366,5,-10.095,0.852627,0.354463,0.548781,8.96341,5.85366
240.219,75.1208,11.6829,0,8.48316,2.32077,3.7506,3.9939,2.77439,4.39024,-10.0854,0.869392,0.479004,1.28049,7.10366,5.36585
240.229,75.1462,11.3101,0,8.4616,2.36388,3.73384,4.17683,1.70732,4.14634,-10.1285,0.874182,0.414338,1.58537,5.60976,5.39634
240.239,75.1527,10.9382,0,8.46879,2.46208,3.64043,4.17683,1.18902,3.62805,-10.2267,0.855022,0.366438,1.95122,4.66463,4.7561
240.249,75.1635,10.5935,0,8.4616,2.36149,3.66677,3.56707,-0.365854,2.86585,-10.2914,0.866997,0.450264,2.2561,3.65854,4.57317
240.258,75.2105,10.2407,0,8.59812,2.11001,3.78653,3.20122,-0.701219,1.37195,-10.3465,0.912502,0.459844,2.53049,2.34756,4.29878
240.269,75.2169,9.78975,0,8.49034,2.23216,3.70749,3.17073,-1.82927,0.304878,-10.3704,0.960403,0.450264,2.34756,0.823171,4.35976
240.279,75.1782,9.32546,0,8.79212,2.43334,3.52307,2.2561,-4.02439,0.0914634,-10.368,0.969983,0.502954,2.13415,-0.457317,3.93293
240.288,75.0424,9.0284,0,9.07233,2.93629,3.08,-0.823171,-1.55488,-0.365854,-10.4159,0.969983,0.526904,2.07317,-1.79878,3.75
240.299,75.0328,8.76505,0,8.90468,2.25611,3.33147,-5.18293,1.52439,-2.71341,-10.404,0.866997,0.507744,2.68293,-2.71341,3.2622
240.309,75.1032,8.52106,0,8.43765,1.05141,3.58774,-3.62805,-3.53659,-8.87195,-10.3249,0.756826,0.505349,3.10976,-3.44512,3.23171
240.319,75.0451,8.3116,0,8.57177,2.08127,3.20454,4.14634,-1.43293,-8.47561,-10.2627,0.656235,0.589175,3.56707,-4.42073,3.14024
240.329,74.9773,8.1167,0,9.01006,2.72074,3.06562,4.2378,3.2622,-2.68293,-10.1956,0.62989,0.60594,3.90244,-5.15244,3.04878
240.339,74.7893,7.91438,0,9.10826,3.33866,3.37219,-2.5,-4.48171,0.365854,-10.0399,0.637075,0.526904,4.42073,-5.73171,3.04878
240.349,74.7794,7.72071,0,9.41961,2.4501,3.42248,-2.59146,-0.457317,-2.43902,-9.99681,0.656235,0.524509,4.96951,-6.4939,3.59756
240.359,74.7704,7.55953,0,8.94061,2.22737,3.43206,-3.47561,-2.80488,-3.56707,-9.99442,0.728086,0.632285,5.39634,-7.16463,3.56707
240.369,74.7838,7.39609,0,9.13221,1.91362,3.21891,-0.518293,-4.63415,-5.60976,-10.0208,0.816702,0.593965,6.25,-8.38415,3.84146
240.379,74.7566,7.25546,0,9.22322,2.06211,3.10634,0.487805,-3.75,-8.10976,-10.095,0.864602,0.670605,6.61585,-9.08537,3.87195
240.389,74.6972,7.14959,0,9.19927,2.2609,3.20214,0.396341,-4.35976,-8.9939,-10.095,0.941243,0.799937,7.07317,-10.3659,3.65854
240.399,74.616,7.06088,0,9.34776,2.48124,3.2237,0.701219,-4.69512,-9.17683,-10.0926,0.969983,0.857417,6.61585,-10.8537,3.38415
240.409,74.5257,6.97952,0,9.35974,2.55549,3.20693,-0.0304878,-5.03049,-9.45122,-10.0136,0.969983,0.866997,6.52439,-11.6768,2.89634
240.419,74.434,6.89386,0,9.23759,2.57465,3.35782,-0.792683,-4.7561,-9.14634,-9.96328,0.981958,0.828677,6.21951,-12.5,2.2561
240.429,74.3493,6.81216,0,9.12263,2.55788,3.42967,-0.396341,-4.45122,-8.44512,-9.96807,1.02267,0.831072,5.70122,-13.0793,2.04268
240.439,74.2662,6.7205,0,9.01006,2.64171,3.43925,0.243902,-6.4939,-7.07317,-9.9537,1.07297,0.771196,5.21341,-13.5976,1.79878
240.449,74.2,6.61004,0,9.02922,2.60818,3.37458,0.213415,-7.80488,-5.97561,-9.93215,1.1041,0.670605,4.90854,-13.8415,1.34146
240.458,74.1429,6.52235,0,9.05557,2.60339,3.25004,-0.487805,-8.84146,-5.33537,-9.91538,1.12326,0.749641,4.45122,-14.5732,0.884146
240.469,74.0964,6.43037,0,9.06754,2.52196,3.2237,-0.945122,-8.5061,-5.39634,-9.92975,1.15679,0.716111,4.05488,-15.0915,0.731707
240.479,74.061,6.35839,0,9.05557,2.44531,3.18059,-1.06707,-8.29268,-5.2439,-9.98963,1.22146,0.792751,3.59756,-15.1829,0.365854
240.489,74.0194,6.31461,0,8.97653,2.46687,3.04646,-1.03659,-7.65244,-5.42683,-10.0495,1.28134,0.910107,2.68293,-15.8232,0.731707
240.498,73.9786,6.24692,0,8.95977,2.4046,3.06083,-1.43293,-6.06707,-6.12805,-10.0758,1.20709,0.797541,1.37195,-16.0671,0.243902
240.509,73.9426,6.18789,0,8.99569,2.33035,3.08718,-1.0061,-5.64024,-6.7378,-10.0399,1.17356,0.821492,1.18902,-15.8537,0.701219
240.519,73.893,6.15272,0,8.90708,2.3543,3.21651,-1.52439,-7.04268,-7.62195,-10.0112,1.18793,0.914897,0.365854,-15.7927,0.945122
240.529,73.8471,6.14875,0,9.03401,2.29922,3.16143,-1.37195,-6.25,-8.41463,-10.004,1.17835,1.04662,-0.0609756,-16.128,0.97561
240.538,73.796,6.15881,0,9.10586,2.3088,3.29076,-0.823171,-7.65244,-9.14634,-10.0303,1.08973,1.11129,-0.823171,-16.311,1.03659
240.549,73.7243,6.19262,0,9.17053,2.44771,3.1734,-0.823171,-7.62195,-9.87805,-10.0327,1.01309,1.21906,-1.37195,-17.0732,1.21951
240.559,73.6514,6.20808,0,9.27831,2.46448,3.10874,-1.0061,-8.01829,-10.3049,-9.94891,0.874182,1.13284,-1.76829,-17.561,1.31098
240.569,73.5755,6.19995,0,9.27112,2.47166,3.14706,-0.365854,-9.26829,-10.6402,-9.83395,0.768801,1.02028,-2.2561,-16.0976,1.25
240.579,73.4969,6.17923,0,9.34537,2.52914,3.13508,-0.396341,-10.2439,-10.6402,-9.8124,0.555645,0.962798,-1.40244,-14.6646,0.945122
240.589,73.4221,6.15069,0,9.40764,2.53393,3.06323,0.0304878,-10.1829,-10.5488,-9.87706,0.433499,0.931663,-0.121951,-14.1463,0.701219
240.598,73.3503,6.09614,0,9.40524,2.52435,3.07281,0.792683,-9.7561,-10.4878,-9.86509,0.421523,0.811912,1.21951,-13.811,0.97561
240.609,73.2758,6.09358,0,9.40285,2.5507,2.96503,1.37195,-9.90854,-10.6098,-9.9058,0.467029,1.03465,2.62195,-13.872,1.09756
240.619,73.2051,6.13402,0,9.40524,2.54112,2.80696,1.46341,-9.42073,-10.4878,-9.96807,0.651445,1.23104,3.56707,-15.0305,1.52439
240.629,73.1242,6.21391,0,9.4244,2.66566,2.6441,1.61585,-8.35366,-10.3049,-9.98005,0.840652,1.41546,4.2378,-15.9756,1.98171
240.639,73.0485,6.31001,0,9.40764,2.63692,2.6441,1.37195,-7.71341,-10.2134,-9.94412,0.977168,1.49689,4.26829,-16.25,1.92073
240.648,72.979,6.41472,0,9.38129,2.65368,2.60818,1.31098,-5.57927,-9.45122,-9.83156,1.0586,1.53521,3.47561,-15.9756,1.61585
240.659,72.9056,6.52939,0,9.38369,2.75427,2.49561,0.97561,-3.53659,-8.84146,-9.73575,1.01309,1.58311,2.34756,-15.0305,0.853659
240.669,72.8451,6.63963,0,9.29268,2.70637,2.54112,-0.121951,-1.82927,-7.92683,-9.59684,0.883762,1.56155,1.40244,-14.4207,-0.121951
240.678,72.7942,6.72863,0,9.33579,2.67045,2.50519,-0.762195,2.07317,-7.62195,-9.50823,0.699346,1.47533,0.609756,-13.5671,-0.853659
240.689,72.7523,6.80418,0,9.41722,2.63452,2.57944,-1.43293,4.45122,-7.5,-9.43159,0.522114,1.42264,0.487805,-11.8902,-1.15854
240.699,72.7082,6.85946,0,9.44117,2.67524,2.6441,-2.10366,6.85976,-7.40854,-9.41482,0.392783,1.3484,0.670732,-9.96951,-1.4939
240.709,72.6786,6.91704,0,9.46751,2.51477,2.68482,-2.46951,8.68902,-7.95732,-9.40764,0.251477,1.36756,0.853659,-8.41463,-1.70732
240.719,72.6455,7.00609,0,9.45314,2.48603,2.77822,-2.56098,9.42073,-8.65854,-9.45314,0.225132,1.51844,1.76829,-7.59146,-1.82927
240.729,72.5896,7.1085,0,9.41003,2.60818,3.06802,-2.2561,9.02439,-9.5122,-9.5226,0.308958,1.60227,2.5,-7.80488,-0.914634
240.739,72.5135,7.21971,0,9.36453,2.70637,3.11353,-2.16463,8.29268,-10.3963,-9.56092,0.445474,1.66454,3.14024,-7.62195,-0.365854
240.749,72.4334,7.35037,0,9.31423,2.70877,3.13029,-1.85976,7.13415,-10.7622,-9.60882,0.64905,1.7771,2.92683,-7.7439,0.670732
240.759,72.3437,7.51828,0,9.14897,2.76385,3.18777,-1.76829,4.93902,-10.7012,-9.61121,0.764011,1.96392,2.46951,-7.65244,1.37195
240.769,72.2507,7.67387,0,9.03401,2.70877,3.11592,-1.46341,5.36585,-11.4634,-9.63995,0.864602,1.94476,2.19512,-7.83537,1.92073
240.779,72.1439,7.82036,0,8.86157,2.72553,3.21651,-0.823171,4.54268,-12.2256,-9.60882,0.811912,1.9256,1.70732,-7.62195,2.0122
240.789,72.0282,7.97395,0,8.75859,2.79259,3.25723,0.121951,3.68902,-12.1646,-9.62319,0.725691,1.98547,1.06707,-7.53049,2.2561
240.799,71.9085,8.14518,0,8.658,2.79738,3.3171,1.70732,2.34756,-12.3476,-9.53697,0.665815,2.07169,1.18902,-7.31707,2.10366
240.809,71.7884,8.31952,0,8.66758,2.92911,3.33866,3.53659,0.640244,-11.0671,-9.46033,0.548459,2.09804,0.701219,-6.98171,2.16463
240.819,71.6692,8.49102,0,8.85199,3.08479,3.26441,4.81707,-1.15854,-10.122,-9.38369,0.455054,2.09804,0.884146,-6.55488,2.2561
240.829,71.5601,8.66275,0,9.08191,3.14945,3.15185,5.88415,-2.31707,-9.5122,-9.34537,0.407153,2.1172,0.0609756,-5.73171,2.0122
240.839,71.4554,8.81724,0,9.1825,3.18538,3.11113,6.43293,-3.41463,-9.26829,-9.33339,0.344883,2.0669,0.0609756,-5.2439,2.2561
240.849,71.3427,8.99899,0,9.2328,3.25962,2.99138,6.34146,-4.7561,-9.66463,-9.30705,0.383203,2.19863,0.0609756,-4.81707,2.80488
240.859,71.221,9.18966,0,9.15137,3.33147,3.03928,6.70732,-4.60366,-9.66463,-9.35016,0.423918,2.28485,-0.0914634,-5.30488,3.78049
240.869,71.089,9.40436,0,9.06754,3.45122,2.94108,6.06707,-3.90244,-9.26829,-9.36692,0.464634,2.42136,-0.0304878,-4.84756,3.96341
240.879,70.9471,9.63068,0,8.95258,3.54463,2.86444,5.15244,-3.78049,-8.9939,-9.38129,0.536484,2.50759,0.121951,-4.5122,4.26829
240.889,70.8084,9.86035,0,8.89989,3.54942,2.85247,4.69512,-0.121951,-8.65854,-9.3789,0.56762,2.55549,-0.701219,-4.26829,4.08537
240.899,70.6801,10.0962,0,8.79451,3.559,2.89318,3.93293,0.548781,-7.28659,-9.35495,0.543669,2.59141,-1.06707,-3.65854,3.84146
240.909,70.561,10.3366,0,8.73943,3.54942,2.90276,3.41463,2.2561,-6.46341,-9.35255,0.555645,2.62255,-1.98171,-3.20122,3.14024
240.919,70.4409,10.5562,0,8.78972,3.66198,2.85247,2.68293,3.65854,-5.73171,-9.36692,0.534089,2.55309,-2.62195,-2.83537,2.9878
240.929,70.3264,10.7823,0,8.81128,3.69312,2.86923,2.22561,4.54268,-5.12195,-9.25436,0.555645,2.49082,-3.17073,-2.22561,2.43902
240.939,70.219,10.9977,0,8.82086,3.73144,2.886,1.12805,5,-4.14634,-9.26633,0.524509,2.49322,-4.02439,-2.19512,2.19512
240.949,70.1177,11.2252,0,8.76338,3.7051,3.00575,0.213415,5.09146,-3.65854,-9.24957,0.483794,2.62015,-4.45122,-2.53049,2.16463
240.959,70.0221,11.434,0,8.72506,3.69791,2.99856,-0.426829,5.73171,-2.7439,-9.26394,0.440684,2.62973,-5.18293,-2.83537,2.10366
240.968,69.9279,11.5974,0,8.63644,3.66677,3.11832,-0.335366,4.57317,-2.28659,-9.30465,0.320933,2.51238,-5.12195,-2.9878,2.07317
240.979,69.8309,11.7508,0,8.58854,3.59971,3.12071,-0.426829,4.32927,-1.18902,-9.30465,0.258662,2.50519,-4.90854,-3.04878,2.43902
240.989,69.7254,11.8994,0,8.59573,3.57097,3.18298,-0.762195,3.68902,-0.579268,-9.23759,0.227527,2.50998,-4.5122,-3.41463,2.7439
240.999,69.6571,12.0301,0,8.66039,3.5111,3.16622,-0.884146,2.89634,0.579268,-9.24478,0.251477,2.47406,-3.68902,-3.65854,3.14024
241.009,69.6349,12.1331,0,8.70829,3.43925,3.19256,-0.945122,2.71341,1.37195,-9.24957,0.222737,2.38783,-3.20122,-3.84146,3.53659
241.019,69.6311,12.2187,0,8.73464,3.41051,3.19496,-1.0061,2.80488,2.04268,-9.31663,0.263452,2.3543,-2.28659,-3.96341,3.53659
241.029,69.642,12.2885,0,8.77535,3.37698,3.16861,-0.884146,2.0122,2.68293,-9.37411,0.220342,2.32077,-1.43293,-4.26829,3.53659
241.039,69.6645,12.3332,0,8.84241,3.3674,3.14466,-0.670732,2.37805,3.35366,-9.38129,0.222737,2.22737,-0.914634,-4.11585,3.59756
241.049,69.6894,12.3507,0,8.84241,3.35303,3.15424,-0.27439,2.16463,3.47561,-9.45314,0.232317,2.13636,-0.457317,-3.81098,3.90244
241.059,69.7279,12.3718,0,8.88313,3.28597,3.1255,-0.396341,2.0122,3.90244,-9.49865,0.270637,2.1651,0.213415,-3.75,3.71951
241.069,69.7752,12.3896,0,8.92863,3.25004,3.09437,-0.335366,2.10366,4.26829,-9.56331,0.289797,2.16749,0.884146,-3.20122,3.93293
241.079,69.8271,12.4124,0,8.96216,3.19735,3.1279,-0.304878,1.79878,4.05488,-9.59205,0.306563,2.19863,0.731707,-3.20122,4.32927
241.089,69.89,12.4176,0,8.98611,3.11113,3.14227,-0.609756,1.46341,4.17683,-9.64714,0.335303,2.14115,0.945122,-2.65244,4.54268
241.099,69.9592,12.4104,0,8.99809,3.05604,3.15424,-0.365854,1.21951,4.2378,-9.64714,0.407153,2.09564,0.487805,-2.22561,4.39024
241.109,70.0327,12.3795,0,9.01246,2.98419,3.12311,-0.579268,1.12805,3.87195,-9.64474,0.459844,2.019,0.27439,-1.67683,4.39024
241.119,70.1113,12.3567,0,9.06036,2.95066,3.09916,-0.731707,1.15854,3.96341,-9.68067,0.467029,2.06451,-0.27439,-0.914634,4.08537
241.129,70.1865,12.3075,0,9.07712,2.92911,3.02012,-0.731707,0.823171,3.35366,-9.69983,0.500559,2.00703,-0.762195,-0.701219,4.08537
241.139,70.2629,12.2085,0,9.11065,2.88839,3.04886,-0.823171,1.15854,2.83537,-9.69264,0.471819,1.93757,-1.31098,0.182927,4.02439
241.149,70.3451,12.1575,0,9.137,2.84768,3.04646,-0.945122,1.21951,3.07927,-9.69504,0.419128,1.97589,-1.46341,0.731707,3.87195
241.159,70.4292,12.0822,0,9.16574,2.80457,3.08,-1.15854,1.79878,2.53049,-9.71899,0.337698,1.8753,-1.85976,1.21951,3.71951
241.169,70.5145,11.9817,0,9.15376,2.77343,3.06323,-1.09756,2.07317,2.28659,-9.66151,0.285007,1.74357,-1.64634,1.67683,3.68902
241.179,70.5995,11.9013,0,9.16095,2.76385,3.14227,-1.15854,2.40854,1.89024,-9.63277,0.217947,1.74357,-1.46341,2.46951,4.02439
241.189,70.6878,11.8278,0,9.15376,2.7399,3.07042,-0.945122,2.77439,1.55488,-9.62079,0.217947,1.7316,-1.03659,3.20122,4.11585
241.199,70.7841,11.7757,0,9.13221,2.70637,3.05604,-0.945122,3.07927,1.15854,-9.63516,0.249082,1.80105,-0.853659,3.78049,4.14634
241.209,70.8808,11.7135,0,9.10347,2.72553,3.1255,-1.0061,2.80488,0.792683,-9.64235,0.261057,1.74597,-0.396341,4.39024,4.02439
241.219,70.9942,11.6418,0,9.07233,2.71356,3.16382,-0.579268,3.17073,0.304878,-9.63756,0.323328,1.69088,-0.304878,5.12195,4.5122
241.229,71.1129,11.5759,0,9.06515,2.71116,3.1758,-0.518293,2.62195,-0.0914634,-9.61361,0.340093,1.69807,0.182927,5.88415,4.78659
241.239,71.194,11.5188,0,9.01725,2.74469,3.19256,-0.335366,2.22561,-0.396341,-9.63995,0.337698,1.7292,0.0304878,6.31098,5.03049
241.249,71.2518,11.4747,0,9.00527,2.77583,3.21891,0.0609756,1.79878,-0.640244,-9.59205,0.364043,1.76752,0.0609756,6.52439,4.93902
241.259,71.2948,11.4359,0,8.94061,2.78062,3.23088,-0.335366,1.79878,-0.884146,-9.59684,0.387993,1.78429,0.121951,7.40854,5.15244
241.269,71.3128,11.4119,0,8.8975,2.83331,3.23088,-0.243902,1.31098,-1.34146,-9.60642,0.411943,1.84417,-0.213415,7.46951,5.15244
241.279,71.324,11.3976,0,8.943,2.86923,3.20454,-0.0914634,1.37195,-1.46341,-9.59205,0.404758,1.88009,-0.548781,7.56098,5.09146
241.289,71.3262,11.381,0,8.93103,2.91234,3.19256,-0.365854,0.884146,-1.52439,-9.64474,0.395178,1.8777,-0.762195,7.5,5.21341
241.299,71.3196,11.375,0,8.90468,2.9818,3.21172,-0.396341,0.487805,-1.18902,-9.6663,0.399968,1.9256,-0.853659,7.40854,5.30488
241.309,71.305,11.3816,0,8.90708,3.01772,3.17819,-0.426829,0.670732,-1.40244,-9.69264,0.402363,1.98547,-1.58537,7.07317,5.51829
241.319,71.2855,11.3791,0,8.93103,3.07042,3.2213,-0.426829,0.853659,-1.12805,-9.72138,0.330513,1.95194,-1.58537,7.0122,4.96951
241.329,71.262,11.371,0,8.8975,3.09197,3.24525,-0.457317,1.03659,-0.762195,-9.70701,0.287402,1.9232,-1.82927,6.79878,5.36585
241.339,71.2285,11.3713,0,8.91905,3.15424,3.22849,-0.365854,0.396341,-0.823171,-9.69504,0.217947,1.95673,-1.76829,6.12805,5.39634
241.348,71.2019,11.3878,0,8.96935,3.14466,3.17101,-0.27439,0.0914634,-0.457317,-9.72378,0.184417,2.03337,-1.64634,5.33537,5.30488
241.359,71.1688,11.3863,0,8.95258,3.15664,3.16382,-0.670732,0.335366,0,-9.72617,0.179626,1.95673,-1.37195,4.90854,5.39634
241.369,71.1332,11.3949,0,8.93582,3.16861,3.17819,-0.914634,0.0914634,-0.0914634,-9.7142,0.196392,1.99745,-1.64634,4.45122,5.27439
241.378,71.0937,11.4246,0,8.89989,3.19256,3.11832,-1.15854,-0.0304878,0.213415,-9.7118,0.201182,2.08367,-1.70732,3.17073,5.4878
241.388,71.0648,11.415,0,8.88792,3.17819,3.13987,-1.4939,0.487805,0.426829,-9.72617,0.239502,1.93039,-1.18902,2.46951,5.64024
241.399,71.0436,11.4243,0,8.85439,3.15664,3.17819,-1.76829,0.0914634,0.609756,-9.69983,0.239502,1.99505,-1.98171,2.19512,5.85366
241.409,71.0368,11.43,0,8.85678,3.11592,3.15424,-1.37195,0,0.853659,-9.70462,0.198787,1.98068,-1.79878,1.52439,5.91463
241.419,71.0404,11.4249,0,8.88552,3.11113,3.19496,-1.37195,0.213415,1.37195,-9.75731,0.155676,1.95913,-2.16463,1.12805,6.28049
241.429,71.0499,11.4102,0,8.92863,3.0776,3.21651,-1.58537,0.487805,1.15854,-9.79563,0.134121,1.94476,-1.95122,0.640244,6.12805
241.439,71.0623,11.3553,0,9.01725,3.09437,3.18059,-1.06707,0.609756,1.25,-9.80521,0.114961,1.88009,-2.13415,0.0914634,6.37195
241.449,71.09,11.3156,0,9.07712,3.02491,3.18298,-0.945122,0.27439,1.43293,-9.90101,0.165256,1.88728,-2.04268,-0.640244,6.70732
241.458,71.1155,11.2607,0,9.10586,3.04407,3.17101,-1.28049,0.152439,1.43293,-9.84114,0.227527,1.82021,-2.10366,-0.884146,6.79878
241.469,71.146,11.1973,0,9.09149,3.00096,3.14466,-1.55488,0,1.37195,-9.83874,0.268242,1.7771,-2.34756,-1.03659,6.58537
241.478,71.1867,11.1464,0,9.09149,2.9315,3.14945,-1.76829,-0.182927,1.37195,-9.80042,0.263452,1.77231,-2.43902,-1.52439,6.43293
241.489,71.2306,11.0721,0,9.03641,2.89079,3.15185,-1.95122,0.0304878,1.21951,-9.79563,0.268242,1.6837,-2.19512,-1.58537,6.28049
241.499,71.2811,10.9773,0,8.97893,2.83331,3.14945,-1.98171,0.0609756,1.12805,-9.76449,0.222737,1.60706,-1.89024,-1.52439,6.15854
241.509,71.3388,10.8992,0,8.98851,2.77822,3.20214,-1.85976,-0.0304878,1.43293,-9.79803,0.210762,1.62861,-1.58537,-1.79878,6.4939
241.519,71.4087,10.7991,0,9.01485,2.70398,3.24286,-1.37195,-0.609756,1.37195,-9.85072,0.170046,1.54239,-1.58537,-1.82927,6.40244
241.529,71.4893,10.7008,0,9.01246,2.66087,3.24046,-1.31098,-0.792683,0.97561,-9.83156,0.165256,1.52323,-1.21951,-1.92073,6.37195
241.539,71.5703,10.5858,0,9.09868,2.67284,3.19735,-1.18902,-0.396341,0.853659,-9.82437,0.146096,1.46575,-0.548781,-1.70732,6.58537
241.549,71.6624,10.4847,0,9.12981,2.63931,3.13987,-1.4939,0.243902,0.640244,-9.77647,0.143701,1.50168,-0.0609756,-1.55488,6.79878
241.558,71.7828,10.3826,0,9.14179,2.61297,3.19256,-1.46341,-0.0609756,0.0609756,-9.74773,0.150886,1.45138,0.518293,-1.89024,6.79878
241.569,71.8902,10.2638,0,9.10586,2.64171,3.21891,-1.28049,0.457317,0,-9.74054,0.184417,1.42983,0.884146,-1.37195,6.61585
241.579,71.9764,10.163,0,9.10826,2.5962,3.1758,-1.31098,0.518293,-0.457317,-9.72857,0.227527,1.48252,1.15854,-1.15854,6.4939
241.589,72.0348,10.0817,0,9.10347,2.57704,3.21172,-1.21951,0.182927,-1.09756,-9.76689,0.263452,1.49928,1.34146,-1.43293,6.25
241.599,72.0831,10.0183,0,9.06275,2.58902,3.21172,-1.18902,-0.121951,-1.25,-9.8076,0.246687,1.54,1.25,-1.4939,6.58537
241.608,72.1167,9.96771,0,9.01485,2.60578,3.23328,-0.823171,-0.426829,-1.58537,-9.85072,0.275427,1.57592,1.15854,-1.46341,6.52439
241.619,72.1286,9.90185,0,8.96935,2.65608,3.26202,-0.853659,-0.884146,-2.19512,-9.8579,0.265847,1.49928,1.15854,-1.82927,6.4939
241.629,72.1377,9.85882,0,8.98132,2.67045,3.26681,-0.426829,-1.34146,-2.2561,-9.85311,0.273032,1.54958,1.18902,-2.46951,6.85976
241.639,72.1347,9.82591,0,8.97414,2.72314,3.27878,-0.487805,-1.7378,-2.59146,-9.84832,0.244292,1.57353,0.914634,-2.9878,6.92073
241.649,72.1279,9.81038,0,9.01725,2.76146,3.2237,-0.0914634,-1.89024,-2.62195,-9.89862,0.263452,1.64538,0.823171,-3.35366,6.67683
241.659,72.1108,9.7966,0,9.0388,2.80696,3.15664,-0.396341,-1.67683,-3.10976,-9.93933,0.304167,1.65496,0.487805,-3.90244,6.82927
241.669,72.0861,9.8116,0,9.04359,2.85726,3.16382,-0.27439,-1.64634,-3.29268,-9.9561,0.296982,1.78189,0.365854,-4.93902,6.52439
241.679,72.0648,9.81336,0,9.05796,2.86205,3.18538,-0.243902,-1.34146,-3.01829,-9.99681,0.318538,1.7316,0.182927,-5.82317,6.7378
241.688,72.0412,9.82398,0,9.06515,2.89558,3.20693,-0.243902,-1.37195,-2.89634,-9.94891,0.337698,1.76273,0.304878,-6.82927,7.0122
241.699,72.0157,9.85264,0,9.06275,2.91953,3.18298,-0.27439,-1.52439,-2.83537,-9.91538,0.320933,1.83938,-0.0304878,-7.68293,7.2561
241.709,71.9975,9.87615,0,9.08191,2.90995,3.24525,-0.243902,-1.25,-2.37805,-9.84832,0.265847,1.80824,-0.0914634,-8.44512,7.65244
241.719,71.9858,9.91969,0,9.03401,2.8357,3.19256,0.0914634,-1.46341,-2.53049,-9.82197,0.234712,1.89686,0.548781,-9.05488,7.95732
241.729,71.9751,9.97521,0,9.03641,2.80936,3.14945,0.609756,-1.89024,-2.77439,-9.79084,0.174836,1.95194,0.884146,-9.42073,8.14024
241.739,71.9651,10.018,0,9.05796,2.7878,3.17101,1.34146,-2.0122,-3.04878,-9.79084,0.129331,1.90404,1.58537,-10.0915,8.23171
241.749,71.9466,10.0791,0,9.07473,2.85247,3.13748,2.22561,-2.46951,-3.17073,-9.7597,0.138911,1.98787,2.0122,-10.0915,8.2622
241.759,71.9269,10.1532,0,9.10826,2.89079,3.20693,2.59146,-2.71341,-2.9878,-9.75491,0.186812,2.05493,1.95122,-10.8841,8.14024
241.769,71.9041,10.2304,0,9.07952,2.89558,3.21891,2.56098,-3.01829,-3.17073,-9.76449,0.186812,2.08367,2.43902,-11.6159,8.14024
241.779,71.8795,10.3238,0,9.07712,2.89318,3.18298,2.10366,-3.56707,-3.41463,-9.76689,0.249082,2.16989,2.10366,-12.5,8.01829
241.789,71.8476,10.4377,0,9.0412,2.95306,3.09437,2.59146,-3.29268,-3.32317,-9.69025,0.308958,2.2609,2.07317,-13.4756,8.23171
241.799,71.8128,10.5754,0,9.03641,2.98898,3.05844,2.0122,-3.56707,-3.23171,-9.60163,0.371228,2.36628,1.64634,-14.5732,8.78049
241.809,71.7782,10.7416,0,9.02443,3.01293,3.08718,1.76829,-3.01829,-2.92683,-9.57289,0.407153,2.50998,1.25,-15.9451,8.78049
241.819,71.74,10.8967,0,8.95019,3.03449,3.06802,0.914634,-1.92073,-2.7439,-9.57289,0.404758,2.48843,0.731707,-17.6524,8.53659
241.829,71.7023,11.0158,0,8.83044,2.85486,3.15664,-0.762195,-1.67683,-4.57317,-9.56571,0.414338,2.35191,0.182927,-18.4451,8.01829
241.839,71.6575,11.1101,0,8.71308,2.77583,3.2237,-1.28049,-3.04878,-5.85366,-9.59445,0.431104,2.26808,-0.304878,-19.6037,7.77439
241.849,71.6209,11.1958,0,8.77056,2.60099,3.29076,-0.0914634,-4.87805,-7.46951,-9.63995,0.428708,2.25611,-0.884146,-20.7317,7.22561
241.859,71.551,11.2865,0,8.87355,3.05844,3.40811,3.07927,-6.43293,-5.82317,-9.67827,0.452659,2.30161,-1.85976,-21.9817,6.82927
241.868,71.465,11.3787,0,8.98611,3.4632,3.33387,5.06098,-9.5122,-3.07927,-9.75731,0.447869,2.34233,-3.01829,-23.0488,6.95122
241.879,71.4092,11.4668,0,9.08191,3.32908,3.37698,4.20732,-11.9207,-1.4939,-9.75731,0.431104,2.33993,-3.84146,-23.9939,7.28659
241.889,71.4129,11.5945,0,8.85918,2.80696,3.48475,4.45122,-13.5061,-2.13415,-9.72378,0.450264,2.52675,-3.78049,-25.122,7.59146
241.898,71.4266,11.7442,0,8.73703,2.61776,3.53026,5.7622,-16.8902,-2.92683,-9.72617,0.426313,2.65129,-4.2378,-25.9146,8.2622
241.909,71.441,11.8947,0,8.87115,2.58662,3.40572,7.13415,-19.4207,-3.53659,-9.62558,0.440684,2.65368,-4.11585,-26.3415,9.35976
241.919,71.4414,12.0463,0,8.93821,2.67284,3.31231,8.23171,-20.3963,-3.9939,-9.58487,0.399968,2.67524,-4.66463,-25.7927,10.1829
241.928,71.4296,12.1504,0,9.0891,2.82133,3.18059,8.53659,-22.7439,-3.96341,-9.57768,0.270637,2.48603,-4.96951,-25.3659,11.0061
241.939,71.4202,12.1486,0,9.20166,2.82612,3.28118,9.5122,-25.6098,-4.08537,-9.52978,0.158071,2.02379,-5.06098,-23.3841,11.128
241.949,71.4,12.1321,0,9.15376,2.94108,3.28597,10.8537,-30.2134,-3.68902,-9.56331,0.186812,1.96631,-4.39024,-22.6829,11.4024
241.959,71.3431,12.1467,0,8.87115,3.16861,2.96982,10.9451,-33.628,-3.53659,-9.63756,0.246687,2.1172,-3.53659,-22.3476,10.6098
241.969,71.2696,12.184,0,8.62207,3.25244,2.69919,9.78659,-37.9268,-2.77439,-9.83395,0.347278,2.26569,-3.20122,-23.0488,9.90854
241.979,71.197,12.2228,0,8.66997,3.24525,2.34233,7.9878,-35.122,-1.37195,-10.0471,0.450264,2.32796,-2.62195,-23.9329,8.53659
241.988,71.1001,12.2835,0,8.70829,3.27639,1.68849,5.03049,-24.4817,-0.640244,-10.0926,0.493374,2.44771,-1.7378,-25.122,7.46951
241.999,71.0265,12.3713,0,8.86157,3.23328,1.55676,1.0061,-14.939,-0.182927,-10.1285,0.471819,2.59381,-0.792683,-27.439,7.10366
242.009,71.0298,12.4496,0,9.16334,3.14706,1.65735,-1.95122,-9.05488,0.243902,-10.0782,0.361648,2.5507,-0.0304878,-29.4207,6.7378
242.019,71.097,12.5578,0,9.56331,2.94108,1.87051,-2.5,-1.76829,-0.426829,-9.82916,0.296982,2.63931,0.823171,-30.7622,6.64634
242.029,71.1558,12.7051,0,9.65193,2.77104,2.1172,-3.96341,-1.03659,-1.52439,-9.54655,0.239502,2.75906,1.4939,-32.0427,7.13415
242.039,71.2106,12.8924,0,9.79803,2.54351,2.37825,-4.60366,-1.67683,-3.47561,-9.2807,0.213157,2.886,1.61585,-32.5305,7.71341
242.049,71.2529,13.0892,0,9.78366,2.44052,2.38544,-4.08537,-0.97561,-5.4878,-9.10107,0.220342,2.90516,1.95122,-31.6463,7.65244
242.059,71.2572,13.2999,0,9.57289,2.5483,2.22737,-2.92683,0.0609756,-7.40854,-9.05796,0.246687,2.98898,2.43902,-29.9695,8.23171
242.069,71.246,13.5095,0,9.3789,2.58423,2.22018,-1.25,0.213415,-7.95732,-9.18969,0.376018,3.06562,2.10366,-29.1768,8.01829
242.079,71.2219,13.6968,0,9.36932,2.66566,2.31838,0.518293,1.4939,-8.32317,-9.31184,0.536484,3.04407,1.98171,-27.8659,7.83537
242.089,71.1835,13.8975,0,9.34776,2.75906,2.33754,1.82927,3.44512,-8.68902,-9.46991,0.622705,3.19256,1.67683,-26.7378,8.23171
242.099,71.1176,13.9858,0,9.13939,2.85965,2.22737,3.59756,4.60366,-9.66463,-9.7597,0.538879,2.79738,1.21951,-27.0732,7.46951
242.109,71.0368,14.0653,0,9.17532,2.94587,2.29443,3.81098,5.97561,-10.4573,-9.88425,0.500559,2.80696,1.70732,-28.2927,6.98171
242.119,70.9349,14.2241,0,9.08191,3.02251,2.40699,4.2378,6.15854,-11.5244,-9.93933,0.467029,3.21412,1.76829,-31.6463,7.04268
242.129,70.8169,14.4334,0,8.90708,2.94348,2.31838,4.5122,8.68902,-13.628,-9.91059,0.464634,3.47517,2.04268,-37.378,7.04268
242.139,70.6773,14.6583,0,8.8472,2.95785,2.31838,3.14024,10.9451,-15.6707,-9.77407,0.452659,3.53984,2.16463,-41.128,7.7439
242.148,70.5251,14.8755,0,8.73703,2.95785,2.48843,2.56098,12.8049,-16.7988,-9.51781,0.411943,3.45122,2.13415,-43.0183,8.53659
242.158,70.3764,15.1287,0,9.00767,3.06083,2.48843,3.10976,14.8476,-16.6159,-9.24238,0.414338,3.559,2.77439,-42.5,9.48171
242.169,70.2448,15.3764,0,9.55613,3.18777,2.5507,3.56707,15.5793,-15.8232,-8.98611,0.387993,3.48236,3.5061,-40.2134,10.3659
242.179,70.1221,15.6309,0,9.88185,3.34584,2.62255,3.62805,15,-14.6646,-8.78014,0.376018,3.47996,3.81098,-36.7988,10.9451
242.188,70.0105,15.9202,0,10.0591,3.365,2.43813,3.04878,13.872,-14.2073,-8.71787,0.438289,3.65959,2.77439,-33.75,11.4634
242.199,69.8931,16.1851,0,9.76449,3.24046,2.3064,1.21951,11.7378,-15.3049,-8.75619,0.445474,3.61887,1.15854,-30.8537,11.0671
242.209,69.7636,16.44,0,9.45793,3.15664,2.41657,0.365854,12.622,-16.5854,-8.95977,0.464634,3.70749,-0.396341,-28.7195,10.1829
242.219,69.6024,16.6658,0,9.06994,3.17101,2.7399,-0.609756,12.8963,-18.4146,-9.22801,0.416733,3.72905,-1.40244,-28.0183,8.96341
242.229,69.4136,16.8874,0,8.73943,3.12311,3.03688,-0.792683,11.1585,-20.7622,-9.43159,0.352068,3.83443,-1.98171,-28.1707,8.17073
242.238,69.2008,17.1044,0,8.59093,3.20693,3.18538,0.823171,7.28659,-21.9512,-9.5681,0.304167,3.90867,-2.40854,-29.1463,7.53049
242.249,68.9637,17.321,0,8.44244,3.42488,3.32908,2.92683,0.914634,-21.5854,-9.54176,0.241897,3.93741,-2.71341,-30.6402,7.56098
242.259,68.7214,17.5202,0,8.63405,3.81287,3.03928,3.35366,3.56707,-19.0244,-9.37171,0.170046,3.82245,-2.07317,-32.561,8.17073
242.269,68.4915,17.7366,0,8.59573,3.9901,2.98898,2.56098,1.37195,-16.0671,-9.14897,0.126936,3.8488,-0.97561,-34.5122,8.78049
242.279,68.2925,17.9906,0,8.48795,3.87275,2.96024,0.548781,0.762195,-14.1463,-8.92624,0.100591,3.96855,0.487805,-36.4634,9.35976
242.289,68.1338,18.2911,0,8.59333,3.62606,2.82852,-1.61585,1.18902,-13.811,-8.81607,0.129331,4.1841,1.15854,-38.4146,9.54268
242.298,67.995,18.5922,0,8.73703,3.56618,2.85007,-3.14024,2.07317,-13.4756,-8.72745,0.229922,4.20086,1.37195,-38.5671,9.48171
242.308,67.8556,18.8643,0,8.87594,3.58295,2.73511,-5.03049,2.53049,-14.2683,-8.63165,0.304167,4.07632,1.0061,-37.1341,8.96341
242.319,67.7174,19.1248,0,9.02443,3.6524,2.67284,-5.12195,2.89634,-14.3293,-8.56459,0.402363,4.04279,0.97561,-35.0305,7.59146
242.329,67.5584,19.3701,0,9.00288,3.89909,2.63213,-5.73171,2.28659,-13.9024,-8.55022,0.407153,4.01645,0.670732,-31.8598,5.79268
242.339,67.3911,19.6357,0,8.92145,4.03321,2.77104,-6.7378,1.4939,-13.2317,-8.52148,0.380808,4.14338,0.243902,-29.6037,3.96341
242.348,67.2431,19.9251,0,8.76098,3.8488,3.01293,-6.76829,0.335366,-12.8354,-8.5095,0.402363,4.29906,-0.304878,-28.3841,2.04268
242.359,67.107,20.2674,0,8.55501,3.67157,3.15185,-5.82317,-1.67683,-12.9268,-8.39694,0.433499,4.54575,-0.426829,-28.5976,1.21951
242.369,66.9759,20.6091,0,8.42328,3.61887,3.18777,-4.72561,-3.84146,-12.6524,-8.31551,0.438289,4.56251,-0.121951,-28.9634,1.37195
242.379,66.8643,20.9405,0,8.46879,3.59013,3.19975,-2.9878,-6.31098,-11.4939,-8.25803,0.419128,4.54575,0.762195,-29.3902,2.46951
242.388,66.7681,21.3688,0,8.61489,3.68833,3.23328,-1.4939,-10.3049,-9.72561,-8.16462,0.371228,5.02475,1.98171,-30.061,4.32927
242.399,66.6906,21.7818,0,8.79691,3.81527,3.17101,-0.335366,-13.0488,-7.46951,-8.13588,0.330513,5.01517,2.46951,-29.7256,5.30488
242.409,66.6469,22.2038,0,8.97893,3.6524,2.95306,-0.426829,-12.0732,-6.85976,-8.01134,0.270637,5.06547,2.31707,-26.9817,5.64024
242.419,66.6093,22.6295,0,8.88073,3.50631,2.78301,-0.914634,-9.69512,-7.53049,-7.83411,0.318538,5.05589,2.13415,-23.2927,5.51829
242.429,66.5857,23.0468,0,8.85439,3.31231,2.76625,-0.884146,-8.75,-8.29268,-7.66885,0.474214,4.99362,1.82927,-19.7561,5.27439
242.439,66.5567,23.4595,0,8.84241,3.39374,2.80936,0.487805,-9.32927,-7.89634,-7.5994,0.613125,5.00799,1.61585,-16.8293,5.64024
242.449,66.5128,23.8485,0,8.8472,3.61408,2.73032,2.53049,-9.57317,-6.98171,-7.58503,0.730481,4.96488,1.34146,-15.1524,6.0061
242.459,66.4401,24.2322,0,8.69871,3.93741,2.65847,4.90854,-8.10976,-5.64024,-7.69999,0.778381,5.08942,1.21951,-15.2134,6.12805
242.469,66.3593,24.6076,0,8.61728,4.15057,2.64889,7.37805,-6.82927,-3.62805,-7.87722,0.857417,5.2403,0.213415,-16.0671,5.85366
242.479,66.2859,24.977,0,8.59093,4.15057,2.57704,8.47561,-6.12805,-2.31707,-8.07122,0.862207,5.41274,-0.640244,-18.0488,5.60976
242.489,66.2165,25.3093,0,8.61489,4.13859,2.53393,7.92683,-4.35976,-1.52439,-8.21252,0.866997,5.38879,-1.4939,-19.5732,5.36585
242.499,66.1492,25.6355,0,8.60052,4.0859,2.53872,7.07317,-3.68902,-0.853659,-8.25324,0.835862,5.45106,-1.70732,-20.4573,5.91463
242.508,66.1131,25.9422,0,8.80409,4.02842,2.692,7.46951,-4.7561,-0.152439,-8.30593,0.744851,5.45106,-2.10366,-21.0061,6.31098
242.519,66.1066,26.2707,0,8.81846,3.9422,2.79738,8.68902,-6.03659,0.243902,-8.31311,0.541274,5.63548,-2.71341,-21.2805,7.40854
242.529,66.1302,26.5866,0,8.7993,3.81527,2.74948,9.2378,-7.59146,-0.0304878,-8.32269,0.435894,5.64267,-3.75,-22.1341,7.92683
242.539,66.1509,26.8995,0,8.78733,3.74102,2.56507,8.41463,-8.75,-0.853659,-8.28677,0.431104,5.66901,-5.09146,-22.5915,7.7439
242.549,66.1605,27.1843,0,8.86876,3.86317,2.40699,7.43902,-7.77439,-0.396341,-8.21252,0.534089,5.53489,-6.31098,-22.9878,7.89634
242.559,66.1775,27.4465,0,8.87594,3.86556,2.24174,6.76829,-5.85366,0.335366,-8.04487,0.60594,5.36484,-7.5,-22.0732,7.83537
242.569,66.1959,27.6777,0,8.97893,3.93981,2.17468,5.85366,-4.29878,1.52439,-8.01374,0.742456,5.2403,-8.32317,-20.7927,7.9878
242.579,66.2261,27.8822,0,9.03162,3.88712,2.22018,4.5122,-1.52439,1.76829,-7.96344,0.728086,5.12055,-8.56707,-20.122,7.7439
242.589,66.2767,28.0716,0,8.92863,3.69312,2.47166,3.41463,-1.15854,1.61585,-7.97542,0.55804,5.09421,-8.47561,-19.6646,6.85976
242.599,66.3321,28.2629,0,8.78733,3.62366,2.62494,3.65854,-1.34146,0.884146,-8.02571,0.342488,5.17324,-7.56098,-19.6341,6.21951
242.609,66.455,28.4483,0,8.66039,3.44164,2.70398,3.62805,-1.85976,-0.0609756,-7.97542,0.0862207,5.14929,-6.28049,-19.7561,5.15244
242.619,66.5429,28.6189,0,8.74901,3.36261,2.67763,4.08537,-3.07927,-0.853659,-7.99937,-0.0550855,5.12774,-5.06098,-19.3293,5.15244
242.628,66.5964,28.7661,0,8.96695,3.46799,2.52675,4.69512,-3.78049,-1.37195,-8.02332,-0.198787,5.06068,-3.01829,-18.7195,4.57317
242.639,66.6175,28.9288,0,9.01485,3.7506,2.53154,4.48171,-3.75,-0.731707,-8.03529,-0.215552,5.17564,-1.21951,-18.0793,4.11585
242.649,66.6541,29.0909,0,9.12502,3.78413,2.59381,4.29878,-4.54268,0.365854,-8.0329,-0.155676,5.20438,-0.152439,-17.0732,4.5122
242.659,66.6905,29.2511,0,9.06515,3.7506,2.55309,3.81098,-4.81707,0.823171,-8.11433,-0.0958008,5.28102,0.853659,-16.0061,4.96951
242.668,66.7332,29.4415,0,9.10107,3.71947,2.52196,3.17073,-3.44512,0.914634,-8.07601,0.0263452,5.44388,1.85976,-15.0305,5.88415
242.679,66.8244,29.6389,0,8.943,3.50391,2.56746,1.37195,-3.71951,0.243902,-8.03769,0.198787,5.49417,2.28659,-14.7256,6.82927
242.689,66.8911,29.8267,0,8.83044,3.365,2.62255,0.97561,-4.63415,-1.09756,-8.05445,0.251477,5.49657,2.0122,-14.4207,7.43902
242.699,66.9042,30.0142,0,8.68434,3.40093,2.64171,0.884146,-6.70732,-2.71341,-8.09517,0.273032,5.56124,1.85976,-14.7256,7.92683
242.709,66.8869,30.1821,0,8.62686,3.51828,2.62494,1.92073,-8.04878,-3.71951,-8.11912,0.292192,5.51333,1.67683,-15.2744,7.68293
242.719,66.8376,30.313,0,8.52387,3.73863,2.49561,2.07317,-9.69512,-3.81098,-8.15265,0.277822,5.37682,1.7378,-16.4024,7.10366
242.729,66.7809,30.4546,0,8.65081,3.87275,2.44052,2.13415,-10.122,-3.75,-8.21013,0.304167,5.49657,2.07317,-17.378,6.21951
242.739,66.7264,30.6023,0,8.85918,4.02842,2.37586,2.0122,-10.7012,-2.80488,-8.24126,0.306563,5.578,1.95122,-18.7805,6.0061
242.749,66.6816,30.7605,0,9.00288,4.07872,2.39502,1.85976,-11.5854,-1.82927,-8.21013,0.337698,5.64267,1.34146,-19.6951,5.21341
242.758,66.6225,30.9403,0,9.06754,4.18889,2.27527,0.945122,-10.122,-0.396341,-8.11433,0.438289,5.7241,0.243902,-20.6098,5.27439
242.768,66.5885,31.1332,0,9.00288,4.02603,2.01661,-1.18902,-8.44512,-0.243902,-8.01134,0.493374,5.75763,-0.884146,-21.5854,5.33537
242.779,66.6285,31.3389,0,9.02204,3.60929,1.96871,-3.07927,-5.70122,-1.12805,-7.84608,0.519719,5.74565,-1.95122,-22.4085,6.0061
242.789,66.6817,31.5732,0,9.05557,3.34345,1.99026,-2.92683,-5.03049,-2.22561,-7.81016,0.505349,5.9157,-3.47561,-23.3841,6.21951
242.798,66.7481,31.7869,0,9.20406,3.1758,1.8777,-1.67683,-4.11585,-2.86585,-7.92512,0.435894,5.93965,-4.54268,-23.9939,6.0061
242.808,66.8097,31.9646,0,9.53457,3.21172,1.84656,0.548781,-2.9878,-3.53659,-8.04248,0.373623,5.87738,-5.85366,-23.4756,5.70122
242.819,66.8595,32.1321,0,9.89622,3.30273,1.74597,2.13415,-0.609756,-4.66463,-8.09756,0.342488,5.90133,-6.0061,-22.2866,4.69512
242.829,66.8833,32.3212,0,9.85072,3.47757,1.84896,3.35366,1.12805,-5.15244,-8.07122,0.308958,6.03784,-5.15244,-21.6463,3.68902
242.839,66.891,32.4967,0,9.92017,3.7027,1.84656,4.39024,3.20122,-4.66463,-7.99697,0.191602,5.94923,-4.14634,-21.2805,3.01829
242.849,66.8902,32.6645,0,9.62558,3.6548,1.73639,4.35976,6.31098,-4.84756,-7.86524,-0.00479004,5.84864,-2.86585,-20.4878,2.86585
242.859,66.8821,32.8423,0,9.31184,3.4632,1.80584,3.96341,7.71341,-6.37195,-7.72633,-0.141306,5.83427,-1.55488,-19.4817,2.92683
242.869,66.8848,33.0353,0,9.20885,3.23567,2.01661,4.20732,9.11585,-7.40854,-7.64251,-0.270637,5.88935,-0.487805,-19.7561,3.01829
242.879,66.8765,33.241,0,8.97414,3.13508,2.39262,6.12805,7.46951,-8.71951,-7.64251,-0.280217,5.99952,0.396341,-19.939,3.44512
242.889,66.837,33.445,0,8.92384,3.34105,2.60339,7.13415,4.57317,-9.32927,-7.62335,-0.141306,6.01868,1.18902,-20.2744,3.17073
242.899,66.7519,33.6399,0,8.78972,3.62845,2.51238,7.43902,4.69512,-10.1829,-7.57545,0.0598755,5.97557,1.76829,-20.2744,3.81098
242.909,66.6242,33.8511,0,8.6101,4.00447,2.39023,5.88415,5.15244,-9.57317,-7.597,0.273032,6.12406,1.40244,-20.122,3.68902
242.919,66.4816,34.0836,0,8.59812,4.28709,2.56507,4.81707,5,-8.17073,-7.58263,0.421523,6.27735,1.0061,-20.8841,3.38415
242.929,66.33,34.3093,0,8.51429,4.46432,2.79499,2.92683,3.84146,-6.98171,-7.597,0.440684,6.3013,0.884146,-21.7683,3.04878
242.939,66.1746,34.5373,0,8.39933,4.55054,2.8836,0.792683,3.07927,-6.06707,-7.51318,0.361648,6.29411,1.40244,-23.0183,2.71341
242.949,66.018,34.7288,0,8.14546,4.45713,3.05365,-2.0122,0.823171,-6.0061,-7.48923,0.220342,6.11928,2.13415,-24.5427,2.31707
242.959,65.8347,34.8931,0,7.85806,4.41881,3.18298,-4.26829,-1.85976,-7.7439,-7.46288,0.0550855,5.98994,2.37805,-25.5183,2.04268
242.969,65.5778,35.0084,0,7.36947,4.8092,3.15424,-6.21951,-6.55488,-7.89634,-7.4054,-0.0790356,5.71691,3.71951,-27.7134,1.95122
242.979,65.3429,35.1113,0,7.3096,4.60323,3.22609,-8.56707,-10.2439,-8.07927,-7.32876,-0.191602,5.61393,6.0061,-30.7622,2.65244
242.989,65.204,35.2588,0,7.52755,4.04998,3.25962,-8.5061,-13.5366,-6.7378,-7.34552,-0.323328,5.87738,8.68902,-34.7256,3.65854
242.999,65.1111,35.4276,0,7.87961,3.97573,3.03928,-6.03659,-19.7866,-5.39634,-7.43654,-0.265847,6.09293,11.6463,-38.9024,4.32927
243.009,65.0326,35.6324,0,8.37299,4.28948,2.67763,-3.59756,-22.3171,-2.95732,-7.44372,0.0958008,6.33483,12.1951,-40.6402,5.54878
243.019,64.9561,35.8793,0,8.8496,4.45713,2.3567,-2.9878,-22.3476,-0.213415,-7.32397,0.486189,6.51685,11.5549,-41.3415,6.70732
243.029,64.9658,36.1319,0,9.11305,4.2775,2.0214,-3.56707,-19.6646,1.28049,-7.24972,0.809517,6.5408,10.4573,-40.8232,7.7439
243.039,65.0487,36.4105,0,9.50583,3.8943,1.78189,-4.69512,-14.2988,1.55488,-7.1635,1.06339,6.67252,9.42073,-40.2744,8.10976
243.049,65.1791,36.6745,0,9.55134,3.61887,1.9232,-3.65854,-14.0854,0.914634,-7.17308,1.12326,6.66055,8.59756,-40.0915,8.5061
243.059,65.3049,36.9384,0,9.54894,3.5111,1.86093,-2.56098,-14.6646,-0.945122,-7.24493,0.953218,6.78988,7.46951,-39.4207,7.59146
243.069,65.3786,37.2082,0,9.45554,3.5111,1.71244,-1.25,-11.5244,-2.37805,-7.32397,0.747246,6.96472,6.43293,-38.9329,6.12805
243.079,65.4412,37.471,0,9.15856,3.40572,1.56155,-1.46341,-9.81707,-3.01829,-7.30481,0.65384,6.96951,5.09146,-38.4756,4.32927
243.089,65.4823,37.7441,0,8.86157,3.37219,1.66214,-0.457317,-9.11585,-3.81098,-7.21859,0.677791,7.01501,2.95732,-37.4695,3.07927
243.099,65.5259,38.0099,0,9.00767,3.30992,1.84656,1.28049,-8.23171,-4.60366,-7.09644,0.785566,6.91921,1.43293,-36.8598,2.59146
243.108,65.5719,38.2746,0,9.17532,3.26441,1.93518,1.76829,-10.0915,-5.36585,-6.90963,0.905317,6.79467,0.579268,-35.122,3.07927
243.119,65.606,38.5154,0,9.55373,3.4153,1.63819,2.13415,-7.71341,-6.25,-6.96472,0.785566,6.76833,0.243902,-35.1524,3.75
243.129,65.6191,38.7267,0,9.58726,3.51349,1.83698,3.23171,-10.6707,-7.37805,-7.11081,0.56762,6.78988,0.731707,-35.2439,3.93293
243.139,65.6251,38.927,0,9.6184,3.51589,1.66693,2.28659,-3.90244,-8.17073,-7.03657,0.378413,6.70366,1.09756,-35.0915,3.2622
243.149,65.6686,39.1297,0,9.58487,3.23807,1.65017,0.792683,-2.86585,-7.22561,-6.93598,0.225132,6.66773,1.25,-35.4268,2.16463
243.159,65.6117,39.3202,0,8.97174,3.63085,2.11959,-0.457317,-2.40854,-10.4878,-6.85455,0.129331,6.56475,2.04268,-35.9756,0.884146
243.169,65.5069,39.5075,0,8.62446,3.83443,2.34472,-2.13415,-1.12805,-11.5549,-6.7348,0.122146,6.47374,3.29268,-36.5854,0.0609756
243.179,65.345,39.7336,0,8.33946,4.2296,2.43573,-4.39024,-3.32317,-11.6159,-6.62941,0.208367,6.6366,4.39024,-37.6524,-0.426829
243.189,65.0841,39.9464,0,7.81255,4.78764,2.40939,-6.09756,-4.20732,-12.6524,-6.62702,0.256267,6.60546,4.78659,-40.3963,-0.182927
243.199,64.7852,40.2036,0,7.27367,4.905,2.29443,-8.71951,-6.95122,-11.9817,-6.53122,0.354463,6.81862,5.42683,-42.3171,0.243902
243.209,64.4933,40.5074,0,7.23056,4.8547,2.34712,-11.4939,-13.5061,-12.1037,-6.56475,0.421523,7.20182,5.54878,-45.5793,0.945122
243.219,64.2664,40.8158,0,7.68801,4.52898,2.66805,-16.2195,-20.0305,-12.9573,-6.67971,0.368833,7.43414,6.55488,-47.622,1.85976
243.229,64.0909,41.1222,0,8.10714,4.2775,3.10874,-20.0305,-24.9085,-13.6585,-6.72282,0.366438,7.5491,6.25,-48.1098,2.28659
243.239,63.9178,41.4512,0,8.57177,4.37331,2.82373,-23.4146,-31.8598,-15.3659,-6.6845,0.356858,7.7431,6.52439,-47.622,2.40854
243.249,63.7612,41.7858,0,9.30944,4.59365,1.98547,-26.7683,-33.689,-15.6098,-6.60546,0.301772,7.77902,7.2561,-47.561,2.80488
243.259,63.627,42.133,0,9.7118,4.62478,2.03337,-28.2927,-32.8659,-15.2744,-6.44021,0.186812,7.76226,8.2622,-47.439,3.38415
243.269,63.5506,42.4725,0,10.0974,4.27271,1.93278,-31.0671,-28.3841,-14.8171,-6.36596,-0.0862207,7.71436,9.93902,-47.7744,3.53659
243.279,63.5126,42.7877,0,10.1573,3.83203,1.57832,-31.3415,-25.0915,-15.6707,-6.32046,-0.323328,7.58503,12.3171,-47.8963,2.71341
243.288,63.4626,43.106,0,9.97047,3.74342,1.30768,-30.3354,-20.3354,-17.1646,-6.21508,-0.416733,7.56347,14.7866,-47.6524,1.92073
243.299,63.3587,43.456,0,9.137,3.94699,0.797541,-29.7256,-21.372,-17.0732,-6.13125,-0.174836,7.76465,15.8537,-48.2317,1.43293
243.309,63.275,43.8469,0,9.78126,4.0883,-0.165256,-29.7561,-11.9207,-16.6159,-6.08335,0.251477,8.09756,14.8476,-49.2073,1.03659
243.319,63.2222,44.2502,0,9.45075,3.69073,0.656235,-21.0671,-16.189,-16.4024,-6.09053,0.656235,8.31551,12.561,-50.6707,1.34146
243.329,63.1861,44.6478,0,9.45793,3.42967,0.926873,-11.189,-19.4817,-17.6524,-6.08095,0.962798,8.38257,10.5793,-50.4878,2.2561
243.339,63.1324,45.0498,0,9.79563,3.59971,0.6251,-6.7378,-23.811,-19.0244,-6.12646,1.02028,8.6053,8.62805,-50.061,2.2561
243.349,63.0715,45.4497,0,10.3632,3.59971,0.718506,-4.90854,-20.122,-21.9512,-6.21268,0.910107,8.84002,6.70732,-50.2134,1.76829
243.359,63.0164,45.8332,0,10.5716,3.39853,0.637075,-4.32927,-12.378,-24.2073,-6.251,0.708926,8.89031,5.03049,-49.5427,-0.426829
243.369,62.9694,46.2541,0,10.6051,3.23567,0.740061,-2.53049,-5.94512,-25.2439,-6.05461,0.541274,9.05317,3.23171,-47.7134,-2.53049
243.379,62.8998,46.7148,0,10.0735,3.1758,1.41546,1.58537,-4.20732,-26.5549,-5.7241,0.438289,9.0412,1.98171,-45.8232,-4.17683
243.389,62.7902,47.2084,0,10.21,3.68594,1.02028,4.17683,-3.78049,-25.9756,-5.42472,0.416733,9.01485,0.609756,-43.4756,-4.72561
243.398,62.6245,47.7711,0,10.1022,4.21763,1.00591,6.0061,0.945122,-26.189,-5.03673,0.435894,9.16574,-0.731707,-42.0732,-3.87195
243.409,62.4102,48.3281,0,9.38608,4.426,1.28613,6.58537,1.70732,-26.2195,-4.87386,0.296982,9.02922,-1.70732,-39.8171,-2.46951
243.419,62.1432,48.8899,0,8.63644,4.62718,1.7292,6.70732,-1.37195,-26.0366,-4.8068,0.170046,9.16334,-1.92073,-39.1768,-1.28049
243.428,61.8553,49.4572,0,8.49034,4.84033,1.96631,5.36585,-1.34146,-25.6402,-4.65831,0.0479004,9.15376,-2.0122,-38.1707,-0.97561
243.439,61.5675,50.0179,0,8.65321,5.01757,2.20102,1.82927,-4.63415,-25.3659,-4.51701,0.0143701,9.03401,-1.55488,-36.4634,-1.18902
243.449,61.3168,50.5945,0,9.22801,5.00559,2.09085,-2.22561,-0.0304878,-25.4878,-4.33259,0.0574805,9.04599,-0.27439,-34.3902,-1.64634
243.459,61.0381,51.186,0,9.14179,5.15408,2.46687,-3.35366,-3.2622,-26.9512,-4.14099,0.0383203,9.03401,1.28049,-31.7073,-1.70732
243.468,60.7628,51.7659,0,9.07473,4.92177,2.36388,-4.42073,-5.39634,-29.0854,-4.09309,0.0862207,9.06036,2.56098,-28.8415,-1.79878
243.478,60.4146,52.3454,0,8.47837,5.13492,2.22737,-6.76829,-6.7378,-31.5244,-4.00687,0.193997,9.11544,3.20122,-25.8841,-1.43293
243.489,60.1014,52.9166,0,8.53585,4.82357,2.26569,-7.68293,-7.7439,-32.1951,-3.87993,0.273032,8.9909,3.93293,-22.378,-0.457317
243.499,59.7804,53.4783,0,8.04008,4.59844,2.11959,-7.65244,-10.4268,-33.0183,-3.82006,0.399968,9.00048,4.72561,-20.122,0.152439
243.509,59.4874,54.0505,0,8.26282,4.55293,1.96631,-7.28659,-10.6098,-32.6829,-3.64282,0.479004,8.943,5.06098,-18.0793,0.914634
243.518,59.1539,54.607,0,8.2245,5.00799,1.89207,-7.37805,-16.7988,-32.3476,-3.52307,0.522114,8.72985,5.39634,-16.311,1.37195
243.529,58.8119,55.099,0,8.08798,5.00799,1.7771,-8.53659,-17.1951,-33.0183,-3.6548,0.486189,8.59573,6.12805,-13.5671,1.12805
243.539,58.493,55.5512,0,8.33227,4.96488,1.47773,-8.17073,-17.1341,-33.3537,-3.77695,0.416733,8.66997,7.07317,-11.4329,0.731707
243.549,58.184,55.9594,0,8.26761,4.86907,1.76273,-6.46341,-22.7439,-33.5976,-3.98531,0.380808,8.87115,6.89024,-10.3963,0.121951
243.559,57.8946,56.3621,0,9.11065,5.16606,1.32445,-5.2439,-19.7866,-34.1463,-4.0404,0.565225,9.10586,6.46341,-10.9146,0.518293
243.569,57.5921,56.8037,0,9.21364,5.43669,1.3005,-5.79268,-13.5061,-34.0549,-3.86077,0.773591,9.29986,5.18293,-12.0427,1.46341
243.579,57.2831,57.2493,0,8.84002,5.44627,1.35079,-4.84756,-11.8293,-33.1098,-3.7506,0.840652,9.2807,3.41463,-12.5915,2.7439
243.589,56.9914,57.6682,0,8.61968,5.30257,1.14242,-3.78049,-8.68902,-32.0427,-3.75779,0.890947,9.19448,2.04268,-11.4329,3.78049
243.599,56.7147,58.0765,0,8.39454,5.19001,1.00591,-2.43902,-6.64634,-30.8537,-3.70989,0.866997,9.14897,0.701219,-9.96951,4.14634
243.609,56.4436,58.4494,0,8.06643,5.02715,1.06339,0.640244,-7.16463,-30.4268,-3.69791,0.876577,8.90468,-0.487805,-7.86585,4.5122
243.619,56.1694,58.8051,0,8.11672,5.04152,1.09931,2.95732,-8.20122,-31.4634,-3.69073,0.797541,8.85678,-0.304878,-7.04268,4.5122
243.629,55.8867,59.1498,0,8.4137,5.26904,1.18793,4.02439,-6.46341,-32.4695,-3.71228,0.730481,8.9454,-0.640244,-7.80488,4.29878
243.639,55.5773,59.4821,0,8.33227,5.48938,1.1065,5.15244,-3.20122,-33.0793,-3.73384,0.713716,9.01246,-1.46341,-8.90244,4.29878
243.649,55.2318,59.812,0,7.82213,5.62351,1.27176,7.34756,0.731707,-32.622,-3.67157,0.716111,8.97893,-2.89634,-10.3049,4.26829
243.659,54.8911,60.1284,0,7.75268,5.74086,1.33882,9.02439,2.31707,-31.189,-3.57097,0.747246,8.72985,-4.32927,-9.60366,4.60366
243.668,54.5569,60.4567,0,7.75986,5.85343,1.29092,10.0305,2.83537,-30.1829,-3.44883,0.799937,8.69871,-5.33537,-9.11585,5.45732
243.679,54.2583,60.7731,0,7.97781,5.73607,1.27655,10.122,4.2378,-29.9085,-3.45841,0.728086,8.73464,-5.85366,-8.96341,6.25
243.689,53.9585,61.0636,0,7.90356,5.71452,1.22625,10.1524,5.7622,-30.3354,-3.50391,0.632285,8.69871,-6.03659,-9.05488,6.79878
243.699,53.6422,61.3168,0,7.63532,5.68338,1.45617,10.9756,5.06098,-31.0061,-3.57816,0.433499,8.60052,-5.79268,-8.81098,7.07317
243.709,53.3289,61.5487,0,7.6928,5.74326,1.64298,12.1037,7.65244,-31.189,-3.59013,0.337698,8.5095,-5.27439,-9.14634,6.98171
243.719,52.9874,61.7719,0,7.60179,5.99952,1.70046,11.25,8.78049,-31.5549,-3.54942,0.277822,8.41849,-3.96341,-8.87195,6.89024
243.729,52.6303,61.9971,0,7.57305,6.35159,1.80345,10.6402,9.17683,-30.3659,-3.48236,0.265847,8.37059,-2.83537,-9.02439,6.95122
243.738,52.2732,62.2269,0,7.36708,6.37794,1.70765,9.54268,11.3415,-29.2683,-3.44643,0.285007,8.42568,-2.46951,-8.87195,7.10366
243.749,51.9319,62.4322,0,7.06052,6.13843,1.80345,10.6098,7.40854,-28.1402,-3.47038,0.320933,8.32269,-2.13415,-8.75,7.40854
243.759,51.623,62.6581,0,7.07968,5.89175,1.82261,9.7561,5.51829,-28.0488,-3.36021,0.435894,8.35383,-2.22561,-8.17073,7.83537
243.769,51.3448,62.8772,0,7.09644,5.66901,1.81782,11.0061,2.0122,-27.8963,-3.35782,0.498164,8.37059,-1.67683,-7.71341,8.59756
243.779,51.0681,63.0873,0,7.31439,5.90133,1.51844,10.4268,3.65854,-27.7439,-3.37219,0.502954,8.40173,-1.40244,-7.28659,9.20732
243.788,50.7855,63.2756,0,7.51078,6.24382,1.71962,7.9878,4.26829,-27.1951,-3.44164,0.502954,8.43047,-0.640244,-7.13415,9.69512
243.799,50.4842,63.4359,0,7.18506,6.31806,1.8753,7.43902,1.67683,-26.4329,-3.53505,0.407153,8.44005,0.152439,-6.92073,9.69512
243.809,50.2144,63.5895,0,7.58024,6.38991,1.61664,7.07317,8.23171,-26.2805,-3.59732,0.289797,8.58615,0.884146,-7.07317,9.29878
243.819,49.9223,63.737,0,7.17069,6.3971,1.79626,8.20122,2.16463,-25.8232,-3.61887,0.287402,8.63884,1.09756,-7.46951,9.08537
243.829,49.6409,63.8956,0,7.18745,6.43063,1.74118,7.56098,0.97561,-25.1524,-3.59013,0.376018,8.7538,-0.152439,-7.59146,9.87805
243.839,49.3919,64.0446,0,7.4557,6.45937,1.43701,7.56098,2.65244,-24.2988,-3.6045,0.490979,8.7514,-1.21951,-8.10976,10.6098
243.849,49.1518,64.1897,0,7.34792,6.40907,1.39869,7.68293,1.06707,-23.5061,-3.59732,0.570015,8.75619,-1.85976,-7.7439,11.4634
243.858,48.9391,64.3128,0,7.4533,6.29651,1.3963,7.16463,2.31707,-23.0488,-3.6524,0.56283,8.71308,-1.76829,-7.80488,12.0122
243.869,48.7317,64.4156,0,7.47246,6.24382,1.14242,5.79268,4.93902,-23.5671,-3.72426,0.433499,8.71787,-1.25,-7.80488,11.7988
243.879,48.5247,64.5182,0,7.50599,6.28693,1.03225,6.25,5.4878,-23.811,-3.78892,0.277822,8.90947,-0.27439,-8.38415,11.1585
243.889,48.2914,64.6181,0,7.39343,6.54559,1.17595,7.37805,5.27439,-23.7195,-3.76737,0.174836,8.87355,0.518293,-9.35976,10.9451
243.899,48.0504,64.7396,0,7.38864,6.66055,1.25978,9.69512,4.45122,-23.9329,-3.73623,0.155676,9.08191,0.823171,-9.72561,11.1585
243.909,47.7992,64.8606,0,7.43893,6.89526,1.10889,10.5488,3.81098,-23.8415,-3.71228,0.141306,9.07233,0.426829,-9.69512,11.4939
243.919,47.5477,64.9783,0,7.3551,7.00783,1.18553,11.2805,3.04878,-22.7744,-3.70989,0.198787,9.08431,0.609756,-9.48171,12.1646
243.929,47.334,65.0878,0,7.52515,6.79467,1.19032,11.5854,3.62805,-22.561,-3.74581,0.294587,9.13221,0.579268,-9.08537,13.0183
243.938,47.1145,65.1789,0,7.28565,6.68929,1.19511,11.2805,3.93293,-22.622,-3.85838,0.349673,9.24238,0.518293,-9.57317,13.2927
243.949,46.9354,65.2531,0,7.68083,6.60546,0.912502,9.84756,8.87195,-22.7439,-3.87035,0.376018,9.12023,0.640244,-9.45122,12.8354
243.959,46.7137,65.3323,0,7.21619,6.71324,1.13284,10.1829,5.7622,-22.8963,-3.88233,0.438289,9.23759,0.0609756,-9.57317,12.3171
243.969,46.5032,65.4259,0,7.5491,6.83539,0.58678,10.2439,13.689,-23.7805,-3.79611,0.462239,9.2328,-0.487805,-9.60366,11.7683
243.979,46.2731,65.5168,0,7.20661,6.7324,0.919688,10.4573,13.2012,-24.3902,-3.78892,0.541274,9.22562,-1.46341,-9.54268,11.25
243.989,46.0502,65.6207,0,7.24972,6.68929,0.852627,12.2866,10.5793,-24.8476,-3.74102,0.560435,9.30226,-1.89024,-10,10.9451
243.999,45.8111,65.7128,0,7.17308,6.85455,0.984353,13.3537,9.48171,-24.9085,-3.7506,0.467029,9.2352,-1.76829,-9.93902,10.3049
244.009,45.5779,65.7833,0,7.31918,7.13476,0.958008,13.4146,10.122,-23.628,-3.83922,0.287402,9.24478,-1.4939,-9.17683,9.14634
244.019,45.3517,65.8609,0,7.45809,7.15153,1.20709,12.2561,12.2866,-24.3598,-3.83682,0.160466,9.35495,-1.46341,-8.38415,7.9878
244.029,45.1004,65.9271,0,7.17308,7.13716,1.41306,11.6159,8.96341,-25.2134,-3.86077,0.0622705,9.31902,-0.792683,-7.5,7.10366
244.039,44.8302,66.0137,0,6.99106,7.08926,1.41306,10.2744,10.0305,-26.5549,-3.78174,0.0359253,9.39566,-0.579268,-6.76829,6.46341
244.049,44.5508,66.1105,0,6.95274,7.1156,1.2526,9.54268,9.11585,-27.5,-3.70031,0.0622705,9.35495,-0.548781,-6.06707,6.4939
244.059,44.2466,66.2199,0,6.64857,7.04615,1.44899,8.32317,6.79878,-28.5671,-3.64282,0.167651,9.40764,-1.06707,-5.82317,6.92073
244.069,43.9563,66.328,0,6.6845,6.96232,1.36756,8.14024,7.83537,-28.7805,-3.64761,0.261057,9.45554,-1.31098,-5.27439,7.80488
244.079,43.6741,66.4293,0,6.87131,7.07249,1.42264,8.81098,3.9939,-29.2378,-3.61648,0.356858,9.33579,-1.55488,-4.72561,8.53659
244.089,43.3742,66.5104,0,6.90484,7.34552,1.37235,8.41463,2.40854,-29.6951,-3.69312,0.421523,9.32381,-1.58537,-3.84146,9.35976
244.099,43.0851,66.5559,0,7.06052,7.48683,1.49449,9.14634,2.28659,-29.3902,-3.85119,0.519719,9.33818,-1.12805,-3.38415,9.90854
244.109,42.7934,66.5712,0,7.15632,7.62095,1.41785,9.2378,2.62195,-30,-3.98052,0.423918,9.33579,-0.365854,-3.23171,9.87805
244.119,42.4999,66.5573,0,7.23775,7.63293,1.41546,8.32317,3.10976,-31.3415,-4.0859,0.251477,9.27831,1.06707,-2.83537,9.14634
244.129,42.171,66.5517,0,6.95274,7.65927,1.55676,6.21951,3.38415,-33.0183,-4.03082,0.0910107,9.2304,2.5,-3.07927,8.32317
244.138,41.8458,66.5698,0,6.99346,7.49881,1.4442,5.15244,6.09756,-34.878,-3.89191,0.00718506,9.14897,3.84146,-2.89634,8.10976
244.149,41.5135,66.6123,0,6.9264,7.5515,1.41306,5.64024,6.58537,-35.3049,-3.79371,-0.0766406,9.18011,4.66463,-3.07927,8.17073
244.159,41.1935,66.6767,0,7.01262,7.53713,1.37235,6.09756,6.7378,-35.5488,-3.65719,-0.0694556,9.10347,5.27439,-3.32317,8.5061
244.168,40.8734,66.7561,0,7.01501,7.50839,1.15679,5.45732,9.20732,-36.4634,-3.56618,-0.00239502,9.07473,5.73171,-3.5061,9.60366
244.179,40.5419,66.8413,0,6.84257,7.49162,1.2981,6.15854,9.20732,-36.9512,-3.56618,0.0958008,9.13221,6.28049,-2.83537,10.4878
244.189,40.2115,66.9172,0,6.7348,7.36947,1.40827,7.0122,8.29268,-37.561,-3.63564,0.217947,9.16095,6.52439,-1.98171,11.1585
244.198,39.8808,67.0188,0,6.53601,7.12518,1.51605,7.0122,7.0122,-38.4756,-3.60211,0.359253,9.09389,6.76829,-1.0061,11.372
244.209,39.5268,67.1656,0,6.28453,7.07489,1.47054,6.18902,6.40244,-39.6646,-3.52547,0.464634,9.02443,6.4939,0.548781,10.8841
244.219,39.1412,67.2478,0,5.92528,7.12997,1.40348,6.89024,4.69512,-39.7561,-3.46799,0.62031,8.86157,6.09756,1.79878,10.7927
244.229,38.7422,67.3596,0,5.77679,7.3072,1.36756,7.95732,1.28049,-39.0549,-3.31231,0.773591,8.9454,5.15244,2.71341,10.6098
244.238,38.3449,67.4681,0,5.64267,7.3599,1.04662,8.01829,-1.06707,-37.9573,-3.24765,0.893342,8.82086,4.08537,3.04878,10.4878
244.249,37.989,67.5714,0,5.772,7.23535,1.14242,9.57317,-3.23171,-36.7988,-3.21651,0.929268,8.85439,2.92683,4.69512,10.0305
244.259,37.6674,67.6606,0,6.04982,7.43175,0.790356,8.53659,-2.46951,-35.1829,-3.18777,0.929268,8.68434,1.76829,6.43293,9.39024
244.269,37.3679,67.7474,0,6.16239,7.41977,0.917292,6.18902,-0.762195,-34.7256,-3.17819,0.821492,8.68195,1.34146,8.35366,8.5061
244.279,37.077,67.8436,0,6.12885,7.47246,0.946033,5.64024,-0.396341,-33.75,-3.19017,0.737666,8.87355,0.457317,10,7.89634
244.289,36.7937,67.9395,0,6.08814,7.56587,1.02267,4.81707,1.21951,-32.4695,-3.22849,0.673001,9.02683,-0.243902,11.4634,7.5
244.299,36.5308,68.0323,0,6.07137,7.44851,1.14482,4.35976,1.95122,-31.7073,-3.25244,0.61073,9.10586,-1.40244,12.1951,7.13415
244.309,36.2929,68.0905,0,6.12406,7.3072,1.17116,4.02439,2.59146,-31.2805,-3.25723,0.61552,8.74422,-2.10366,13.4756,7.40854
244.318,36.0596,68.1175,0,6.2031,7.36947,0.677791,2.40854,6.09756,-31.5549,-3.29076,0.637075,8.50471,-2.10366,15.0305,8.20122
244.329,35.8025,68.11,0,5.81032,7.23775,1.02986,2.31707,7.56098,-31.7378,-3.34824,0.598755,8.28916,-1.98171,15.8841,8.44512
244.339,35.5194,68.0971,0,5.52291,7.19464,1.46815,5.85366,3.01829,-32.378,-3.41051,0.483794,8.38496,-1.28049,16.25,9.2378
244.348,35.2291,68.079,0,5.54926,7.52515,1.06339,8.38415,-0.487805,-31.4329,-3.50631,0.318538,8.5574,-1.40244,16.0671,9.54268
244.359,34.9323,68.0339,0,5.578,8.14067,1.34361,9.20732,-3.2622,-28.628,-3.6548,0.208367,8.61728,-0.945122,15.7927,9.35976
244.369,34.6271,67.9928,0,5.66662,8.48316,1.06818,9.5122,-3.20122,-28.7195,-3.68833,0.213157,8.72266,-0.426829,16.6768,8.75
244.379,34.3392,67.9667,0,5.64985,8.39215,1.19272,7.22561,-1.34146,-27.9878,-3.66917,0.239502,8.82325,0.304878,17.561,8.59756
244.389,34.0413,67.9572,0,5.45585,8.15025,1.38432,6.92073,-0.518293,-29.2988,-3.60211,0.337698,8.83523,0.914634,18.3537,8.62805
244.399,33.7324,67.9279,0,5.30497,8.00416,1.42504,7.40854,-1.09756,-30.4878,-3.63564,0.390388,8.69392,2.16463,18.2927,9.08537
244.409,33.4195,67.8752,0,5.25228,8.01613,1.26457,7.5,-1.18902,-30.9146,-3.66198,0.421523,8.49753,3.90244,17.8659,9.60366
244.419,33.093,67.8106,0,5.14211,8.09517,1.21667,5.57927,0.213415,-31.2805,-3.65719,0.438289,8.34425,4.81707,17.8659,10.0305
244.429,32.7851,67.7624,0,5.18761,8.09517,1.26697,3.41463,1.09756,-30.5183,-3.63324,0.452659,8.42807,5.51829,17.4695,10.6707
244.438,32.4706,67.718,0,5.08702,8.18378,1.152,1.18902,1.82927,-30.2134,-3.70031,0.392783,8.60291,5.70122,17.1646,11.6159
244.448,32.1689,67.6856,0,5.13971,8.18857,1.24781,-0.762195,2.92683,-30.061,-3.73384,0.438289,8.78972,4.87805,17.2866,12.0122
244.459,31.8982,67.6628,0,5.32892,8.30353,1.10171,-0.548781,1.70732,-28.689,-3.74821,0.522114,8.91666,4.11585,18.0793,11.7683
244.469,31.6457,67.6189,0,5.51573,8.48316,0.960403,-1.40244,1.98171,-28.0793,-3.82724,0.728086,8.86397,2.83537,18.8415,11.8293
244.479,31.3893,67.5363,0,5.384,8.38975,0.967588,-2.22561,2.16463,-28.2927,-3.88712,0.890947,8.58136,2.04268,19.5427,11.5549
244.489,31.1189,67.4266,0,5.15887,8.35143,0.871787,-3.07927,2.46951,-28.2317,-3.94699,1.03465,8.41131,1.64634,19.3902,11.7073
244.498,30.836,67.3009,0,4.90021,8.1742,0.922083,-4.63415,3.90244,-28.5061,-3.96136,1.04423,8.24845,1.15854,18.9634,11.1585
244.509,30.5471,67.1785,0,4.44516,7.70478,1.31247,-3.5061,2.0122,-27.7439,-3.99489,0.931663,8.30114,0.0914634,18.75,10.7622
244.519,30.2904,67.0611,0,4.50982,7.58263,1.03704,-0.670732,-1.92073,-26.5854,-3.99968,0.831072,8.31311,-1.46341,18.7805,9.90854
244.529,30.0113,66.9424,0,4.6176,8.05445,0.771196,2.43902,-5.45732,-27.5305,-4.02842,0.728086,8.3179,-2.07317,19.1463,9.20732
244.539,29.7868,66.8424,0,4.57928,8.14546,0.749641,3.81098,-9.14634,-21.5549,-4.04279,0.752036,8.48076,-3.35366,19.3598,8.59756
244.548,29.598,66.7527,0,4.8068,8.3203,0.57241,4.14634,-7.65244,-19.7256,-3.99729,0.814307,8.44723,-4.72561,19.8476,7.9878
244.559,29.4135,66.665,0,4.88824,8.36341,0.718506,4.08537,-8.38415,-20.2744,-4.04519,0.843047,8.53345,-6.12805,19.9695,7.77439
244.569,29.2299,66.5694,0,5.03433,8.47597,0.469424,2.9878,-7.04268,-21.372,-4.08111,0.756826,8.49753,-6.15854,19.2988,7.71341
244.579,29.0086,66.4617,0,4.82357,8.54543,0.589175,1.58537,-4.39024,-23.0183,-4.1841,0.637075,8.5574,-6.15854,18.9939,7.31707
244.589,28.7829,66.3504,0,4.77327,8.45921,0.682581,3.62805,-6.76829,-23.9024,-4.27032,0.462239,8.6556,-5.88415,18.0793,6.55488
244.599,28.5659,66.2247,0,4.96727,8.77535,0.752036,4.54268,-7.80488,-23.628,-4.39007,0.371228,8.71308,-5.12195,16.8598,5.94512
244.609,28.3583,66.0911,0,5.11576,9.01246,0.59636,3.44512,-4.69512,-23.2622,-4.49545,0.366438,8.79691,-5.2439,16.0366,5.7622
244.619,28.17,65.9617,0,5.14929,8.96216,0.66821,3.20122,-2.68293,-22.3171,-4.48348,0.433499,8.76098,-5.85366,15.3963,6.21951
244.629,28.0013,65.8349,0,5.18522,8.81607,0.795146,5.30488,-0.914634,-21.8902,-4.44755,0.536484,8.66758,-6.06707,15.5488,6.95122
244.639,27.8024,65.7138,0,4.87147,8.8017,0.838257,5,2.89634,-22.2561,-4.42121,0.689766,8.62207,-6.85976,15.1524,8.20122
244.649,27.5738,65.5819,0,4.53617,8.6101,0.864602,4.93902,8.04878,-23.2927,-4.45474,0.66342,8.54064,-6.70732,14.1159,9.26829
244.658,27.2846,65.4463,0,4.07872,8.44963,1.09931,5.4878,7.37805,-25.8232,-4.48108,0.514929,8.50711,-5.39634,12.9878,9.78659
244.668,26.9577,65.3024,0,3.89191,8.36341,1.01309,5.94512,6.98171,-28.5976,-4.56251,0.349673,8.53585,-4.02439,12.5915,9.84756
244.679,26.651,65.1802,0,4.19847,8.72027,0.807122,7.86585,2.9878,-28.75,-4.57928,0.179626,8.71308,-2.95732,12.1646,9.81707
244.689,26.3429,65.0932,0,4.3278,9.1849,0.816702,7.5,0.487805,-28.5366,-4.56012,0.198787,8.96935,-3.10976,13.3841,9.81707
244.698,26.0945,65.0269,0,4.84033,9.27831,0.811912,7.7439,0.670732,-27.8049,-4.45474,0.409548,8.93342,-4.87805,15.7317,11.128
244.708,25.8698,64.918,0,5.1469,9.53457,0.665815,5.27439,3.96341,-27.561,-4.13141,0.673001,7.90117,-6.06707,23.8415,13.2622
244.718,25.616,64.7674,0,4.79004,9.52978,1.01309,1.92073,8.04878,-27.561,-4.01645,0.986748,7.33115,-5.54878,34.2683,15.8537
244.728,25.3225,64.6745,0,4.18649,9.40285,0.850232,-1.40244,11.4634,-26.6463,-4.37331,1.08255,8.44005,-3.56707,37.561,17.6524
244.738,25.0122,64.536,0,3.78174,9.15616,1.2981,-2.65244,10.0915,-25.7927,-4.75411,0.922083,8.69871,-0.396341,33.6585,16.6463
244.748,24.6906,64.3015,0,3.34105,8.90947,1.71723,-1.4939,3.44512,-23.7195,-5.09181,0.689766,8.39454,2.22561,29.5732,13.3232
244.758,24.4203,64.0691,0,3.47278,8.79691,1.64298,0.701219,-2.62195,-21.1585,-5.18522,0.481399,8.48795,3.32317,29.4817,9.57317
244.768,24.2013,63.8544,0,3.71228,8.92624,1.61903,-0.0914634,-6.03659,-18.5976,-5.02236,0.397573,8.29635,2.0122,32.8963,6.18902
244.778,24.0431,63.6626,0,4.09788,8.9454,1.66693,1.43293,-12.4085,-16.9817,-4.80441,0.220342,8.05924,0.762195,38.3232,4.29878
244.789,23.8976,63.3577,0,4.21763,8.97174,1.31487,1.15854,-15.3659,-17.1646,-4.41881,0.0910107,6.60067,1.46341,47.561,3.65854
244.798,23.7584,63.1189,0,4.32062,8.97893,0.912502,-0.762195,-17.378,-17.8659,-4.00926,-0.0814307,6.32285,2.80488,59.4512,4.14634
244.808,23.6235,63.1161,0,4.24397,8.79212,0.768801,-0.640244,-21.0061,-17.8659,-4.04758,-0.316143,8.06403,4.42073,60.1829,5.36585
244.819,23.525,63.0275,0,4.50982,8.61489,0.797541,-0.152439,-23.2012,-18.2317,-4.33259,-0.641865,7.86524,7.86585,55.3354,6.03659
244.829,23.4492,62.8371,0,4.50264,8.50232,0.62989,-0.0304878,-25.7012,-16.6768,-4.50982,-0.787961,7.3575,10.2439,55.5488,6.09756
244.839,23.4455,62.676,0,4.91219,8.38496,0.395178,-0.0914634,-25.8232,-14.4817,-4.88584,-0.64905,8.14307,11.189,54.0244,6.85976
244.849,23.4891,62.4148,0,5.07744,8.35143,0.514929,2.65244,-23.7805,-11.5854,-5.27383,-0.0766406,7.92033,10.8232,52.5,8.14024
244.859,23.5389,62.0339,0,4.81399,8.52627,0.464634,4.7561,-24.2988,-7.10366,-5.57321,0.524509,7.41019,9.84756,52.0732,9.90854
244.869,23.6596,61.5512,0,5.00799,8.61968,0.0934058,8.59756,-21.128,-2.71341,-5.84385,1.01309,6.98867,9.60366,51.2805,12.0427
244.879,23.8111,61.0652,0,4.59125,8.76817,0.0934058,11.4024,-17.0427,0.823171,-5.97797,1.31247,7.00783,7.56098,51.4939,13.5671
244.889,23.8776,60.615,0,4.17691,8.79691,0.129331,15.4573,-20.6707,3.29268,-6.04263,1.44899,7.18745,6.34146,50.5793,14.4817
244.899,23.9547,60.1933,0,4.24637,8.97414,-0.383203,13.1402,-14.2073,4.87805,-6.06898,1.47294,7.28804,4.66463,50.061,13.3537
244.909,24.0528,59.8179,0,4.31582,8.7514,-0.0622705,13.2927,-10.3659,5.27439,-6.03305,1.32684,7.43893,3.20122,49.6951,12.2561
244.919,24.1734,59.4865,0,4.5697,8.66279,-0.0550855,11.7988,-7.71341,4.45122,-5.90612,1.14482,7.47725,1.61585,49.7866,11.0671
244.929,24.332,59.1546,0,4.9553,8.57177,0.227527,9.93902,-1.31098,3.68902,-5.99234,0.888552,7.49402,-0.335366,50.0915,10.122
244.938,24.52,58.8026,0,5.23072,8.52866,0.495769,10.6707,4.14634,2.43902,-6.03305,0.735271,7.32397,-1.76829,51.372,9.39024
244.949,24.6861,58.4476,0,5.01996,8.71069,0.318538,10.6098,4.26829,1.34146,-6.09053,0.438289,7.28325,-2.62195,52.2866,8.71951
244.958,24.7962,58.0982,0,4.68945,8.8472,0.390388,9.78659,6.82927,-0.701219,-6.17676,0.376018,7.32876,-3.56707,50.4878,7.65244
244.969,24.7669,57.7223,0,4.04998,8.72985,0.373623,8.07927,8.35366,-3.20122,-6.30369,0.404758,7.2138,-3.38415,49.7256,7.71341
244.979,24.6902,57.3409,0,3.91107,8.56219,0.445474,7.31707,10.3659,-7.37805,-6.38273,0.402363,7.17308,-2.68293,49.878,8.23171
244.989,24.5903,56.9507,0,3.89909,8.48316,0.541274,5.67073,8.96341,-10.1829,-6.38991,0.364043,7.03178,-1.85976,50.3963,8.90244
244.999,24.4734,56.516,0,3.94939,8.45681,0.464634,6.76829,7.0122,-12.8354,-6.57912,0.347278,6.86652,-1.0061,50.8232,8.93293
245.009,24.3282,56.0482,0,3.92783,8.7993,0.428708,7.59146,5.33537,-13.9634,-6.75875,0.325723,6.74917,-0.121951,51.7988,8.5061
245.019,24.1481,55.5871,0,3.81048,9.06754,0.335303,5.60976,6.85976,-15.2439,-6.99346,0.380808,6.91203,1.0061,52.4085,7.28659
245.029,23.9447,55.0623,0,3.66438,9.06994,0.323328,6.64634,2.68293,-16.372,-7.23775,0.464634,6.65336,1.98171,52.0732,5.88415
245.038,23.7281,54.5249,0,3.69552,9.01485,0.296982,6.7378,-0.548781,-18.7195,-7.36469,0.555645,6.57433,2.83537,53.2012,4.63415
245.049,23.5001,54.0099,0,3.70031,9.01246,0.201182,7.43902,-2.16463,-20.3963,-7.42217,0.603545,6.63181,2.86585,52.6829,3.32317
245.059,23.2475,53.4629,0,3.56618,9.01006,0.246687,6.61585,-3.14024,-21.8902,-7.43175,0.593965,6.33722,2.89634,52.0122,2.34756
245.069,23.016,52.9517,0,3.81048,8.6556,0.352068,5.82317,1.40244,-24.6646,-7.28325,0.63947,6.28932,2.92683,52.3476,1.28049
245.078,22.77,52.5085,0,3.90149,8.57656,0.5772,5.30488,-1.46341,-28.0488,-7.20182,0.60594,6.48811,2.62195,51.5244,0.121951
245.089,22.5003,52.0584,0,3.93262,8.83283,0.246687,4.08537,-0.304878,-30.0305,-7.09405,0.622705,6.2534,2.62195,51.311,-1.06707
245.099,22.2071,51.6167,0,3.79132,9.0412,0.268242,3.35366,-0.487805,-30.4268,-6.99585,0.59157,6.11688,2.10366,52.561,-1.61585
245.109,21.9066,51.194,0,3.68833,9.39566,0.404758,3.56707,-3.41463,-29.0854,-7.13716,0.574805,6.24861,2.0122,52.8049,-1.58537
245.119,21.6306,50.722,0,3.82724,9.37411,0.203577,1.40244,-2.40854,-28.7805,-7.23535,0.622705,5.97318,2.46951,53.5671,-1.55488
245.129,21.3524,50.2438,0,3.7506,9.2831,0.270637,-0.518293,-2.28659,-29.1463,-7.41977,0.64905,5.98994,2.65244,54.4512,-1.12805
245.138,21.0733,49.7593,0,3.62606,9.2831,0.490979,-0.152439,-1.7378,-28.4451,-7.53234,0.689766,5.94444,2.62195,54.5122,-0.823171
245.149,20.8035,49.2616,0,3.69552,9.43638,0.136516,0,0.0609756,-28.1707,-7.72394,0.651445,5.91809,2.7439,54.3902,-0.731707
245.159,20.5055,48.7624,0,3.31471,9.40764,0.538879,0.426829,-5.21341,-27.561,-7.76226,0.718506,5.83427,3.07927,55,-0.426829
245.169,20.2391,48.2851,0,3.49433,9.17292,0.275427,1.95122,-8.71951,-27.8963,-7.791,0.723296,5.8678,2.86585,56.0366,-0.609756
245.179,19.9761,47.803,0,3.49433,9.00527,0.407153,3.01829,-11.7683,-28.811,-7.76465,0.713716,5.7241,1.7378,57.6829,-0.426829
245.188,19.7133,47.3018,0,3.52307,8.82565,0.63468,4.90854,-14.2683,-30.4573,-7.82932,0.749641,5.57082,1.03659,58.0488,0.0609756
245.199,19.4575,46.8081,0,3.68833,8.92384,0.505349,5.39634,-12.2561,-31.7073,-7.87243,0.845442,5.53729,0.182927,58.0488,0.457317
245.209,19.2128,46.3009,0,3.78653,8.9909,0.347278,6.12805,-8.90244,-31.8598,-7.92751,0.931663,5.40556,-0.213415,58.2317,0.914634
245.219,18.9476,45.7858,0,3.68594,9.36453,0.337698,5.88415,-7.80488,-31.7073,-7.94667,0.948428,5.27623,-0.762195,58.5976,0.914634
245.229,18.6923,45.2556,0,3.78174,9.50104,0.313748,4.35976,-3.71951,-31.6768,-7.95625,0.967588,5.10618,-0.640244,59.2378,1.03659
245.238,18.4442,44.7087,0,3.81048,9.34537,0.383203,5.39634,-3.5061,-32.439,-8.02571,1.04423,4.96488,-1.09756,60.3049,0.762195
245.249,18.1747,44.186,0,3.59013,9.38848,0.457449,2.83537,-2.95732,-32.561,-8.09277,1.07057,5.01996,-1.79878,61.1585,0.914634
245.258,17.9189,43.6297,0,3.61648,9.25675,0.373623,2.71341,-1.46341,-32.561,-8.27958,1.02986,4.86668,-2.62195,62.1341,1.34146
245.269,17.6541,43.0573,0,3.54223,9.37171,0.459844,2.77439,-2.83537,-32.7134,-8.25803,1.03465,4.67029,-3.59756,63.4756,1.52439
245.279,17.4068,42.4651,0,3.72426,10.0016,-0.0526904,0.731707,-0.579268,-30.8841,-8.30114,1.02507,4.49306,-5,65.0305,1.85976
245.289,17.205,41.887,0,3.9446,10.5189,-0.387993,-3.17073,2.19512,-27.0122,-8.39215,0.996328,4.49785,-5.54878,65.2744,2.07317
245.299,17.1017,41.2652,0,4.33259,10.0519,0.0359253,-1.37195,7.7439,-23.0183,-8.4616,0.965193,4.22002,-5.94512,65.2439,1.85976
245.309,16.9646,40.6299,0,3.59013,9.69025,0.380808,2.65244,11.0366,-20.5793,-8.51669,0.907712,4.07153,-5.85366,66.25,1.55488
245.319,16.7909,40.0273,0,3.0273,9.2328,0.452659,1.15854,16.7378,-20.1524,-8.5574,0.881367,4.12662,-5.94512,66.9817,1.43293
245.329,16.6241,39.4251,0,3.12071,8.57417,0.450264,2.86585,13.5061,-23.5671,-8.56219,0.838257,4.02124,-6.58537,68.3232,1.34146
245.338,16.3923,38.8243,0,2.96743,8.35383,0.847837,2.56098,15.0305,-29.6341,-8.54782,0.764011,3.91346,-7.34756,69.6341,1.64634
245.349,16.0882,38.2327,0,2.81654,8.60291,0.723296,2.83537,16.9207,-34.5732,-8.64123,0.761616,3.88951,-8.44512,70.5793,2.56098
245.359,15.7218,37.6237,0,2.48364,8.72506,0.948428,5.79268,13.689,-36.9817,-8.71548,0.804727,3.73623,-9.08537,70.5793,3.20122
245.369,15.3227,36.9736,0,2.44771,9.06515,0.787961,9.66463,10.2439,-39.4817,-8.80649,0.857417,3.47996,-9.08537,71.6159,3.9939
245.378,14.8711,36.3456,0,1.94476,9.24478,0.730481,9.81707,2.71341,-39.0549,-8.83523,0.922083,3.47517,-9.69512,72.0427,4.54268
245.388,14.427,35.7105,0,1.98787,9.21125,0.5772,8.96341,-1.18902,-39.8171,-8.8975,0.862207,3.35542,-10.7012,71.6768,4.93902
245.399,14.0048,35.0473,0,2.16749,9.00767,0.560435,9.7561,-2.22561,-41.25,-8.79691,0.799937,3.08479,-11.2195,73.3537,4.45122
245.409,13.5485,34.4296,0,1.96392,9.0867,0.953218,10.6707,-5.30488,-42.8659,-8.71308,0.716111,3.13987,-11.2195,74.0549,4.42073
245.419,13.0986,33.8037,0,1.90644,8.99569,0.862207,10.8537,-5.09146,-42.6829,-8.71308,0.603545,2.99856,-11.2195,74.1768,3.78049
245.429,12.6669,33.1514,0,2.0693,8.92384,0.61552,10.0915,-5.64024,-43.9634,-8.66758,0.486189,2.76625,-10.9756,74.7866,3.53659
245.438,12.2301,32.5463,0,1.95673,9.01006,0.481399,9.96951,-7.5,-43.7195,-8.61249,0.426313,2.8381,-11.0061,74.2988,3.41463
245.449,11.821,31.9249,0,2.17947,9.26394,0.177231,10.0915,-12.1037,-43.811,-8.72027,0.385598,2.70398,-11.9512,75.2134,2.9878
245.459,11.417,31.2519,0,2.23695,9.44117,0.239502,10.0915,-13.689,-44.2988,-8.79451,0.383203,2.40699,-11.9512,76.1281,2.80488
245.469,10.9996,30.5899,0,2.06451,9.44596,0.203577,11.4024,-13.7195,-44.4512,-8.94779,0.318538,2.38304,-11.7683,76.189,2.37805
245.478,10.5877,29.9416,0,2.04774,9.63995,-0.0670605,10.5793,-11.0671,-44.0549,-9.09868,0.414338,2.36867,-10.8841,75.7622,2.37805
245.489,10.1999,29.2391,0,2.18426,9.66151,-0.110171,10.6402,-7.7439,-43.9634,-9.0388,0.395178,2.01661,-10.122,75.8232,2.71341
245.499,9.79708,28.5595,0,1.89925,9.72857,-0.114961,9.57317,-7.37805,-42.8354,-9.24957,0.330513,2.04295,-9.35976,76.2195,3.20122
245.509,9.4442,27.8974,0,2.19144,9.77647,-0.340093,9.11585,-4.39024,-41.7988,-9.35016,0.301772,2.02379,-8.81098,75.1524,3.90244
245.519,9.09588,27.2348,0,2.07169,9.84593,0.0311353,8.87195,-4.69512,-40.5183,-9.39087,0.249082,1.91602,-8.01829,74.0854,3.93293
245.529,8.74622,26.5637,0,1.88728,9.62558,0.205972,9.81707,-2.92683,-39.7561,-9.35974,0.189207,1.76034,-7.59146,73.4451,4.02439
245.539,8.39468,25.9247,0,1.72441,9.53936,-0.0526904,12.2561,2.9878,-38.9329,-9.39087,0.225132,1.78908,-7.43902,72.5915,3.9939
245.549,8.04001,25.312,0,1.57832,9.63277,-0.474214,10.9146,6.09756,-38.0488,-9.38369,0.311353,1.79147,-7.46951,71.9817,4.02439
245.559,7.70262,24.6794,0,1.66454,9.63756,-0.167651,8.68902,5.03049,-38.0183,-9.4268,0.376018,1.60945,-7.65244,71.0976,4.08537
245.569,7.35356,24.0809,0,1.4418,9.48907,-0.0838257,10,7.59146,-37.5305,-9.45793,0.387993,1.65256,-7.28659,70,4.08537
245.579,7.03379,23.488,0,1.67651,9.76689,0.0934058,11.7073,5.42683,-37.5,-9.4244,0.416733,1.56874,-7.22561,69.0854,4.29878
245.589,6.71534,22.8927,0,1.57832,9.79084,0.0766406,12.8963,7.40854,-36.8293,-9.44117,0.325723,1.46096,-6.4939,68.5061,4.11585
245.599,6.39016,22.319,0,1.47773,9.83156,-0.205972,12.7744,11.7378,-36.9207,-9.48667,0.328118,1.45857,-6.12805,67.7439,4.11585
245.608,6.07963,21.7554,0,1.45617,9.84114,-0.229922,12.6524,15,-35.8232,-9.616,0.292192,1.42264,-5.79268,66.5549,4.35976
245.619,5.73699,21.2054,0,1.04902,9.72378,-0.330513,10.7317,21.372,-35.122,-9.50344,0.306563,1.36756,-4.96951,65.1524,4.14634
245.629,5.38137,20.6656,0,0.708926,9.6663,0.0455054,9.7561,26.0671,-33.1402,-9.63037,0.364043,1.33403,-4.2378,63.1402,4.69512
245.639,5.00537,20.1281,0,0.273032,9.62319,0.237107,8.84146,23.811,-30.7012,-9.57768,0.428708,1.24302,-4.14634,60.9451,5.12195
245.649,4.64517,19.5433,0,0.0886157,9.57768,0.102986,8.81098,28.5366,-27.622,-9.70222,0.416733,0.960403,-4.14634,59.5732,5.30488
245.659,4.27968,19.0104,0,-0.220342,9.67348,0.371228,6.15854,27.622,-25.1524,-9.84353,0.423918,1.09931,-4.42073,57.378,4.93902
245.669,3.9165,18.494,0,-0.59157,9.72378,0.811912,4.29878,17.1951,-21.2195,-9.87706,0.428708,1.08015,-4.17683,54.8171,4.14634
245.679,3.54967,17.9929,0,-0.955613,9.80521,0.464634,2.65244,10,-18.0793,-9.87706,0.514929,1.0562,-3.38415,53.4451,3.44512
245.689,3.2109,17.4961,0,-1.06099,9.83395,0.311353,1.09756,0.457317,-14.7561,-9.82916,0.507744,0.981958,-3.35366,52.0427,2.83537
245.699,2.90983,16.9953,0,-1.03704,9.88904,0.258662,0.243902,-9.14634,-11.9512,-9.81719,0.488584,0.876577,-3.2622,51.0366,2.34756
245.709,2.61918,16.4818,0,-1.16637,9.89622,-0.167651,-0.579268,-13.2012,-10,-9.8603,0.404758,0.737666,-3.81098,50.3963,1.82927
245.719,2.37518,15.9709,0,-1.01549,9.8555,0.0287402,0.304878,-19.2073,-7.53049,-9.92736,0.428708,0.66342,-4.35976,49.1463,1.85976
245.729,2.18246,15.4594,0,-0.780776,9.9561,-0.124541,2.28659,-26.9512,-5.57927,-9.78605,0.383203,0.56283,-4.66463,48.0488,2.34756
245.738,2.01824,14.9424,0,-0.637075,10.0064,-0.229922,0.609756,-31.0061,-4.69512,-10.0519,0.455054,0.462239,-4.78659,46.3415,2.89634
245.749,1.90732,14.4155,0,-0.234712,10.0447,-0.502954,-0.579268,-31.1585,-4.32927,-10.186,0.433499,0.330513,-4.45122,44.9085,3.20122
245.758,1.82567,13.8814,0,0.0263452,10.0279,-0.217947,-0.304878,-33.8415,-4.69512,-10.2842,0.447869,0.205972,-4.39024,44.0854,3.32317
245.769,1.7821,13.3495,0,0.452659,10.0184,-0.318538,1.28049,-30.2134,-6.0061,-10.3872,0.373623,0.119751,-4.42073,42.8963,3.23171
245.779,1.73533,12.8199,0,0.543669,10.0782,-0.519719,2.07317,-24.6341,-7.43902,-10.4375,0.268242,0.0335303,-4.05488,41.9207,2.83537
245.789,1.67974,12.3032,0,0.58199,10.0854,-0.184417,2.37805,-20.9146,-8.87195,-10.5093,0.162861,-0.00479004,-3.17073,40.6402,2.56098
245.798,1.61154,11.8031,0,0.651445,10.0543,-0.479004,3.9939,-14.9085,-11.0976,-10.4159,0.134121,-0.0239502,-2.68293,39.0244,2.5
245.809,1.47432,11.3141,0,0.134121,9.96568,-0.411943,3.65854,-12.7134,-12.2866,-10.2387,0.0622705,-0.0646655,-2.56098,37.5305,2.89634
245.819,1.29291,10.8389,0,-0.265847,9.94652,-0.289797,3.65854,-8.41463,-12.378,-10.016,0.0622705,-0.0886157,-1.98171,36.0976,3.44512
245.829,1.14039,10.38,0,0.0287402,9.94891,-0.409548,4.17683,-6.03659,-13.2622,-9.97286,-0.0455054,-0.100591,-1.92073,34.6341,4.32927
245.838,0.922706,9.93015,0,-0.598755,9.83395,-0.0694556,5,-12.8659,-12.7744,-9.95131,-0.0215552,-0.141306,-1.46341,33.5061,4.87805
245.849,0.706998,9.4709,0,-0.641865,9.78605,-0.0766406,4.26829,-11.2805,-12.4695,-10.0902,-0.0167651,-0.265847,-1.06707,31.8902,5.09146
245.859,0.569631,9.0211,0,0.0215552,9.64714,-0.428708,5.51829,-12.6829,-12.8354,-10.1597,0.0287402,-0.308958,-0.609756,29.4512,4.84756
245.869,0.438727,8.58279,0,0.0694556,9.51302,-0.399968,5.91463,-13.3841,-13.0488,-10.1812,0.124541,-0.340093,-0.518293,27.1341,5.27439
245.878,0.297859,8.1762,0,-0.136516,9.67588,-0.409548,5.30488,-9.2378,-11.8293,-10.3656,0.0550855,-0.282612,-0.182927,24.8171,5
245.889,0.261936,7.78401,0,0.60594,9.68306,-0.479004,6.52439,-4.5122,-10.3659,-10.3704,0.0263452,-0.292192,-0.0304878,22.9573,5.03049
245.898,0.190393,7.41641,0,0.263452,9.89622,-0.541274,5.91463,-7.53049,-9.87805,-10.4303,0.107776,-0.253872,-0.0304878,21.128,5.09146
245.909,0.107039,7.06893,0,0.0910107,9.7621,-0.241897,5.97561,-7.92683,-9.20732,-10.3249,0.138911,-0.227527,-0.762195,19.3902,5.45732
245.919,0.0836299,6.7439,0,0.543669,9.69983,-0.529299,5.70122,-0.670732,-8.71951,-10.301,0.158071,-0.189207,-0.701219,17.4695,6.03659
245.929,0.0373533,6.41615,0,0.261057,9.75491,-0.316143,7.04268,-2.80488,-7.68293,-10.2962,0.179626,-0.261057,-1.0061,16.2195,6.4939
245.938,0.000580063,6.10181,0,0.198787,9.64953,-0.155676,7.95732,0.27439,-6.09756,-10.3177,0.191602,-0.261057,-1.09756,14.6341,7.0122
245.949,-0.0294976,5.78868,0,0.105381,9.80042,-0.313748,7.59146,4.81707,-4.35976,-10.3225,0.136516,-0.313748,-1.21951,13.0183,7.31707
245.958,-0.0716886,5.46557,0,-0.0718506,9.89143,-0.507744,5.64024,6.98171,-3.47561,-10.313,0.186812,-0.416733,-0.945122,11.4329,7.43902
245.969,-0.121423,5.15172,0,-0.153281,9.69743,-0.62989,4.69512,7.40854,-3.23171,-10.3058,0.172441,-0.433499,-0.701219,10.3354,7.43902
245.978,-0.192153,4.81764,0,-0.344883,9.58008,-0.699346,4.48171,8.41463,-2.31707,-10.2435,0.138911,-0.579595,-0.701219,9.05488,7.16463
245.989,-0.294886,4.51775,0,-0.574805,9.75731,-0.694556,4.54268,6.76829,-1.76829,-10.21,0.134121,-0.483794,-0.97561,7.53049,7.19512
245.998,-0.543402,4.21762,0,-0.914897,9.7621,-0.421523,4.81707,3.10976,-0.335366,-10.1788,0.148491,-0.534089,-1.58537,5.88415,6.82927
246.008,-0.672604,3.89982,0,-0.706531,9.81479,-0.359253,5.39634,-1.76829,-1.06707,-10.107,0.201182,-0.65384,-2.0122,4.93902,7.10366
246.019,-0.787168,3.54891,0,-0.759221,9.91538,-0.673001,4.90854,-2.95732,-1.64634,-10.107,0.253872,-0.838257,-2.71341,4.11585,7.16463
246.029,-0.895976,3.21343,0,-0.756826,9.88904,-0.58678,4.63415,-4.96951,-1.95122,-10.2148,0.246687,-0.795146,-3.44512,3.10976,7.28659
246.038,-0.983023,2.87212,0,-0.637075,9.9561,-0.510139,4.48171,-7.89634,-2.16463,-10.2722,0.213157,-0.780776,-3.75,2.16463,7.31707
246.049,-1.03822,2.44907,0,-0.390388,9.87946,-0.651445,4.63415,-7.53049,-2.71341,-10.2507,0.143701,-0.740061,-4.48171,0.853659,7.43902
246.059,-1.08949,1.8011,0,-0.282612,9.94652,-0.737666,2.77439,-3.96341,-3.9939,-10.1381,0.102986,-0.816702,-4.63415,0.0304878,7.31707
246.069,-1.13237,1.28659,0,-0.184417,9.88664,-0.510139,1.12805,-2.5,-4.42073,-10.083,-0.0263452,-0.828677,-4.42073,-0.365854,7.04268
246.079,-1.15712,0.891029,0,-0.0335303,9.76689,-0.546064,1.15854,-2.28659,-4.48171,-10.0351,-0.0742456,-0.840652,-4.39024,-0.853659,6.79878
246.089,-1.16425,0.531035,0,0.100591,9.74533,-0.651445,2.2561,-0.426829,-4.39024,-10.0016,-0.129331,-0.821492,-3.90244,-0.914634,6.98171
246.099,-1.18209,0.26084,0,0,9.75252,-0.603545,2.62195,1.31098,-4.26829,-10.0687,-0.158071,-0.869392,-3.17073,-1.76829,6.46341
246.109,-1.22547,0.0271864,0,-0.201182,9.71899,-0.593965,2.89634,2.07317,-4.42073,-10.0663,-0.0455054,-0.898132,-2.59146,-2.65244,6.55488
246.119,-1.29388,-0.206225,0,-0.378413,9.67588,-0.826282,3.35366,2.04268,-4.87805,-10.0208,-0.0239502,-0.984353,-2.16463,-3.44512,7.16463
246.129,-1.37493,-0.44782,0,-0.479004,9.63756,-0.905317,2.86585,0.457317,-5.06098,-10.0375,-0.00718506,-1.08494,-2.40854,-4.02439,7.5
246.139,-1.4534,-0.671394,0,-0.452659,9.70222,-0.816702,3.32317,-1.21951,-5.33537,-10.0208,-0.0670605,-1.05141,-1.92073,-4.20732,7.19512
246.149,-1.51279,-0.881559,0,-0.347278,9.82197,-0.862207,2.80488,-2.31707,-4.87805,-9.99681,-0.0838257,-1.03465,-2.13415,-4.48171,6.82927
246.159,-1.56149,-1.08041,0,-0.313748,9.94891,-0.869392,1.52439,-4.26829,-4.35976,-9.94412,-0.110171,-1.01788,-2.2561,-4.60366,6.95122
246.169,-1.58995,-1.28737,0,-0.222737,9.94891,-0.627495,0.823171,-6.12805,-3.5061,-9.96089,-0.162861,-1.09213,-1.98171,-4.72561,6.7378
246.179,-1.59457,-1.49327,0,-0.122146,10.004,-0.522114,0.304878,-8.44512,-2.53049,-9.99921,-0.273032,-1.13284,-1.31098,-5.09146,6.79878
246.189,-1.5614,-1.69017,0,0.00239502,10.0758,-0.62031,-0.548781,-9.72561,-1.28049,-9.98963,-0.356858,-1.13045,-0.701219,-5.36585,6.92073
246.198,-1.44365,-1.88493,0,0.150886,9.97765,-0.502954,-1.55488,-11.9512,0.182927,-9.93694,-0.407153,-1.152,0.213415,-5.79268,7.28659
246.209,-1.33949,-2.06997,0,0.306563,9.7621,-0.732876,-1.61585,-13.2317,1.79878,-9.9058,-0.385598,-1.14003,1.06707,-5.88415,8.14024
246.219,-1.23276,-2.25102,0,0.373623,9.74533,-0.912502,-1.15854,-11.7988,2.71341,-9.88185,-0.328118,-1.152,2.13415,-5.88415,8.32317
246.229,-1.1188,-2.43498,0,0.440684,9.73815,-1.04662,-1.37195,-11.4329,3.17073,-9.81958,-0.306563,-1.18314,2.86585,-5.09146,8.47561
246.238,-1.01072,-2.60594,0,0.409548,9.69504,-1.11608,-1.43293,-10.7927,3.20122,-9.79803,-0.227527,-1.1544,3.53659,-4.93902,8.78049
246.249,-0.912543,-2.77692,0,0.364043,9.75491,-1.17595,-1.06707,-10.3354,2.92683,-9.79563,-0.241897,-1.17835,4.35976,-4.5122,8.71951
246.259,-0.815066,-2.95786,0,0.383203,9.81958,-1.01788,-0.609756,-10.0305,2.80488,-9.8076,-0.234712,-1.23583,4.54268,-3.78049,8.75
246.269,-0.706623,-3.13419,0,0.483794,9.82437,-0.905317,-0.396341,-9.66463,2.86585,-9.80521,-0.189207,-1.22864,4.81707,-3.29268,8.29268
246.278,-0.600019,-3.30512,0,0.486189,9.8076,-0.699346,0.457317,-8.53659,2.46951,-9.79323,-0.153281,-1.20709,5.27439,-2.80488,7.9878
246.289,-0.508828,-3.47241,0,0.397573,9.86988,-0.718506,-0.243902,-7.19512,2.31707,-9.78844,-0.131726,-1.19272,5.12195,-2.43902,8.04878
246.298,-0.426092,-3.65043,0,0.330513,9.8076,-0.926873,-0.914634,-7.10366,1.64634,-9.78844,-0.0311353,-1.19511,4.48171,-1.85976,8.23171
246.308,-0.341992,-3.81502,0,0.282612,9.79323,-0.938848,-2.5,-7.37805,0.853659,-9.78605,0.00958008,-1.11847,3.71951,-1.43293,8.20122
246.319,-0.213097,-3.98841,0,0.313748,9.6663,-0.878972,-2.10366,-6.95122,-0.121951,-9.78605,0.0622705,-1.15919,3.35366,-1.34146,8.47561
246.329,-0.142894,-4.12792,0,0.318538,9.73815,-0.826282,-1.76829,-5.79268,-0.853659,-9.81719,0.0958008,-1.07536,2.89634,-1.18902,8.38415
246.338,-0.0835981,-4.28473,0,0.378413,9.75491,-0.843047,-1.67683,-3.81098,-1.34146,-9.88664,0.129331,-1.16398,2.43902,-1.15854,8.47561
246.349,-0.0471961,-4.42979,0,0.352068,9.79084,-0.855022,-2.19512,-2.86585,-1.92073,-9.9537,0.0838257,-1.16158,2.2561,-1.06707,8.29268
246.359,-0.0310029,-4.51981,0,0.296982,9.82916,-0.785566,-3.01829,-1.09756,-2.53049,-10.0208,0.0215552,-1.09692,2.34756,-1.76829,7.95732
246.369,-0.0224481,-4.63224,0,0.253872,9.8579,-0.708926,-2.86585,-1.31098,-2.62195,-9.99202,-0.0239502,-1.15679,2.5,-1.43293,7.56098
246.379,-0.00147711,-4.74928,0,0.328118,9.81,-0.773591,-3.5061,-0.365854,-2.46951,-9.89862,-0.0479004,-1.14721,2.56098,-1.21951,7.40854
246.389,0.0308709,-4.90439,0,0.387993,9.74054,-0.735271,-3.41463,0.121951,-2.31707,-9.88664,-0.0263452,-1.16158,3.20122,-0.518293,7.04268
246.399,0.0491342,-5.04721,0,0.287402,9.75491,-0.66342,-2.80488,-0.670732,-2.2561,-9.89622,-0.0167651,-1.12087,3.38415,-0.243902,6.95122
246.409,0.0735621,-5.14017,0,0.263452,9.80281,-0.673001,-2.62195,-0.914634,-1.67683,-9.86988,-0.00958008,-1.04423,3.90244,0.243902,7.43902
246.419,0.0884752,-5.2091,0,0.189207,9.78366,-0.656235,-2.34756,-1.82927,-1.52439,-9.88904,0.0479004,-1.03465,4.20732,0.457317,7.43902
246.429,0.11818,-5.25683,0,0.205972,9.86988,-0.58199,-3.68902,-2.37805,-0.914634,-9.83156,0.0838257,-1.01309,3.87195,0.853659,7.71341
246.439,0.180211,-5.30311,0,0.280217,9.71899,-0.55325,-4.02439,-3.14024,-0.579268,-9.82916,0.0766406,-1.04662,4.08537,1.4939,7.86585
246.449,0.268023,-5.33061,0,0.320933,9.77647,-0.483794,-3.75,-2.53049,-0.213415,-9.79084,0.100591,-0.996328,3.9939,1.70732,7.9878
246.459,0.365678,-5.35465,0,0.376018,9.82197,-0.536484,-3.65854,-1.98171,0.27439,-9.82437,0.184417,-0.991538,3.81098,1.58537,8.14024
246.469,0.43322,-5.35482,0,0.318538,9.81,-0.55325,-3.5061,-1.76829,0.609756,-9.84593,0.244292,-0.922083,3.71951,1.52439,7.9878
246.479,0.495553,-5.35833,0,0.318538,9.81,-0.627495,-3.01829,-2.71341,0.731707,-9.9058,0.308958,-0.938848,3.38415,1.70732,8.04878
246.489,0.574527,-5.37247,0,0.438289,9.84114,-0.687371,-2.59146,-1.67683,1.0061,-9.93215,0.354463,-0.981958,3.10976,2.13415,7.80488
246.499,0.660743,-5.38803,0,0.450264,9.92736,-0.555645,-3.14024,0.213415,0.548781,-9.92736,0.380808,-0.993933,2.37805,2.86585,7.77439
246.508,0.750051,-5.3927,0,0.500559,9.87946,-0.505349,-3.71951,1.31098,0.792683,-9.93215,0.340093,-0.953218,1.40244,3.04878,8.20122
246.519,0.833333,-5.39817,0,0.469424,9.86748,-0.414338,-3.75,1.95122,0.670732,-9.96328,0.359253,-0.960403,0.670732,3.01829,8.10976
246.529,0.928507,-5.41768,0,0.440684,9.82437,-0.459844,-3.78049,3.41463,0.121951,-9.95849,0.306563,-1.02028,0.609756,3.44512,8.01829
246.539,1.00936,-5.4189,0,0.416733,9.78126,-0.570015,-3.32317,5.2439,-0.152439,-9.97526,0.316143,-0.948428,-0.213415,3.04878,7.9878
246.549,1.05307,-5.42119,0,0.383203,9.78126,-0.493374,-3.20122,6.43293,-0.670732,-9.92736,0.378413,-0.948428,-1.06707,3.07927,7.80488
246.559,1.07622,-5.42158,0,0.359253,9.74533,-0.505349,-2.80488,7.71341,-1.18902,-9.97526,0.423918,-0.946033,-1.89024,2.46951,7.71341
246.569,1.08007,-5.41553,0,0.335303,9.77886,-0.483794,-2.31707,9.93902,-1.95122,-9.99681,0.469424,-0.924478,-2.92683,2.07317,7.80488
246.579,1.06459,-5.4405,0,0.253872,9.82437,-0.589175,-2.7439,10.9146,-2.53049,-9.94891,0.59157,-1.02507,-4.20732,1.58537,7.9878
246.589,1.05097,-5.46001,0,0.296982,9.77168,-0.548459,-2.86585,9.63415,-2.92683,-9.97286,0.65384,-1.0107,-5.42683,1.37195,7.89634
246.599,1.03186,-5.48259,0,0.299377,9.78366,-0.464634,-2.43902,8.56707,-3.47561,-9.96807,0.64426,-1.02507,-6.28049,1.46341,7.7439
246.609,1.00293,-5.49932,0,0.261057,9.81719,-0.395178,-2.7439,8.90244,-3.9939,-9.93215,0.646655,-1.0107,-7.40854,1.85976,7.77439
246.618,0.958986,-5.48925,0,0.198787,9.79563,-0.368833,-2.22561,8.84146,-4.81707,-9.98484,0.603545,-0.924478,-8.59756,1.76829,7.80488
246.629,0.91999,-5.48959,0,0.241897,9.84593,-0.416733,-2.07317,9.32927,-4.90854,-10.0447,0.543669,-0.965193,-9.2378,1.40244,7.5
246.639,0.884976,-5.48438,0,0.261057,9.84114,-0.258662,-2.71341,9.17683,-4.81707,-10.004,0.538879,-0.948428,-9.90854,0.579268,7.28659
246.649,0.858229,-5.46382,0,0.299377,9.8555,-0.299377,-2.28659,9.63415,-4.5122,-10.0495,0.522114,-0.914897,-10.5183,-0.579268,6.98171
246.659,0.830759,-5.44061,0,0.258662,9.89862,-0.213157,-2.46951,10.5793,-4.14634,-10.0639,0.502954,-0.888552,-10.6707,-1.34146,6.79878
246.669,0.796679,-5.43266,0,0.160466,9.90341,-0.306563,-2.83537,10.9146,-3.68902,-10.0399,0.452659,-0.926873,-10.4878,-2.46951,6.40244
246.679,0.759382,-5.43456,0,0.112566,9.83156,-0.349673,-4.14634,10.4268,-3.5061,-10.0112,0.404758,-0.962798,-10.3963,-3.14024,6.40244
246.689,0.726599,-5.43236,0,0.122146,9.72857,-0.301772,-3.2622,9.7561,-3.2622,-10.0112,0.359253,-0.946033,-10.4878,-3.32317,6.25
246.698,0.69177,-5.43377,0,0.105381,9.75252,-0.390388,-2.53049,9.32927,-3.32317,-9.97765,0.349673,-0.958008,-10.5183,-3.62805,6.12805
246.709,0.649079,-5.42593,0,0.0143701,9.72138,-0.222737,-1.40244,8.20122,-2.9878,-9.93454,0.352068,-0.914897,-10.3049,-3.84146,6.0061
246.719,0.60366,-5.43798,0,-0.0263452,9.81,-0.186812,-1.46341,7.28659,-2.80488,-9.91059,0.371228,-0.996328,-10.6402,-3.9939,5.60976
246.729,0.555728,-5.43865,0,-0.0598755,9.86509,-0.249082,-2.62195,6.82927,-2.71341,-9.87227,0.419128,-0.946033,-10.3963,-3.93293,5.60976
246.739,0.507733,-5.45593,0,-0.0694556,9.83156,-0.213157,-3.32317,4.84756,-2.68293,-9.93215,0.431104,-1.02507,-10.2134,-4.7561,5.82317
246.749,0.465417,-5.46108,0,-0.00479004,9.8555,-0.301772,-3.68902,3.65854,-3.14024,-10.0399,0.490979,-0.986748,-9.60366,-5.60976,5.7622
246.759,0.429865,-5.49151,0,0.0215552,9.87946,-0.308958,-4.17683,4.20732,-2.86585,-10.0471,0.476609,-1.10171,-8.96341,-6.18902,6.06707
246.769,0.401547,-5.54642,0,0.0167651,9.77407,-0.241897,-4.69512,5.60976,-2.04268,-10.2028,0.428708,-1.23583,-8.23171,-6.31098,6.37195
246.778,0.371838,-5.64529,0,-0.00479004,9.69025,-0.102986,-4.14634,6.34146,-1.85976,-10.2387,0.227527,-1.45138,-6.85976,-6.21951,6.95122
246.789,0.318835,-5.73911,0,-0.160466,9.75252,-0.114961,-3.01829,6.34146,-1.64634,-10.2004,0.00239502,-1.4418,-4.90854,-6.85976,6.55488
246.799,0.257344,-5.78612,0,-0.234712,9.87467,-0.208367,-3.2622,4.7561,-1.82927,-10.0615,-0.141306,-1.22864,-2.16463,-7.46951,5.42683
246.809,0.200297,-5.79387,0,-0.225132,9.98005,-0.229922,-3.23171,2.53049,-1.64634,-9.89622,-0.0814307,-1.04423,0.0304878,-8.41463,4.08537
246.819,0.141427,-5.77746,0,-0.249082,10.0112,-0.253872,-3.59756,0.548781,-1.85976,-9.76689,0.0550855,-0.926873,0.823171,-8.35366,3.29268
246.829,0.0958521,-5.77512,0,-0.143701,9.93694,-0.299377,-3.56707,-1.09756,-2.34756,-9.74294,0.100591,-0.981958,1.37195,-7.43902,3.07927
246.839,0.058493,-5.76939,0,-0.0886157,9.8579,-0.217947,-2.56098,-2.86585,-2.34756,-9.75252,0.170046,-0.967588,1.18902,-7.13415,2.86585
246.849,0.0220174,-5.75221,0,-0.0335303,9.88185,-0.270637,-1.89024,-3.75,-3.17073,-9.88185,0.265847,-0.929268,0.426829,-7.31707,3.65854
246.859,-0.0105044,-5.72053,0,0.0359253,9.87706,-0.296982,-1.7378,-4.14634,-3.71951,-9.93215,0.392783,-0.866997,-0.762195,-7.19512,3.75
246.869,-0.0366915,-5.69536,0,0.129331,9.87227,-0.292192,-1.46341,-4.29878,-4.26829,-9.93933,0.570015,-0.890947,-1.61585,-7.37805,3.96341
246.879,-0.0474944,-5.66554,0,0.313748,9.81,-0.308958,-1.52439,-4.39024,-4.96951,-9.98005,0.673001,-0.869392,-2.95732,-7.13415,3.90244
246.889,-0.0473899,-5.6336,0,0.438289,9.74054,-0.378413,-0.853659,-1.95122,-5.39634,-9.95849,0.730481,-0.852627,-3.78049,-6.70732,3.47561
246.899,-0.0484106,-5.60979,0,0.471819,9.70701,-0.299377,-0.548781,-1.67683,-5.91463,-9.86269,0.728086,-0.874182,-4.42073,-6.25,3.5061
246.909,-0.0464322,-5.59056,0,0.534089,9.67348,-0.282612,-0.121951,-0.457317,-6.37195,-9.76928,0.6251,-0.881367,-4.57317,-5.30488,3.04878
246.919,-0.0395432,-5.56548,0,0.603545,9.70222,-0.330513,-0.365854,1.64634,-6.67683,-9.70462,0.433499,-0.847837,-4.32927,-4.63415,2.56098
246.929,-0.0364615,-5.51105,0,0.579595,9.69264,-0.229922,0.243902,3.20122,-6.76829,-9.73096,0.270637,-0.723296,-3.71951,-4.26829,2.34756
246.939,-0.0409113,-5.47894,0,0.543669,9.76689,-0.184417,0.121951,4.39024,-7.04268,-9.76928,0.158071,-0.811912,-2.80488,-3.90244,1.67683
246.949,-0.0466108,-5.43219,0,0.486189,9.77647,-0.131726,0.426829,4.93902,-6.4939,-9.79803,0.107776,-0.747246,-2.22561,-3.93293,1.95122
246.959,-0.050617,-5.38501,0,0.445474,9.84353,-0.134121,1.25,5.82317,-5.82317,-9.8579,0.0910107,-0.742456,-2.0122,-3.78049,2.10366
246.969,-0.0622907,-5.32534,0,0.352068,9.89143,-0.105381,0.97561,6.67683,-5.4878,-9.9537,0.182021,-0.684976,-1.70732,-4.17683,2.59146
246.978,-0.0787233,-5.27321,0,0.229922,9.90341,-0.0718506,0.701219,6.61585,-4.57317,-10.0375,0.179626,-0.711321,-2.07317,-4.48171,3.10976
246.989,-0.0913904,-5.22938,0,0.162861,9.97047,-0.160466,-0.548781,5.85366,-3.47561,-10.0279,0.227527,-0.737666,-2.2561,-4.5122,3.84146
246.999,-0.107289,-5.18892,0,0.0838257,9.86988,-0.138911,-1.25,4.5122,-2.92683,-10.0375,0.325723,-0.744851,-2.16463,-4.81707,4.29878
247.008,-0.117166,-5.16058,0,0.0287402,9.82916,-0.143701,-0.396341,3.23171,-1.76829,-10.0303,0.378413,-0.790356,-2.77439,-5,4.78659
247.019,-0.130765,-5.12771,0,-0.0431104,9.92017,-0.208367,-0.640244,1.52439,-0.945122,-9.94412,0.380808,-0.759221,-3.84146,-4.72561,5.51829
247.029,-0.141997,-5.11601,0,-0.0407153,9.89383,-0.328118,-1.18902,0.335366,-0.762195,-9.91538,0.376018,-0.843047,-4.2378,-4.5122,5.73171
247.039,-0.145323,-5.10366,0,0.00239502,9.8555,-0.256267,-1.03659,-0.640244,-0.914634,-9.91538,0.344883,-0.838257,-5.06098,-4.54268,5.7622
247.049,-0.120372,-5.08897,0,0.124541,9.84353,-0.246687,-0.97561,-0.884146,-0.792683,-9.94891,0.296982,-0.828677,-5.45732,-4.72561,5.4878
247.059,-0.101861,-5.07982,0,0.174836,9.8555,-0.311353,-1.52439,-1.43293,-1.46341,-9.94891,0.280217,-0.850232,-5.70122,-4.66463,5.82317
247.069,-0.0898259,-5.04981,0,0.253872,9.8555,-0.311353,-1.70732,-1.25,-2.5,-9.93694,0.268242,-0.756826,-5.97561,-4.93902,6.15854
247.079,-0.0809977,-5.03791,0,0.292192,9.84353,-0.366438,-2.10366,1.06707,-3.07927,-9.94412,0.208367,-0.831072,-5.97561,-5,6.58537
247.089,-0.0747905,-5.02589,0,0.349673,9.76449,-0.342488,-2.04268,2.83537,-3.90244,-9.94412,0.160466,-0.828677,-6.12805,-5.4878,6.85976
247.098,-0.0735204,-4.99682,0,0.354463,9.74773,-0.342488,-2.2561,4.63415,-4.39024,-9.91299,0.0814307,-0.749641,-6.0061,-5.91463,7.10366
247.109,-0.075643,-4.95295,0,0.347278,9.78605,-0.253872,-1.55488,5.85366,-4.60366,-9.88185,0.0790356,-0.677791,-6.06707,-6.12805,7.34756
247.119,-0.0970423,-4.92104,0,0.215552,9.83635,-0.256267,-0.914634,5.70122,-4.93902,-9.96089,0.0359253,-0.728086,-5.82317,-6.31098,7.56098
247.129,-0.126419,-4.877,0,0.110171,9.81,-0.340093,-0.823171,6.43293,-4.54268,-9.94412,0.0886157,-0.66821,-5.27439,-6.58537,7.71341
247.139,-0.174856,-4.845,0,-0.0143701,9.72378,-0.347278,-1.09756,7.46951,-5.03049,-9.91778,0.0958008,-0.711321,-5,-6.25,7.89634
247.149,-0.244032,-4.81231,0,-0.167651,9.77647,-0.438289,-1.40244,8.32317,-5.39634,-9.90341,0.0598755,-0.701741,-5.30488,-6.09756,8.20122
247.159,-0.322321,-4.78545,0,-0.285007,9.82437,-0.364043,-2.31707,6.7378,-5.06098,-9.96328,0.0526904,-0.725691,-4.96951,-5.7622,7.68293
247.169,-0.399062,-4.73629,0,-0.299377,9.8076,-0.414338,-2.89634,3.47561,-4.87805,-9.99442,0.0359253,-0.6251,-5.45732,-5.91463,7.07317
247.179,-0.477036,-4.67679,0,-0.378413,9.89862,-0.426313,-3.47561,0.884146,-4.20732,-10.0208,0.0383203,-0.57241,-5.70122,-6.34146,6.40244
247.188,-0.561631,-4.62329,0,-0.483794,9.93215,-0.428708,-4.48171,-2.28659,-3.71951,-9.99202,0,-0.58678,-5.33537,-6.34146,6.0061
247.199,-0.637554,-4.55197,0,-0.476609,9.90101,-0.366438,-5.18293,-5.42683,-2.77439,-10.0711,0.100591,-0.502954,-5.64024,-6.79878,5.51829
247.209,-0.699968,-4.47932,0,-0.399968,9.89143,-0.464634,-5.15244,-6.15854,-2.37805,-10.1022,0.0646655,-0.486189,-6.15854,-7.31707,5.64024
247.219,-0.74475,-4.39417,0,-0.292192,9.83635,-0.474214,-5,-7.53049,-2.0122,-10.016,0,-0.414338,-6.06707,-7.7439,5.54878
247.229,-0.773002,-4.31314,0,-0.196392,9.72617,-0.459844,-4.90854,-8.10976,-1.7378,-9.93694,-0.0311353,-0.414338,-6.18902,-7.65244,5.73171
247.239,-0.785025,-4.23525,0,-0.114961,9.68546,-0.428708,-5.33537,-9.66463,-1.52439,-9.87946,-0.0359253,-0.411943,-7.22561,-8.17073,5.97561
247.249,-0.794121,-4.16537,0,-0.0981958,9.77407,-0.402363,-5.64024,-9.05488,-1.55488,-9.83156,-0.0838257,-0.431104,-7.92683,-7.89634,6.43293
247.259,-0.817195,-4.09828,0,-0.170046,9.80281,-0.550855,-6.46341,-7.80488,-1.82927,-9.88185,-0.0886157,-0.433499,-8.71951,-7.9878,6.64634
247.269,-0.840984,-4.00067,0,-0.172441,9.83395,-0.486189,-8.53659,-8.62805,-1.95122,-9.89862,-0.131726,-0.289797,-8.93293,-8.65854,6.25
247.279,-0.84021,-3.92682,0,0.0263452,9.79803,-0.55804,-9.05488,-9.42073,-2.34756,-9.87467,-0.155676,-0.376018,-9.93902,-8.9939,5.97561
247.289,-0.819896,-3.85825,0,0.146096,9.8076,-0.766406,-10.2744,-7.2561,-2.16463,-9.91059,-0.251477,-0.387993,-10.1524,-9.39024,5.91463
247.299,-0.798967,-3.80563,0,0.174836,9.84593,-0.696951,-9.96951,-5.73171,-2.31707,-9.79563,-0.428708,-0.440684,-10.2439,-9.29878,5.06098
247.309,-0.789754,-3.7513,0,0.134121,9.80042,-0.874182,-9.08537,-4.57317,-2.71341,-9.68067,-0.60115,-0.419128,-9.7561,-9.11585,5.09146
247.319,-0.782531,-3.69117,0,0.182021,9.78126,-0.946033,-8.35366,-4.81707,-3.32317,-9.63756,-0.699346,-0.383203,-9.84756,-8.81098,5.27439
247.329,-0.782465,-3.64501,0,0.215552,9.73575,-0.859812,-7.65244,-3.38415,-4.29878,-9.71659,-0.797541,-0.435894,-9.32927,-8.59756,5.33537
247.339,-0.798471,-3.60831,0,0.119751,9.73575,-0.917292,-7.80488,-1.95122,-4.72561,-9.73336,-0.859812,-0.469424,-9.20732,-8.59756,5.7622
247.349,-0.822365,-3.56676,0,0.0910107,9.81,-0.874182,-8.53659,-0.823171,-5.18293,-9.8076,-0.946033,-0.445474,-9.54268,-8.29268,6.34146
247.358,-0.840754,-3.5495,0,0.112566,9.8124,-0.828677,-9.60366,-0.0914634,-4.93902,-9.75731,-1.00591,-0.541274,-9.2378,-8.96341,6.46341
247.369,-0.852038,-3.56018,0,0.153281,9.93694,-0.773591,-11.0061,0.762195,-4.72561,-9.64714,-1.13045,-0.651445,-8.90244,-8.87195,6.89024
247.378,-0.86685,-3.57742,0,0.107776,9.93694,-0.759221,-12.7744,0.548781,-4.57317,-9.6663,-1.23344,-0.682581,-8.47561,-8.87195,7.16463
247.389,-0.867323,-3.5927,0,0.150886,9.90101,-0.787961,-13.811,1.09756,-3.75,-9.70941,-1.25499,-0.680186,-7.62195,-8.90244,7.22561
247.399,-0.856505,-3.6224,0,0.186812,9.97526,-0.833467,-14.9085,0.792683,-3.14024,-9.70941,-1.32205,-0.744851,-6.82927,-8.93293,7.43902
247.409,-0.804936,-3.66765,0,0.296982,9.88185,-0.900527,-16.128,0.579268,-1.70732,-9.68067,-1.38193,-0.814307,-5.03049,-8.78049,7.65244
247.419,-0.68202,-3.72339,0,0.402363,9.83635,-0.878972,-16.4024,0.365854,-0.579268,-9.68306,-1.40588,-0.866997,-3.53659,-8.44512,7.77439
247.429,-0.55246,-3.7824,0,0.469424,9.88904,-0.914897,-16.6768,0.884146,0.792683,-9.63995,-1.42264,-0.886157,-1.64634,-8.01829,8.20122
247.439,-0.427697,-3.84028,0,0.550855,9.88425,-0.855022,-17.1951,0.823171,1.25,-9.59924,-1.38911,-0.886157,0.335366,-6.82927,8.68902
247.449,-0.303696,-3.89497,0,0.63947,9.85072,-0.821492,-17.6524,0.0304878,1.89024,-9.68306,-1.3005,-0.888552,2.04268,-5.88415,9.17683
247.459,-0.181092,-3.96095,0,0.689766,9.88185,-0.778381,-18.2317,-1.0061,2.59146,-9.82677,-1.21667,-0.958008,3.62805,-5.06098,9.5122
247.469,-0.0446216,-4.03615,0,0.792751,9.93454,-0.780776,-19.8476,-0.945122,3.93293,-9.93933,-1.1544,-1.01309,4.87805,-3.87195,9.96951
247.479,0.115636,-4.08735,0,0.912502,10.1764,-0.692161,-21.4329,-1.40244,5.7622,-10.1669,-1.22625,-0.931663,6.7378,-2.62195,9.84756
247.488,0.327012,-4.09607,0,1.19272,10.3249,-0.725691,-23.4451,-2.37805,8.35366,-10.2986,-1.1999,-0.771196,8.41463,-1.79878,9.02439
247.499,0.601335,-4.10508,0,1.47533,10.198,-0.498164,-25.4878,-2.80488,11.8598,-10.38,-1.14721,-0.773591,11.189,-0.914634,8.44512
247.509,0.948533,-4.08133,0,1.7292,10.0375,0.00958008,-26.2805,-3.29268,16.7073,-10.2435,-1.0562,-0.677791,13.6585,-0.304878,7.9878
247.519,1.38293,-4.00605,0,2.0693,9.89862,0.273032,-26.6768,-2.43902,22.1646,-10.0782,-0.912502,-0.5772,16.2805,0.0304878,8.44512
247.529,1.91225,-3.9143,0,2.43813,10.0687,0.500559,-28.2622,-1.70732,29.0549,-10.0016,-0.752036,-0.457449,18.8415,-0.853659,9.26829
247.538,2.53154,-3.79413,0,2.75906,10.4423,0.519719,-31.8293,-1.92073,36.8902,-9.95131,-0.479004,-0.222737,21.2195,-2.43902,10.1829
247.549,3.2661,-3.68612,0,3.14227,10.6746,0.450264,-37.2866,-1.76829,46.6463,-9.88425,-0.146096,-0.198787,23.811,-4.32927,11.6463
247.559,4.13921,-3.58322,0,3.4608,10.1884,0.526904,-41.9207,-1.89024,57.4695,-9.82916,0.201182,-0.193997,27.0732,-5.88415,12.8963
247.569,5.14885,-3.42852,0,3.82964,9.78126,0.797541,-41.311,0.27439,67.8354,-9.78126,0.507744,0.0479004,30,-8.14024,13.7805
247.579,6.26792,-3.24074,0,4.1817,9.54176,0.764011,-35.5488,6.21951,76.4024,-10.0303,0.797541,0.220342,32.1646,-11.0976,14.0549
247.589,7.44071,-3.00147,0,4.1841,9.45554,0.720901,-26.5854,13.2317,83.75,-10.2938,1.11129,0.490979,32.9573,-14.2988,14.3902
247.598,8.59743,-2.79195,0,3.753,9.74773,0.467029,-14.8476,22.9268,90.2439,-10.3585,1.31487,0.399968,32.1646,-15.7927,14.6646
247.609,9.75598,-2.62081,0,3.47757,9.98723,0.555645,-4.69512,33.9939,96.5854,-10.4902,1.46096,0.265847,31.0671,-15.7622,14.5427
247.619,10.8554,-2.48238,0,2.52196,9.90101,1.54479,7.40854,41.7683,102.927,-10.6171,1.64059,0.148491,29.6037,-14.8476,14.7561
247.629,11.8304,-2.39911,0,0.953218,10.0926,3.07281,21.4024,38.2012,110.64,-10.5213,1.91362,-0.0814307,27.6829,-12.8963,16.0061
247.639,12.7857,-2.33983,0,0.352068,10.6219,3.8488,32.7439,21.5854,117.744,-10.4543,2.19384,-0.174836,26.1585,-11.3415,18.3537
247.649,13.7269,-2.32005,0,0.277822,10.4327,3.58055,37.7439,6.15854,119.024,-10.4567,2.31359,-0.344883,24.0244,-9.84756,20.3963
247.658,14.6457,-2.34962,0,0.490979,10.9979,2.0693,31.0976,1.37195,116.555,-10.4974,2.18905,-0.570015,21.9817,-8.38415,21.0976
247.669,15.5266,-2.42674,0,1.30289,11.2135,0.519719,14.7866,6.55488,106.25,-10.4327,1.91841,-0.790356,20.3354,-7.31707,20.9146
247.679,16.2929,-2.5216,0,1.85135,10.4088,-0.182021,6.70732,16.7683,89.2988,-10.3872,1.74118,-0.881367,18.9939,-6.37195,20.1524
247.689,16.9093,-2.61417,0,1.74597,10.0351,0.119751,9.7561,24.6341,76.0061,-10.5093,1.5879,-0.898132,17.5,-6.06707,19.5732
247.699,17.3836,-2.74304,0,1.43222,10.1381,0.433499,14.8476,24.6037,66.4939,-10.3656,1.47773,-1.06818,16.2195,-5.54878,18.9634
247.708,17.7417,-2.86877,0,1.07776,10.0878,1.11368,15.5488,16.5549,59.5732,-10.21,1.45857,-1.06099,15.4573,-5.60976,18.8415
247.719,18.0317,-2.96275,0,1.14003,10.0471,1.53521,15.5183,4.7561,52.5915,-10.0232,1.40109,-0.922083,14.5122,-5.51829,19.2378
247.729,18.2923,-3.06524,0,1.44659,9.57529,1.14482,14.3902,-1.06707,45.8537,-9.87706,1.36995,-0.962798,13.5061,-5.82317,19.0244
247.739,18.5175,-3.14088,0,1.65017,8.92624,0.859812,13.1098,-0.457317,38.9329,-9.77886,1.37235,-0.855022,13.2622,-6.03659,18.872
247.749,18.7058,-3.19596,0,1.81063,8.52387,0.814307,14.0549,5,32.5305,-9.58008,1.34361,-0.764011,12.9573,-6.52439,18.2317
247.759,18.8826,-3.21867,0,2.16989,8.44005,0.742456,15.2134,12.9268,26.7988,-9.44596,1.30289,-0.627495,12.9268,-6.67683,17.1341
247.769,19.0622,-3.24192,0,2.6944,8.39694,0.792751,15.4878,22.3476,20.5488,-9.32142,1.21188,-0.6251,12.4695,-6.64634,15.5183
247.778,19.2477,-3.24458,0,3.18777,8.28437,0.706531,14.9085,30.0915,14.878,-9.19927,1.17595,-0.536484,12.2256,-5.88415,14.5427
247.788,19.4315,-3.25819,0,3.58295,8.16702,0.771196,14.2988,35.061,9.69512,-9.11784,1.24062,-0.574805,11.7683,-5.18293,12.9878
247.799,19.6005,-3.29231,0,3.73623,8.10235,0.63468,14.0244,39.2378,6.28049,-9.11544,1.29092,-0.65384,11.7378,-4.32927,11.7378
247.809,19.7555,-3.31368,0,3.8009,8.20773,0.419128,12.4085,39.1768,4.69512,-9.17532,1.43941,-0.608335,11.311,-3.35366,11.0061
247.818,19.8953,-3.33417,0,3.7027,8.17899,0.713716,12.378,40.5793,3.23171,-9.2328,1.4921,-0.60594,10.8232,-2.68293,10.5183
247.829,19.9999,-3.34432,0,3.40093,8.0784,1.2023,17.8354,42.2256,2.80488,-9.30705,1.51844,-0.57241,10.1829,-1.82927,10.1524
247.839,20.0615,-3.35294,0,3.11832,8.19815,1.27415,25.8537,41.0671,4.5122,-9.39806,1.52084,-0.5772,9.17683,-1.98171,9.60366
247.849,20.1199,-3.33728,0,2.98419,8.59093,1.0107,27.3476,38.4756,7.80488,-9.45554,1.48252,-0.510139,8.5061,-1.70732,8.62805
247.859,20.2009,-3.32006,0,3.06562,8.64363,1.15679,27.9268,34.9085,9.48171,-9.54176,1.3484,-0.505349,7.59146,-1.79878,7.46951
247.869,20.2981,-3.28912,0,3.15664,8.72506,1.27415,29.7561,31.7683,10.5488,-9.66151,1.37953,-0.459844,6.0061,-1.95122,5.57927
247.878,20.4165,-3.27307,0,3.42967,8.97414,1.17595,29.1159,25.4878,10.8232,-9.76449,1.42983,-0.512534,4.90854,-1.55488,4.08537
247.889,20.5742,-3.25802,0,3.82485,9.0388,1.02267,27.561,21.8598,10.9451,-9.96328,1.4442,-0.524509,3.53659,-1.25,2.83537
247.899,20.7291,-3.27147,0,4.01645,9.27831,1.06099,24.8171,19.878,10.0305,-10.0375,1.46815,-0.608335,1.89024,-0.762195,2.19512
247.909,20.8782,-3.32073,0,4.04279,9.24238,1.02986,21.4329,17.5,9.29878,-10.0471,1.36756,-0.66821,0.640244,-0.0304878,1.40244
247.919,21.0175,-3.36619,0,4.0883,9.15616,1.48252,18.6585,13.9024,7.71341,-10.0232,1.18314,-0.696951,-0.548781,0.670732,0.884146
247.929,21.1457,-3.44125,0,4.10027,9.21364,1.71723,16.7378,7.92683,7.0122,-9.97286,0.984353,-0.768801,-1.4939,0.640244,0.518293
247.939,21.2756,-3.52712,0,4.17452,9.15616,1.64298,11.8293,-1.12805,6.37195,-9.94652,0.857417,-0.833467,-1.64634,0.97561,0.152439
247.949,21.4316,-3.63952,0,4.34696,8.79691,1.81063,12.4695,-4.57317,5.60976,-9.91059,0.864602,-0.893342,-1.37195,0.792683,-0.579268
247.959,21.597,-3.78569,0,4.54096,8.81607,1.12087,13.1402,-2.89634,4.84756,-9.84593,0.950823,-0.984353,-1.58537,0.792683,-0.670732
247.969,21.8018,-3.98368,0,4.84273,8.64842,0.64426,11.9207,-0.701219,5.12195,-9.79563,1.1041,-1.01549,-1.52439,0.27439,-0.640244
247.978,22.0126,-4.20898,0,4.82117,8.54543,0.632285,11.2805,4.78659,5.85366,-9.72617,1.25499,-1.07536,-1.4939,0.243902,-0.304878
247.989,22.2051,-4.41202,0,4.64394,8.49753,0.764011,11.3415,14.1159,6.0061,-9.63756,1.41067,-1.11608,-1.46341,0.548781,-0.121951
247.999,22.3864,-4.59989,0,4.48108,8.40412,0.63947,11.0366,18.9024,6.4939,-9.59924,1.41546,-1.13284,-2.10366,0.670732,0.0304878
248.009,22.5551,-4.78325,0,4.45953,8.35862,0.57241,11.6463,21.1585,5.45732,-9.5705,1.42504,-1.18314,-2.40854,0.853659,-0.0304878
248.019,22.7006,-4.94887,0,4.30864,8.27719,0.735271,11.0366,22.8354,4.35976,-9.52978,1.3939,-1.21427,-3.04878,1.15854,-0.640244
248.029,22.802,-5.10085,0,3.94939,8.21731,0.826282,11.5854,21.2805,2.65244,-9.58247,1.31487,-1.26697,-3.93293,1.46341,-1.21951
248.039,22.9055,-5.25203,0,3.70031,8.15744,1.01309,11.311,16.372,0.792683,-9.63037,1.22864,-1.31966,-4.26829,1.58537,-2.10366
248.049,22.9162,-5.38231,0,3.46799,8.08559,1.27415,11.8902,10.8841,-0.884146,-9.65911,1.18553,-1.29092,-4.32927,1.61585,-3.01829
248.059,22.876,-5.52382,0,3.31231,8.04008,1.27894,10.9146,4.29878,-2.62195,-9.65193,1.14003,-1.29331,-4.02439,1.21951,-2.89634
248.069,22.8341,-5.66123,0,3.40572,7.85566,1.29571,10.4573,-3.47561,-5.45732,-9.64714,1.07776,-1.29571,-3.5061,1.15854,-3.17073
248.079,22.7973,-5.87584,0,3.6069,7.74789,1.02986,10.3354,-8.87195,-8.10976,-9.55373,1.04662,-1.40348,-3.14024,0.762195,-3.32317
248.089,22.7652,-6.04554,0,3.83203,7.82932,0.855022,10,-12.7439,-9.96951,-9.53936,1.03465,-1.39869,-2.53049,1.09756,-3.5061
248.098,22.7434,-6.25168,0,4.06435,7.96344,0.749641,10.3354,-14.8476,-10.9451,-9.47949,1.03465,-1.45138,-1.79878,0.884146,-3.84146
248.109,22.7484,-6.40764,0,4.38049,8.01134,0.603545,10.4878,-15.4573,-11.5854,-9.50344,1.02986,-1.41785,-0.518293,1.09756,-4.32927
248.119,22.78,-6.58656,0,4.59365,8.15025,0.59157,9.14634,-14.4512,-10.3659,-9.48188,1.08255,-1.46096,0.335366,0.914634,-5
248.129,22.8236,-6.73962,0,4.70382,8.23408,0.548459,7.7439,-13.2317,-9.7561,-9.5202,1.13524,-1.45617,1.40244,0.97561,-5.79268
248.139,22.8904,-6.87085,0,4.84991,8.26042,0.62031,7.16463,-12.1951,-8.68902,-9.54894,1.12326,-1.46815,2.22561,1.18902,-6.12805
248.149,22.9757,-7.01122,0,4.89302,8.18139,0.718506,7.53049,-11.0671,-7.62195,-9.55852,1.07776,-1.53521,3.04878,1.31098,-6.52439
248.159,23.0876,-7.16427,0,4.99122,8.07601,0.869392,9.20732,-11.1585,-6.4939,-9.59924,1.06099,-1.76273,4.14634,2.68293,-7.2561
248.169,23.2287,-7.3181,0,5.18761,8.03769,0.981958,12.4085,-12.8963,-5.67073,-9.58008,1.01788,-1.84417,4.45122,4.02439,-7.68293
248.179,23.3984,-7.47598,0,5.47501,8.06164,1.06099,16.5244,-11.5854,-5.27439,-9.64714,1.02028,-1.91362,4.69512,4.7561,-8.07927
248.188,23.6228,-7.53237,0,5.99713,8.23168,1.18314,18.3537,-9.14634,-3.75,-9.7597,1.18793,-1.52084,4.42073,4.84756,-8.71951
248.198,23.7564,-7.44188,0,5.97797,9.12981,0.328118,25.061,-6.67683,-5.97561,-10.2076,1.19032,-1.0083,3.29268,1.70732,-9.26829
248.209,23.675,-7.25914,0,5.44867,11.4338,-0.60594,23.5671,1.0061,-11.8293,-10.7512,0.977168,-0.603545,2.80488,-2.10366,-11.0061
248.219,23.413,-7.07563,0,4.46432,12.8996,0.0550855,19.5732,6.67683,-17.378,-11.3428,0.622705,-0.526904,3.81098,-5.82317,-12.1037
248.229,23.0859,-6.9367,0,3.68833,12.4876,1.12805,18.811,1.7378,-19.1768,-11.5344,0.342488,-0.725691,6.03659,-6.09756,-12.1646
248.239,22.8912,-6.85538,0,4.0883,11.0626,1.48012,19.5122,-15.2744,-14.1463,-11.3045,0.443079,-0.979563,7.65244,-2.71341,-8.5061
248.249,22.9003,-6.85683,0,5.70254,10.6267,1.13524,15.8537,-24.5732,-9.93902,-10.8183,0.479004,-1.30529,8.07927,0.884146,-1.89024
248.259,23.1091,-6.89423,0,7.5515,10.6195,1.152,10.8841,-15.7012,-4.26829,-10.3609,0.237107,-1.41067,9.90854,3.41463,4.29878
248.269,23.5345,-6.90358,0,9.3286,10.095,0.946033,16.2805,6.15854,3.29268,-10.1836,0.114961,-1.26936,12.6524,3.84146,7.68293
248.279,23.9408,-6.9248,0,9.04599,10.3321,-0.881367,24.1463,35.5793,5.39634,-10.3297,0.0598755,-1.34361,14.9085,4.5122,8.2622
248.289,24.0315,-6.92085,0,5.80792,11.1416,-1.28134,23.7195,72.3476,1.76829,-10.6578,0.280217,-1.26936,16.372,6.70732,6.85976
248.299,23.6758,-6.91324,0,1.79387,10.4495,0.574805,18.0793,81.0671,-7.10366,-10.9404,0.823887,-1.28134,15.6707,9.81707,5.21341
248.309,22.9229,-6.89217,0,-0.574805,8.87355,2.15791,14.6646,53.6585,-20.9451,-11.077,1.50886,-1.22625,15.3963,12.9268,4.32927
248.319,21.9021,-6.78342,0,-1.53281,7.72633,1.83219,16.8902,21.9817,-34.4817,-11.1752,2.19623,-0.795146,13.9024,15.3659,5.2439
248.329,20.7366,-6.55018,0,-1.86093,7.37666,0.517324,18.5366,-7.65244,-45.3354,-11.2542,2.66326,-0.158071,8.9939,17.9878,6.52439
248.339,19.663,-6.25069,0,-1.08255,8.18618,-0.162861,21.1585,-28.4451,-51.8598,-11.5416,2.62015,0.225132,2.37805,21.1585,7.10366
248.348,18.7319,-5.89044,0,-0.217947,9.92017,-1.08015,21.3415,-42.3476,-52.3171,-12.035,2.26329,0.622705,-4.90854,23.3232,5.21341
248.359,17.9483,-5.50345,0,0.835862,10.9117,-2.75427,24.2073,-47.1341,-50.6707,-12.3846,1.72681,0.864602,-10.3963,22.4695,2.0122
248.369,17.2395,-5.12943,0,1.41067,11.52,-2.49561,27.561,-46.128,-49.939,-12.3511,1.0083,0.871787,-13.2622,19.3902,-2.89634
248.378,16.5363,-4.7641,0,1.41067,11.8218,-1.86333,25.5793,-41.4634,-50.4573,-11.9368,0.55325,0.871787,-14.9695,16.4024,-6.58537
248.389,15.8786,-4.40734,0,1.80584,10.8303,-1.68849,22.8049,-33.2927,-52.6829,-11.326,0.107776,0.855022,-15.7927,14.5732,-8.47561
248.399,15.2739,-4.05058,0,2.2585,9.84593,-1.32924,23.3232,-25,-55.6707,-10.5596,-0.265847,0.862207,-17.1341,13.3537,-8.62805
248.409,14.6516,-3.64834,0,2.11001,9.09149,-1.24062,23.5366,-19.1768,-58.9939,-9.75731,-0.62031,1.05381,-18.7805,11.5854,-8.01829
248.419,13.9894,-3.22735,0,1.88249,8.59093,-1.60227,20.4878,-16.2195,-62.8963,-9.2304,-0.6251,1.13524,-21.7988,8.04878,-7.0122
248.429,13.2583,-2.69157,0,1.52084,8.32988,-1.78189,20,-12.439,-67.1646,-8.6077,-0.826282,1.55437,-24.2683,6.61585,-5.7622
248.439,12.445,-2.07549,0,1.07536,8.74182,-1.84896,18.3841,-9.20732,-70.2439,-8.34425,-0.661025,1.6837,-27.3171,4.20732,-3.87195
248.448,11.6379,-1.45695,0,1.0586,9.38848,-1.8753,17.6829,-7.56098,-70.0915,-8.34185,-0.500559,1.44659,-29.5732,3.17073,-2.04268
248.459,10.8509,-0.944075,0,0.967588,9.67827,-2.29203,16.7683,-2.71341,-68.2012,-8.59573,-0.390388,1.09452,-29.9695,2.53049,0.213415
248.469,10.0982,-0.65815,0,0.768801,9.43159,-2.16031,18.3232,-0.243902,-64.1768,-8.99809,-0.608335,0.608335,-28.872,2.13415,1.09756
248.479,9.39945,-0.51156,0,0.804727,9.2352,-2.22497,18.7805,3.01829,-60.8537,-9.30226,-0.799937,0.340093,-26.5244,2.19512,1.46341
248.489,8.66528,-0.44813,0,0.294587,9.1849,-2.1627,19.2683,-1.89024,-59.4817,-9.46512,-1.08494,0.134121,-23.7195,2.46951,1.18902
248.499,7.91738,-0.446901,0,-0.0407153,9.10826,-1.46096,20.0305,-8.87195,-58.1098,-9.50344,-1.34361,-0.0670605,-20.4573,3.17073,0.518293
248.509,7.17694,-0.451454,0,-0.203577,9.26873,-1.3939,19.5732,-18.689,-56.8293,-9.46991,-1.48012,-0.0886157,-18.2317,3.35366,-0.579268
248.519,6.46374,-0.429248,0,-0.246687,9.30944,-1.58071,17.7744,-26.9817,-55.0305,-9.616,-1.50407,0.00958008,-16.7073,2.77439,-1.55488
248.529,5.76244,-0.424416,0,-0.409548,9.59924,-1.54239,14.7866,-32.9573,-53.3841,-9.68306,-1.30768,-0.0550855,-16.0366,1.92073,-2.04268
248.538,5.09517,-0.44581,0,-0.407153,9.96568,-1.50647,13.2927,-40.7012,-51.5549,-9.87467,-1.02507,-0.134121,-15.9756,1.25,-1.85976
248.549,4.47801,-0.531295,0,-0.246687,10.2243,-1.56155,11.6463,-48.1098,-49.7561,-9.9561,-0.785566,-0.258662,-16.0671,0.426829,-1.37195
248.559,3.94535,-0.72828,0,0.287402,10.0208,-1.69088,10.5488,-47.8659,-48.5671,-9.83156,-0.608335,-0.445474,-16.0366,0.27439,-0.152439
248.568,3.46967,-1.09993,0,0.536484,9.92975,-1.83219,9.02439,-49.2683,-46.7988,-9.65432,-0.479004,-0.62989,-16.0061,-0.0304878,1.4939
248.579,3.01806,-1.64022,0,0.536484,9.48188,-1.75794,7.83537,-50.8537,-45.6098,-9.4244,-0.469424,-0.802332,-15.3049,0.0304878,3.56707
248.589,2.60759,-2.12641,0,0.768801,9.33339,-1.91123,8.04878,-47.622,-45.3354,-9.28549,-0.546064,-0.876577,-14.2988,-0.304878,5.67073
248.599,2.20014,-2.52809,0,0.665815,9.3789,-1.94715,8.53659,-51.2195,-44.5427,-9.30944,-0.814307,-1.04662,-12.1646,-0.762195,6.70732
248.609,1.82525,-2.87858,0,0.946033,9.55373,-2.10043,9.39024,-49.4817,-45.3049,-9.48428,-1.14242,-1.19032,-9.45122,-0.945122,7.13415
248.619,1.44206,-3.14508,0,0.828677,9.30465,-2.10762,9.69512,-45.2744,-45.7622,-9.64474,-1.43462,-1.24541,-5.88415,-1.34146,6.52439
248.629,1.09192,-3.33204,0,1.02986,9.28549,-1.97589,9.93902,-41.0976,-45.7012,-9.64235,-1.58311,-1.21906,-2.71341,-2.43902,5.39634
248.639,0.771158,-3.47257,0,1.24541,9.22801,-2.09804,9.96951,-35.1524,-46.189,-9.56092,-1.69567,-1.12087,0.27439,-3.47561,4.81707
248.649,0.464184,-3.59476,0,1.2981,9.18969,-2.10283,9.69512,-29.2378,-46.1585,-9.39566,-1.6837,-1.06339,2.80488,-4.08537,5
248.659,0.113277,-3.69715,0,0.847837,9.0412,-1.98547,9.72561,-28.5976,-45.7927,-9.2352,-1.61185,-0.993933,4.63415,-4.78659,5.18293
248.669,-0.229986,-3.77476,0,0.732876,9.02683,-2.01421,9.66463,-27.9878,-44.2683,-9.05557,-1.45138,-0.895737,5.7622,-5.30488,6.18902
248.678,-0.518717,-3.84753,0,0.926873,9.12502,-2.19863,9.57317,-23.1098,-41.7683,-8.88313,-1.33642,-0.874182,6.64634,-5.91463,7.80488
248.689,-0.819145,-3.91397,0,0.63947,9.21364,-1.97829,9.2378,-21.25,-39.8171,-8.73464,-1.29092,-0.847837,7.19512,-6.46341,9.14634
248.699,-1.13985,-3.99157,0,0.244292,9.20166,-1.95194,7.77439,-23.5671,-37.5,-8.64123,-1.24781,-0.890947,7.77439,-6.37195,10.7012
248.709,-1.43101,-4.06911,0,0.304167,9.02683,-1.94715,7.89634,-27.8049,-35.9756,-8.51669,-1.15679,-0.890947,8.62805,-6.95122,12.0732
248.718,-1.69297,-4.15932,0,0.431104,8.81367,-2.15552,9.29878,-30.3963,-35.3659,-8.42089,-1.06818,-0.938848,9.42073,-6.7378,13.7195
248.729,-1.94993,-4.28393,0,0.421523,8.84481,-2.49082,9.66463,-28.2927,-35.2439,-8.3658,-0.972378,-1.07057,10,-6.25,15.1524
248.739,-2.1474,-4.48991,0,0.802332,9.0388,-2.57465,9.11585,-28.2317,-34.4817,-8.30832,-0.979563,-1.35558,11.128,-5.03049,16.311
248.748,-2.33892,-5.02985,0,0.914897,8.91426,-2.48124,10,-24.8476,-35.8841,-8.28437,-1.04183,-1.87051,13.0793,-2.34756,16.4634
248.759,-2.52362,-6.02662,0,1.04902,8.91426,-2.22737,10.4878,-22.8049,-37.3171,-8.24366,-1.17356,-2.19863,14.878,1.43293,16.311
248.769,-2.75321,-6.41131,0,0.708926,9.05557,-1.80345,8.81098,-18.9634,-37.7134,-8.38975,-1.35558,-2.2585,17.1341,4.32927,15.8537
248.778,-2.98944,-6.706,0,0.60594,9.46991,-1.78908,6.37195,-18.4451,-37.1951,-8.62686,-1.54479,-2.10762,19.1159,5.82317,15.3049
248.788,-3.23448,-6.97164,0,0.543669,9.39327,-2.01661,3.35366,-20.7622,-37.8659,-8.83523,-1.70286,-2.09564,20.4573,6.40244,14.6646
248.799,-3.47232,-7.21516,0,0.579595,9.27112,-2.3543,1.70732,-23.9329,-38.1707,-9.05557,-1.62861,-2.10043,21.25,6.34146,14.3598
248.809,-3.72976,-7.40965,0,0.522114,9.43877,-2.60099,1.46341,-24.6646,-39.8171,-9.44356,-1.28373,-2.0214,21.8293,6.85976,15.2439
248.819,-4.01361,-7.46286,0,0.431104,9.53457,-2.41178,0.243902,-22.378,-41.8598,-9.82437,-0.883762,-1.50647,21.25,6.34146,16.3415
248.829,-4.3146,-7.4325,0,0.332908,9.59924,-2.40939,-1.0061,-19.6951,-42.9573,-10.2339,-0.201182,-1.1999,19.0244,4.29878,17.5
248.839,-4.6073,-7.37245,0,0.265847,9.47949,-2.44052,-2.28659,-21.9817,-41.9512,-10.368,0.227527,-1.08973,15.9146,2.7439,18.75
248.849,-4.81881,-7.28281,0,0.65384,9.35255,-2.68721,-4.42073,-23.2927,-39.1463,-10.4686,0.395178,-0.981958,11.5244,2.0122,19.3293
248.859,-4.91806,-7.13684,0,1.16158,9.18969,-3.21651,-7.89634,-26.5549,-34.6646,-10.5333,0.299377,-0.821492,6.4939,1.09756,18.3537
248.869,-4.91731,-7.11253,0,1.61185,9.04599,-3.73384,-9.57317,-24.1463,-30.5793,-10.6123,0.0455054,-1.24541,2.5,0.731707,16.4939
248.878,-4.87964,-7.26732,0,1.67172,9.12502,-3.74581,-8.9939,-15.2134,-27.378,-10.4183,-0.177231,-1.98547,0.97561,2.71341,14.3598
248.888,-4.86851,-7.47889,0,1.28852,9.63995,-3.52786,-7.0122,-3.84146,-24.3598,-10.3896,-0.469424,-2.31598,1.31098,5.70122,12.7439
248.899,-4.9088,-7.66598,0,0.720901,10.5261,-3.00335,-6.03659,0.579268,-22.0427,-10.8758,-0.950823,-2.34472,3.35366,7.16463,11.2805
248.909,-4.95108,-7.71952,0,0.555645,11.3332,-2.96982,-6.21951,-1.58537,-20.061,-11.7116,-1.46575,-1.85135,5.57927,7.04268,8.68902
248.919,-4.93645,-7.69573,0,0.833467,11.8386,-3.11592,-7.9878,-2.83537,-16.8293,-12.5906,-1.88009,-1.56634,7.43902,5.54878,5.73171
248.929,-4.87273,-7.71054,0,1.07776,12.0613,-3.2692,-10.3049,-4.72561,-13.9939,-12.9906,-1.71723,-1.83458,8.90244,6.31098,3.44512
248.939,-4.76311,-7.83036,0,1.15679,12.0948,-2.97461,-13.0793,-4.90854,-9.90854,-12.5954,-1.26697,-2.37586,9.57317,10.9451,4.11585
248.949,-4.56932,-7.9232,0,1.34361,12.114,-2.61536,-16.189,-6.82927,-3.01829,-12.3775,-1.21188,-2.20342,9.87805,16.311,6.18902
248.959,-4.24508,-7.89037,0,1.82979,12.0062,-2.45729,-20.6707,-13.3841,6.06707,-12.4852,-1.35558,-1.53281,11.0671,19.2073,7.40854
248.969,-3.73919,-7.75267,0,2.70158,12.0925,-2.43334,-26.9207,-16.2805,17.2561,-12.8277,-1.28373,-0.967588,13.3537,20.122,7.62195
248.979,-3.1148,-7.51963,0,2.80457,12.3487,-2.14115,-32.6524,-16.0366,29.9695,-12.9906,-0.742456,-0.402363,15.5793,18.9329,7.7439
248.988,-2.37111,-7.18396,0,2.82852,12.5595,-1.61424,-39.2378,-17.5305,43.628,-13.2181,0.0455054,0.239502,15.8232,16.372,8.44512
