time,angle1,angle2,intgangle,accX1,accY1,accZ1,gyroX1,gyroY1,gyroZ1,accX2,accY2,accZ2,gyroX2,gyroY2,gyroZ2
535.465,73.0064,10.9623,0,9.10107,2.74948,3.02491,0.213415,0.152439,-1.70732,-9.68306,-0.431104,1.89686,-0.0304878,-0.518293,7.43902
535.475,72.9951,10.9376,0,9.09389,2.73032,3.02491,0.121951,0,-1.89024,-9.68785,-0.383203,1.8274,0.152439,-0.396341,7.22561
535.485,72.9886,10.9511,0,9.06754,2.71595,3.04646,0.0304878,0.152439,-1.58537,-9.70462,-0.397573,1.90404,0.304878,-0.518293,7.22561
535.495,72.988,10.9654,0,9.10347,2.68242,3.04407,0.0609756,-0.0914634,-1.67683,-9.7142,-0.359253,1.91362,0.243902,-0.762195,7.28659
535.505,72.9898,10.9696,0,9.08191,2.68961,3.11353,0.0304878,-0.213415,-1.34146,-9.70222,-0.325723,1.88967,0.335366,-0.853659,7.34756
535.515,72.9927,10.9667,0,9.12023,2.692,3.00814,0.27439,-0.335366,-1.37195,-9.7118,-0.318538,1.8753,0.518293,-0.640244,6.98171
535.525,72.9989,10.9533,0,9.11305,2.68003,3.05604,-0.121951,-0.518293,-1.25,-9.69504,-0.313748,1.84656,0.304878,-0.731707,7.43902
535.535,73.0065,10.9377,0,9.12981,2.65847,3.01293,-0.0609756,-0.335366,-1.43293,-9.68546,-0.311353,1.84177,0.121951,-0.487805,7.16463
535.545,73.0144,10.9326,0,9.09868,2.65608,3.03449,0.27439,-0.396341,-1.34146,-9.64714,-0.347278,1.85375,0.213415,-0.457317,7.34756
535.555,73.0307,10.9421,0,9.10347,2.61776,3.01054,-0.0914634,-0.213415,-1.25,-9.61121,-0.371228,1.87291,0.152439,-0.27439,7.16463
535.565,73.0435,10.9552,0,9.12981,2.62734,3.03209,-0.365854,0.182927,-1.37195,-9.6184,-0.390388,1.88009,0,0.0609756,7.19512
535.575,73.0489,10.9498,0,9.13939,2.6465,3.01293,-0.27439,-0.0609756,-1.64634,-9.62079,-0.387993,1.85375,-0.0609756,-0.0609756,7.28659
535.585,73.0549,10.9608,0,9.10826,2.63931,3.00096,-0.152439,0.365854,-1.58537,-9.67348,-0.354463,1.89207,0.0304878,0.27439,7.56098
535.595,73.0675,10.9573,0,9.11544,2.61536,3.0273,-0.304878,-0.243902,-1.43293,-9.63756,-0.328118,1.86093,-0.0914634,0.121951,7.53049
535.605,73.0767,10.9578,0,9.1346,2.61536,3.07042,-0.548781,0,-1.64634,-9.67827,-0.308958,1.8753,0.0914634,0.518293,7.5
535.615,73.0881,10.9761,0,9.11784,2.5962,3.06323,-0.487805,0.0609756,-1.64634,-9.67588,-0.325723,1.91362,-0.426829,0.579268,7.34756
535.625,73.0946,10.9703,0,9.11065,2.63931,2.99377,-0.152439,0,-1.4939,-9.6639,-0.304167,1.86333,-0.243902,0.396341,7.19512
535.635,73.0936,10.9914,0,9.11784,2.65129,3.05604,-0.0609756,0.243902,-1.89024,-9.66151,-0.325723,1.9256,-0.182927,0.853659,7.22561
535.645,73.0897,10.9954,0,9.13221,2.65608,3.02491,-0.304878,0.426829,-2.10366,-9.66869,-0.308958,1.88728,-0.152439,0.640244,7.13415
535.655,73.0902,10.9905,0,9.17053,2.6441,2.97701,-0.335366,0.396341,-2.0122,-9.69743,-0.332908,1.87291,-0.213415,0.792683,7.07317
535.665,73.0838,11.0012,0,9.12981,2.68961,3.02012,-0.182927,0.487805,-1.92073,-9.67588,-0.364043,1.90644,-0.396341,0.853659,7.22561
535.675,73.0797,11.0051,0,9.14179,2.67284,3.03688,-0.27439,0.701219,-1.98171,-9.6663,-0.320933,1.88967,-0.152439,0.914634,6.95122
535.685,73.0703,11.028,0,9.12742,2.70637,3.0273,-0.0609756,0.853659,-1.98171,-9.63995,-0.316143,1.93757,-0.335366,1.09756,7.22561
535.695,73.0612,11.0169,0,9.12742,2.71595,3.02491,-0.0914634,0.945122,-1.85976,-9.67109,-0.316143,1.85854,-0.121951,0.823171,6.70732
535.705,73.0604,11.0174,0,9.11784,2.67524,3.03209,-0.365854,1.15854,-1.67683,-9.67109,-0.292192,1.88488,-0.0304878,0.97561,6.95122
535.715,73.0575,11.0304,0,9.0867,2.68242,3.0273,-0.335366,1.0061,-1.64634,-9.68546,-0.289797,1.91841,0.0304878,0.823171,7.13415
535.725,73.0544,11.0481,0,9.06036,2.68003,3.07281,-0.396341,1.21951,-1.61585,-9.69743,-0.273032,1.93039,-0.213415,0.609756,7.19512
535.735,73.0507,11.0406,0,9.10347,2.68242,3.10155,-0.182927,1.25,-1.76829,-9.67109,-0.258662,1.87291,-0.426829,0.548781,7.10366
535.745,73.0525,11.0231,0,9.06275,2.65608,3.07042,-0.0304878,1.40244,-1.55488,-9.69025,-0.256267,1.85135,-0.518293,0.670732,6.98171
535.755,73.0502,11.0078,0,9.0867,2.692,3.11592,-0.0304878,1.15854,-1.4939,-9.69743,-0.251477,1.85854,-0.823171,0.426829,7.0122
535.765,73.0531,11.0186,0,9.06036,2.64889,3.08718,-0.0914634,1.06707,-1.55488,-9.69743,-0.292192,1.90883,-0.487805,0.426829,6.92073
535.775,73.0518,11.0206,0,9.11305,2.68003,3.09197,-0.121951,1.09756,-1.64634,-9.69743,-0.308958,1.89207,-0.365854,0.243902,6.85976
535.785,73.0545,11.007,0,9.06515,2.65847,3.13269,0,0.884146,-1.46341,-9.68785,-0.316143,1.85854,-0.640244,0.518293,7.10366
535.795,73.0572,10.9914,0,9.06754,2.65608,3.10634,-0.0304878,0.914634,-1.4939,-9.69264,-0.330513,1.85614,-0.487805,0.304878,7.2561
535.805,73.0593,10.9866,0,9.04359,2.63931,3.08958,0.0609756,1.03659,-1.64634,-9.63995,-0.285007,1.86333,-0.487805,0.396341,7.16463
535.815,73.0662,10.9647,0,9.08191,2.63692,3.09197,-0.0304878,0.884146,-1.46341,-9.67588,-0.299377,1.83938,-0.731707,0.243902,7.16463
535.825,73.0762,10.9117,0,9.07473,2.62973,3.09676,-0.152439,0.609756,-1.31098,-9.65672,-0.316143,1.7795,-0.426829,0.213415,7.56098
535.835,73.0798,10.916,0,9.07712,2.6441,3.10634,0.152439,0.487805,-1.55488,-9.68067,-0.292192,1.8753,-0.609756,0.426829,7.19512
535.845,73.087,10.8977,0,9.07712,2.62973,3.10395,-0.0609756,0.457317,-1.46341,-9.69983,-0.320933,1.83698,-0.640244,0.27439,7.5
535.855,73.0945,10.861,0,9.11544,2.65129,3.08718,0.152439,0.121951,-1.31098,-9.70701,-0.296982,1.79147,-0.609756,0.518293,7.40854
535.865,73.0922,10.8271,0,9.0867,2.67763,3.10634,0,0.365854,-1.58537,-9.69743,-0.306563,1.79626,-0.670732,0.335366,7.34756
535.875,73.0916,10.7947,0,9.09868,2.67284,3.09916,-0.0609756,0.152439,-1.55488,-9.68546,-0.316143,1.79626,-0.548781,0.182927,7.46951
535.885,73.0953,10.7607,0,9.09389,2.63931,3.08479,-0.335366,0.426829,-1.61585,-9.69504,-0.332908,1.78189,-0.243902,0.396341,7.16463
535.895,73.1,10.7688,0,9.07712,2.63931,3.11113,0.0609756,0.304878,-1.4939,-9.66151,-0.342488,1.85375,-0.27439,0.548781,7.22561
535.905,73.1047,10.7351,0,9.10107,2.65368,3.08,0,0.182927,-1.40244,-9.68785,-0.335303,1.77471,-0.121951,0.457317,7.04268
535.915,73.1066,10.7198,0,9.10347,2.66805,3.04646,-0.121951,0.121951,-1.43293,-9.67588,-0.320933,1.79866,0.0609756,0.792683,7.19512
535.925,73.1102,10.7154,0,9.12023,2.6441,3.10874,-0.0304878,-0.0914634,-1.61585,-9.70941,-0.316143,1.8274,-0.0914634,1.0061,7.10366
535.935,73.11,10.7248,0,9.10826,2.65129,3.06802,-0.0609756,0.121951,-1.76829,-9.69504,-0.296982,1.86333,-0.27439,1.28049,7.31707
535.945,73.1155,10.7179,0,9.10107,2.59381,3.06802,-0.396341,0.121951,-1.95122,-9.71659,-0.258662,1.82261,-0.152439,1.0061,7.19512
535.955,73.1182,10.7058,0,9.0891,2.63213,3.07521,-0.365854,0.182927,-1.70732,-9.69264,-0.299377,1.80584,-0.0609756,0.823171,7.16463
535.965,73.1177,10.6927,0,9.10347,2.65608,3.09676,-0.396341,0.0304878,-1.70732,-9.69983,-0.311353,1.80584,-0.579268,0.579268,6.89024
535.975,73.1182,10.6835,0,9.10107,2.64889,3.10155,-0.243902,0.213415,-1.70732,-9.68067,-0.316143,1.80824,-0.335366,0.609756,6.85976
535.985,73.1246,10.6728,0,9.09868,2.60339,3.13029,0,0.243902,-1.76829,-9.69025,-0.313748,1.80584,-0.335366,0.548781,7.22561
535.995,73.1287,10.6481,0,9.12742,2.63931,3.08239,-0.0609756,0.0914634,-1.61585,-9.74533,-0.311353,1.78668,-0.304878,0.396341,7.19512
536.005,73.1296,10.6239,0,9.10347,2.65129,3.07281,0,0.27439,-1.64634,-9.77168,-0.349673,1.79147,-0.182927,0.243902,7.53049
536.015,73.1302,10.62,0,9.12981,2.65368,3.11592,0.121951,-0.0609756,-1.70732,-9.76689,-0.344883,1.825,-0.243902,0.152439,7.65244
536.025,73.1251,10.6336,0,9.12502,2.68961,3.13029,0.182927,0.0914634,-1.70732,-9.7597,-0.285007,1.85614,-0.213415,0.243902,7.59146
536.035,73.1295,10.6092,0,9.15616,2.65129,3.06323,0.0914634,0.0304878,-1.55488,-9.76689,-0.273032,1.79147,0.0914634,0.0914634,7.37805
536.045,73.1309,10.5954,0,9.15856,2.65608,3.08,-0.121951,0.213415,-1.70732,-9.73336,-0.292192,1.79866,-0.0304878,0.182927,7.34756
536.055,73.1348,10.5849,0,9.14418,2.64171,3.05125,-0.335366,0.182927,-1.64634,-9.71899,-0.304167,1.79866,0.152439,0.27439,6.98171
536.065,73.1382,10.5492,0,9.10826,2.62734,3.01772,-0.213415,0.304878,-1.7378,-9.7118,-0.308958,1.74118,-0.0914634,0.487805,7.04268
536.075,73.1381,10.521,0,9.11305,2.64171,3.05844,-0.0304878,0.487805,-1.82927,-9.70462,-0.296982,1.74836,0,0.518293,6.67683
536.085,73.1408,10.53,0,9.07233,2.61776,3.09916,0.0914634,0.518293,-1.76829,-9.68067,-0.313748,1.81303,0.396341,0.121951,6.7378
536.095,73.139,10.5176,0,9.08431,2.62255,3.05844,0.0609756,0.304878,-2.07317,-9.68067,-0.308958,1.7771,0.0609756,0.27439,7.07317
536.105,73.1385,10.5071,0,9.08431,2.60818,3.08239,0.152439,0.213415,-2.13415,-9.67827,-0.268242,1.7771,0.121951,0.365854,7.0122
536.115,73.1382,10.5086,0,9.09868,2.60818,3.10395,-0.0304878,0.27439,-2.16463,-9.64235,-0.304167,1.79147,0,0.365854,7.10366
536.125,73.1339,10.5218,0,9.0891,2.62494,3.10634,0.0914634,0.304878,-2.2561,-9.65432,-0.258662,1.82261,-0.0609756,0.792683,7.07317
536.135,73.132,10.54,0,9.07952,2.61776,3.1279,-0.0609756,0.0304878,-2.13415,-9.64474,-0.253872,1.83458,0.121951,0.792683,7.10366
536.145,73.127,10.5542,0,9.05796,2.64171,3.10634,-0.0914634,0.182927,-2.04268,-9.67348,-0.246687,1.82979,-0.121951,0.518293,6.98171
536.155,73.1215,10.5663,0,9.03641,2.62973,3.0776,0.213415,0.121951,-2.16463,-9.69264,-0.251477,1.83458,-0.0914634,0.701219,6.76829
536.165,73.1195,10.5635,0,9.0867,2.64171,3.14945,0.548781,0.121951,-1.92073,-9.67348,-0.273032,1.79866,-0.121951,0.701219,6.92073
536.175,73.1194,10.5727,0,9.0867,2.63452,3.13987,0.182927,-0.304878,-1.85976,-9.70222,-0.282612,1.83219,0.152439,0.792683,6.98171
536.185,73.1124,10.5772,0,9.11065,2.67524,3.12071,0.243902,0.0304878,-2.0122,-9.65911,-0.292192,1.81303,0.396341,0.579268,6.67683
536.195,73.0981,10.5948,0,9.07712,2.71835,3.10874,0.121951,-0.335366,-2.0122,-9.67348,-0.287402,1.84896,0.121951,0.792683,7.13415
536.205,73.0861,10.6026,0,9.06036,2.70637,3.1255,0.0914634,-0.182927,-1.92073,-9.66151,-0.285007,1.8274,0.0304878,0.914634,7.04268
536.215,73.0789,10.6285,0,9.07233,2.6944,3.14945,0.396341,-0.365854,-1.7378,-9.68067,-0.265847,1.8777,-0.0609756,0.884146,7.2561
536.225,73.0685,10.6457,0,9.0867,2.70877,3.09676,0.27439,-0.396341,-1.89024,-9.68067,-0.253872,1.86333,-0.0609756,1.03659,7.28659
536.235,73.0636,10.6595,0,9.0891,2.68721,3.12071,0.0914634,-0.487805,-1.7378,-9.72378,-0.273032,1.86093,-0.213415,0.701219,7.10366
536.245,73.0537,10.6471,0,9.06515,2.71835,3.08,0.152439,-0.121951,-1.67683,-9.71659,-0.280217,1.79626,-0.365854,1.03659,7.37805
536.255,73.0448,10.6405,0,9.12263,2.71356,3.0776,0.0914634,-0.213415,-1.89024,-9.69264,-0.306563,1.80584,-0.365854,0.97561,7.16463
536.265,73.0397,10.644,0,9.0867,2.71835,3.09437,0.121951,-0.243902,-1.40244,-9.72617,-0.275427,1.83698,-0.121951,0.853659,7.10366
536.275,73.0369,10.6629,0,9.12023,2.6944,3.08479,0.152439,0.0304878,-1.64634,-9.67109,-0.280217,1.86333,0.0304878,0.792683,7.2561
536.285,73.0368,10.6537,0,9.09149,2.68003,3.10395,-0.0304878,-0.243902,-1.52439,-9.72378,-0.304167,1.80824,-0.0304878,0.884146,7.10366
536.295,73.0393,10.6483,0,9.09149,2.67763,3.12311,-0.213415,-0.487805,-1.37195,-9.66869,-0.306563,1.80584,-0.152439,0.945122,6.95122
536.305,73.039,10.6314,0,9.09149,2.67284,3.08479,0.27439,-0.518293,-1.61585,-9.66151,-0.356858,1.77231,-0.0609756,1.09756,6.98171
536.315,73.0396,10.6181,0,9.11305,2.66805,3.08,0.121951,-0.182927,-1.67683,-9.62319,-0.349673,1.77231,0.182927,1.09756,6.95122
536.325,73.0451,10.6175,0,9.11305,2.66805,3.06802,0.243902,-0.182927,-1.34146,-9.59684,-0.328118,1.79866,0.27439,1.52439,6.92073
536.335,73.0522,10.6046,0,9.11784,2.6441,3.06323,0.121951,-0.304878,-1.4939,-9.61361,-0.311353,1.76273,0.487805,1.67683,7.07317
536.345,73.0653,10.619,0,9.11544,2.60818,3.06802,0.304878,0.213415,-1.46341,-9.61361,-0.294587,1.84896,0.335366,1.79878,6.7378
536.355,73.069,10.6242,0,9.13221,2.66566,3.05125,0.182927,0.27439,-1.4939,-9.6184,-0.265847,1.82261,0.335366,1.92073,6.95122
536.365,73.0768,10.6253,0,9.12023,2.64171,3.10634,0.121951,0.0304878,-1.43293,-9.67588,-0.299377,1.82021,0.121951,1.89024,6.95122
536.375,73.0836,10.6127,0,9.14658,2.62973,3.08718,-0.182927,0.27439,-1.67683,-9.69983,-0.273032,1.7795,0.0914634,1.7378,6.79878
536.385,73.0861,10.5906,0,9.10347,2.65608,3.09197,-0.121951,0.0609756,-1.55488,-9.69743,-0.299377,1.74357,0,1.82927,7.16463
536.395,73.0852,10.5792,0,9.12023,2.67763,3.01054,0.0609756,0.335366,-1.61585,-9.73575,-0.308958,1.78429,0.213415,1.64634,7.16463
536.405,73.0921,10.5703,0,9.10826,2.6441,3.09916,-0.121951,0.304878,-1.40244,-9.74294,-0.299377,1.79147,0.243902,1.67683,7.0122
536.415,73.0952,10.5477,0,9.11784,2.66326,3.09437,-0.365854,0.518293,-1.46341,-9.74773,-0.277822,1.74357,0.396341,1.76829,6.79878
536.425,73.098,10.5239,0,9.10107,2.66805,3.14227,-0.213415,0.731707,-1.37195,-9.71899,-0.273032,1.73399,0.365854,1.61585,6.92073
536.435,73.1017,10.493,0,9.09868,2.63931,3.09676,-0.27439,0.548781,-1.61585,-9.75252,-0.239502,1.70765,0.243902,1.79878,7.13415
536.445,73.1057,10.4851,0,9.09868,2.64889,3.03688,-0.243902,0.396341,-1.4939,-9.73096,-0.280217,1.7771,0.182927,1.76829,6.58537
536.455,73.1113,10.4688,0,9.08191,2.63692,3.09437,-0.152439,0.548781,-1.46341,-9.73815,-0.285007,1.74836,0.27439,1.76829,6.85976
536.465,73.1193,10.4432,0,9.12263,2.63692,3.10874,-0.0304878,0.670732,-1.40244,-9.70941,-0.277822,1.71723,0.213415,1.43293,7.07317
536.475,73.1225,10.4278,0,9.11305,2.62255,3.08958,-0.243902,0.487805,-1.82927,-9.70701,-0.253872,1.74118,0.396341,1.58537,6.92073
536.485,73.126,10.4132,0,9.08191,2.62015,3.14945,-0.152439,0.670732,-1.7378,-9.69264,-0.256267,1.73639,0.0609756,1.79878,6.98171
536.495,73.1277,10.4012,0,9.11544,2.64889,3.08718,-0.304878,0.518293,-1.64634,-9.70222,-0.225132,1.74357,0.0304878,1.82927,6.95122
536.505,73.1312,10.391,0,9.10107,2.65608,3.08958,-0.335366,0.762195,-1.40244,-9.67827,-0.232317,1.74357,-0.27439,1.85976,7.04268
536.515,73.1335,10.3815,0,9.07712,2.63931,3.10874,-0.182927,0.823171,-1.58537,-9.70701,-0.205972,1.75076,-0.396341,1.64634,7.28659
536.525,73.1355,10.3683,0,9.06036,2.63692,3.13269,-0.0609756,0.731707,-1.58537,-9.72138,-0.244292,1.73639,-0.27439,1.92073,7.19512
536.535,73.1332,10.342,0,9.10586,2.67524,3.14706,-0.0914634,0.365854,-1.58537,-9.72617,-0.251477,1.69807,-0.426829,1.52439,6.89024
536.545,73.1365,10.3167,0,9.09628,2.6441,3.10634,-0.213415,0.243902,-1.52439,-9.7118,-0.251477,1.69088,-0.396341,1.67683,7.04268
536.555,73.1364,10.3038,0,9.06994,2.64889,3.13269,0.0304878,0.457317,-1.61585,-9.70222,-0.277822,1.72441,-0.396341,1.76829,7.0122
536.565,73.1391,10.2787,0,9.08191,2.65129,3.1279,-0.121951,0.457317,-1.43293,-9.69983,-0.268242,1.6837,-0.243902,1.64634,6.79878
536.575,73.1451,10.248,0,9.08191,2.63931,3.13269,0.121951,0.243902,-1.34146,-9.74294,-0.270637,1.66214,-0.27439,1.89024,7.10366
536.585,73.1483,10.2336,0,9.08191,2.62973,3.12311,0.0609756,0.182927,-1.61585,-9.72617,-0.294587,1.71244,-0.335366,1.67683,7.16463
536.595,73.1488,10.2315,0,9.0867,2.65608,3.13029,-0.0609756,0.0609756,-1.52439,-9.68546,-0.280217,1.74357,-0.518293,1.37195,6.98171
536.605,73.1544,10.2111,0,9.05317,2.62973,3.1255,-0.121951,0.152439,-1.37195,-9.69983,-0.265847,1.6837,-0.243902,1.79878,7.28659
536.615,73.1579,10.1938,0,9.0891,2.63452,3.10634,0.121951,0.213415,-1.55488,-9.73336,-0.268242,1.69567,-0.213415,1.82927,7.16463
536.625,73.1627,10.1893,0,9.07712,2.63931,3.09197,-0.152439,0.182927,-1.37195,-9.71659,-0.268242,1.73399,0.0609756,1.70732,7.2561
536.635,73.1679,10.1691,0,9.07952,2.63452,3.09197,-0.426829,-0.0609756,-1.40244,-9.7142,-0.253872,1.67651,-0.182927,2.0122,7.2561
536.645,73.1703,10.1508,0,9.05317,2.66087,3.12071,-0.243902,-0.0304878,-1.18902,-9.7118,-0.282612,1.6813,-0.0304878,1.82927,7.2561
536.655,73.1733,10.1297,0,9.10826,2.65847,3.11113,-0.27439,-0.182927,-1.34146,-9.71899,-0.263452,1.66693,-0.121951,2.04268,7.22561
536.665,73.1852,10.1132,0,9.06994,2.63452,3.14706,-0.0609756,0,-0.945122,-9.74054,-0.287402,1.6813,0.0914634,2.22561,7.28659
536.675,73.1863,10.0887,0,9.10347,2.65608,3.11592,-0.396341,-0.457317,-1.46341,-9.7118,-0.270637,1.64777,0.0609756,2.0122,7.10366
536.685,73.1929,10.0662,0,9.07952,2.6465,3.10395,-0.27439,-0.152439,-1.12805,-9.74773,-0.258662,1.65496,-0.0304878,2.07317,7.22561
536.695,73.2048,10.0496,0,9.07952,2.62255,3.14706,-0.213415,0.0609756,-1.06707,-9.73575,-0.258662,1.66933,-0.396341,2.19512,7.34756
536.705,73.2113,10.0296,0,9.10586,2.63692,3.13029,-0.0304878,-0.243902,-1.28049,-9.73575,-0.306563,1.65256,-0.152439,2.31707,7.22561
536.715,73.2204,10.0137,0,9.09628,2.63213,3.15903,-0.487805,-0.518293,-1.12805,-9.73815,-0.280217,1.66454,0.0609756,2.34756,7.10366
536.725,73.2296,9.99435,0,9.12981,2.63692,3.09916,-0.243902,-0.457317,-1.15854,-9.7142,-0.251477,1.64298,0.213415,2.56098,7.10366
536.735,73.2423,9.97789,0,9.09628,2.60339,3.15903,0.0914634,-0.518293,-1.18902,-9.7118,-0.256267,1.65256,0.243902,2.28659,7.34756
536.745,73.2444,9.96711,0,9.07233,2.63931,3.11592,-0.335366,-0.518293,-1.37195,-9.68546,-0.244292,1.66454,0.213415,2.65244,7.22561
536.755,73.2497,9.96063,0,9.06994,2.6465,3.12311,-0.0914634,-0.213415,-1.06707,-9.67827,-0.244292,1.67891,0.396341,2.31707,7.40854
536.765,73.2602,9.93193,0,9.0891,2.60818,3.14466,-0.121951,-0.243902,-1.21951,-9.67348,-0.268242,1.59269,0.335366,2.5,7.46951
536.775,73.2775,9.91448,0,9.10826,2.58902,3.13508,-0.0609756,-0.396341,-1.06707,-9.68546,-0.330513,1.63101,0.213415,2.62195,7.46951
536.785,73.281,9.88718,0,9.07952,2.63692,3.15903,0.396341,-0.792683,-1.25,-9.74054,-0.292192,1.59748,0.457317,2.71341,7.43902
536.795,73.2941,9.85053,0,9.12742,2.62494,3.10874,0.396341,-0.884146,-0.945122,-9.77168,-0.352068,1.56155,0.701219,2.65244,7.53049
536.805,73.3001,9.81842,0,9.12263,2.63213,3.09437,0.0914634,-0.884146,-1.25,-9.79563,-0.347278,1.57353,0.97561,2.89634,7.5
536.815,73.3007,9.79216,0,9.12742,2.65847,3.08479,0.121951,-1.18902,-1.31098,-9.7597,-0.292192,1.5855,0.914634,2.95732,7.56098
536.825,73.311,9.76271,0,9.12263,2.62973,3.06802,-0.0914634,-1.06707,-1.0061,-9.74773,-0.261057,1.56395,1.21951,3.23171,7.5
536.835,73.3233,9.75254,0,9.17532,2.61536,3.07042,-0.518293,-1.25,-1.15854,-9.74773,-0.253872,1.63819,1.15854,3.17073,7.22561
536.845,73.3313,9.74857,0,9.15856,2.64171,3.04646,-0.457317,-0.731707,-1.06707,-9.70701,-0.251477,1.65496,0.823171,3.23171,7.10366
536.855,73.3436,9.73489,0,9.1346,2.62015,3.04646,-0.792683,-0.609756,-0.97561,-9.72617,-0.232317,1.61664,0.884146,3.65854,6.79878
536.865,73.3593,9.72376,0,9.08431,2.60339,3.04886,-0.823171,-0.670732,-0.823171,-9.76449,-0.246687,1.63101,0.518293,3.93293,7.22561
536.875,73.3759,9.70457,0,9.11544,2.63692,3.09916,-0.701219,-0.762195,-0.457317,-9.69504,-0.213157,1.58311,0.487805,4.14634,6.79878
536.885,73.3862,9.69228,0,9.10826,2.65368,3.08958,-0.701219,-0.640244,-0.518293,-9.7118,-0.222737,1.61185,0.487805,4.32927,7.16463
536.895,73.3849,9.68871,0,9.07952,2.69919,3.08,-0.792683,-0.426829,-0.396341,-9.64474,-0.261057,1.6358,0.396341,4.42073,7.0122
536.905,73.3927,9.68615,0,9.10586,2.69679,3.0776,-0.548781,-0.213415,0.243902,-9.62319,-0.239502,1.6358,0.365854,4.29878,7.04268
536.915,73.404,9.67012,0,9.10586,2.692,3.08479,-0.762195,-0.182927,0.640244,-9.65432,-0.261057,1.58311,-0.0304878,4.54268,6.89024
536.925,73.4214,9.6634,0,9.10107,2.67284,3.05604,-0.701219,0.0609756,1.03659,-9.63277,-0.237107,1.61664,0.121951,4.84756,7.34756
536.935,73.4413,9.65799,0,9.05796,2.64889,3.08,-0.579268,-0.0304878,1.15854,-9.64953,-0.263452,1.62382,-0.0609756,4.60366,6.95122
536.945,73.4631,9.65368,0,9.11065,2.65847,3.19735,-0.579268,-0.213415,1.40244,-9.68306,-0.277822,1.6334,0.182927,4.84756,7.04268
536.955,73.4939,9.64493,0,9.10107,2.59381,3.11353,-0.396341,-0.213415,1.21951,-9.70222,-0.275427,1.61664,0.27439,4.87805,7.28659
536.965,73.527,9.63791,0,9.11784,2.57704,3.14945,-0.243902,-0.304878,0.914634,-9.73815,-0.213157,1.62861,0.0304878,4.90854,7.04268
536.975,73.5471,9.62722,0,9.07952,2.6441,3.12071,-0.335366,-0.762195,1.37195,-9.72617,-0.189207,1.60945,0.182927,4.81707,7.37805
536.986,73.5643,9.62701,0,9.09628,2.67284,3.12071,-0.335366,-0.914634,1.55488,-9.72138,-0.186812,1.65256,0.213415,5.18293,7.34756
536.996,73.5934,9.61779,0,9.1849,2.61057,3.08479,-0.670732,-0.304878,1.31098,-9.72857,-0.222737,1.61424,0.182927,4.48171,7.46951
537.005,73.6385,9.60319,0,9.17292,2.50759,3.10395,-0.487805,-0.304878,1.46341,-9.74773,-0.258662,1.59269,0.182927,4.2378,7.37805
537.015,73.6454,9.58739,0,9.03641,2.72553,3.03449,-0.335366,-0.426829,1.82927,-9.82197,-0.328118,1.59748,0.0914634,3.78049,7.68293
537.025,73.6788,9.55768,0,9.22801,2.6465,3.06083,-0.243902,0.0609756,2.62195,-9.82916,-0.320933,1.54,0.152439,3.14024,7.71341
537.035,73.7141,9.52436,0,9.14658,2.5483,2.96264,-0.365854,0.97561,1.43293,-9.87467,-0.296982,1.53281,0.457317,2.56098,7.89634
537.045,73.7683,9.48744,0,9.10347,2.41418,3.1279,-0.518293,-0.0914634,-0.518293,-9.91778,-0.320933,1.52563,0.152439,2.16463,8.17073
537.055,73.757,9.44974,0,9.09628,2.66805,3.03928,-0.457317,0.365854,-0.731707,-9.92496,-0.256267,1.54479,0.365854,1.18902,8.2622
537.065,73.5632,9.3875,0,8.83044,3.15185,3.05125,-1.12805,0.27439,-0.0304878,-9.88664,-0.205972,1.4921,0.335366,0.701219,8.17073
537.075,73.544,9.29461,0,9.02922,2.72553,3.12071,-2.59146,-1.34146,0.0304878,-9.86269,-0.237107,1.46575,-0.335366,0.0914634,8.17073
537.085,73.5887,9.2127,0,9.18011,2.54112,3.19017,-2.68293,-0.304878,0.365854,-9.83156,-0.270637,1.43462,0.27439,-0.457317,7.77439
537.095,73.6379,9.16083,0,9.25436,2.51477,3.0776,-1.0061,-0.640244,0.731707,-9.79803,-0.273032,1.45617,0.27439,-0.884146,7.77439
537.105,73.6703,9.09142,0,9.22322,2.58183,3.07521,-0.640244,-1.31098,0.945122,-9.80042,-0.299377,1.39869,0.396341,-0.945122,7.62195
537.115,73.7125,8.99823,0,9.24238,2.53154,3.01772,-1.31098,-0.396341,0.823171,-9.8124,-0.320933,1.31726,0.640244,-1.03659,7.46951
537.125,73.7608,8.92407,0,9.15137,2.47645,3.07042,-1.40244,0.121951,0.792683,-9.75491,-0.335303,1.35319,1.34146,-0.97561,7.68293
537.135,73.8393,8.83711,0,9.17292,2.39502,3.0776,-1.40244,-0.365854,0.213415,-9.81719,-0.280217,1.35079,1.7378,-0.548781,7.43902
537.145,73.9047,8.78567,0,9.21125,2.41418,3.04886,-1.31098,-0.304878,0.426829,-9.78366,-0.311353,1.40109,2.31707,-0.701219,7.5
537.155,74.0003,8.74392,0,9.22801,2.29682,3.05604,-1.12805,0.243902,-0.243902,-9.8124,-0.234712,1.42025,2.19512,-0.640244,7.53049
537.165,74.0893,8.69341,0,9.1849,2.31119,3.11592,-1.15854,0.335366,-0.182927,-9.8124,-0.165256,1.39151,2.53049,-0.670732,7.31707
537.175,74.1548,8.65755,0,9.15376,2.28006,3.10395,-1.28049,0.365854,-0.701219,-9.75731,-0.112566,1.41067,2.22561,-0.670732,7.19512
537.185,74.2123,8.60413,0,9.16334,2.28724,3.15903,-1.12805,-0.182927,-0.792683,-9.76689,-0.0574805,1.35558,1.98171,-0.853659,7.53049
537.195,74.2591,8.56175,0,9.11784,2.28245,3.16861,-1.12805,-0.426829,-1.03659,-9.82677,-0.0502954,1.34361,1.52439,-1.70732,7.43902
537.205,74.2972,8.5192,0,9.09628,2.29682,3.1734,-0.792683,-0.884146,-1.15854,-9.8579,-0.0790356,1.31487,1.12805,-2.59146,6.89024
537.215,74.3204,8.4974,0,9.05317,2.32317,3.22609,-0.792683,-1.89024,-1.46341,-9.88904,-0.0838257,1.38672,1.06707,-3.35366,6.95122
537.225,74.3342,8.4938,0,9.01006,2.36149,3.23807,-0.762195,-3.32317,-1.4939,-9.95849,-0.0958008,1.46815,0.884146,-4.39024,6.52439
537.235,74.3364,8.47559,0,9.00288,2.39502,3.25962,-0.518293,-4.29878,-1.82927,-9.93933,-0.0910107,1.39869,0.884146,-5.42683,6.67683
537.245,74.3346,8.4703,0,9.04838,2.42376,3.20693,-0.182927,-4.7561,-1.92073,-9.93215,-0.119751,1.45138,0.731707,-5.82317,6.92073
537.255,74.3326,8.45935,0,9.10826,2.42136,3.15424,-0.426829,-4.96951,-2.13415,-9.91778,-0.160466,1.42264,0.670732,-6.34146,7.13415
537.265,74.3255,8.4711,0,9.12263,2.44292,3.07521,-0.640244,-5.60976,-2.34756,-9.88425,-0.170046,1.51605,0.121951,-7.19512,7.28659
537.275,74.3218,8.47941,0,9.11784,2.4501,3.16861,-0.121951,-6.31098,-1.98171,-9.89622,-0.167651,1.50407,0,-7.89634,7.56098
537.285,74.3188,8.4906,0,9.11305,2.46687,3.16622,0.365854,-6.95122,-1.7378,-9.88664,-0.155676,1.51605,-0.0914634,-8.87195,7.86585
537.295,74.3034,8.5085,0,9.12263,2.5507,3.09197,0.701219,-6.55488,-1.7378,-9.91538,-0.143701,1.55197,0.0304878,-9.42073,8.20122
537.305,74.2862,8.5482,0,9.12023,2.57944,3.02491,0.27439,-6.09756,-1.4939,-10.0208,-0.155676,1.66933,-0.182927,-10.7317,8.44512
537.315,74.2667,8.52105,0,9.16574,2.5962,2.93869,0.182927,-5.4878,-1.7378,-10.0591,-0.196392,1.37953,0.182927,-10.8232,8.29268
537.325,74.247,8.52788,0,9.21364,2.62494,2.9818,0.0914634,-5.79268,-1.55488,-9.99442,-0.150886,1.51844,0.548781,-11.0671,8.07927
537.335,74.2258,8.55938,0,9.14897,2.61776,2.99377,0.0304878,-6.28049,-1.58537,-9.95849,-0.160466,1.62382,0.762195,-12.561,7.92683
537.345,74.2086,8.62218,0,9.0867,2.59141,3.04167,-0.487805,-6.98171,-1.34146,-9.93215,-0.174836,1.76513,0.640244,-13.75,7.83537
537.355,74.201,8.69485,0,9.0388,2.54591,2.9818,-0.609756,-6.98171,-1.0061,-9.89383,-0.155676,1.81303,0.457317,-14.7561,7.0122
537.365,74.2038,8.79261,0,9.07712,2.50998,2.89558,-0.182927,-6.79878,-0.945122,-9.79084,-0.172441,1.91841,0.945122,-15.6707,6.95122
537.375,74.2077,8.90397,0,9.11065,2.53393,2.82133,-0.27439,-6.46341,-0.640244,-9.72617,-0.186812,1.98308,0.823171,-16.25,6.37195
537.385,74.2136,8.98094,0,9.21603,2.56746,2.82852,-0.27439,-5.91463,-0.396341,-9.69743,-0.153281,1.84417,0.640244,-16.25,6.15854
537.395,74.2216,9.08176,0,9.25915,2.57944,2.87163,-0.853659,-5.33537,-0.213415,-9.70222,-0.146096,1.96392,0.701219,-16.8902,6.15854
537.405,74.2287,9.21153,0,9.27591,2.58423,2.84528,-1.52439,-5.09146,-0.243902,-9.69025,-0.0934058,2.10762,0.518293,-17.8049,5.94512
537.415,74.2528,9.36641,0,9.26633,2.52435,2.85726,-1.76829,-4.63415,-0.152439,-9.69983,-0.0239502,2.24413,-0.304878,-19.3902,5.45732
537.425,74.285,9.54998,0,9.24717,2.45729,2.84768,-1.79878,-4.35976,-0.426829,-9.68785,0.0287402,2.39741,-0.97561,-20.7317,5.79268
537.435,74.3126,9.7263,0,9.15856,2.45729,2.94108,-2.07317,-3.90244,-0.365854,-9.64235,0.0598755,2.38544,-1.52439,-21.6159,6.21951
537.445,74.3478,9.96255,0,9.09389,2.44771,2.90516,-2.37805,-3.78049,-0.0304878,-9.61361,0.189207,2.68003,-2.13415,-23.2622,6.79878
537.456,74.2306,10.1589,0,8.57896,4.10506,2.96503,-1.98171,-4.35976,8.29268,-9.57289,0.220342,2.52914,-3.38415,-24.5122,7.07317
537.465,74.1001,10.3277,0,7.8844,4.51222,2.70637,-9.81707,7.34756,15.2744,-9.54655,0.241897,2.43334,-3.23171,-24.878,7.5
537.475,74.4199,10.4775,0,8.04008,0.63947,3.0776,-21.9207,-4.14634,3.17073,-9.53218,0.186812,2.37346,-2.68293,-25.4878,7.77439
537.485,74.682,10.6155,0,9.54415,-0.766406,3.75779,-11.6463,-15.2134,-14.4207,-9.60882,0.0886157,2.36628,-2.19512,-26.0671,7.62195
537.495,74.8296,10.7789,0,10.2603,1.38672,2.76625,23.3232,5.06098,-2.07317,-9.72378,0.0311353,2.53393,-3.04878,-27.378,6.43293
537.505,74.7485,10.9314,0,11.3907,4.96248,1.1065,26.7378,-21.8598,8.81098,-9.86988,-0.126936,2.5507,-4.54268,-28.1707,4.78659
537.515,74.619,11.0328,0,10.3417,4.64873,2.29203,-7.13415,0.152439,5.09146,-10.0112,-0.246687,2.37586,-5.67073,-28.5976,3.14024
537.525,74.5717,11.0874,0,7.97781,2.67045,3.92304,-11.9512,4.45122,2.83537,-10.0064,-0.268242,2.17707,-6.06707,-27.7134,2.37805
537.535,74.6565,11.1254,0,7.84129,1.98787,3.43925,-9.66463,-5.2439,0.945122,-10.0447,-0.265847,2.11959,-6.64634,-26.7378,2.86585
537.545,75.0174,11.1254,0,8.73703,1.37474,3.1758,-4.17683,-2.86585,-0.487805,-10.0519,-0.373623,1.95434,-5.64024,-24.6951,3.90244
537.555,75.1644,11.1091,0,9.21364,1.78668,3.19017,0.579268,-5.21341,0.914634,-10.0591,-0.534089,1.88249,-5.12195,-23.1402,6.21951
537.565,75.219,11.0774,0,9.67827,2.28724,3.04886,4.48171,-11.0671,1.95122,-10.119,-0.711321,1.82021,-4.05488,-22.561,8.68902
537.575,75.2366,11.0356,0,9.9082,2.55788,2.96503,3.47561,-13.9024,0.97561,-10.174,-0.866997,1.7771,-2.65244,-22.6524,10.1829
537.585,75.2036,11.0047,0,9.62798,2.68721,2.96503,0.548781,-14.0854,-1.03659,-10.2076,-0.859812,1.825,-1.18902,-24.2073,11.4024
537.595,75.1526,10.9889,0,9.09389,2.58902,2.75667,-0.701219,-11.9512,-2.68293,-10.2339,-0.871787,1.89207,0.579268,-26.6768,11.7378
537.605,75.1211,10.9424,0,8.83523,2.37107,2.55309,-3.41463,-10.8537,-2.80488,-10.2483,-0.756826,1.74597,2.0122,-29.3598,11.0976
537.615,75.1334,10.8988,0,8.80409,2.10283,2.7399,-3.71951,-11.4024,-2.43902,-10.2555,-0.570015,1.75076,3.29268,-31.2195,10.0305
537.625,75.1922,10.8695,0,8.92624,1.9711,2.87642,-2.22561,-12.5305,-1.55488,-10.2914,-0.452659,1.81303,4.05488,-33.689,8.84146
537.635,75.2508,10.885,0,9.18969,2.08846,2.85486,-0.97561,-15.8232,-1.0061,-10.2579,-0.285007,2.00942,4.35976,-35.8232,7.37805
537.645,75.2994,10.9169,0,9.46751,2.16749,2.60818,-0.487805,-17.378,-1.0061,-10.1645,-0.184417,2.0693,5.03049,-37.1341,6.37195
537.655,75.3308,10.9709,0,9.73096,2.17228,2.41657,-1.03659,-15.5183,-1.92073,-9.98484,-0.0455054,2.13875,4.57317,-38.2622,6.34146
537.665,75.3546,11.0305,0,9.72138,2.12678,2.31598,-2.40854,-13.811,-2.7439,-9.86509,0.0287402,2.14833,3.93293,-38.689,6.52439
537.675,75.389,11.0854,0,9.72138,1.92799,2.33993,-2.86585,-12.1341,-3.71951,-9.71659,0.0742456,2.10522,2.86585,-38.7195,7.37805
537.685,75.4239,11.155,0,9.59924,1.71244,2.24653,-2.71341,-10.3659,-5.67073,-9.66869,0.0263452,2.16989,1.67683,-39.0549,8.38415
537.695,75.4431,11.2627,0,9.51781,1.71004,2.31838,-1.82927,-9.14634,-7.0122,-9.65432,0.0407153,2.34951,1.0061,-39.9085,8.65854
537.705,75.4334,11.375,0,9.48667,1.85375,2.4022,-1.28049,-9.05488,-8.14024,-9.70222,-0.0287402,2.39981,0.304878,-41.6768,8.90244
537.715,75.4069,11.4953,0,9.53457,1.9735,2.34233,-0.792683,-7.68293,-8.56707,-9.75012,-0.102986,2.46687,0.0304878,-43.2927,8.56707
537.725,75.3627,11.6214,0,9.50583,2.11241,2.50998,-0.152439,-6.76829,-8.71951,-9.82677,-0.117356,2.53393,-0.27439,-44.3902,8.41463
537.735,75.3126,11.776,0,9.40524,2.17228,2.47166,0.609756,-7.19512,-8.44512,-9.76928,-0.160466,2.67284,-0.335366,-45.061,7.77439
537.745,75.2651,11.9564,0,9.49146,2.19623,2.46687,1.89024,-8.07927,-8.23171,-9.63756,-0.217947,2.78301,-0.365854,-45.6402,7.83537
537.755,75.2135,12.1483,0,9.52499,2.27766,2.46927,3.04878,-8.47561,-7.89634,-9.52978,-0.225132,2.8357,0.213415,-46.6463,8.2622
537.765,75.1594,12.3565,0,9.63516,2.33754,2.28485,3.65854,-8.01829,-7.86585,-9.45554,-0.299377,2.92192,0.945122,-47.1341,8.29268
537.775,75.1034,12.5816,0,9.55852,2.33514,2.37346,3.9939,-8.14024,-7.9878,-9.43398,-0.347278,3.0297,1.43293,-47.7134,8.32317
537.786,75.034,12.8246,0,9.35255,2.36149,2.33993,4.20732,-8.65854,-8.56707,-9.40285,-0.397573,3.14227,2.37805,-48.2927,8.41463
537.795,74.9758,13.11,0,9.63037,2.28245,2.18186,5.42683,-4.66463,-9.26829,-9.3789,-0.383203,3.37458,2.80488,-49.0549,8.32317
537.805,74.8939,13.4272,0,9.21364,2.38544,2.57944,5.2439,-11.0976,-9.39024,-9.3765,-0.373623,3.57576,3.01829,-49.9695,8.38415
537.815,74.8168,13.7752,0,9.40285,2.43094,2.37825,5.06098,-6.95122,-9.11585,-9.37171,-0.359253,3.77934,2.80488,-51.0061,8.44512
537.825,74.7171,14.1178,0,9.37411,2.57704,2.34951,3.38415,-8.32317,-9.78659,-9.33339,-0.277822,3.80329,2.43902,-51.7683,8.53659
537.835,74.6099,14.4623,0,9.45554,2.61536,2.36388,1.98171,-7.83537,-10.5793,-9.24238,-0.217947,3.83922,2.86585,-52.5305,8.62805
537.845,74.4899,14.8016,0,9.25675,2.64889,2.47166,1.0061,-8.35366,-11.0671,-9.12981,-0.158071,3.83203,2.80488,-52.7134,8.65854
537.855,74.3718,15.1408,0,9.26154,2.58902,2.47406,0.182927,-9.08537,-11.8293,-9.05078,-0.193997,3.86077,3.14024,-53.5671,9.11585
537.865,74.2489,15.4814,0,9.27831,2.62494,2.49322,0.396341,-10.9451,-12.1951,-8.96216,-0.256267,3.89191,3.81098,-54.1768,9.26829
537.875,74.1123,15.8332,0,9.0891,2.68721,2.64889,0.670732,-14.3902,-12.4695,-8.92863,-0.373623,3.9925,4.7561,-54.9695,8.84146
537.885,73.9782,16.2335,0,9.20646,2.71116,2.38783,1.28049,-13.2317,-12.622,-8.79691,-0.368833,4.22721,5.33537,-56.2195,8.75
537.895,73.838,16.6361,0,9.22562,2.86684,2.29443,0.945122,-14.3293,-11.7683,-8.72027,-0.356858,4.27511,5.88415,-57.1646,8.71951
537.905,73.6908,17.0419,0,9.16574,2.99856,2.25132,-1.28049,-14.1159,-11.0366,-8.658,-0.282612,4.33499,6.0061,-57.6524,8.81098
537.915,73.5734,17.4757,0,9.21843,2.83091,2.29682,-2.9878,-13.6585,-10.4268,-8.53345,-0.198787,4.48108,5.91463,-59.0549,8.81098
537.925,73.4677,17.9049,0,9.11784,2.68961,2.24174,-3.71951,-13.9634,-10.7622,-8.47358,-0.0646655,4.50982,6.21951,-58.9939,8.71951
537.935,73.3741,18.3433,0,9.17292,2.62015,2.17947,-3.47561,-13.9634,-10.7622,-8.40173,-0.0119751,4.59604,6.12805,-59.5732,8.5061
537.945,73.2848,18.7887,0,9.14897,2.62015,2.15791,-2.92683,-15.5183,-10.4268,-8.35383,0.00718506,4.68705,6.34146,-59.7256,8.23171
537.955,73.2075,19.2472,0,9.56092,2.62255,1.89686,-2.43902,-11.8902,-10.7012,-8.27719,0.0550855,4.79243,6.61585,-59.6646,7.80488
537.965,73.1134,19.7318,0,9.36213,2.68721,2.12917,-3.35366,-16.8293,-11.189,-8.15025,0.00239502,4.93374,6.89024,-59.8476,7.71341
537.975,73.0328,20.2304,0,9.29268,2.56028,2.14354,-2.86585,-14.9695,-11.25,-8.04008,0.0479004,5.02954,6.95122,-59.6951,7.34756
537.985,72.9583,20.7377,0,9.51541,2.53393,2.01182,-2.5,-13.6585,-11.7988,-7.98021,0.0574805,5.13253,7.13415,-59.2683,7.65244
537.995,72.8972,21.2741,0,9.51781,2.4022,1.96631,-1.34146,-14.4512,-12.1037,-7.87722,0.0670605,5.31215,7.04268,-58.5671,7.9878
538.005,72.8384,21.8312,0,9.67827,2.41657,1.79387,-0.792683,-12.8049,-12.2866,-7.85087,0.0550855,5.50854,6.76829,-57.9878,8.07927
538.015,72.7565,22.3798,0,9.62558,2.58423,1.84656,-0.365854,-12.7744,-12.7134,-7.7886,0.105381,5.53489,6.0061,-57.439,8.62805
538.025,72.6676,22.9375,0,9.51302,2.57465,1.84656,-0.670732,-12.4085,-13.3537,-7.67843,0.124541,5.61632,6.0061,-56.3415,8.84146
538.035,72.5815,23.5017,0,9.45793,2.54351,1.78908,-0.0609756,-11.4024,-13.4451,-7.59221,0.131726,5.70254,5.82317,-55.6707,8.84146
538.045,72.4827,24.0708,0,9.35974,2.62734,1.6837,1.06707,-11.25,-13.628,-7.53473,0.114961,5.80313,5.57927,-54.8171,8.47561
538.055,72.3904,24.6498,0,9.45793,2.5507,1.65256,2.53049,-10.122,-14.3598,-7.49641,0.150886,5.94683,5.64024,-53.9634,8.62805
538.065,72.303,25.2343,0,9.47709,2.49561,1.74836,3.96341,-9.72561,-14.7561,-7.50599,0.138911,6.10969,5.21341,-53.3537,8.29268
538.075,72.1993,25.8211,0,9.62319,2.68242,1.62622,4.35976,-8.56707,-14.9085,-7.47007,0.170046,6.22226,4.69512,-52.2561,7.95732
538.085,72.0868,26.4338,0,9.62079,2.76146,1.67172,3.62805,-8.78049,-15.122,-7.39822,0.246687,6.44021,3.47561,-51.6768,7.71341
538.095,71.967,27.0431,0,9.57768,2.87163,1.60227,3.17073,-6.89024,-14.7256,-7.31918,0.285007,6.4905,2.53049,-51.2805,7.10366
538.105,71.8395,27.6288,0,9.50344,2.96503,1.55916,3.04878,-5.88415,-14.4512,-7.20901,0.344883,6.3971,1.40244,-50.1524,6.76829
538.115,71.712,28.218,0,9.39566,2.92192,1.58071,2.89634,-5.51829,-14.8171,-7.09405,0.332908,6.44739,0.701219,-48.8415,6.61585
538.125,71.5841,28.8188,0,9.51541,2.95306,1.42743,3.29268,-2.86585,-15.1829,-6.95035,0.232317,6.51685,0.609756,-47.2866,5.97561
538.135,71.4396,29.4207,0,9.41482,3.06323,1.61903,3.68902,-2.37805,-15.5488,-6.88808,0.172441,6.60307,0.182927,-46.0061,5.79268
538.145,71.2943,30.0191,0,9.45314,3.07042,1.80345,4.08537,-1.25,-15.9756,-6.82581,0.0862207,6.66294,0.121951,-45.1524,5
538.155,71.1432,30.6093,0,9.35495,3.11832,1.85614,4.17683,-1.09756,-15.9756,-6.73719,-0.00958008,6.66773,0.945122,-44.5122,4.84756
538.165,70.9782,31.2048,0,9.25436,3.2692,1.83458,3.65854,-2.43902,-15.6098,-6.59109,-0.0766406,6.69168,1.58537,-43.2012,4.69512
538.175,70.8133,31.8047,0,9.25436,3.3674,1.85375,3.20122,-3.38415,-14.8476,-6.52164,-0.0981958,6.78749,2.59146,-42.1951,4.87805
538.185,70.6415,32.4135,0,9.10347,3.50631,1.92081,2.80488,-3.41463,-13.689,-6.40907,-0.0598755,6.86652,2.9878,-41.0976,5.33537
538.195,70.4639,33.0072,0,8.83762,3.5566,2.02619,2.43902,-4.54268,-12.8963,-6.32285,-0.00479004,6.8306,3.29268,-39.5732,5.64024
538.205,70.2797,33.6103,0,8.68913,3.5566,2.03816,1.7378,-5.15244,-13.2317,-6.22705,0.0431104,6.9264,3.5061,-38.9939,6.0061
538.215,70.1097,34.2111,0,8.54064,3.43925,2.22497,1.03659,-6.31098,-12.8354,-6.2055,0.0958008,7.03657,3.59756,-38.689,6.03659
538.225,69.952,34.8181,0,8.49513,3.33626,2.3543,1.0061,-8.9939,-12.9268,-6.16718,0.0934058,7.18266,3.81098,-38.1098,6.61585
538.235,69.8063,35.4086,0,8.72266,3.40811,2.15552,0.762195,-10.5793,-12.2256,-6.14323,0.0790356,7.20422,3.62805,-37.439,6.28049
538.245,69.6411,36.0055,0,8.79451,3.69552,1.94955,-0.396341,-12.3476,-11.5549,-6.01629,0.141306,7.24733,3.23171,-36.25,6.03659
538.255,69.4807,36.6076,0,8.79451,3.84161,1.86572,-1.52439,-10.9146,-9.7561,-5.85343,0.114961,7.23775,2.9878,-35.0915,5.67073
538.265,69.3488,37.2034,0,8.88792,3.85838,1.86093,-3.29268,-11.372,-7.43902,-5.6762,0.0862207,7.13237,3.38415,-34.0549,5.42683
538.275,69.2354,37.8143,0,8.90947,3.72186,1.90644,-4.08537,-10.4878,-7.43902,-5.52531,0.105381,7.19224,3.47561,-32.5915,5.12195
538.285,69.1374,38.4315,0,8.97174,3.63085,1.7771,-4.84756,-9.02439,-7.40854,-5.44148,0.0694556,7.28565,3.75,-31.4024,4.90854
538.295,69.0355,39.026,0,8.83044,3.71707,1.76752,-5.36585,-10,-6.37195,-5.45825,0.0119751,7.32157,4.14634,-29.9085,4.81707
538.305,68.9575,39.6105,0,8.92863,3.64043,1.67651,-5.60976,-8.81098,-5.45732,-5.42232,-0.0119751,7.36708,4.20732,-28.4146,4.60366
538.315,68.8846,40.1773,0,8.77535,3.60211,1.79626,-5.4878,-10.7012,-4.78659,-5.45346,-0.0790356,7.44851,4.05488,-27.2866,4.78659
538.325,68.8224,40.6993,0,8.86876,3.60211,1.77231,-4.32927,-10.8841,-4.26829,-5.47741,-0.117356,7.32876,4.39024,-26.4329,5
538.335,68.743,41.1963,0,8.71787,3.75539,1.71004,-4.5122,-12.2561,-3.44512,-5.4798,-0.0814307,7.30481,4.42073,-25.7622,4.96951
538.345,68.6646,41.665,0,8.68434,3.77695,1.59269,-5.64024,-11.4329,-2.43902,-5.50854,-0.0886157,7.28565,4.63415,-25.122,5.27439
538.355,68.6153,42.0918,0,8.56219,3.52786,1.65017,-6.79878,-12.9878,-2.07317,-5.62351,0.0431104,7.28086,4.7561,-24.9695,5.57927
538.365,68.6174,42.4834,0,8.57177,3.2213,1.70525,-6.0061,-14.939,-2.07317,-5.71931,0.100591,7.28325,5.33537,-24.5122,6.34146
538.375,68.6741,42.8444,0,9.08191,3.11113,1.40348,-4.60366,-13.2012,-1.58537,-5.87738,0.177231,7.38385,5.4878,-24.2988,6.85976
538.385,68.7196,43.1743,0,9.26633,3.34345,1.36756,-4.02439,-14.0549,-0.792683,-5.99234,0.198787,7.41498,5.4878,-23.9024,7.22561
538.395,68.74,43.47,0,9.59445,3.68114,1.31247,-3.71951,-13.4146,1.31098,-6.07377,0.263452,7.37427,5.30488,-23.3537,7.16463
538.405,68.7674,43.7571,0,9.74773,3.71947,1.11368,-4.81707,-9.63415,1.92073,-6.14083,0.232317,7.47725,4.87805,-23.3232,6.67683
538.415,68.8248,44.0242,0,9.50104,3.38656,1.18074,-4.90854,-9.32927,1.79878,-6.13365,0.150886,7.41019,5.21341,-23.811,5.73171
538.425,68.892,44.2817,0,9.25675,3.23807,1.13284,-3.96341,-9.90854,1.76829,-6.13365,0.0742456,7.41738,5.15244,-23.4451,5.06098
538.435,68.9964,44.5303,0,9.14658,3.05125,1.0586,-3.59756,-8.78049,1.06707,-6.20789,0.00239502,7.51557,5.67073,-23.2622,4.20732
538.445,69.131,44.7465,0,9.20166,2.95066,1.0107,-3.96341,-7.10366,0.823171,-6.34201,-0.0215552,7.52515,5.30488,-23.2622,3.38415
538.455,69.3008,44.9418,0,9.33339,2.94827,0.969983,-3.81098,-7.22561,-0.213415,-6.46176,-0.0862207,7.58263,5.7622,-22.9878,2.77439
538.465,69.3683,45.1167,0,9.47709,3.02012,0.986748,-3.38415,-9.32927,-1.52439,-6.59109,-0.0766406,7.6473,5.67073,-23.4146,2.40854
538.475,69.3964,45.2679,0,9.73336,3.24046,0.869392,-3.41463,-6.21951,-2.2561,-6.61983,-0.0694556,7.56587,5.79268,-24.5122,2.04268
538.485,69.4018,45.4329,0,9.76928,3.39614,0.881367,-3.81098,-5.70122,-2.62195,-6.55517,-0.0119751,7.62335,6.34146,-25.4878,2.0122
538.495,69.3963,45.602,0,9.68306,3.44643,0.895737,-4.69512,-3.9939,-2.77439,-6.61265,0.0359253,7.75986,5.67073,-27.8049,1.79878
538.505,69.3993,45.7735,0,9.64714,3.33866,0.905317,-5.03049,-1.76829,-2.9878,-6.56714,0.122146,7.76705,5.79268,-29.939,1.64634
538.515,69.4206,45.9618,0,9.63277,3.13029,0.886157,-5,0.914634,-3.38415,-6.43542,0.191602,7.77184,5.21341,-31.1585,1.98171
538.525,69.4699,46.1673,0,9.81,2.79499,0.737666,-5.09146,2.56098,-4.63415,-6.27735,0.182021,7.75028,4.32927,-32.0732,1.98171
538.535,69.5141,46.3971,0,9.88185,2.70398,0.713716,-4.29878,1.70732,-6.18902,-6.11209,0.117356,7.76944,4.78659,-32.378,1.95122
538.545,69.5316,46.6206,0,9.89862,2.80696,0.809517,-4.54268,5.33537,-7.71341,-5.92049,0.0670605,7.54671,5.36585,-31.6463,1.76829
538.555,69.529,46.8632,0,9.73336,2.82373,0.838257,-4.63415,6.95122,-9.02439,-5.80074,-0.0287402,7.58503,6.31098,-30.8537,1.40244
538.565,69.5127,47.1098,0,9.67348,2.83091,1.16877,-2.34756,6.31098,-10.1524,-5.70254,-0.134121,7.5515,7.56098,-30.3963,1.12805
538.575,69.4743,47.3685,0,9.63756,2.94108,1.23823,-1.7378,6.34146,-11.0976,-5.70254,-0.141306,7.70478,8.23171,-29.7561,1.06707
538.585,69.4225,47.6199,0,9.57768,2.89318,1.2502,-3.10976,5.4878,-12.8659,-5.82948,-0.0550855,7.89877,8.23171,-29.4512,1.09756
538.595,69.3607,47.8545,0,9.48428,2.85247,1.16398,-5.54878,6.70732,-14.1463,-5.93965,-0.0502954,7.99697,7.53049,-29.6646,1.92073
538.605,69.2707,48.0739,0,9.42919,2.93869,1.2981,-7.65244,5.91463,-15.9756,-5.94204,0.0574805,7.95625,7.31707,-30.122,2.16463
538.615,69.1644,48.3062,0,9.37411,3.03928,1.40348,-9.69512,6.09756,-16.4939,-5.92049,0.141306,8.08559,7.53049,-30.7622,3.44512
538.625,69.0432,48.5626,0,9.41722,3.12311,1.02507,-10.8841,5.2439,-17.439,-5.89654,0.282612,8.30353,7.28659,-32.5305,3.9939
538.635,68.9176,48.8389,0,9.92257,3.26202,0.287402,-12.0427,6.0061,-18.4451,-5.88696,0.414338,8.52387,6.21951,-34.3293,4.72561
538.645,68.784,49.1287,0,9.9537,3.26441,0.711321,-12.6524,7.7439,-19.6037,-5.80313,0.450264,8.59812,5.70122,-35.2134,4.17683
538.655,68.6555,49.4308,0,9.78126,3.17101,1.04183,-13.4451,6.37195,-19.7561,-5.75763,0.57241,8.72745,5.2439,-34.6037,3.2622
538.665,68.518,49.7464,0,9.73096,3.1758,1.02986,-14.1159,3.81098,-20.7012,-5.70973,0.584385,8.87115,4.08537,-33.689,1.55488
538.675,68.3725,50.1085,0,9.70701,3.15424,1.06339,-15.7317,4.14634,-21.9512,-5.53489,0.560435,9.11305,2.62195,-32.8963,0.0914634
538.685,68.2065,50.4858,0,9.50104,3.31471,1.43701,-17.4085,3.62805,-21.8293,-5.384,0.459844,9.13221,2.04268,-31.9512,-0.731707
538.695,68.0375,50.8822,0,9.35255,3.36979,2.19863,-15.5488,0.579268,-21.2805,-5.27144,0.354463,9.25915,1.85976,-30.5488,-1.40244
538.705,67.864,51.2834,0,9.36692,3.43685,2.43573,-11.0976,-0.335366,-21.4024,-4.97206,0.234712,8.92624,1.70732,-26.4634,-1.40244
538.715,67.6664,51.6943,0,9.43638,3.76258,1.94955,-11.2805,-0.396341,-20.9756,-4.88824,0.0838257,9.01725,2.04268,-24.4207,-0.487805
538.725,67.4797,52.1197,0,9.29986,3.73863,1.93518,-11.311,-0.0609756,-19.939,-4.79483,0.0646655,9.13939,2.19512,-24.5122,0.0609756
538.735,67.287,52.5475,0,9.16095,3.78413,2.18905,-10.8841,-0.914634,-19.8171,-4.72537,0.172441,9.19448,2.65244,-24.7561,1.4939
538.745,67.093,52.9875,0,9.37411,3.85838,2.2106,-10.6098,-1.64634,-20.4878,-4.50743,0.308958,9.05557,2.34756,-24.1159,3.2622
538.755,66.8911,53.4006,0,9.13221,3.75779,2.27527,-8.75,-3.68902,-21.7073,-4.55772,0.428708,9.06515,2.2561,-22.7439,4.48171
538.765,66.6965,53.78,0,9.17292,3.70989,2.15791,-8.10976,-5.7622,-22.0732,-4.57449,0.486189,8.93103,2.28659,-20.5793,5.67073
538.775,66.5374,54.1121,0,9.37411,3.45601,1.88488,-5.97561,-7.04268,-22.5,-4.73016,0.392783,8.92384,2.34756,-18.689,6.40244
538.785,66.3548,54.4963,0,9.3789,3.64522,1.40109,-3.53659,-8.2622,-23.1707,-4.49306,0.287402,9.09868,2.2561,-19.2073,5.82317
538.795,66.1408,54.8733,0,8.93342,3.74581,1.3939,-1.15854,-6.79878,-23.6585,-4.32062,0.517324,8.82804,1.92073,-19.1463,5.45732
538.805,65.9317,55.2593,0,8.77296,3.76018,1.54479,0.792683,-6.55488,-22.6829,-4.18889,0.694556,8.79451,1.21951,-18.3537,6.79878
538.815,65.7378,55.6867,0,8.92145,3.81287,1.65975,1.18902,-4.20732,-21.6768,-3.96376,0.735271,8.88552,-0.0609756,-18.5671,7.56098
538.825,65.5624,56.0632,0,9.11784,3.70749,1.50886,3.01829,-5.03049,-22.2561,-3.99729,0.706531,8.61489,-0.335366,-17.4085,7.71341
538.835,65.4014,56.43,0,9.51781,3.69073,1.4921,4.54268,-3.90244,-23.0488,-4.01166,0.570015,8.69871,-0.182927,-16.7683,7.86585
538.845,65.2636,56.7998,0,9.64474,3.51349,1.22386,7.04268,-1.0061,-23.4146,-4.12662,0.361648,9.1346,0.182927,-16.25,7.59146
538.855,65.0958,57.1761,0,9.26873,3.5566,1.3484,8.65854,-3.81098,-24.7561,-4.02603,0.146096,9.13939,0.548781,-15.7012,7.40854
538.865,64.9319,57.5611,0,9.33818,3.52068,1.1999,9.11585,-0.914634,-25.3963,-3.92304,0.0646655,9.16813,0.243902,-12.9573,7.77439
538.875,64.7567,57.9767,0,9.29507,3.57576,1.33163,8.87195,-0.0914634,-26.0976,-3.77455,0.0550855,9.34537,0,-9.60366,8.87195
538.885,64.5443,58.4047,0,9.11544,3.77455,1.51126,8.84146,-1.7378,-27.2866,-3.65719,0.196392,9.38848,-0.853659,-6.03659,10.2134
538.895,64.2887,58.8848,0,8.92384,4.10985,1.48731,8.2622,-1.58537,-27.561,-3.64282,0.335303,9.35016,-1.7378,-2.19512,12.1951
538.905,64.0074,59.3792,0,8.73224,4.34457,1.54,7.0122,-2.31707,-27.1951,-3.71228,0.500559,9.32142,-2.9878,1.55488,13.7805
538.915,63.7003,59.6999,0,8.62446,4.58646,1.69328,6.06707,-3.71951,-27.2256,-3.87993,0.58199,9.27831,-3.9939,4.14634,14.3902
538.925,63.4109,59.9294,0,8.68434,4.47629,2.18665,7.19512,2.68293,-27.561,-4.26553,0.598755,9.35974,-3.87195,5.60976,13.8415
538.935,63.126,60.0887,0,9.53936,4.82596,1.74357,8.75,0.945122,-28.5671,-4.4739,0.574805,9.16574,-3.23171,7.04268,12.0427
538.945,62.7855,60.1963,0,9.34058,5.15648,1.97589,7.5,2.53049,-30.6098,-4.73256,0.502954,9.22322,-2.62195,7.22561,9.93902
538.955,62.4145,60.2756,0,9.33339,5.26665,1.60227,8.2622,8.32317,-33.3232,-5.01038,0.376018,9.51541,-2.86585,6.52439,8.01829
538.965,61.9982,60.3451,0,8.97653,5.35526,1.95434,9.26829,5.39634,-35.8841,-5.12295,0.268242,9.64953,-3.10976,4.32927,7.2561
538.975,61.5644,60.434,0,8.91187,5.39598,1.7316,9.5122,4.87805,-37.7439,-5.05349,0.196392,9.68306,-2.89634,2.13415,7.28659
538.985,61.1233,60.6146,0,8.97174,5.40556,1.7795,9.42073,2.2561,-39.6341,-4.86428,0.158071,9.67109,-2.77439,0.182927,8.65854
538.995,60.6714,60.7602,0,9.24717,5.60674,1.69807,9.29878,2.13415,-41.311,-4.77088,0.155676,9.75731,-1.89024,-1.92073,10.7012
539.005,60.1896,60.864,0,9.17772,5.8175,1.78668,9.08537,2.16463,-42.9573,-4.73016,0.0790356,9.40764,-0.853659,-3.81098,12.7134
539.015,59.6744,60.9539,0,8.94061,5.96599,1.8274,8.44512,4.14634,-44.6037,-4.76369,0.00718506,9.3789,0.0609756,-3.96341,14.0549
539.025,59.135,61.0512,0,8.79691,6.02587,1.78429,7.53049,6.09756,-46.7073,-4.81399,0.00239502,9.60403,-0.0304878,-5.4878,14.7256
539.035,58.5668,61.1283,0,8.43765,6.04024,2.01421,6.95122,6.58537,-48.3232,-4.8547,0.0934058,9.51062,-0.304878,-7.65244,15.061
539.045,57.9905,61.1874,0,8.40891,5.98994,1.84177,7.2561,7.34756,-50.5793,-4.88105,0.222737,9.40764,-0.548781,-8.84146,14.6951
539.055,57.3993,61.2623,0,8.20055,5.97318,1.88488,7.80488,3.68902,-52.0427,-4.82357,0.364043,9.47709,-0.579268,-10.4878,14.7561
539.065,56.8136,61.3193,0,8.31072,5.97078,1.91602,8.65854,1.43293,-53.4451,-4.81638,0.383203,9.30944,-0.731707,-11.9512,14.4512
539.075,56.2043,61.3945,0,8.24366,6.13125,1.7795,8.62805,1.55488,-55.122,-4.67987,0.402363,9.24478,0.27439,-13.2622,13.9634
539.085,55.5733,61.4698,0,8.05685,6.23903,1.76513,8.9939,-0.609756,-56.311,-4.60083,0.285007,9.11784,1.09756,-14.7256,13.4146
539.095,54.9488,61.5747,0,8.30114,6.38512,1.57113,7.95732,-0.457317,-57.3171,-4.46671,0.213157,9.17532,1.7378,-15.5488,12.7744
539.105,54.3011,61.7039,0,7.89159,6.47134,1.68609,7.83537,-1.46341,-57.3171,-4.35415,0.174836,9.2352,1.92073,-16.0366,12.7134
539.115,53.6836,61.8498,0,8.15265,6.56954,1.38911,7.92683,0.853659,-56.5549,-4.20805,0.182021,9.15137,1.18902,-16.4939,12.5915
539.125,53.0752,61.9854,0,7.87961,6.47853,1.47294,7.80488,-0.884146,-55.7317,-4.12901,0.244292,8.93342,1.21951,-16.5854,12.9573
539.135,52.4957,62.127,0,7.84608,6.33243,1.27894,7.65244,2.07317,-55.0915,-4.02842,0.347278,8.83044,1.76829,-16.4024,13.1402
539.145,51.9276,62.2643,0,7.71915,6.2055,1.3939,7.7439,2.71341,-55.3354,-4.00926,0.387993,8.8017,1.98171,-17.0122,13.4146
539.155,51.3518,62.3682,0,7.4557,6.11209,1.56874,8.32317,0.0304878,-56.1585,-4.05716,0.323328,8.62207,2.04268,-17.8049,13.0183
539.165,50.7597,62.457,0,7.37906,6.27495,1.31008,9.17683,-0.335366,-56.8902,-4.09788,0.301772,8.59812,2.46951,-18.9024,11.9512
539.175,50.1544,62.5476,0,7.32636,6.5384,1.41306,8.9939,-2.92683,-56.6463,-4.07632,0.296982,8.60291,2.53049,-19.9085,11.5854
539.185,49.5607,62.6641,0,7.29283,6.71563,1.45857,8.78049,-3.59756,-54.878,-4.02124,0.426313,8.77535,1.52439,-21.9817,10.7622
539.195,48.975,62.7736,0,7.12518,6.79467,1.34361,7.62195,-3.44512,-53.2317,-3.90149,0.548459,8.48795,0.670732,-23.3232,11.0366
539.205,48.4406,62.9014,0,7.07489,6.445,1.11129,6.58537,-1.46341,-51.8598,-3.68114,0.63468,8.2245,0.640244,-22.622,11.372
539.215,47.9268,63.0842,0,6.90245,6.36357,0.965193,6.15854,-0.548781,-50.1524,-3.43685,0.713716,8.26042,0.579268,-21.6768,12.1646
539.225,47.4474,63.2942,0,6.60067,5.87977,1.43222,5.91463,-1.82927,-49.6951,-3.30992,0.718506,8.31072,-0.823171,-20.9451,12.6524
539.235,47.0015,63.5001,0,6.74198,5.81271,1.52802,7.40854,-5.60976,-49.1463,-3.19735,0.58678,8.07361,-1.76829,-20.2439,12.8659
539.245,46.5556,63.7044,0,7.03178,6.25579,1.11368,6.98171,-5,-48.2317,-3.18777,0.471819,8.11672,-1.76829,-20.2744,12.2256
539.255,46.1121,63.9121,0,7.16829,6.46176,1.07057,6.64634,-4.5122,-48.1402,-3.15664,0.359253,8.15744,-1.25,-20.9146,11.4634
539.265,45.6628,64.1111,0,7.06531,6.55517,1.03465,6.92073,-3.14024,-47.9573,-3.14466,0.249082,8.12151,-0.396341,-20.9146,11.128
539.275,45.2161,64.2926,0,6.94556,6.50248,0.996328,8.65854,-1.28049,-48.0793,-3.16861,0.0981958,8.08319,0.640244,-20.0915,11.0671
539.285,44.796,64.479,0,6.82341,6.17676,1.16158,10.7927,-1.21951,-48.2317,-3.13748,0.112566,8.13109,1.82927,-20.3963,10.7927
539.295,44.3605,64.6855,0,6.7827,6.46655,0.993933,11.4024,0.762195,-47.6524,-3.07042,0.0981958,8.25084,3.17073,-21.0061,11.2805
539.305,43.9105,64.8991,0,6.57912,6.71324,0.912502,11.8902,3.04878,-46.0366,-3.02491,0.184417,8.29874,3.5061,-21.5549,11.8902
539.315,43.4963,65.1152,0,6.67252,6.8282,0.699346,11.5854,6.18902,-43.1402,-2.9818,0.296982,8.30353,3.9939,-21.8902,12.622
539.325,43.114,65.3286,0,6.55996,6.7348,0.819097,11.0366,7.56098,-40.5488,-2.95545,0.452659,8.29874,3.07927,-22.0122,13.4451
539.335,42.7997,65.5349,0,6.8282,6.48092,0.833467,13.0793,7.31707,-38.9634,-3.00814,0.452659,8.4616,2.40854,-21.6768,14.0549
539.345,42.5045,65.7212,0,6.94556,6.44021,0.840652,13.3537,11.7683,-39.0244,-3.05844,0.452659,8.464,1.4939,-21.8598,14.0244
539.355,42.2409,65.9157,0,7.19224,6.33243,0.64426,12.5915,13.9634,-39.4207,-3.00096,0.483794,8.48555,1.21951,-21.8598,13.75
539.365,41.8485,66.1192,0,5.90851,6.56235,1.69567,10.8232,-0.243902,-39.5427,-2.99617,0.514929,8.67476,0.548781,-21.8598,13.811
539.375,41.5347,66.3376,0,6.68929,6.65576,0.826282,11.5549,17.3476,-38.75,-2.91234,0.59157,8.71787,-0.121951,-21.8902,14.0854
539.386,41.1694,66.5405,0,6.3013,7.05573,0.938848,10.8841,11.0061,-37.7439,-2.90516,0.608335,8.6101,-1.89024,-21.4939,14.7561
539.395,40.8018,66.745,0,5.95881,6.85215,1.38911,12.0122,6.79878,-37.1951,-2.86923,0.656235,8.62446,-3.65854,-21.25,15
539.405,40.4809,66.9402,0,6.38752,7.17308,0.974773,12.6829,15.4878,-34.5427,-2.85965,0.701741,8.58136,-5.03049,-21.311,15.1829
539.415,40.1753,67.1345,0,6.26537,7.2593,1.18793,13.3537,9.54268,-31.8293,-2.80936,0.694556,8.51669,-5.54878,-20.4268,15.2439
539.425,39.9007,67.3208,0,6.33243,7.29762,1.31726,14.7866,8.04878,-29.6037,-2.78541,0.565225,8.44244,-5.36585,-19.878,14.4207
539.435,39.6697,67.5082,0,6.74438,7.42217,0.826282,13.0793,10.3049,-28.3841,-2.78541,0.416733,8.55262,-4.69512,-18.9634,13.689
539.445,39.4353,67.6883,0,6.49769,7.23775,1.05381,11.7988,10.2744,-28.5061,-2.76864,0.217947,8.50471,-4.84756,-17.8049,12.1951
539.455,39.1707,67.88,0,5.88696,6.83778,1.24302,11.8902,10.2439,-29.6341,-2.70637,0.0862207,8.55501,-4.93902,-17.0732,10.8537
539.465,38.8855,68.0934,0,5.55405,6.61504,1.33882,12.378,8.23171,-30.8232,-2.5962,0.0886157,8.59093,-5,-16.8902,10.3963
539.475,38.5773,68.3366,0,5.43669,6.78749,1.20948,12.5305,3.41463,-31.0671,-2.47885,0.261057,8.73224,-5.18293,-16.7378,11.1585
539.485,38.2722,68.578,0,5.55884,7.08926,1.04423,12.3476,0.0914634,-30.1524,-2.4525,0.428708,8.75619,-5.70122,-15.8841,12.6524
539.495,37.9807,68.7908,0,5.86061,7.62574,1.02267,11.25,-0.548781,-28.2622,-2.51956,0.534089,8.71787,-5.91463,-14.6341,14.0549
539.505,37.7244,68.9731,0,6.13843,7.86524,0.946033,7.95732,1.03659,-26.128,-2.6465,0.531694,8.83523,-5.82317,-13.7805,14.3598
539.515,37.499,69.1372,0,6.26777,7.91075,1.06099,6.82927,5.36585,-24.3598,-2.7423,0.538879,8.99809,-5.60976,-13.3232,14.1159
539.525,37.2742,69.2867,0,6.16957,7.92272,1.20469,5.51829,10.2134,-23.7805,-2.80217,0.507744,9.07952,-5.54878,-12.8963,12.9573
539.535,37.0423,69.4461,0,6.02108,7.88919,1.24062,4.48171,11.2195,-23.811,-2.7399,0.464634,9.10347,-5.30488,-12.561,11.5244
539.545,36.7869,69.6156,0,5.81271,7.99697,1.32205,4.63415,10.7012,-23.9634,-2.6944,0.443079,9.19448,-5.33537,-12.378,10.6098
539.555,36.5031,69.7916,0,5.54687,8.05206,1.13763,2.95732,9.90854,-24.4207,-2.67045,0.335303,9.31184,-5.60976,-12.2256,9.90854
539.565,36.2126,69.967,0,5.36484,7.89877,1.20709,4.84756,6.89024,-24.9085,-2.67763,0.277822,9.43877,-5.54878,-12.1341,9.45122
539.575,35.9148,70.1396,0,5.35526,8.02811,1.23823,5.54878,3.44512,-25.2744,-2.68482,0.277822,9.52978,-5.60976,-11.9207,9.72561
539.585,35.6227,70.3014,0,5.50854,8.27,1.19751,4.54268,1.64634,-25.2134,-2.73032,0.244292,9.62798,-5.12195,-11.5244,9.81707
539.595,35.3684,70.462,0,5.79355,8.10475,1.27176,6.21951,-0.884146,-25.8232,-2.74469,0.265847,9.76689,-4.20732,-10.7317,10.0915
539.605,35.102,70.6284,0,5.78397,8.38017,1.14721,6.25,-2.16463,-25.6402,-2.72074,0.287402,9.88904,-3.56707,-9.60366,10.4573
539.615,34.8437,70.7988,0,5.94204,8.45681,1.0083,3.35366,-2.37805,-26.3415,-2.69679,0.273032,9.98484,-3.07927,-8.81098,10.0915
539.625,34.5983,70.9874,0,5.85103,7.99458,1.19032,2.40854,-0.457317,-27.8049,-2.59381,0.352068,10.0447,-3.38415,-8.20122,9.87805
539.635,34.3239,71.204,0,5.59956,8.04248,0.941243,2.56098,1.79878,-28.5061,-2.45729,0.526904,10.1693,-3.62805,-7.28659,9.93902
539.645,34.0499,71.4534,0,5.48938,7.86764,0.907712,2.46951,3.01829,-29.1463,-2.28724,0.613125,10.2842,-3.96341,-6.25,10.5793
539.655,33.7881,71.6963,0,5.52291,7.65927,1.09213,2.68293,0.945122,-30.2744,-2.25611,0.680186,10.186,-3.84146,-4.78659,11.0061
539.665,33.5322,71.9643,0,5.66422,7.86764,0.934058,4.08537,-0.0609756,-30.122,-2.27766,0.66342,10.1573,-3.53659,-1.70732,11.6159
539.675,33.2903,72.2421,0,5.92288,8.27719,0.546064,7.59146,-2.71341,-28.872,-2.37586,0.593965,10.1812,-2.86585,0.853659,11.0366
539.685,33.0548,72.3988,0,6.05461,8.57417,0.498164,7.86585,-1.37195,-27.9878,-2.52435,0.526904,10.1812,-2.46951,3.29268,9.78659
539.695,32.8179,72.5131,0,5.99952,8.53106,0.526904,9.69512,1.4939,-28.3841,-2.65847,0.467029,10.1357,-2.95732,5.64024,7.95732
539.705,32.5303,72.6001,0,5.56363,8.45921,0.675395,10.9146,-5.15244,-30.3963,-2.76625,0.397573,10.1429,-2.92683,7.62195,5.67073
539.715,32.2431,72.6533,0,5.70254,8.35862,0.488584,11.2805,0.609756,-32.9268,-2.81894,0.337698,9.82677,-3.68902,10.122,3.81098
539.725,31.9003,72.6885,0,5.12295,8.2221,0.584385,12.8049,-2.86585,-34.3293,-2.85007,0.265847,9.68546,-4.48171,11.8598,2.62195
539.735,31.5573,72.7265,0,5.16366,8.3682,0.66342,14.2988,-2.62195,-34.5427,-2.79738,0.126936,9.57289,-4.96951,13.0183,2.37805
539.745,31.2236,72.7735,0,5.12295,8.38975,0.814307,13.9329,-2.16463,-33.75,-2.68721,-0.0574805,9.35974,-5.09146,13.3537,3.32317
539.755,30.8862,72.8296,0,5.04152,8.39694,0.785566,13.2317,-0.914634,-33.9329,-2.58183,-0.210762,9.15616,-4.48171,13.0183,3.9939
539.765,30.5458,72.8702,0,5.17324,8.55262,0.823887,12.7439,2.37805,-35.3049,-2.63452,-0.361648,9.137,-3.07927,12.2256,5.79268
539.775,30.1874,72.8958,0,5.17324,8.71308,0.627495,14.2988,3.53659,-36.8902,-2.68721,-0.522114,9.11544,-1.58537,11.5549,7.28659
539.785,29.7755,72.8999,0,4.93134,8.9909,0.819097,14.3293,3.04878,-39.0854,-2.80217,-0.61552,9.19687,0.243902,11.0061,8.59756
539.795,29.3289,72.8813,0,4.84033,9.14179,0.661025,14.2378,3.59756,-41.7378,-2.86444,-0.704136,9.07712,2.56098,11.4024,9.17683
539.805,28.8654,72.8311,0,4.79722,9.11065,0.682581,12.439,3.93293,-44.1159,-2.95066,-0.694556,8.90947,4.29878,12.8354,9.05488
539.815,28.3837,72.7662,0,4.74453,8.96935,0.967588,10.9756,4.2378,-47.1341,-2.9794,-0.59636,8.78493,6.21951,14.6951,8.5061
539.825,27.9057,72.7047,0,4.67987,8.81367,0.943638,9.90854,5.70122,-47.9268,-2.95785,-0.488584,8.73224,7.9878,15.2439,8.01829
539.835,27.4113,72.6582,0,4.36612,8.72745,0.749641,9.05488,5.70122,-47.7439,-2.88839,-0.258662,8.68674,9.7561,15.0915,7.40854
539.845,26.9032,72.6076,0,4.09548,8.64123,0.809517,7.5,3.68902,-47.6524,-2.82373,-0.0981958,8.41849,11.4939,15.8537,6.76829
539.855,26.4086,72.564,0,3.96136,8.43286,0.699346,5.51829,3.56707,-46.9207,-2.6944,0.0622705,8.09756,12.5,17.8659,6.34146
539.865,25.9372,72.5702,0,3.91346,8.19336,0.871787,6.28049,1.58537,-46.311,-2.58902,0.234712,8.37059,12.6829,18.628,6.03659
539.875,25.4578,72.5984,0,3.7027,8.14307,0.708926,6.31098,-1.0061,-45.8841,-2.53154,0.325723,8.47597,12.8354,18.1402,5.30488
539.885,25.0079,72.6265,0,3.74821,8.04966,0.764011,6.58537,-4.81707,-44.9085,-2.49082,0.447869,8.35862,12.1341,19.5122,4.90854
539.896,24.5937,72.6589,0,3.84161,8.07122,0.780776,8.47561,-10.8232,-43.1707,-2.46927,0.603545,8.3658,10.8537,22.4695,4.42073
539.905,24.2227,72.6702,0,4.09788,8.29156,0.316143,6.46341,-12.8354,-41.3415,-2.52435,0.677791,8.29156,9.17683,25.2134,3.5061
539.915,23.8792,72.6564,0,4.18649,8.39694,0.543669,6.43293,-13.4756,-39.6951,-2.53633,0.728086,8.02811,6.58537,28.9939,2.83537
539.925,23.5538,72.6287,0,4.19607,8.464,0.0934058,6.18902,-14.2988,-38.2927,-2.5986,0.711321,8.05445,4.54268,32.5915,1.70732
539.935,23.2522,72.5923,0,4.2799,8.6101,0.148491,5.91463,-16.7988,-36.6463,-2.73751,0.641865,8.3658,3.01829,35,0.0609756
539.945,22.9957,72.531,0,4.45234,8.48076,0.0287402,8.10976,-15.6098,-35.2439,-2.90755,0.593965,8.55022,2.83537,35.122,-0.853659
539.955,22.745,72.4367,0,4.44755,8.67476,0.110171,9.66463,-11.7073,-34.0549,-3.13029,0.560435,8.7514,2.56098,33.9329,-1.76829
539.965,22.525,72.2928,0,4.61041,8.71548,0.208367,10,-8.35366,-32.9268,-3.29315,0.526904,8.56459,2.0122,33.2317,-2.80488
539.975,22.3215,72.1156,0,4.6152,8.66039,0.0934058,9.87805,-4.20732,-32.0427,-3.39135,0.56762,8.38975,1.21951,34.8476,-3.20122
539.985,22.107,71.9043,0,4.38528,8.64602,0.217947,7.31707,-2.31707,-31.2195,-3.51589,0.507744,8.26521,0.884146,35.6098,-3.44512
539.995,21.91,71.6773,0,4.35894,8.6101,0.433499,7.68293,-3.93293,-29.7866,-3.47278,0.462239,7.9323,1.18902,37.3476,-3.56707
540.005,21.7352,71.5025,0,4.46911,8.66279,0.335303,9.81707,-3.87195,-28.811,-3.49194,0.414338,8.40891,1.46341,37.2256,-3.59756
540.015,21.5747,71.3414,0,4.61041,8.83523,-0.0119751,9.87805,-3.59756,-28.2622,-3.53265,0.325723,8.57417,1.46341,35.3049,-3.20122
540.025,21.43,71.1948,0,4.69184,8.80409,-0.00479004,11.25,-1.7378,-27.9878,-3.48475,0.296982,8.54543,1.31098,35.2439,-2.83537
540.035,21.285,71.1077,0,4.56491,8.76577,0.0718506,14.6341,4.45122,-27.1951,-3.47278,0.330513,9.12502,1.7378,34.3293,-1.92073
540.045,21.0997,71.0111,0,4.23439,9.05557,0.320933,14.1768,10.1829,-26.6159,-3.49673,0.409548,9.03162,1.89024,33.75,-0.182927
540.055,20.8921,70.8772,0,3.96855,9.21603,0.5772,12.561,12.8963,-25.6707,-3.50631,0.443079,8.59573,2.34756,36.189,1.31098
540.065,20.6971,70.7557,0,3.88712,9.331,0.66342,12.4085,10.9146,-23.4146,-3.56858,0.502954,8.83044,2.22561,37.5,2.56098
540.075,20.5112,70.6135,0,3.82485,9.25436,0.65863,11.7378,9.96951,-22.561,-3.71468,0.641865,8.90229,2.2561,37.439,3.47561
540.085,20.3241,70.4313,0,3.58534,9.16813,0.536484,13.0183,7.89634,-20.8232,-3.80569,0.673001,8.62926,1.15854,38.5061,3.75
540.095,20.1317,70.2071,0,3.37219,9.16813,0.517324,13.1402,4.05488,-19.3598,-3.92304,0.677791,8.40173,-0.243902,40.3963,3.20122
540.105,19.9576,69.9889,0,3.48715,9.19209,0.431104,12.9878,0.762195,-19.0854,-4.02124,0.61073,8.58615,-2.10366,41.9817,2.13415
540.115,19.7973,69.7801,0,3.52307,9.2304,0.215552,13.75,-0.884146,-18.2622,-4.10985,0.60594,8.78493,-4.14634,42.8049,0.945122
540.125,19.6518,69.5482,0,3.54942,9.31423,0.114961,12.8963,-1.37195,-17.0122,-4.15536,0.63947,8.57417,-6.12805,44.3902,0
540.135,19.4903,69.3161,0,3.31471,9.4268,0.294587,12.6829,-1.92073,-15.9146,-4.15296,0.682581,8.48316,-7.28659,45.9756,-0.0914634
540.145,19.3592,69.069,0,3.39135,9.19687,0.479004,12.9268,-6.0061,-14.9085,-4.17212,0.598755,8.29874,-7.34756,47.1646,0.731707
540.155,19.2349,68.7595,0,3.29794,9.09628,0.263452,14.5122,-8.47561,-13.8415,-4.37091,0.538879,8.04487,-7.19512,46.9512,1.09756
540.165,19.1241,68.4277,0,3.26681,9.24478,0.177231,13.689,-7.19512,-11.7683,-4.31104,0.323328,7.65688,-6.34146,47.9573,2.65244
540.175,19.0594,68.1046,0,3.4632,9.02443,0.507744,13.5671,-8.65854,-10.4268,-4.3278,0.191602,7.65209,-4.90854,48.5671,4.17683
540.186,19.0278,67.7693,0,3.64761,8.95737,0.304167,14.3293,-6.25,-9.54268,-4.4739,0.0958008,7.70957,-3.84146,47.5305,5.70122
540.196,18.9818,67.3954,0,3.42248,9.02204,0.565225,15.2744,-3.29268,-8.2622,-4.63436,0.119751,7.58024,-3.44512,46.9817,7.43902
540.205,18.9247,67.0445,0,3.27878,9.10586,0.5772,15.9756,-1.43293,-7.5,-4.78764,0.270637,7.89398,-3.23171,46.2195,8.93293
540.215,18.8261,66.6728,0,3.09197,9.21364,0.56283,13.8415,-0.457317,-9.29878,-4.96727,0.486189,7.91314,-3.41463,45.4268,10.3963
540.225,18.6709,66.2589,0,2.71356,9.37411,0.732876,10.6098,1.76829,-10.3659,-5.16606,0.646655,7.7886,-3.62805,45.0305,11.4634
540.235,18.5223,65.8242,0,2.94108,9.33579,0.735271,10.3354,1.37195,-12.7439,-5.36963,0.677791,7.81255,-3.87195,44.0854,11.7683
540.245,18.3304,65.3773,0,2.81415,9.09868,0.622705,9.81707,1.58537,-16.8598,-5.46783,0.737666,7.73831,-3.75,43.9024,11.7378
540.255,18.0828,64.9392,0,2.57704,9.39806,0.203577,9.02439,2.22561,-19.1463,-5.44867,0.622705,7.6473,-2.9878,43.4756,11.2805
540.265,17.8011,64.5187,0,2.33993,9.35016,0.186812,10.4268,-2.92683,-20.5183,-5.3864,0.512534,7.56108,-2.92683,43.0183,10.9146
540.275,17.4839,64.1393,0,2.11241,9.34297,0.170046,13.5366,-10.7317,-22.0427,-5.39119,0.282612,7.7407,-1.98171,41.8902,10.5488
540.285,17.1593,63.7363,0,2.10043,9.33339,0.191602,12.378,-14.7256,-23.3232,-5.40795,0.110171,7.48923,-0.609756,41.4024,10.3963
540.295,16.8312,63.352,0,2.12917,9.11065,0.404758,10.9146,-18.5366,-25.3049,-5.36245,-0.0287402,7.44612,0.762195,41.8902,10.3049
540.305,16.5156,62.9791,0,2.2585,9.24957,0.285007,10.6098,-20.2439,-25.8537,-5.44388,-0.0694556,7.53234,1.92073,42.0732,10.3354
540.315,16.2389,62.597,0,2.6441,9.45075,0.0407153,7.46951,-18.9329,-26.4329,-5.48938,-0.0670605,7.42935,3.81098,42.3476,10.6707
540.325,15.9801,62.2042,0,2.72793,9.40285,0.0622705,6.34146,-17.0122,-26.2805,-5.59237,-0.0550855,7.39103,4.96951,42.3476,10.6098
540.335,15.7542,61.8134,0,2.86684,9.3789,0.0814307,5.45732,-16.5244,-25.122,-5.70733,0.0646655,7.45091,5.4878,42.8963,10.1829
540.345,15.5541,61.4186,0,2.88839,9.24238,-0.277822,4.81707,-18.1402,-23.689,-5.8654,0.186812,7.52276,5.57927,43.0488,8.90244
540.355,15.4133,61.0075,0,3.28597,8.84002,-0.452659,6.7378,-22.4695,-24.2378,-5.99473,0.364043,7.47007,4.45122,43.628,7.77439
540.365,15.2582,60.6113,0,3.33147,8.84481,-0.728086,8.38415,-25.7317,-26.4939,-6.057,0.495769,7.53952,3.44512,44.2988,6.46341
540.375,15.0851,60.2204,0,3.36261,9.17772,-1.05141,7.9878,-23.3537,-27.5915,-6.16478,0.60115,7.60179,2.5,44.3598,5.12195
540.385,14.9092,59.8315,0,3.3674,9.30944,-1.11129,7.31707,-23.4146,-27.7439,-6.12885,0.65384,7.46767,1.4939,45.0915,4.08537
540.395,14.7132,59.4436,0,3.19735,9.44356,-1.152,5.85366,-21.8293,-27.7439,-6.10969,0.613125,7.35032,0.152439,46.5854,4.17683
540.405,14.525,59.0426,0,3.16861,9.59924,-1.14482,2.80488,-13.2622,-26.4634,-6.13365,0.517324,7.19464,-0.914634,47.3476,4.48171
540.415,14.3346,58.648,0,3.09197,9.47949,-0.589175,3.5061,-8.71951,-26.6463,-6.20789,0.325723,7.22098,-1.18902,47.7134,4.60366
540.425,14.1447,58.215,0,3.00335,9.46272,-0.5772,5.64024,-3.32317,-26.0671,-6.31327,0.193997,7.00064,-1.40244,48.75,5.39634
540.435,13.9209,57.785,0,2.56986,9.73336,-0.423918,7.22561,-4.42073,-24.1463,-6.47134,0.134121,7.08686,-1.28049,49.1463,5.36585
540.445,13.7155,57.3407,0,2.52196,9.73336,-0.354463,6.37195,-10.2439,-22.1951,-6.56235,0.0670605,6.99106,-0.304878,49.6646,5.21341
540.455,13.5762,56.88,0,2.95066,9.55373,-0.184417,5.88415,-14.0549,-21.25,-6.62941,0.0311353,6.85455,-0.0609756,50.8537,5.09146
540.465,13.4021,56.438,0,2.71356,9.46272,-0.543669,4.90854,-15.4268,-22.7134,-6.64378,0.0670605,6.87371,0.426829,51.6768,4.69512
540.475,13.2027,56.0022,0,2.54351,9.60882,-0.56283,2.53049,-15.2439,-23.2622,-6.62702,0.138911,6.78988,0.731707,53.0488,4.29878
540.485,13.0015,55.5525,0,2.47885,9.48428,-0.617915,0.0304878,-14.4512,-23.4756,-6.67731,0.170046,6.65815,0.548781,54.6951,3.47561
540.495,12.7939,55.1062,0,2.35909,9.31184,-0.718506,-3.23171,-13.872,-23.6585,-6.69168,0.232317,6.5887,0.853659,55.3963,2.9878
540.505,12.6106,54.6582,0,2.55309,9.46033,-0.385598,-4.72561,-15.9146,-23.4146,-6.7803,0.285007,6.56475,1.28049,56.5549,2.68293
540.515,12.4206,54.188,0,2.47645,9.51062,-0.60115,-1.92073,-13.5976,-23.4451,-6.83299,0.313748,6.38752,1.25,58.0183,2.0122
540.525,12.1975,53.7183,0,2.05732,9.58487,-0.59636,0.27439,-17.8963,-22.1341,-6.99585,0.352068,6.43781,1.0061,59.5427,1.55488
540.535,12.0128,53.2262,0,2.24653,9.52499,-0.510139,1.55488,-20.2744,-21.0366,-7.10602,0.330513,6.30848,0.457317,61.4939,1.28049
540.545,11.8491,52.7118,0,2.51956,9.63516,-0.641865,1.46341,-22.6829,-22.1037,-7.22817,0.308958,6.18394,0.243902,63.3537,0.487805
540.555,11.6822,52.1732,0,2.56746,9.64474,-0.696951,0.213415,-25.6402,-23.2622,-7.37906,0.287402,6.06898,0,65.4573,0.609756
540.565,11.5202,51.61,0,2.62973,9.59924,-0.864602,-1.92073,-25.3049,-23.9634,-7.43414,0.251477,5.8678,0.0304878,67.2256,0.548781
540.575,11.3341,51.0652,0,2.18426,9.51541,-0.752036,-4.63415,-27.439,-21.8598,-7.49641,0.208367,5.89654,0.27439,67.7134,0.0609756
540.585,11.2052,50.5019,0,2.73272,9.57529,-0.718506,-4.11585,-24.0549,-22.5305,-7.53713,0.196392,5.71691,0.213415,68.7805,0.213415
540.595,11.0759,49.9298,0,2.58423,9.44356,-0.471819,-3.87195,-23.9634,-21.5549,-7.49402,0.210762,5.52531,0.792683,69.8781,-0.243902
540.605,10.9518,49.3853,0,2.39741,9.72378,-0.423918,-1.76829,-25.5488,-18.3232,-7.53713,0.213157,5.58279,0.365854,70.5488,0
540.615,10.85,48.8055,0,2.13875,9.73575,-0.938848,-3.84146,-24.3293,-13.3232,-7.6449,0.174836,5.37203,0.548781,70.9146,-0.792683
540.625,10.8574,48.2034,0,2.99377,9.74773,-0.924478,-2.16463,-25.7927,-11.9512,-7.77423,0.179626,5.23551,0.487805,72.0732,-1.15854
540.635,10.8856,47.5899,0,3.04407,9.65672,-1.08973,-1.70732,-25.4878,-10.6707,-7.91075,0.167651,5.15169,0.609756,73.2012,-1.67683
540.645,10.925,46.9658,0,3.03209,9.64235,-1.05381,-1.82927,-25.6707,-9.39024,-7.97542,0.114961,5.02236,1.0061,74.6951,-2.22561
540.655,10.9437,46.3113,0,2.78541,9.58487,-1.06578,-1.55488,-22.5,-8.87195,-8.04248,0.0862207,4.79722,0.670732,76.4329,-2.65244
540.665,10.9454,45.6588,0,2.27766,9.40285,-0.895737,-1.06707,-19.6646,-5.33537,-8.08319,0.0766406,4.70861,0.0914634,78.2012,-3.10976
540.675,10.9421,45.024,0,2.37825,9.53936,-0.998723,0.457317,-19.0244,-6.58537,-8.19576,0.110171,4.73495,-0.396341,78.4451,-3.04878
540.685,10.8985,44.3549,0,2.0669,9.44356,-0.881367,-0.152439,-16.25,-7.31707,-8.28677,0.174836,4.50264,-0.823171,78.7805,-2.65244
540.695,10.8734,43.666,0,2.3064,9.48907,-0.6251,0.304878,-17.3171,-8.20122,-8.44963,0.256267,4.37091,-1.28049,79.4512,-2.92683
540.705,10.8171,42.9799,0,2.07648,9.5226,-0.584385,0.518293,-18.9634,-8.65854,-8.58136,0.306563,4.32301,-2.04268,80.1524,-2.59146
540.715,10.7506,42.2783,0,2.05732,9.55613,-0.519719,-0.426829,-18.0488,-9.5122,-8.66997,0.306563,4.16494,-2.5,80.3049,-2.62195
540.725,10.6355,41.5795,0,1.47294,9.39327,-0.498164,-1.03659,-17.378,-7.9878,-8.73464,0.308958,4.07872,-3.59756,80.3963,-2.40854
540.736,10.6135,40.8826,0,2.46448,9.6663,-0.622705,-0.945122,-15.4268,-9.72561,-8.78014,0.213157,3.97813,-4.45122,79.5732,-2.19512
540.745,10.5671,40.1768,0,2.22976,9.63756,-0.65384,-1.76829,-13.3232,-9.66463,-8.71069,0.210762,3.77934,-4.63415,80.061,-2.37805
540.755,10.4934,39.4809,0,1.83458,9.55134,-0.59636,-2.7439,-12.5,-8.14024,-8.69392,0.203577,3.69073,-5.70122,80.5183,-1.85976
540.765,10.4541,38.7845,0,2.22737,9.59684,-0.768801,-1.40244,-8.32317,-9.26829,-8.69153,0.129331,3.56379,-6.46341,80.5488,-1.58537
540.775,10.3659,38.0891,0,1.80824,9.57768,-0.821492,-2.04268,-11.0061,-9.48171,-8.73703,0.110171,3.4632,-6.43293,80.5488,-1.06707
540.785,10.2675,37.4103,0,1.68849,9.40285,-0.780776,-2.10366,-10.061,-9.66463,-8.82565,0.102986,3.44883,-7.40854,80.2744,-0.670732
540.795,10.1693,36.7145,0,1.71962,9.45793,-0.809517,-1.55488,-7.83537,-10.0915,-8.75859,0.153281,3.22849,-8.01829,79.8476,-0.182927
540.805,10.018,36.0279,0,1.40348,9.5226,-0.744851,-1.7378,-5.2439,-11.7988,-8.97414,0.160466,3.22609,-8.93293,80.2134,-0.304878
540.815,9.80777,35.3562,0,0.823887,9.38129,-0.732876,-1.7378,-3.10976,-11.25,-9.0412,0.184417,3.19496,-10,80.1829,-0.304878
540.825,9.66787,34.6853,0,1.57113,9.44356,-0.522114,1.85976,-8.29268,-13.5366,-9.16813,0.141306,3.12311,-11.189,80.061,-0.487805
540.835,9.51778,34.0177,0,1.60227,9.51541,-0.65863,1.25,-7.9878,-15.0915,-9.10826,0.193997,2.99856,-12.2866,80.0305,-0.518293
540.845,9.33285,33.3473,0,1.14003,9.41482,-0.529299,-0.548781,-7.83537,-13.5366,-9.24717,0.112566,2.91234,-13.4146,79.0549,-0.243902
540.855,9.22106,32.6967,0,1.89686,9.68785,-0.651445,-1.61585,-6.55488,-14.9695,-9.2328,0.0598755,2.87642,-13.75,78.1707,0.213415
540.865,9.0444,32.0537,0,1.12805,9.61361,-0.55325,-3.2622,-5.30488,-12.8659,-9.33579,-0.134121,2.82612,-13.5061,77.561,0.731707
540.875,8.90393,31.4121,0,1.42264,9.86509,-0.56283,-2.86585,-1.21951,-12.622,-9.30465,-0.227527,2.70877,-13.2622,76.4024,0.792683
540.885,8.75616,30.7665,0,1.17356,9.62319,-0.507744,-1.18902,1.61585,-11.0976,-9.28549,-0.232317,2.57225,-13.0183,75.7927,0.914634
540.895,8.63385,30.1186,0,1.35798,9.49625,-0.728086,2.65244,3.71951,-11.2195,-9.26154,-0.311353,2.44292,-12.7134,75.1829,1.31098
540.905,8.47493,29.474,0,1.07297,9.55134,-0.761616,3.10976,3.9939,-11.6768,-9.30944,-0.306563,2.3567,-12.6829,73.5061,1.67683
540.915,8.2954,28.8383,0,0.747246,9.45554,-0.871787,1.85976,5.94512,-10.2439,-9.30944,-0.258662,2.28245,-12.2256,71.8902,1.95122
540.925,8.16036,28.2002,0,1.09452,9.46991,-0.61552,1.98171,1.25,-10.3049,-9.45793,-0.325723,2.19623,-11.311,70.2439,2.43902
540.935,7.99882,27.5854,0,0.864602,9.54176,-0.565225,2.22561,0.0914634,-10.3963,-9.54176,-0.347278,2.20581,-11.0061,69.1159,2.16463
540.945,7.8367,26.9435,0,0.759221,9.62558,-0.752036,1.37195,3.17073,-9.42073,-9.56331,-0.409548,1.98308,-10.8232,68.6281,2.16463
540.955,7.73072,26.2921,0,1.23583,9.86748,-0.529299,1.55488,-1.55488,-9.39024,-9.616,-0.411943,1.83938,-10.6402,67.7439,2.34756
540.965,7.58978,25.6602,0,0.900527,9.7621,-0.514929,1.15854,1.58537,-9.35976,-9.73096,-0.443079,1.83219,-10.2744,66.189,2.5
540.975,7.42346,25.0355,0,0.632285,9.70701,-0.6251,1.85976,4.60366,-9.08537,-9.80521,-0.538879,1.76513,-9.7561,64.7256,2.28659
540.985,7.31775,24.3988,0,1.07776,9.75252,-0.407153,2.56098,5.51829,-8.5061,-9.75252,-0.56283,1.59269,-8.78049,63.872,3.20122
540.995,7.16893,23.8068,0,0.804727,9.84593,-0.855022,1.79878,5.18293,-9.78659,-9.75012,-0.59636,1.67651,-7.65244,62.1646,3.68902
541.005,6.97183,23.2207,0,0.234712,9.63756,-0.550855,1.28049,3.65854,-8.32317,-9.54415,-0.514929,1.56395,-6.92073,60.5183,4.90854
541.015,6.83412,22.6295,0,0.756826,9.72617,-0.646655,2.07317,5.36585,-8.90244,-9.70941,-0.603545,1.46575,-5.85366,59.5427,5.82317
541.025,6.65753,22.0452,0,0.495769,9.92257,-0.62031,1.25,4.45122,-9.90854,-9.81719,-0.57241,1.40827,-5.45732,58.2012,6.31098
541.035,6.44632,21.4594,0,0.172441,9.90341,-0.56283,0.121951,3.01829,-10,-9.97765,-0.538879,1.31966,-4.29878,56.7683,6.58537
541.045,6.20737,20.876,0,-0.150886,9.6184,-0.608335,0.152439,4.63415,-9.39024,-10.1285,-0.517324,1.24302,-3.65854,54.7256,6.76829
541.055,5.99756,20.2926,0,0.160466,9.87467,-0.584385,0.0609756,0.335366,-10.6402,-10.2411,-0.471819,1.14961,-3.01829,52.9268,6.67683
541.065,5.81537,19.7469,0,0.457449,9.92257,-0.407153,0.396341,0.152439,-11.7378,-10.119,-0.371228,1.1999,-3.23171,50.2439,6.79878
541.075,5.64693,19.1848,0,0.58678,9.96807,-0.550855,0.792683,2.07317,-12.1951,-10.0878,-0.335303,1.02267,-3.20122,47.9268,7.07317
541.085,5.41564,18.6468,0,-0.0790356,9.74533,-0.766406,-0.213415,5.30488,-11.128,-10.2339,-0.301772,1.04423,-3.20122,46.0061,7.92683
541.095,5.26592,18.1025,0,0.706531,9.89383,-0.680186,0.0304878,3.65854,-12.561,-10.3656,-0.352068,0.929268,-3.29268,44.2073,8.07927
541.105,5.09943,17.5726,0,0.514929,9.75491,-0.847837,-0.121951,7.53049,-12.4085,-10.3034,-0.237107,0.888552,-3.47561,42.2256,8.38415
541.115,4.93801,17.0427,0,0.598755,9.67348,-0.565225,0.914634,5.70122,-13.2927,-10.2603,-0.244292,0.787961,-3.62805,40.3659,9.7561
541.125,4.76955,16.5297,0,0.495769,9.70701,-0.632285,1.15854,7.95732,-13.0793,-10.3728,-0.349673,0.775986,-3.56707,38.689,10.061
541.135,4.59514,16.0257,0,0.373623,9.77407,-0.603545,0.884146,10.3354,-12.5305,-10.4183,-0.493374,0.725691,-3.38415,36.8293,9.14634
541.145,4.40397,15.4934,0,0.0814307,9.83156,-0.5772,-0.335366,8.41463,-11.0976,-10.2315,-0.507744,0.493374,-2.71341,35.5183,8.96341
541.155,4.21421,14.9979,0,-0.0239502,9.8603,-0.514929,-0.609756,7.92683,-10.0915,-10.3632,-0.579595,0.570015,-2.22561,33.9024,8.75
541.165,4.04941,14.5366,0,0.136516,9.96089,-0.55325,-0.182927,5,-9.81707,-10.2028,-0.471819,0.6251,-1.58537,31.7073,8.62805
541.175,3.881,14.0669,0,0.126936,9.8555,-0.613125,-0.304878,3.84146,-10.4268,-9.95131,-0.383203,0.490979,-1.61585,29.8476,9.54268
541.185,3.73156,13.5968,0,0.251477,9.77647,-0.651445,-0.823171,1.82927,-10.3354,-10.0806,-0.361648,0.411943,-1.43293,29.2073,9.84756
541.195,3.61163,13.1628,0,0.433499,9.75012,-0.58678,-1.09756,1.67683,-9.81707,-10.2938,-0.277822,0.498164,-1.55488,27.1951,10.2744
541.205,3.49738,12.7198,0,0.457449,9.61361,-0.708926,-0.365854,4.05488,-9.84756,-10.2363,-0.136516,0.376018,-2.0122,25.6707,10.1829
541.215,3.38523,12.2439,0,0.402363,9.7142,-0.749641,0.121951,5.4878,-9.14634,-10.1788,-0.0311353,0.146096,-2.07317,24.2683,10.8841
541.225,3.26062,11.7744,0,0.244292,9.79803,-0.725691,-0.609756,5.06098,-8.71951,-10.3872,-0.129331,0.0910107,-1.85976,23.4146,10.6707
541.235,3.11759,11.3037,0,-0.0311353,9.7621,-0.64426,-2.19512,5.70122,-7.56098,-10.3369,-0.134121,0,-1.52439,22.5,9.93902
541.245,3.02191,10.8918,0,0.373623,9.91059,-0.512534,-1.85976,2.10366,-7.80488,-10.3728,-0.170046,0.182021,-2.07317,20.8841,9.42073
541.255,2.93558,10.4741,0,0.419128,9.83395,-0.756826,-1.67683,2.92683,-7.62195,-10.2363,-0.244292,0.0790356,-1.55488,19.6646,8.93293
541.265,2.83769,10.0638,0,0.301772,9.89383,-0.622705,-2.2561,4.66463,-7.56098,-10.2243,-0.304167,0.0359253,-1.31098,18.1402,8.87195
541.275,2.73532,9.65173,0,0.225132,9.87467,-0.5772,-1.85976,2.71341,-7.31707,-10.2315,-0.320933,-0.0455054,-1.28049,17.4085,9.20732
541.285,2.64142,9.24117,0,0.304167,9.89143,-0.55325,-2.04268,1.03659,-7.59146,-10.1405,-0.301772,-0.112566,-1.28049,16.189,9.5122
541.295,2.53818,8.8363,0,0.177231,9.93694,-0.55325,-1.70732,0.396341,-7.22561,-10.1573,-0.287402,-0.160466,-1.09756,15.6707,9.72561
541.305,2.43047,8.44146,0,0.179626,9.91538,-0.64905,-1.76829,-0.609756,-7.92683,-9.97526,-0.225132,-0.184417,-1.25,15.2134,10.5488
541.315,2.33262,8.06522,0,0.256267,9.90341,-0.632285,-2.10366,-0.670732,-8.04878,-9.87946,-0.182021,-0.170046,-1.58537,14.878,11.189
541.325,2.24753,7.71876,0,0.395178,9.87946,-0.632285,-2.04268,-0.762195,-8.59756,-10.0375,-0.280217,-0.107776,-1.70732,13.8415,11.5244
541.335,2.17927,7.36997,0,0.505349,9.88185,-0.60115,-1.64634,-0.487805,-8.35366,-10.0471,-0.318538,-0.179626,-1.98171,13.1098,11.0671
541.345,2.11111,7.04623,0,0.488584,9.92017,-0.689766,-1.76829,-0.365854,-8.2622,-10.1166,-0.373623,-0.131726,-1.52439,11.9207,10.3659
541.355,2.04291,6.748,0,0.411943,9.92975,-0.716111,-1.79878,0.457317,-7.5,-10.198,-0.361648,-0.0766406,-1.06707,10.9451,9.2378
541.365,1.97032,6.42954,0,0.325723,9.92496,-0.833467,-2.59146,1.55488,-7.07317,-10.1597,-0.277822,-0.220342,-0.457317,10.3049,9.72561
541.375,1.90668,6.13214,0,0.285007,9.84832,-0.732876,-4.17683,1.34146,-5.85366,-9.83874,-0.215552,-0.177231,-0.0914634,9.66463,9.72561
541.385,1.86082,5.8294,0,0.340093,9.73096,-0.754431,-4.7561,-0.152439,-4.87805,-10.004,-0.237107,-0.256267,-0.152439,8.75,10
541.395,1.8417,5.53385,0,0.447869,9.72378,-0.65863,-3.93293,-0.792683,-3.62805,-10.0064,-0.316143,-0.277822,-0.0304878,7.62195,9.5122
541.405,1.82967,5.22501,0,0.464634,9.73815,-0.795146,-3.14024,-0.579268,-3.20122,-9.89143,-0.294587,-0.383203,0.243902,7.13415,9.26829
541.415,1.82142,4.93821,0,0.428708,9.73815,-0.764011,-3.47561,-1.15854,-2.5,-10.0256,-0.213157,-0.344883,-0.121951,6.70732,9.02439
541.425,1.81663,4.65053,0,0.435894,9.70222,-0.64426,-3.17073,-2.56098,-2.34756,-9.94652,-0.131726,-0.395178,-0.152439,6.46341,9.17683
541.435,1.80938,4.36799,0,0.445474,9.79563,-0.632285,-3.32317,-1.67683,-2.59146,-9.87467,-0.0981958,-0.419128,-0.609756,6.37195,9.17683
541.445,1.79351,4.10593,0,0.409548,9.87227,-0.687371,-3.87195,-1.31098,-2.89634,-10.0279,-0.0862207,-0.385598,-1.40244,6.52439,8.87195
541.455,1.78892,3.84248,0,0.534089,9.81,-0.716111,-3.59756,-0.365854,-3.35366,-9.90341,-0.0742456,-0.431104,-2.19512,6.21951,8.71951
541.465,1.78239,3.58133,0,0.5772,9.78126,-0.740061,-3.29268,0.640244,-4.02439,-9.95131,-0.0981958,-0.469424,-2.28659,6.31098,8.2622
541.475,1.78019,3.33656,0,0.622705,9.81479,-0.673001,-3.53659,1.31098,-4.11585,-10.0232,-0.0838257,-0.445474,-2.89634,5.94512,7.95732
541.485,1.77553,3.08747,0,0.62989,9.70941,-0.62989,-3.35366,2.89634,-4.5122,-9.98963,-0.105381,-0.505349,-3.10976,5.88415,7.59146
541.495,1.75954,2.85318,0,0.565225,9.68546,-0.684976,-2.46951,5,-4.87805,-9.85072,-0.0862207,-0.474214,-3.62805,5.4878,7.65244
541.505,1.72546,2.6112,0,0.428708,9.72378,-0.62989,-1.89024,5.82317,-5.06098,-9.99442,-0.112566,-0.55325,-4.20732,5.03049,7.92683
541.515,1.68135,2.38646,0,0.352068,9.81,-0.661025,-2.89634,5.54878,-5.18293,-10.0758,-0.160466,-0.517324,-4.54268,4.39024,7.7439
541.525,1.63603,2.14756,0,0.320933,9.86988,-0.59636,-2.95732,4.14634,-5,-10.0112,-0.165256,-0.603545,-4.90854,3.96341,7.77439
541.535,1.58999,1.91917,0,0.268242,9.84593,-0.704136,-3.87195,4.20732,-4.54268,-10.107,-0.253872,-0.56762,-5.27439,2.9878,7.86585
541.545,1.5445,1.66522,0,0.285007,9.83874,-0.673001,-4.35976,4.20732,-4.78659,-10.0303,-0.258662,-0.62031,-5.79268,2.19512,7.77439
541.555,1.51447,1.39993,0,0.373623,9.82437,-0.673001,-4.45122,3.04878,-4.39024,-10.0136,-0.318538,-0.613125,-5.33537,1.67683,7.9878
541.565,1.48826,1.13212,0,0.414338,9.78366,-0.692161,-4.45122,3.04878,-4.57317,-10.083,-0.366438,-0.59157,-5.36585,1.25,7.83537
541.575,1.45972,0.772994,0,0.392783,9.71899,-0.718506,-4.02439,3.01829,-4.63415,-10.0735,-0.366438,-0.701741,-5.15244,0.640244,7.7439
541.585,1.43658,0.370556,0,0.423918,9.64235,-0.689766,-3.5061,3.14024,-4.57317,-9.92496,-0.409548,-0.718506,-4.96951,0.457317,8.04878
541.595,1.41102,-0.0600116,0,0.378413,9.616,-0.682581,-3.29268,3.56707,-4.32927,-9.97286,-0.457449,-0.778381,-4.78659,0.243902,7.95732
541.605,1.38145,-0.424299,0,0.371228,9.66151,-0.759221,-5,4.5122,-4.66463,-9.93933,-0.438289,-0.792751,-4.45122,-0.457317,7.77439
541.615,1.35349,-0.682718,0,0.407153,9.70462,-0.780776,-6.7378,4.57317,-4.96951,-9.81,-0.390388,-0.775986,-4.48171,-1.15854,7.95732
541.625,1.33292,-0.895005,0,0.447869,9.74294,-0.730481,-6.25,3.56707,-4.7561,-9.99442,-0.459844,-0.778381,-4.11585,-1.31098,7.40854
541.635,1.31542,-1.04733,0,0.488584,9.79323,-0.799937,-5.18293,4.63415,-4.93902,-10.0735,-0.502954,-0.744851,-3.38415,-2.22561,6.7378
541.645,1.2944,-1.20094,0,0.526904,9.75491,-0.886157,-5.2439,5.73171,-5.79268,-10.1573,-0.550855,-0.816702,-3.23171,-2.62195,6.34146
541.655,1.27011,-1.34767,0,0.560435,9.63037,-0.843047,-6.21951,6.82927,-6.64634,-10.0615,-0.5772,-0.814307,-3.17073,-2.83537,5.7622
541.665,1.23737,-1.49212,0,0.507744,9.67109,-0.840652,-7.37805,8.87195,-6.89024,-10.0735,-0.61073,-0.821492,-3.07927,-2.62195,5.51829
541.675,1.18194,-1.63293,0,0.308958,9.85311,-0.840652,-9.02439,9.2378,-6.79878,-10.0303,-0.735271,-0.833467,-2.65244,-2.7439,5.18293
541.685,1.11838,-1.73935,0,0.155676,10.0399,-0.922083,-11.1585,7.31707,-5.88415,-9.93694,-0.759221,-0.728086,-2.80488,-3.35366,4.54268
541.695,1.06163,-1.85544,0,0.110171,9.98484,-0.888552,-12.3171,3.96341,-4.78659,-9.89383,-0.792751,-0.787961,-2.28659,-3.56707,4.2378
541.705,1.01888,-1.97985,0,0.220342,9.8579,-0.890947,-12.622,1.09756,-4.81707,-9.82437,-0.775986,-0.843047,-2.31707,-3.90244,4.54268
541.715,1.00416,-2.11492,0,0.414338,9.76449,-0.855022,-12.439,-1.06707,-4.45122,-9.67827,-0.809517,-0.895737,-2.2561,-4.02439,4.26829
541.725,1.01345,-2.25808,0,0.61552,9.72857,-0.926873,-12.9878,-1.98171,-4.5122,-9.68306,-0.866997,-0.955613,-2.0122,-4.14634,4.84756
541.735,1.03923,-2.36614,0,0.735271,9.80521,-0.835862,-13.7195,-1.4939,-4.2378,-9.92257,-0.917292,-0.857417,-1.4939,-4.14634,4.39024
541.745,1.09756,-2.48352,0,0.871787,9.8555,-0.735271,-15.6707,-1.4939,-2.9878,-9.98244,-0.902922,-0.924478,-1.25,-4.29878,4.39024
541.755,1.20246,-2.60342,0,1.04902,9.87227,-0.65384,-16.5549,-1.25,-1.95122,-9.88185,-0.833467,-0.946033,-0.426829,-4.35976,4.14634
541.765,1.37307,-2.71362,0,1.19511,9.87227,-0.692161,-17.7439,0.0609756,-1.06707,-9.88185,-0.847837,-0.924478,0.0304878,-4.29878,4.11585
541.775,1.70756,-2.81563,0,1.37235,9.79803,-0.661025,-18.7805,1.64634,-0.152439,-9.85072,-0.876577,-0.900527,0.823171,-3.93293,3.53659
541.785,1.9318,-2.89229,0,1.54958,9.6639,-0.63468,-19.0549,3.90244,1.58537,-9.77407,-0.893342,-0.807122,1.76829,-4.2378,3.47561
541.795,2.14554,-2.97473,0,1.70765,9.43398,-0.58199,-17.9573,5.97561,4.17683,-9.73096,-0.929268,-0.840652,2.65244,-4.2378,3.10976
541.805,2.39422,-3.02952,0,1.8274,9.38129,-0.538879,-16.2805,8.32317,7.22561,-9.62798,-0.883762,-0.732876,3.75,-4.66463,3.07927
541.815,2.69425,-3.06724,0,1.9735,9.39087,-0.337698,-14.8171,9.87805,11.2805,-9.80281,-0.960403,-0.684976,4.20732,-5.12195,2.7439
541.825,3.04501,-3.11949,0,2.10043,9.46751,-0.217947,-13.1098,11.8293,15.7622,-9.76928,-0.924478,-0.752036,5.09146,-5.39634,2.5
541.835,3.43311,-3.17686,0,2.11241,9.57529,-0.174836,-12.6829,12.0122,20.4268,-9.80042,-0.888552,-0.785566,6.06707,-5.39634,2.80488
541.845,3.86636,-3.24089,0,2.17947,9.48907,-0.277822,-12.7134,13.1402,24.8171,-9.71899,-0.893342,-0.816702,6.82927,-5.27439,3.14024
541.855,4.31139,-3.28269,0,1.99266,9.49625,-0.167651,-12.9573,11.7378,29.1159,-9.72138,-0.838257,-0.732876,7.77439,-5.2439,4.11585
541.865,4.79037,-3.30076,0,2.00942,9.5705,-0.234712,-14.6951,10.2439,33.4756,-9.73575,-0.699346,-0.63947,8.62805,-5.03049,4.90854
541.875,5.30666,-3.33456,0,2.06451,9.68306,-0.222737,-17.3171,6.7378,37.8963,-9.7118,-0.560435,-0.706531,9.17683,-4.66463,5.64024
541.885,5.88257,-3.37809,0,2.39981,9.96089,-0.241897,-20,3.53659,41.9512,-9.66151,-0.414338,-0.742456,9.29878,-3.68902,6.25
541.895,6.53158,-3.45213,0,2.89079,10.1716,-0.332908,-22.7744,-0.152439,45.8537,-9.70701,-0.447869,-0.855022,9.7561,-2.71341,6.43293
541.905,7.26602,-3.53294,0,3.50391,10.2674,-0.593965,-25.6098,-1.09756,49.8171,-9.74533,-0.392783,-0.876577,11.0671,-2.22561,6.40244
541.915,8.06127,-3.60372,0,3.82964,10.1716,-0.538879,-25.9756,-0.487805,53.872,-9.76928,-0.354463,-0.876577,12.1341,-2.71341,6.28049
541.925,8.92395,-3.62287,0,4.26553,10.083,-0.66821,-24.6646,3.35366,57.6829,-9.99442,-0.174836,-0.716111,13.6585,-4.29878,6.70732
541.935,9.82493,-3.64696,0,4.35415,10.2555,-0.673001,-22.6829,8.53659,63.2012,-10.0902,-0.102986,-0.752036,15.4573,-6.55488,7.83537
541.945,10.7544,-3.63358,0,4.11225,10.3177,-0.510139,-18.9939,15.6707,70.5488,-10.5812,0.0598755,-0.62031,17.1341,-9.26829,8.47561
541.955,11.7277,-3.63972,0,3.90388,10.0471,-0.0598755,-14.3293,21.9817,77.9268,-10.8015,0.0981958,-0.725691,18.5671,-11.0976,9.08537
541.965,12.7285,-3.69705,0,3.62606,9.88185,0.651445,-8.65854,23.5366,84.939,-10.7776,0.222737,-0.969983,20.0915,-11.2195,10.4573
541.975,13.7832,-3.78007,0,3.63803,9.88185,1.03704,-4.7561,24.939,92.3476,-10.598,0.534089,-1.08494,21.1585,-10.4268,11.8293
541.985,14.8757,-3.89895,0,3.54702,9.92736,1.42743,-1.4939,25.7012,99.4817,-10.2387,0.759221,-1.22625,21.3415,-9.66463,12.9878
541.995,15.9539,-4.03446,0,2.89558,9.80281,2.28485,5.12195,23.1402,106.799,-9.93454,0.981958,-1.28373,20.5793,-8.62805,14.2378
542.005,17.0009,-4.17059,0,2.27766,9.78605,2.86684,17.0122,15.8537,112.652,-9.87706,1.18074,-1.30289,18.8415,-8.78049,14.1768
542.015,18.0162,-4.27494,0,2.14594,9.98244,2.71595,26.372,8.56707,113.537,-9.9058,1.25739,-1.19032,16.6159,-9.42073,13.5671
542.025,18.9588,-4.38077,0,2.13636,10.7417,1.48731,26.4634,7.28659,110,-10.0711,1.24541,-1.23583,13.9024,-9.81707,12.7134
542.035,19.758,-4.44718,0,2.00703,11.4266,0.294587,13.1402,13.1402,99.9085,-10.3585,1.25499,-1.10889,11.8598,-10.6402,11.4939
542.045,20.3685,-4.55393,0,1.88967,10.9955,-0.0455054,4.66463,21.3415,82.7134,-10.5117,1.09692,-1.32684,9.93902,-10.3354,10.1524
542.055,20.7764,-4.66519,0,1.40348,10.313,-0.182021,3.38415,23.7805,67.3781,-10.6794,1.10171,-1.38911,8.38415,-9.66463,10.4268
542.065,21.0719,-4.78786,0,1.36277,9.81958,0.0263452,7.16463,19.2988,56.4329,-10.6938,0.922083,-1.46575,7.40854,-8.5061,12.0732
542.075,21.2953,-4.93723,0,1.47054,9.49625,0.241897,12.3476,14.3293,47.8354,-10.6674,0.819097,-1.61185,6.34146,-7.07317,14.7866
542.085,21.454,-5.10326,0,1.40348,9.12023,0.546064,15.0915,4.93902,41.7988,-10.4303,0.64905,-1.6813,5.73171,-6.55488,17.6524
542.095,21.6306,-5.26089,0,1.83698,8.8017,0.673001,17.7134,-3.29268,37.7439,-10.0615,0.517324,-1.61424,5.64024,-7.10366,20.6098
542.105,21.8503,-5.41146,0,2.53154,8.5574,0.443079,20,-2.86585,32.9268,-9.80521,0.433499,-1.57113,6.67683,-8.44512,22.2866
542.115,22.0949,-5.55328,0,3.21412,8.40173,0.445474,21.2195,2.95732,26.8293,-9.63516,0.421523,-1.53281,7.86585,-9.48171,22.7744
542.125,22.3396,-5.68593,0,3.78892,8.33706,0.59636,21.9817,10.8537,20.1829,-9.56092,0.452659,-1.50647,9.5122,-10.3659,21.8902
542.135,22.5572,-5.80057,0,4.15296,8.28198,0.682581,21.5549,18.2622,13.4451,-9.54415,0.538879,-1.44899,10.9451,-10.5183,20.4573
542.145,22.7295,-5.88593,0,4.32541,8.18618,0.713716,22.3171,26.2805,6.7378,-9.55134,0.613125,-1.34361,11.8293,-10.3659,18.3232
542.155,23.1591,-5.95879,0,4.46671,8.20055,0.795146,23.1707,35.9756,0.152439,-9.50823,0.711321,-1.2981,12.2866,-9.84756,16.3415
542.165,23.2032,-6.02269,0,4.37331,8.26761,0.823887,22.561,48.1402,-5.27439,-9.42201,0.802332,-1.25978,12.0732,-8.84146,14.6646
542.175,23.1936,-6.08175,0,4.25355,8.3179,0.857417,22.2561,55.8537,-8.90244,-9.31663,0.953218,-1.23583,10.3659,-8.62805,13.628
542.185,23.1291,-6.11618,0,4.00926,8.28437,1.07776,18.9329,62.9573,-11.9512,-9.30226,1.09692,-1.14003,8.47561,-7.5,12.8659
542.195,23.0351,-6.15316,0,3.88951,8.09756,0.972378,14.6341,67.6219,-14.7561,-9.29747,1.31008,-1.1544,6.12805,-6.46341,12.6524
542.205,22.9272,-6.211,0,3.83682,7.95865,1.2023,12.5,69.6037,-16.5244,-9.35734,1.41785,-1.2526,3.44512,-5.42683,12.8963
542.215,22.7985,-6.28372,0,3.65001,7.92751,1.45378,15.9451,72.0122,-16.7988,-9.26154,1.30289,-1.30529,0.823171,-4.66463,11.9512
542.225,22.6588,-6.35734,0,3.53265,8.1263,1.43941,17.1646,69.3902,-15.6707,-9.46751,1.36037,-1.346,-0.914634,-4.05488,11.3415
542.235,22.5254,-6.40177,0,3.40572,8.20294,1.40109,18.0793,57.0122,-13.3841,-9.79563,1.38672,-1.28613,-2.31707,-4.45122,10.061
542.245,22.3958,-6.49126,0,3.35782,8.10235,1.6813,20.4878,45.4573,-13.2012,-9.92975,1.13284,-1.51126,-2.86585,-4.66463,8.29268
542.255,22.2762,-6.5655,0,3.48475,8.13588,1.38672,24.939,36.8902,-13.811,-9.93933,0.850232,-1.46096,-2.56098,-4.63415,6.21951
542.265,22.1471,-6.66127,0,3.45601,8.30832,1.21667,26.3415,28.3232,-13.811,-9.83874,0.589175,-1.55437,-2.62195,-4.87805,4.29878
542.275,22.0443,-6.74967,0,3.52068,8.05924,1.51365,27.7744,20.4573,-13.4451,-9.77168,0.402363,-1.52802,-2.13415,-4.87805,2.46951
542.285,21.9529,-6.83802,0,3.52547,8.1287,1.45378,26.7073,5.57927,-12.1951,-9.62558,0.359253,-1.52084,-1.37195,-5.12195,1.37195
542.295,21.9195,-6.9098,0,4.03082,8.41849,1.11129,19.5427,-5.33537,-10.8232,-9.59684,0.395178,-1.46336,-0.945122,-5.94512,1.12805
542.305,21.9175,-6.96958,0,4.15775,8.35622,1.05141,14.7561,-11.1585,-9.45122,-9.51781,0.519719,-1.41306,-1.03659,-6.37195,1.0061
542.315,21.9514,-7.03093,0,4.4236,8.42089,0.981958,11.0671,-14.3293,-8.38415,-9.58247,0.58678,-1.43941,-0.97561,-6.18902,1.58537
542.325,22.0515,-7.08638,0,4.70861,8.20534,1.20469,10.7622,-18.2927,-6.0061,-9.60403,0.723296,-1.42743,-1.09756,-6.03659,2.56098
542.335,22.22,-7.13351,0,5.17324,8.14546,1.33882,12.7134,-21.6768,-4.48171,-9.73815,0.859812,-1.42025,-1.31098,-5.73171,3.53659
542.345,22.4456,-7.19533,0,5.64506,8.2221,1.26457,14.6951,-22.1341,-3.35366,-9.73815,0.855022,-1.4921,-1.18902,-5.54878,4.60366
542.355,22.7259,-7.27926,0,6.04982,8.33467,1.02986,15.0305,-19.2988,-2.28659,-9.68306,0.857417,-1.5855,-1.52439,-4.63415,5.30488
542.365,23.1089,-7.3918,0,6.22945,8.43047,0.711321,13.7195,-13.628,-0.853659,-9.59205,0.833467,-1.68849,-1.37195,-3.56707,5.36585
542.375,23.5748,-7.60574,0,6.16718,8.40891,0.55804,12.0732,-9.90854,0.335366,-9.50344,0.878972,-1.90404,-1.55488,-1.7378,5.67073
542.385,24.1119,-7.96721,0,6.06658,8.34664,0.335303,11.5549,-5.7622,-0.0304878,-9.53218,0.855022,-1.96871,-1.70732,-0.487805,5.45732
542.395,24.5117,-8.40964,0,5.98994,8.25563,0.177231,10.9451,-4.32927,-0.640244,-9.51781,0.661025,-2.00942,-1.21951,0.121951,4.02439
542.405,24.805,-8.69802,0,5.73368,8.15265,0.347278,11.4024,-3.23171,-1.34146,-9.49625,0.708926,-2.10283,-1.06707,0.97561,2.22561
542.415,24.9665,-8.85414,0,5.39598,8.19336,0.661025,13.5061,-3.10976,-2.89634,-9.81719,0.807122,-1.95913,-1.12805,1.09756,0.487805
542.425,25.0686,-9.0084,0,5.20677,8.27958,0.898132,15.9451,-4.87805,-4.57317,-9.89862,0.809517,-2.01182,-2.0122,1.09756,-1.03659
542.435,25.1403,-9.09758,0,5.16606,8.31551,1.07297,19.0854,-7.77439,-6.55488,-10.0375,1.06578,-1.88967,-2.95732,1.25,-2.62195
542.445,25.1565,-9.10495,0,5.10618,8.73464,1.34361,22.5,-9.69512,-8.90244,-10.2698,1.33882,-1.66214,-3.62805,0.0609756,-2.53049
542.456,25.147,-9.02941,0,5.36484,9.33818,1.22864,23.2927,-11.25,-10.6098,-10.4375,1.41785,-1.38672,-4.14634,-1.31098,-1.85976
542.465,25.0894,-8.92535,0,5.50136,10.1381,0.977168,24.3293,-13.2927,-12.6829,-10.7225,1.46096,-1.24062,-4.69512,-2.16463,-0.609756
542.475,24.9837,-8.79983,0,5.57082,10.9668,0.543669,23.9024,-8.75,-14.5427,-11.0482,1.32445,-1.12805,-4.63415,-3.29268,1.09756
542.485,24.8627,-8.67428,0,5.30018,11.2829,0.514929,20.2439,-7.56098,-12.7134,-11.1177,1.01788,-1.11129,-3.68902,-3.17073,2.7439
542.495,24.7934,-8.55987,0,5.28102,10.9069,0.320933,16.9512,-7.68293,-9.05488,-11.1297,0.632285,-1.14242,-1.43293,-3.14024,4.78659
542.505,24.8048,-8.48074,0,5.52291,10.4064,0.287402,16.5244,-5.54878,-5.30488,-10.8375,0.292192,-1.26697,1.34146,-2.59146,7.13415
542.515,24.8702,-8.4102,0,5.89414,10.3561,0.354463,16.4634,-0.701219,-3.29268,-10.8063,0.0886157,-1.30529,4.90854,-1.79878,8.53659
542.525,25.0493,-8.36761,0,6.71324,10.4567,0.273032,13.872,13.5671,0.0304878,-10.6626,-0.0646655,-1.41306,9.2378,-1.15854,8.71951
542.535,25.3124,-8.37982,0,7.03417,9.72857,0.0958008,15.7012,37.3171,4.72561,-10.4375,0.0622705,-1.56634,13.628,-0.0914634,8.29268
542.545,25.5278,-8.39791,0,5.87977,9.25675,-0.335303,24.5122,56.0671,7.46951,-10.404,0.275427,-1.60466,17.2256,1.85976,7.7439
542.555,25.4588,-8.38848,0,3.33866,9.43159,-0.680186,29.6951,70.3354,5.36585,-10.3273,0.622705,-1.47773,19.3902,4.14634,7.04268
542.565,24.3916,-8.35907,0,0.977168,9.00767,-0.0574805,29.9695,63.5061,-0.884146,-10.2028,1.04423,-1.36277,19.5122,7.7439,6.92073
542.575,23.7394,-8.304,0,-0.423918,8.17181,0.0335303,25.5488,36.189,-10.7012,-10.2698,1.47294,-1.24541,18.0793,10.8841,7.28659
542.585,22.8248,-8.18274,0,-1.42743,7.45091,0.476609,23.2622,1.18902,-22.7439,-10.495,1.64298,-0.950823,15.4573,13.2012,7.5
542.596,21.8,-7.93183,0,-1.62143,7.44612,0.00239502,29.8171,-24.7866,-32.9268,-10.8902,1.82021,-0.337698,10.7622,14.2378,7.10366
542.605,20.8584,-7.59013,0,-0.936453,9.10586,-0.950823,31.0671,-44.2378,-39.6037,-11.2494,1.84656,0.150886,4.96951,14.4207,6.03659
542.615,20.0455,-7.15815,0,0.0718506,10.792,-1.43222,28.6585,-56.0976,-41.1585,-11.5105,1.71004,0.682581,-2.92683,15.2134,4.14634
542.625,19.3513,-6.69525,0,0.929268,11.0027,-1.80105,24.4817,-57.6829,-39.7866,-11.544,1.21906,0.931663,-11.311,16.7378,2.22561
542.635,18.7336,-6.23018,0,1.52563,10.8614,-1.60227,26.0061,-54.2988,-39.8476,-11.053,0.701741,0.993933,-18.1707,18.0793,-0.548781
542.645,18.1244,-5.71685,0,1.70046,11.2758,-1.3939,21.7073,-53.4756,-41.4329,-10.7824,0.136516,1.28852,-20.8537,16.5854,-1.95122
542.655,17.5837,-5.20624,0,2.46448,10.7225,-1.39151,19.1159,-51.0671,-44.6037,-10.3872,-0.443079,1.31966,-20.8232,12.7439,-2.2561
542.666,17.1197,-4.59448,0,3.16382,9.92017,-1.99984,18.3537,-38.75,-47.561,-10.3225,-0.881367,1.86812,-20.7317,6.7378,-1.64634
542.675,16.7146,-4.09086,0,3.54223,9.00048,-1.5855,17.3476,-30.9146,-50.2439,-9.70222,-1.46336,1.38672,-18.8415,6.89024,-1.03659
542.685,16.5717,-3.54032,0,6.72282,8.89271,-5.48938,18.1707,47.9573,-56.1585,-9.331,-1.71723,1.59748,-17.8049,5.57927,-0.335366
542.695,15.8225,-2.98473,0,0.821492,8.66518,-1.80105,21.9207,-13.7805,-53.689,-8.97893,-1.59748,1.57832,-16.8293,4.45122,0.884146
542.705,15.0561,-2.22101,0,0.725691,9.40524,-3.06562,19.939,7.56098,-54.9085,-8.90468,-1.32684,1.52563,-15.6098,2.0122,2.80488
542.715,14.3814,-0.744845,0,1.35558,8.74901,-3.33626,17.3476,15.2134,-56.0976,-9.12023,-0.905317,1.37953,-14.4207,-0.304878,5.18293
542.725,13.5839,-0.316828,0,0.265847,9.15616,-3.19256,18.75,2.59146,-55.4268,-9.62798,-0.641865,1.16158,-14.2378,-1.64634,7.04268
542.735,12.8423,-0.0523689,0,0.471819,8.72506,-2.32317,27.2866,3.59756,-54.2683,-10.0735,-0.479004,0.989143,-14.939,-2.43902,6.61585
542.745,12.6041,0.127963,0,4.25116,8.8496,-3.93262,15.9756,14.6341,-50.4573,-10.6147,-0.56283,0.740061,-15.8537,-1.92073,3.78049
542.755,11.9548,0.256577,0,0.843047,10.0303,-1.62143,20.8232,-23.628,-50.3354,-10.9021,-0.725691,0.5772,-16.7073,-1.70732,-0.487805
542.765,11.8048,0.352894,0,5.12774,9.34297,-4.73256,9.17683,34.5427,-49.6037,-10.9165,-0.886157,0.433499,-17.439,-1.12805,-4.54268
542.775,10.9382,0.426965,0,-1.51365,10.1956,-0.730481,12.2866,-74.0854,-47.1037,-10.8159,-1.04423,0.366438,-17.9878,-1.37195,-7.59146
542.785,10.3592,0.471062,0,0.828677,9.51541,-1.09931,11.372,-33.9024,-46.9207,-10.6315,-1.04662,0.253872,-19.6951,-1.55488,-9.72561
542.795,9.81261,0.496673,0,1.07776,10.3441,-2.26808,0.945122,-46.311,-46.7683,-10.3058,-0.838257,0.167651,-20.3354,-1.09756,-9.17683
542.805,9.21972,0.471342,0,0.550855,9.48667,-1.18074,3.29268,-54.7561,-47.2561,-10.0088,-0.61073,0.0167651,-21.4024,-0.945122,-7.04268
542.815,8.66878,0.406112,0,0.833467,9.4268,-2.25132,0.487805,-48.2317,-47.7134,-9.79323,-0.62031,-0.0694556,-22.1037,-0.792683,-4.78659
542.825,8.19461,0.361487,0,1.36995,9.12981,-2.79738,2.34756,-47.2256,-48.1098,-9.63037,-0.627495,-0.0383203,-22.5305,-1.06707,-4.11585
542.835,7.72774,0.302245,0,1.3939,8.83762,-2.53633,4.54268,-47.622,-49.2073,-9.39806,-0.59636,-0.112566,-23.1402,-1.89024,-3.90244
542.845,7.27804,0.232161,0,1.54,8.84481,-2.68003,7.04268,-41.9817,-50.2744,-9.26394,-0.55804,-0.182021,-23.3841,-2.59146,-3.96341
542.855,6.86291,0.162405,0,1.88728,8.82804,-2.7423,7.53049,-34.1159,-52.1341,-9.16574,-0.5772,-0.229922,-23.2012,-3.9939,-4.32927
542.865,6.43559,0.0715286,0,1.7795,8.74182,-2.39023,10.7622,-25.122,-53.0793,-9.04599,-0.58678,-0.332908,-23.2622,-5.21341,-4.54268
542.875,5.9668,-0.0326557,0,1.46336,8.96216,-2.43334,10,-14.2378,-53.628,-9.02204,-0.680186,-0.402363,-22.9268,-5.7622,-4.48171
542.885,5.44618,-0.147326,0,1.01788,8.97893,-2.14115,9.5122,-7.31707,-54.1463,-9.00288,-0.843047,-0.462239,-22.5,-6.37195,-3.75
542.895,4.86831,-0.277034,0,0.524509,9.15616,-2.09325,7.86585,-6.31098,-54.5427,-9.12263,-1.1999,-0.548459,-22.0122,-6.64634,-3.84146
542.905,4.28998,-0.429769,0,0.447869,8.97414,-1.92081,9.02439,-8.84146,-54.9085,-9.19448,-1.47054,-0.66821,-21.4329,-6.95122,-4.29878
542.915,3.67835,-0.575246,0,0.0646655,9.16334,-1.83698,8.62805,-13.5366,-54.4817,-9.20166,-1.66933,-0.665815,-20.3659,-7.92683,-4.84756
542.925,3.1032,-0.740692,0,0.186812,9.27591,-2.04295,7.40854,-17.3476,-53.5366,-9.16574,-1.64538,-0.768801,-18.7195,-8.78049,-4.32927
542.935,2.57739,-0.884155,0,0.395178,9.18729,-2.06211,7.77439,-20.5488,-52.3476,-9.15616,-1.54958,-0.706531,-16.7378,-10,-2.80488
542.945,2.05506,-1.02308,0,0.258662,9.41482,-2.08606,7.92683,-24.0854,-51.25,-9.05796,-1.52802,-0.704136,-15.6098,-10.7012,-0.914634
542.955,1.54828,-1.18113,0,0.296982,9.3789,-2.0669,8.75,-23.9939,-51.2195,-8.96456,-1.56874,-0.795146,-13.5976,-11.0671,0.701219
542.965,1.06971,-1.37304,0,0.474214,9.32381,-2.17707,8.9939,-20.9146,-51.6159,-8.79451,-1.49928,-0.936453,-11.8293,-10.3659,2.2561
542.975,0.612986,-1.56418,0,0.58199,9.40764,-2.32317,7.89634,-19.0549,-51.6463,-8.65081,-1.46575,-0.946033,-9.87805,-8.9939,3.5061
542.985,0.202798,-1.77344,0,0.819097,9.46272,-2.213,8.07927,-17.378,-50.7012,-8.55022,-1.40348,-1.02986,-7.5,-7.46951,4.69512
542.995,-0.180213,-2.06826,0,0.900527,9.60163,-2.2585,8.10976,-13.4756,-49.6037,-8.45202,-1.39869,-1.30529,-5.67073,-4.54268,5.57927
543.005,-0.581101,-2.7776,0,0.826282,9.84353,-1.99745,6.98171,-17.5,-51.0671,-8.6053,-1.54239,-1.65735,-2.68293,-1.55488,6.31098
543.015,-0.934705,-3.60071,0,1.09452,9.84593,-2.01182,4.08537,-16.4939,-50.2134,-8.90947,-1.80584,-1.87051,0.396341,0.945122,6.4939
543.025,-1.2658,-4.00608,0,1.11368,9.74773,-2.05972,1.28049,-15.5183,-48.9939,-9.30226,-2.04535,-1.80105,3.56707,1.7378,6.34146
543.035,-1.58626,-4.31534,0,0.977168,9.70941,-1.9711,0.792683,-14.6951,-47.0122,-9.38369,-2.01421,-1.55676,6.15854,1.58537,7.28659
543.045,-1.91189,-4.60204,0,0.66342,9.51541,-2.09804,0.579268,-11.7988,-44.6037,-9.16095,-1.98308,-1.54,8.62805,1.95122,8.44512
543.055,-2.22605,-4.92577,0,0.60594,9.33818,-2.27766,0.304878,-13.4146,-43.5366,-8.92384,-1.91362,-1.50407,11.0061,1.67683,10
543.065,-2.46494,-5.16252,0,1.05381,9.17772,-2.78541,-0.609756,-14.1159,-42.2866,-8.95258,-1.82261,-1.6358,12.9268,3.53659,11.5549
543.075,-2.63824,-5.31609,0,1.37953,9.26394,-2.86684,-1.82927,-19.2988,-40,-9.30705,-1.57832,-1.47054,14.1463,5.67073,11.6768
543.085,-2.7757,-5.36055,0,1.46815,9.47949,-3.01772,-1.89024,-19.3293,-37.378,-9.8579,-1.32924,-1.1065,13.0488,6.28049,10.6707
543.095,-2.87103,-5.37891,0,1.65735,9.44596,-3.29315,-2.10366,-16.372,-35.7012,-10.2914,-1.16637,-1.04423,11.4329,5.85366,8.87195
543.105,-2.9816,-5.39297,0,1.28373,9.63995,-3.13029,-2.37805,-18.0793,-32.622,-10.3321,-1.00351,-1.03225,9.90854,5.45732,7.5
543.115,-3.03479,-5.40047,0,1.45138,9.70462,-3.17101,-2.5,-12.7134,-28.872,-10.3632,-0.802332,-1.0083,7.43902,4.72561,6.64634
543.125,-3.0446,-5.45282,0,1.48252,9.7621,-3.04646,-3.29268,-15,-24.8171,-10.1573,-0.902922,-1.19032,6.98171,4.66463,5.67073
543.135,-2.99635,-5.57535,0,1.6837,9.64714,-3.05125,-4.78659,-14.2988,-21.4939,-9.92736,-1.02986,-1.48491,6.09756,6.21951,5.94512
543.145,-2.90921,-5.7412,0,1.7292,9.45075,-3.31231,-5.06098,-11.6463,-18.3841,-10.0375,-1.23344,-1.71962,6.37195,8.14024,6.58537
543.155,-2.8021,-5.9543,0,1.65496,9.58487,-3.23567,-5.79268,-8.96341,-15,-10.2938,-1.41067,-2.01421,7.13415,10.3354,7.5
543.165,-2.6917,-6.13142,0,1.4418,9.91299,-3.11832,-7.40854,-7.5,-11.3415,-10.6411,-1.50886,-1.94715,9.08537,11.6159,7.80488
543.175,-2.52614,-6.21396,0,1.6334,10.3489,-2.9794,-9.32927,-5.2439,-6.92073,-11.077,-1.48012,-1.5879,10.6707,11.7073,7.2561
543.185,-2.27434,-6.27852,0,1.94236,10.9572,-2.87642,-12.439,-5.73171,-1.70732,-11.4961,-1.52563,-1.57113,10.3354,12.5305,6.06707
543.195,-1.97473,-6.36384,0,2.13157,11.2326,-2.78301,-15.122,-8.59756,3.84146,-11.8122,-1.57353,-1.73639,10,14.2683,2.56098
543.205,-1.57114,-6.42962,0,2.61057,11.1823,-2.71116,-18.5671,-10.8841,10.3354,-11.7428,-1.54718,-1.63819,9.72561,16.7378,-0.487805
543.215,-1.05004,-6.35924,0,3.00814,10.756,-2.40939,-22.8049,-14.2988,18.0793,-11.6278,-1.38911,-0.929268,9.60366,16.8293,-2.53049
543.225,-0.396153,-6.19743,0,3.46799,10.6986,-2.10043,-27.5305,-14.7866,27.9268,-11.8003,-1.22146,-0.452659,9.02439,15.3963,-2.0122
543.235,0.364703,-5.96284,0,3.69312,11.0889,-1.84896,-33.2012,-11.5549,39.2378,-11.999,-0.809517,-0.0431104,8.44512,13.689,0.121951
543.245,1.20193,-5.67968,0,3.52068,11.4985,-1.26457,-39.7256,-9.87805,51.4329,-12.1308,-0.627495,0.265847,7.19512,13.689,3.04878
543.255,2.10156,-5.36596,0,3.16622,11.8985,-0.452659,-48.2927,-8.5061,63.8415,-12.5499,-0.696951,0.505349,6.09756,12.8049,4.48171
543.265,3.00567,-5.20436,0,2.30161,12.1906,-0.246687,-64.0854,-3.44512,74.7256,-11.6398,-0.914897,-0.249082,5.21341,11.9512,3.84146
543.275,3.97813,-5.03731,0,1.91602,11.7116,0.57241,-74.7866,-0.731707,86.4024,-10.5908,-1.07776,-0.167651,9.63415,15.9756,3.20122
543.285,5.07276,-4.80894,0,1.95913,10.2698,2.213,-72.8963,-3.78049,97.7744,-9.46751,-1.35319,0.134121,15.122,16.5854,3.38415
543.295,6.28271,-4.56017,0,1.71962,9.31423,1.13045,-68.0488,-9.05488,112.47,-8.56459,-1.55676,0.232317,21.3415,16.2805,3.75
543.305,7.63153,-4.24999,0,1.60945,8.78493,0.498164,-67.3781,-19.8171,129.268,-8.10954,-1.56874,0.474214,27.8354,14.939,4.5122
543.315,9.01141,-3.87224,0,1.16158,9.22801,0.0862207,-61.128,-29.7561,141.738,-8.04008,-1.43222,0.752036,33.9329,11.25,4.84756
543.325,10.2588,-3.4222,0,-0.0981958,10.2291,-0.835862,-52.7134,-35.3354,146.799,-8.4137,-1.17116,1.09213,38.0183,6.40244,5.03049
543.335,11.3062,-2.72339,0,-1.67412,11.3476,-1.69567,-42.561,-38.8415,144.939,-9.18729,-0.66342,1.2526,39.1159,1.7378,5.36585
543.345,12.1954,-2.28464,0,-2.54112,12.4014,-2.22258,-35.8841,-39.4512,137.439,-10.119,-0.0407153,1.11847,39.3902,-1.79878,6.34146
543.355,13.0056,-2.01513,0,-2.42376,13.0553,-1.89207,-32.622,-41.7073,129.024,-10.8159,0.787961,0.646655,37.4695,-1.28049,8.78049
543.365,13.8074,-1.81109,0,-1.48012,12.5116,-1.26218,-29.3293,-44.878,122.134,-11.2279,1.47773,0.555645,34.1768,1.89024,11.8902
543.375,14.7106,-1.66982,0,-0.0359253,11.7667,-0.893342,-22.378,-41.7073,120.701,-11.35,1.75076,0.352068,28.5366,5.36585,14.5732
543.385,15.8821,-1.54749,0,2.70637,11.1225,-0.902922,-12.8963,-27.378,121.646,-10.7417,1.84417,0.273032,22.3171,7.62195,16.6159
543.395,17.1358,-1.44553,0,4.10027,11.3069,-1.02507,-4.87805,-11.372,119.665,-9.82916,1.42504,0.184417,17.2561,9.66463,17.9878
543.405,18.377,-1.34958,0,4.7134,11.4458,-0.888552,-0.762195,8.14024,115.945,-9.55852,0.725691,0.170046,13.9329,8.65854,17.3171
543.415,19.5465,-1.29977,0,4.33259,10.8734,-0.771196,4.42073,26.0366,112.5,-9.65672,0.155676,-0.00958008,13.2317,7.40854,15.9756
543.425,20.5823,-1.3066,0,3.30273,10.3153,-0.883762,10.3049,42.5,109.36,-9.88904,-0.273032,-0.249082,13.7805,5.73171,15.3049
543.435,21.4244,-1.36721,0,2.15552,9.92496,-0.943638,14.9085,52.5915,102.927,-10.0567,-0.560435,-0.490979,15.5488,4.81707,15.2439
543.445,22.1045,-1.46003,0,1.35079,9.93694,-1.14003,19.3598,54.4207,97.3171,-10.0232,-0.61073,-0.62989,17.5,3.56707,15.8841
543.455,22.7183,-1.5543,0,1.40827,9.89622,-0.807122,22.2256,58.3537,91.2195,-9.76928,-0.510139,-0.59636,19.2378,2.5,17.5
543.465,23.3872,-1.68418,0,2.47406,9.70222,-0.922083,23.1402,73.9939,85.4268,-9.5681,-0.301772,-0.467029,20.122,0.396341,18.4451
543.475,23.9768,-1.71158,0,2.28964,9.51541,-0.253872,23.5366,78.6585,80.2744,-9.26154,-0.0622705,-0.323328,19.3902,-1.0061,19.5732
543.494,24.5043,-1.70434,0,2.38783,9.35495,0.141306,23.4451,89.0854,73.5366,-9.03641,0.294587,-0.251477,17.561,-2.31707,19.7866
543.5,24.9277,-1.70778,0,2.39502,9.01964,-0.0862207,22.3476,105.701,62.8659,-8.83762,0.919688,-0.277822,13.5976,-3.75,20.7012
543.505,25.2399,-1.71421,0,1.90404,8.90947,-0.160466,20.3354,109.604,58.1098,-8.80649,1.11368,-0.289797,11.8293,-4.57317,21.0061
543.515,25.3598,-1.73265,0,0.907712,8.76577,-0.122146,15.4268,109.421,51.6768,-8.85678,1.29092,-0.340093,7.86585,-5.54878,21.6463
543.525,25.2877,-1.75375,0,-0.217947,8.46879,0.141306,9.32927,102.774,47.4085,-8.85918,1.39869,-0.354463,4.29878,-6.18902,21.6463
543.535,25.1751,-1.78011,0,-0.203577,7.87243,0.431104,8.62805,97.8659,43.1402,-9.02204,1.36277,-0.385598,1.52439,-6.46341,20.9451
543.545,24.8723,-1.8368,0,-1.26457,7.58982,0.6251,11.9207,85.6707,39.7866,-9.10347,1.22864,-0.514929,-1.46341,-6.61585,19.6037
543.555,24.4515,-1.94733,0,-1.83219,7.26649,0.58678,13.4451,74.8781,36.7073,-9.2304,1.06578,-0.749641,-3.68902,-6.31098,17.5305
543.565,23.943,-2.08723,0,-2.16749,7.08686,0.505349,14.3293,60,32.7134,-9.27591,0.912502,-0.893342,-5.2439,-6.76829,14.5732
543.575,23.3397,-2.26057,0,-2.39741,6.924,0.490979,16.9817,40.061,26.2805,-9.30705,0.742456,-1.0586,-5.54878,-7.10366,12.2256
543.585,22.6873,-2.43013,0,-2.36628,7.00543,0.356858,19.2378,20.2134,19.1463,-9.32621,0.57241,-1.07536,-5.70122,-7.9878,9.81707
543.595,21.9796,-2.60045,0,-2.28006,6.95514,0.318538,19.5732,-1.67683,11.1585,-9.25915,0.378413,-1.09931,-4.84756,-8.56707,8.01829
543.605,18.4086,-2.8078,0,-1.99266,7.00064,0.479004,20.7622,-23.5366,1.89024,-9.17292,0.167651,-1.26936,-4.29878,-8.93293,6.21951
543.615,17.7342,-3.0475,0,-1.31247,7.04375,0.63947,23.5366,-44.0549,-9.60366,-9.11305,-0.0263452,-1.42504,-3.87195,-7.59146,4.48171
543.625,17.081,-3.3829,0,-0.361648,7.49641,0.502954,25.7927,-56.4024,-24.8171,-8.97653,-0.0359253,-1.78189,-4.02439,-4.60366,3.17073
543.635,16.4404,-3.8974,0,0.450264,7.43175,0.802332,22.9573,-62.6829,-37.5915,-8.95258,0.165256,-1.87291,-4.93902,-1.95122,3.07927
543.645,15.9784,-4.49554,0,2.1172,7.32397,1.06339,14.3598,-62.7134,-46.4939,-9.11544,0.328118,-1.70765,-5.60976,-0.97561,3.90244
543.655,15.6728,-4.86487,0,3.86077,7.67843,1.37714,5.21341,-56.9817,-53.0488,-9.24478,0.56283,-1.63819,-6.46341,-1.46341,4.29878
543.665,15.4242,-5.15599,0,5.32652,8.51429,1.346,2.68293,-52.1037,-58.75,-9.37411,0.584385,-1.66454,-7.59146,-1.82927,4.7561
543.675,15.2065,-5.47399,0,6.60786,9.63995,0.289797,-0.27439,-48.2317,-61.0061,-9.46033,0.579595,-1.8777,-8.59756,-1.95122,4.87805
543.685,15.0998,-5.85694,0,7.85566,9.94652,-0.598755,-10.2744,-36.5549,-58.0183,-9.61121,0.550855,-1.91362,-8.38415,-1.06707,4.63415
543.695,15.1272,-6.1694,0,8.44244,9.42919,-0.876577,-15.9146,-25.1524,-51.7683,-9.85072,0.60115,-1.89686,-7.10366,-1.0061,4.78659
543.705,15.3156,-6.47975,0,8.83762,8.46879,-1.18314,-7.0122,-23.9939,-44.2378,-10.0687,0.641865,-1.86333,-5.67073,-0.426829,5.70122
543.715,15.6685,-6.74706,0,9.83874,8.05924,-1.8753,14.7561,-23.9939,-36.1585,-10.3106,0.455054,-1.85854,-3.90244,-0.213415,6.40244
543.725,16.1445,-6.93956,0,11.0554,8.41131,-2.60578,31.25,-11.5549,-27.0732,-10.4423,0.196392,-1.79387,-2.40854,-0.365854,6.31098
543.735,16.6296,-7.17528,0,10.8686,9.25915,-3.02012,33.0793,9.45122,-18.7195,-10.3393,0.0550855,-1.84656,-0.670732,-0.121951,6.09756
543.745,17.1052,-7.43986,0,9.88425,10.3393,-2.66805,19.1463,26.3415,-6.7378,-10.0088,0.143701,-1.94476,0.518293,0.579268,6.25
543.755,17.6899,-7.66374,0,9.02443,9.88904,-1.44659,13.1098,35.9451,8.07927,-9.82437,0.239502,-2.20102,0.152439,2.86585,6.58537
543.765,18.4267,-7.87282,0,8.35862,8.66039,-0.64426,23.9634,39.8476,21.5244,-9.81719,0.366438,-2.24653,-2.40854,5.73171,6.67683
543.775,19.1225,-8.07736,0,6.95993,8.29156,-0.871787,40.5793,38.2622,26.9512,-9.88904,0.56762,-2.28245,-5.82317,7.68293,6.18902
543.785,19.5934,-8.17609,0,5.59477,8.96935,-0.759221,46.0366,29.2683,21.8598,-10.2291,0.797541,-1.90165,-8.68902,7.62195,5.79268
543.795,19.7103,-8.16036,0,4.14099,10.2722,-0.344883,44.0854,22.1037,7.10366,-10.8997,0.938848,-1.48491,-10.3354,4.69512,5.4878
543.805,19.4166,-8.18212,0,2.16749,11.944,0.512534,46.5244,22.7134,-10.7317,-11.35,0.737666,-1.73399,-9.7561,3.2622,5.60976
543.815,18.8278,-8.31701,0,-0.167651,11.8913,1.85854,50.3659,10.0305,-18.811,-11.5248,0.239502,-2.3567,-7.43902,5.64024,6.95122
543.825,18.3006,-8.3591,0,0.673001,11.5105,1.88967,42.2256,-4.05488,-22.1951,-11.8649,-0.335303,-1.94955,-4.48171,9.90854,8.65854
543.835,17.9402,-8.24345,0,3.31471,12.3367,0.364043,8.81098,14.5427,-30.122,-12.3823,-0.802332,-1.16637,-1.4939,11.5854,9.84756
543.845,17.6967,-8.005,0,4.55533,12.2865,2.05972,4.05488,43.689,-29.7561,-13.0505,-1.26697,-0.493374,0.701219,11.5244,10.3659
543.855,17.7769,-7.72482,0,6.56235,12.0469,-0.395178,29.939,39.1768,-14.0244,-13.484,-1.59029,-0.205972,3.68902,11.0366,9.84756
543.865,17.9714,-7.37104,0,6.7324,12.0972,-5.74565,41.9512,44.8171,-3.2622,-13.9366,-0.502954,0.301772,3.04878,6.43293,10.9146
543.875,17.7403,-6.98105,0,1.79626,11.144,-4.78764,18.2317,56.1585,-5.57927,-12.6529,-0.459844,0.55325,9.54268,5.94512,14.6037
543.885,17.0025,-6.50292,0,-1.81063,8.36341,-0.740061,16.8293,41.1585,-14.1463,-11.3596,0.579595,1.01788,7.22561,6.70732,18.9329
543.895,15.6945,-5.87918,0,-4.92895,7.6952,1.73639,15.1524,8.01829,-32.1646,-10.8375,0.998723,1.76513,0.640244,5.85366,19.4512
543.905,13.9963,-5.14896,0,-6.40907,7.25451,0.881367,13.6585,-30.6098,-56.6463,-10.4471,1.32924,2.28006,-9.48171,3.93293,16.5854
543.915,12.4968,-4.23638,0,-3.58774,7.83171,-0.792751,11.0671,-60.3659,-74.2073,-9.88185,1.61185,2.39741,-21.0061,1.67683,13.3232
543.925,11.4827,-2.43869,0,0.0862207,8.86636,-3.02251,12.5915,-67.7134,-79.1159,-9.25675,1.75315,2.26569,-31.8293,0.365854,10.2744
543.935,10.8112,-1.2255,0,2.70877,10.8039,-4.72298,12.7134,-52.2256,-73.811,-9.05557,1.54479,2.17947,-40.4573,-1.12805,8.75
543.945,10.2624,-0.672803,0,3.39374,11.5967,-4.98883,9.93902,-25.8537,-67.2256,-9.3765,0.960403,2.04535,-44.6341,-4.35976,7.56098
543.955,9.68138,-0.288201,0,2.28724,10.598,-3.79611,8.38415,-1.43293,-63.2012,-10.016,0.0407153,1.5855,-45,-7.86585,5.94512
543.965,8.97339,-0.0846116,0,0.857417,9.66151,-2.82852,9.84756,7.77439,-62.8354,-10.6459,-0.962798,0.895737,-42.4085,-8.62805,3.59756
543.975,8.11444,-0.0636585,0,-0.385598,8.89271,-2.41657,10.6098,7.10366,-64.2683,-11.0219,-1.96152,0.0790356,-37.9268,-6.7378,1.09756
543.985,7.23356,-0.105378,0,-0.543669,8.16223,-2.44292,11.372,-4.54268,-65.5488,-10.9692,-2.64889,-0.213157,-32.0122,-3.17073,-1.43293
543.995,6.41689,-0.178971,0,-0.251477,8.23168,-2.57465,10.8232,-21.25,-65,-10.5692,-2.95306,-0.330513,-25.6402,-1.7378,-4.05488
544.005,5.72783,-0.200858,0,0.395178,8.68913,-2.52914,9.7561,-31.3415,-62.5305,-9.92736,-2.63213,-0.119751,-19.9695,-2.46951,-5.39634
544.015,4.9857,-0.187738,0,-0.205972,9.35016,-2.31598,8.90244,-40.2439,-61.4634,-9.49146,-2.31119,0.0167651,-15.4878,-4.90854,-6.37195
544.025,4.27173,-0.123668,0,-0.191602,9.55852,-2.20821,6.76829,-49.6037,-60.3354,-9.46751,-1.69567,0.229922,-12.7134,-7.40854,-7.5
544.035,3.61246,-0.073777,0,0.0742456,9.68546,-1.99984,5.33537,-59.0244,-59.4512,-9.62798,-1.1065,0.184417,-12.5305,-7.56098,-7.89634
544.045,3.10582,-0.0740024,0,1.10171,9.66869,-2.46208,3.01829,-56.2195,-57.5915,-9.71899,-0.548459,-0.0191602,-13.4146,-6.76829,-7.59146
544.055,2.74426,-0.107279,0,1.99266,9.42919,-2.48843,2.13415,-53.6585,-54.9085,-9.6663,-0.150886,-0.158071,-14.878,-5.7622,-6.95122
544.065,2.45954,-0.127723,0,2.4046,9.17772,-2.67524,2.56098,-46.6463,-53.4146,-9.39566,0.100591,-0.105381,-16.9817,-5.33537,-5.60976
544.075,2.2092,-0.159845,0,2.57944,8.89271,-2.42136,3.38415,-34.6341,-53.5366,-9.07473,0.112566,-0.148491,-19.6951,-4.84756,-4.32927
544.085,1.90248,-0.223879,0,2.10762,8.73224,-2.19384,5.18293,-25.122,-54.4817,-8.75859,-0.0790356,-0.265847,-21.9817,-4.93902,-3.47561
544.095,1.5317,-0.311992,0,1.67412,8.82086,-2.27527,5.4878,-17.5,-55.8841,-8.67237,-0.438289,-0.364043,-22.9573,-5.21341,-3.35366
544.105,1.09657,-0.455887,0,1.2502,8.78493,-2.20102,6.0061,-9.78659,-57.8049,-8.6101,-0.843047,-0.58199,-22.7134,-5.33537,-4.05488
544.115,0.582615,-0.639399,0,0.696951,8.82565,-2.13875,7.07317,-6.7378,-59.4207,-8.62926,-1.19272,-0.761616,-21.372,-5.85366,-5.42683
544.125,0.0241161,-0.813996,0,0.399968,9.03162,-1.96392,7.68293,-6.70732,-60.9756,-8.61968,-1.41067,-0.759221,-19.4207,-6.28049,-6.52439
544.135,-0.578432,-1.02586,0,0.0455054,9.22322,-1.73878,7.80488,-12.622,-62.0122,-8.64123,-1.5376,-0.931663,-17.5,-6.4939,-6.76829
544.145,-1.17223,-1.26893,0,0.0455054,9.24717,-1.55676,6.82927,-17.1951,-62.3476,-8.62446,-1.62143,-1.08255,-14.878,-6.61585,-5.7622
544.155,-1.73153,-1.53624,0,0.184417,9.2352,-1.40827,5.51829,-20.0305,-61.7988,-8.62207,-1.67651,-1.20469,-12.2256,-5.88415,-4.26829
544.165,-2.26216,-1.81744,0,0.244292,9.26394,-1.36037,4.42073,-24.7866,-60.7622,-8.64363,-1.70525,-1.29331,-9.57317,-5.39634,-1.64634
544.175,-2.75011,-2.08052,0,0.450264,9.20646,-1.51605,4.7561,-25.4878,-60.122,-8.72266,-1.70046,-1.27415,-6.85976,-5.12195,0.884146
544.185,-3.22019,-2.31033,0,0.474214,9.19687,-1.6334,4.29878,-26.6463,-59.6037,-8.72745,-1.70286,-1.19751,-4.08537,-5.57927,3.23171
544.196,-3.64645,-2.49877,0,0.646655,9.17772,-1.99505,4.11585,-26.9817,-58.2927,-8.72506,-1.60945,-1.08255,-2.31707,-6.64634,5.85366
544.205,-4.04914,-2.68651,0,0.699346,9.25915,-2.44292,3.93293,-23.872,-57.3476,-8.6556,-1.55676,-1.1041,-0.365854,-7.86585,8.04878
544.215,-4.44305,-2.84334,0,0.682581,9.34776,-2.4525,4.14634,-19.2073,-56.9817,-8.66758,-1.53521,-1.01549,1.28049,-8.23171,9.60366
544.225,-4.81856,-2.99582,0,0.687371,9.40524,-2.26808,4.26829,-14.5427,-55.9146,-8.62207,-1.35798,-1.01788,2.9878,-8.65854,10.6402
544.235,-5.14465,-3.18268,0,0.969983,9.60403,-2.05253,4.35976,-7.9878,-54.878,-8.43286,-1.3005,-1.14242,3.65854,-6.82927,11.6463
544.245,-5.44859,-3.55417,0,0.969983,9.40045,-1.88967,5.30488,-8.56707,-53.5366,-8.32988,-1.38672,-1.57592,5.54878,-3.29268,11.4024
544.255,-5.71077,-4.50033,0,1.09213,9.00767,-1.83698,4.7561,-11.0366,-51.9817,-8.22929,-1.56395,-2.03098,8.29268,1.58537,11.0976
544.265,-5.87429,-4.95819,0,1.54239,8.97893,-2.20821,2.95732,-10.3659,-48.2317,-8.37299,-1.99026,-2.37586,12.439,5.64024,10.0915
544.275,-5.95341,-5.37485,0,1.88967,8.97414,-2.61776,2.65244,-9.5122,-44.3293,-8.60052,-2.2585,-2.37346,16.4024,8.01829,8.71951
544.285,-6.03651,-5.66282,0,1.5376,9.19687,-2.72793,2.0122,-15.5183,-40,-9.01246,-2.51477,-2.01421,19.6951,9.54268,7.56098
544.295,-6.08473,-5.78753,0,1.66214,9.58487,-3.25723,0.731707,-14.1768,-37.3171,-9.53697,-2.4549,-1.47054,20.9451,9.29878,5.97561
544.305,-6.0391,-5.81412,0,2.19863,9.77647,-3.32189,-4.17683,-22.0427,-33.628,-9.9561,-1.90404,-1.12087,20.7927,7.0122,6.15854
544.315,-5.94312,-5.8831,0,2.5483,9.83874,-3.25004,-4.08537,-19.1159,-32.1646,-10.2722,-1.35319,-1.35558,18.811,7.62195,6.98171
544.325,-5.79698,-5.90743,0,2.63213,9.53218,-3.13987,-6.89024,-14.1768,-28.7195,-10.5836,-0.962798,-1.19751,15.061,8.47561,7.46951
544.335,-5.62554,-5.92195,0,2.47406,9.57529,-2.99138,-8.56707,-15.6707,-23.9024,-10.7273,-0.840652,-1.17116,9.96951,8.75,7.07317
544.345,-5.41581,-6.05724,0,2.50519,9.60642,-3.41051,-10.8841,-12.5,-19.9085,-10.4279,-0.783171,-1.70525,5.85366,10.3049,7.46951
544.355,-5.19382,-6.27835,0,2.32317,9.58008,-3.58534,-12.5915,-9.2378,-16.2195,-9.98244,-0.689766,-2.04535,3.01829,12.439,8.68902
544.365,-4.97874,-6.51057,0,1.91841,9.57768,-3.34105,-13.6585,-8.29268,-11.7683,-9.83874,-0.747246,-2.10522,2.2561,13.0793,9.96951
544.375,-4.74448,-6.67936,0,1.78908,9.91059,-2.96024,-13.3537,-6.85976,-7.16463,-10.1429,-0.831072,-1.91841,2.89634,12.6524,12.1341
544.385,-4.46562,-6.73161,0,1.82979,10.4878,-2.72553,-13.811,-8.38415,-2.68293,-10.9237,-0.986748,-1.52323,4.39024,12.2256,13.0793
544.395,-4.10735,-6.79616,0,2.30161,11.0889,-2.52914,-14.878,-9.08537,2.92683,-11.623,-1.16637,-1.69567,5.33537,12.4085,11.6463
544.405,-3.62075,-6.92315,0,2.98419,11.3308,-2.52196,-17.561,-14.5122,11.1585,-11.9535,-1.29092,-2.09085,6.25,16.4634,8.59756
544.415,-2.96042,-7.00374,0,3.76018,10.9213,-2.54112,-21.8598,-21.372,21.2195,-12.1619,-1.53281,-1.89446,8.10976,21.0671,4.02439
544.425,-2.16815,-6.91338,0,3.91346,10.3824,-2.10043,-27.7439,-25.6707,32.6524,-12.4373,-1.57353,-1.00351,9.90854,22.0427,-0.457317
544.435,-1.25165,-6.64568,0,4.00926,10.4231,-1.69088,-33.1707,-26.0061,46.1585,-12.9068,-1.3005,-0.0119751,11.4329,20.2439,-3.23171
544.445,-0.207819,-6.30137,0,4.232,11.4314,-0.993933,-41.7073,-23.9939,62.5,-13.1798,-0.802332,0.490979,10.8537,17.0122,-3.41463
544.455,0.855087,-5.92997,0,3.46559,12.2601,-0.696951,-59.6951,-19.4512,75.8232,-13.4121,-0.349673,0.737666,8.32317,14.2988,-2.7439
544.465,1.91925,-5.53024,0,2.4525,12.2817,-0.411943,-76.5549,-14.0854,87.2866,-13.1846,-0.318538,0.972378,5.27439,10.8537,-3.14024
544.475,3.06491,-5.11145,0,2.15552,10.8087,2.0214,-77.2866,-11.5244,97.8049,-11.6901,-0.718506,1.03944,4.93902,7.56098,-4.20732
544.485,4.31094,-4.71559,0,1.92081,10.004,1.4897,-66.9207,-7.92683,111.22,-10.0735,-0.66821,0.845442,7.34756,4.84756,-3.59756
544.495,5.63126,-4.31807,0,1.18074,9.616,1.0562,-66.9207,-7.56098,129.238,-8.89031,-0.570015,0.701741,13.0793,3.96341,-1.70732
544.505,6.9221,-3.99193,0,-0.213157,9.88425,1.44899,-63.9024,-20.3963,145.732,-8.3203,-0.490979,0.510139,19.2073,5.03049,1.03659
544.515,8.16977,-3.65432,0,-1.43222,11.4865,0.555645,-59.7256,-41.7378,155.945,-8.38736,-0.58678,0.62031,24.9085,5.27439,2.28659
544.525,9.34606,-3.23746,0,-2.03816,12.9187,-0.958008,-49.2988,-54.7561,155,-8.92384,-0.912502,0.752036,28.9329,2.89634,1.61585
544.535,10.3501,-2.77422,0,-2.60339,14.0827,-2.34712,-38.9024,-58.7805,142.896,-9.87227,-1.09692,0.773591,32.2561,-1.18902,0.0304878
544.545,11.2507,-2.53925,0,-2.09085,13.7522,-2.76625,-31.7683,-53.5976,130.671,-10.6554,-0.802332,0.57241,33.0488,-4.32927,-0.762195
544.555,12.2018,-2.35931,0,-0.641865,12.3679,-1.96871,-22.8049,-51.311,126.067,-11.156,-0.177231,0.383203,32.2866,-5.36585,1.06707
544.565,13.3427,-2.30304,0,1.43462,11.3668,-0.974773,-12.4085,-47.7439,126.646,-10.8806,0.543669,-0.186812,30.6707,-3.5061,6.06707
544.575,14.6679,-2.20265,0,3.04167,10.3369,-0.124541,-2.86585,-42.1951,128.994,-10.6507,1.25739,-0.117356,28.1402,-0.426829,12.8354
544.585,16.0313,-2.10493,0,4.03561,10.4303,0.433499,5.60976,-32.5,125.884,-10.1333,1.6358,-0.0646655,23.6585,1.28049,19.878
544.595,17.3656,-2.01702,0,4.63197,10.8925,0.332908,10.5793,-11.7378,121.86,-9.6184,1.41067,-0.0910107,19.7561,1.61585,23.7195
544.605,18.6784,-1.92832,0,5.23551,11.0051,-0.112566,13.4451,19.4207,117.47,-9.33818,0.934058,-0.170046,17.7744,0.823171,24.939
544.615,19.8767,-2.00152,0,4.79483,10.8111,-0.723296,16.9512,55.7012,111.585,-9.31423,0.383203,-0.390388,18.0183,0.0609756,23.689
544.625,20.5412,-2.18477,0,0.311353,10.5117,-1.48012,21.9207,79.1463,104.909,-9.5705,-0.0694556,-0.675395,19.5427,-0.640244,21.7378
544.635,21.3175,-2.32542,0,1.91841,10.2866,-1.33882,22.9268,91.4024,99.5732,-9.78366,-0.282612,-0.742456,21.5549,-1.09756,19.6951
544.645,22.043,-2.4445,0,2.16749,9.83156,-1.20709,21.8902,93.9329,92.1646,-9.81958,-0.349673,-0.823887,23.1098,-2.13415,18.0183
544.655,22.7554,-2.5278,0,2.63213,9.75491,-0.962798,21.2195,101.921,86.8598,-9.70222,-0.253872,-0.754431,23.872,-3.56707,16.4329
544.665,23.401,-2.553,0,2.46927,9.55373,-0.426313,20.7927,98.0488,82.7439,-9.50823,0.0694556,-0.526904,22.8354,-4.66463,15.9146
544.675,23.9002,-2.53388,0,1.78429,9.27112,-0.0215552,20.6707,99.5122,76.4634,-9.18011,0.522114,-0.337698,20.4573,-4.93902,16.0671
544.685,24.2919,-2.49419,0,1.56634,8.67476,0.0287402,19.7256,101.738,67.8659,-8.87355,1.02986,-0.244292,16.4939,-5.57927,17.3171
544.695,24.5206,-2.42703,0,0.974773,7.94188,0.407153,20.5488,103.445,58.628,-8.65081,1.42264,-0.126936,11.7073,-7.62195,19.1463
544.705,24.4595,-2.36991,0,-0.383203,7.72633,0.555645,21.372,96.2805,49.6037,-8.4161,1.6334,-0.150886,6.89024,-7.89634,20.7927
544.715,24.2868,-2.33652,0,-0.689766,7.64969,0.407153,20.9146,96.4329,42.8049,-8.30593,1.7771,-0.227527,2.31707,-8.17073,22.0427
544.725,23.9351,-2.34013,0,-1.46815,7.28804,0.368833,18.2317,83.2317,36.9207,-8.32988,1.75555,-0.359253,-1.95122,-8.5061,22.5
544.735,23.4341,-2.36935,0,-2.15312,6.94795,0.651445,16.4024,67.4695,32.8659,-8.47597,1.56155,-0.462239,-4.93902,-8.90244,21.7378
544.745,22.8649,-2.43774,0,-2.2609,6.67492,0.850232,16.311,55.6402,27.9268,-8.76338,1.2502,-0.63468,-8.14024,-9.45122,19.878
544.755,22.2547,-2.56142,0,-2.1627,6.58151,0.977168,18.2317,42.8354,21.5244,-9.02683,0.924478,-0.886157,-9.84756,-9.45122,16.7683
544.765,21.564,-2.7276,0,-2.27048,6.51685,1.02986,21.372,27.2256,14.1463,-9.25436,0.65863,-1.1041,-10.6402,-9.45122,12.8354
544.775,20.7915,-2.93102,0,-1.90883,6.86892,0.6251,22.5305,12.7439,5.51829,-9.39327,0.479004,-1.30529,-10.4878,-9.60366,9.48171
