time,angle1,angle2,intgangle,accX1,accY1,accZ1,gyroX1,gyroY1,gyroZ1,accX2,accY2,accZ2,gyroX2,gyroY2,gyroZ2
461.835,71.5701,9.76903,0,9.02922,2.88839,3.24046,-0.121951,-1.09756,-1.40244,-9.67588,-0.546064,1.67172,0,-0.762195,6.92073
461.845,71.578,9.76368,0,9.00288,2.87642,3.24046,-0.121951,-0.945122,-1.31098,-9.64235,-0.514929,1.64777,0,-0.701219,7.28659
461.855,71.5786,9.76557,0,8.98372,2.88121,3.21412,-0.213415,-0.701219,-1.67683,-9.66869,-0.546064,1.66693,0.0914634,-0.304878,7.0122
461.865,71.5842,9.77285,0,8.98851,2.86444,3.2213,-0.304878,-0.609756,-1.52439,-9.64474,-0.507744,1.67172,-0.304878,-0.152439,7.13415
461.875,71.5864,9.79429,0,8.99569,2.87881,3.17819,-0.335366,-0.701219,-1.61585,-9.65432,-0.498164,1.69807,0.0609756,-0.152439,7.28659
461.885,71.5908,9.81393,0,9.04359,2.86923,3.23328,-0.121951,-0.579268,-1.70732,-9.63516,-0.526904,1.69567,-0.365854,-0.182927,7.0122
461.895,71.5953,9.81665,0,9.06515,2.87402,3.19735,-0.426829,-0.487805,-1.70732,-9.65432,-0.522114,1.67412,-0.243902,-0.0304878,7.13415
461.905,71.6063,9.82411,0,9.06754,2.84289,3.20214,-0.426829,-0.0609756,-1.58537,-9.68785,-0.543669,1.68849,-0.182927,0.0914634,7.10366
461.915,71.6147,9.84808,0,9.04838,2.87163,3.20454,-0.335366,-0.182927,-1.40244,-9.67109,-0.538879,1.71962,0,0.335366,7.31707
461.925,71.6206,9.85039,0,9.04599,2.86444,3.16382,-0.365854,0.0609756,-1.61585,-9.72857,-0.538879,1.69328,0,0.243902,7.28659
461.935,71.619,9.85592,0,9.01725,2.87881,3.26441,-0.853659,0.243902,-1.89024,-9.69264,-0.522114,1.69328,0.0914634,0.27439,7.56098
461.945,71.6191,9.85624,0,9.01246,2.87163,3.21412,-0.304878,0.579268,-1.82927,-9.7142,-0.502954,1.68849,0.0609756,0.243902,7.83537
461.955,71.6156,9.87812,0,9.02443,2.8836,3.23328,-0.243902,0.701219,-2.0122,-9.67109,-0.488584,1.71483,-0.152439,0.0609756,7.56098
461.965,71.6171,9.90225,0,9.02922,2.87881,3.24046,-0.213415,0.609756,-1.70732,-9.67827,-0.490979,1.72681,-0.0609756,0.182927,7.7439
461.975,71.6141,9.91967,0,9.01964,2.89797,3.19256,-0.213415,0.701219,-1.79878,-9.65672,-0.457449,1.71244,-0.304878,0.0304878,7.59146
461.985,71.6074,9.96082,0,8.99809,2.91713,3.19256,0.0609756,0.945122,-1.79878,-9.68785,-0.464634,1.76034,-0.121951,0.0609756,7.68293
461.995,71.6097,9.96664,0,9.0388,2.90276,3.24046,-0.0914634,1.37195,-1.43293,-9.70222,-0.483794,1.71483,-0.182927,0.27439,7.2561
462.005,71.6096,9.97509,0,9.02683,2.87642,3.24525,-0.335366,1.4939,-1.85976,-9.72857,-0.493374,1.72681,0.0914634,0.396341,6.98171
462.015,71.6131,9.98003,0,9.02922,2.87163,3.27399,-0.152439,1.46341,-1.64634,-9.74294,-0.486189,1.72202,0.213415,0.0914634,6.82927
462.026,71.6091,9.98331,0,8.9909,2.86684,3.25244,0,1.40244,-2.13415,-9.77886,-0.474214,1.72681,0.335366,0.152439,6.70732
462.035,71.6015,10.0148,0,9.01725,2.89079,3.2716,0.213415,1.28049,-2.2561,-9.76928,-0.481399,1.77231,0.426829,-0.0304878,6.34146
462.045,71.5905,10.0231,0,8.96216,2.90276,3.24286,0.0914634,1.28049,-2.22561,-9.72617,-0.459844,1.7316,0.365854,0.0914634,6.40244
462.058,71.5701,10.0256,0,8.93821,2.96743,3.24046,-0.121951,1.43293,-2.19512,-9.68067,-0.404758,1.71483,0.670732,0.0304878,6.15854
462.066,71.5556,10.0522,0,8.93582,2.95306,3.28357,-0.243902,1.64634,-1.85976,-9.66151,-0.438289,1.75076,0.457317,0.0914634,6.28049
462.076,71.5463,10.052,0,8.93582,2.9339,3.2692,-0.487805,1.46341,-1.67683,-9.67588,-0.383203,1.71483,0.426829,-0.0304878,6.18902
462.085,71.5407,10.0341,0,8.91426,2.94108,3.3195,-0.182927,1.31098,-1.18902,-9.62558,-0.366438,1.67172,0.365854,0.487805,6.12805
462.095,71.5324,10.0136,0,8.88552,2.95545,3.34824,-0.121951,1.37195,-1.06707,-9.66869,-0.352068,1.66693,-0.0609756,0.640244,6.21951
462.105,71.5391,10.0087,0,8.8975,2.89558,3.32908,-0.518293,0.823171,-0.884146,-9.65193,-0.356858,1.69328,-0.0304878,0.884146,6.25
462.115,71.5508,10.0233,0,8.88313,2.87642,3.35782,-0.609756,0.487805,-0.762195,-9.6663,-0.376018,1.74597,-0.213415,1.09756,6.31098
462.125,71.5701,10.0192,0,8.86876,2.8381,3.39135,-0.518293,0.121951,-0.731707,-9.6639,-0.409548,1.69807,-0.365854,1.06707,6.43293
462.135,71.5955,10.007,0,8.89031,2.82852,3.43206,-0.27439,0.243902,-0.579268,-9.64714,-0.423918,1.66933,-0.365854,1.43293,6.31098
462.145,71.6203,9.99981,0,8.89271,2.82612,3.35782,0.0914634,-0.518293,-0.609756,-9.67588,-0.395178,1.68849,-0.426829,1.18902,6.79878
462.155,71.6439,10.0046,0,8.92145,2.82373,3.38177,-0.0914634,-0.762195,-0.701219,-9.67348,-0.428708,1.71962,-0.0304878,1.12805,6.82927
462.165,71.6539,10.0084,0,8.90468,2.84049,3.35063,0.182927,-1.03659,-1.12805,-9.68306,-0.443079,1.71962,-0.426829,1.15854,7.04268
462.175,71.6657,10.0037,0,8.92624,2.84289,3.4129,0,-1.18902,-1.03659,-9.74294,-0.414338,1.70765,-0.304878,1.03659,7.16463
462.185,71.6768,9.96085,0,8.90947,2.85726,3.3674,0.152439,-1.40244,-0.853659,-9.74773,-0.440684,1.59987,-0.182927,1.15854,7.2561
462.195,71.6892,9.9385,0,8.92624,2.84528,3.33626,0.518293,-1.7378,-0.945122,-9.7597,-0.421523,1.65496,-0.213415,1.0061,7.59146
462.205,71.6983,9.92203,0,8.96216,2.88121,3.33387,0.426829,-1.76829,-0.823171,-9.80042,-0.457449,1.67651,0.182927,0.792683,7.31707
462.216,71.7136,9.88864,0,9.00288,2.85965,3.32908,0.548781,-2.10366,-0.823171,-9.77407,-0.459844,1.6334,0.243902,0.640244,7.07317
462.225,71.7187,9.8587,0,9.02204,2.89558,3.25483,0.518293,-2.10366,-1.06707,-9.76928,-0.447869,1.62622,0,0.914634,7.10366
462.235,71.7187,9.82412,0,9.03641,2.90755,3.19735,0.213415,-2.16463,-1.31098,-9.74294,-0.452659,1.61903,-0.0914634,0.548781,7.22561
462.245,71.7333,9.82116,0,9.04359,2.86684,3.22609,0.0304878,-2.0122,-0.884146,-9.73096,-0.486189,1.67891,0,0.640244,7.16463
462.255,71.7404,9.82233,0,9.00288,2.8836,3.19975,-0.0914634,-1.58537,-0.97561,-9.70941,-0.483794,1.6837,-0.0914634,0.518293,7.22561
462.265,71.7549,9.79834,0,9.05557,2.86205,3.16861,0,-1.28049,-0.945122,-9.7118,-0.459844,1.63101,0,0.548781,7.16463
462.275,71.7672,9.78416,0,9.0388,2.82612,3.19256,-0.396341,-0.97561,-1.34146,-9.69504,-0.526904,1.64538,-0.487805,0.518293,7.2561
462.285,71.779,9.77401,0,9.05796,2.8357,3.15664,-0.27439,-0.823171,-1.31098,-9.70701,-0.502954,1.65256,-0.396341,0.579268,7.2561
462.295,71.7962,9.75632,0,9.0867,2.82612,3.15664,-0.0304878,-0.701219,-1.15854,-9.69504,-0.498164,1.6334,-0.518293,0.548781,6.89024
462.305,71.8104,9.73325,0,9.09389,2.81175,3.19496,-0.152439,-0.396341,-1.43293,-9.72138,-0.507744,1.62861,-0.335366,0.304878,6.98171
462.315,71.8167,9.71189,0,9.06754,2.83091,3.23328,-0.243902,-0.609756,-1.64634,-9.72138,-0.469424,1.62382,-0.762195,0.487805,6.89024
462.325,71.8257,9.68801,0,9.05317,2.80217,3.1758,-0.426829,-0.152439,-1.70732,-9.7142,-0.486189,1.60706,-0.670732,0.762195,6.95122
462.335,71.8284,9.65849,0,9.0388,2.84049,3.24046,0.121951,0.182927,-1.67683,-9.73336,-0.500559,1.59508,-0.304878,0.670732,6.70732
462.345,71.8237,9.65001,0,9.03401,2.87163,3.20454,-0.0609756,0.243902,-1.85976,-9.7142,-0.445474,1.6334,-0.548781,0.823171,6.67683
462.355,71.8282,9.64032,0,9.02683,2.8357,3.14706,0.0914634,0.823171,-1.58537,-9.73096,-0.443079,1.6334,-0.579268,0.640244,6.85976
462.365,71.8286,9.62473,0,9.02922,2.83331,3.20214,-0.0304878,1.03659,-1.89024,-9.70222,-0.464634,1.61424,-0.609756,0.640244,6.64634
462.375,71.8334,9.6243,0,9.06275,2.82373,3.22849,0.213415,1.12805,-1.76829,-9.73336,-0.490979,1.65017,-0.365854,0.640244,6.79878
462.385,71.8312,9.61065,0,9.03641,2.88121,3.2237,0.121951,1.09756,-1.55488,-9.72138,-0.493374,1.61903,-0.396341,0.609756,6.70732
462.395,71.8223,9.60223,0,9.00288,2.89079,3.24286,0.152439,1.40244,-1.85976,-9.71659,-0.479004,1.62861,-0.487805,0.457317,6.95122
462.405,71.8198,9.61056,0,9.00527,2.85247,3.25244,0.0304878,1.7378,-1.82927,-9.72378,-0.474214,1.66214,-0.701219,0.426829,7.0122
462.415,71.8102,9.61422,0,9.01485,2.91713,3.30992,0.152439,1.37195,-1.64634,-9.76928,-0.483794,1.66214,-0.792683,0.426829,7.0122
462.425,71.8013,9.58369,0,9.00527,2.89797,3.25244,0,1.40244,-1.82927,-9.73336,-0.479004,1.59269,-1.03659,0.27439,7.22561
462.435,71.8003,9.60154,0,9.00767,2.84049,3.27878,0.0914634,1.4939,-1.89024,-9.70941,-0.474214,1.66933,-0.823171,0.121951,7.2561
462.445,71.7898,9.61431,0,8.9909,2.91474,3.27639,0.0609756,1.58537,-1.70732,-9.77647,-0.490979,1.67651,-0.701219,-0.152439,7.31707
462.455,71.785,9.57142,0,9.00767,2.87402,3.27878,0.0914634,1.37195,-1.82927,-9.75491,-0.481399,1.57353,-0.670732,-0.243902,7.31707
462.465,71.7766,9.57052,0,8.98132,2.88839,3.30273,0.243902,1.34146,-1.85976,-9.76689,-0.474214,1.64538,-0.701219,-0.0609756,7.37805
462.475,71.7715,9.57502,0,8.96935,2.86923,3.25723,-0.0609756,1.37195,-1.79878,-9.75252,-0.462239,1.65256,-0.243902,-0.27439,7.40854
462.485,71.7623,9.57471,0,8.98132,2.87163,3.28118,-0.27439,1.09756,-2.16463,-9.73096,-0.440684,1.64059,-0.335366,-0.365854,7.40854
462.495,71.7602,9.54829,0,8.95977,2.84289,3.30752,-0.335366,1.40244,-1.85976,-9.72617,-0.433499,1.58311,-0.762195,-0.579268,7.13415
462.505,71.7571,9.55683,0,8.96695,2.85486,3.28357,0.0304878,1.34146,-1.82927,-9.69025,-0.435894,1.64538,-0.182927,-0.304878,7.10366
462.515,71.7486,9.55665,0,8.95977,2.85965,3.30992,0.0609756,1.34146,-2.19512,-9.69264,-0.481399,1.63101,-0.27439,-0.579268,7.2561
462.525,71.7462,9.57059,0,8.97653,2.83331,3.28836,-0.0609756,1.70732,-2.07317,-9.68067,-0.495769,1.65975,-0.243902,-0.640244,6.92073
462.535,71.7479,9.54194,0,8.97893,2.81415,3.30513,-0.121951,1.34146,-1.98171,-9.70701,-0.536484,1.57592,-0.304878,-0.548781,7.10366
462.545,71.7471,9.53259,0,8.96695,2.83331,3.30273,-0.0609756,1.37195,-1.92073,-9.73575,-0.517324,1.61664,-0.27439,-0.487805,7.10366
462.555,71.7429,9.50634,0,8.99809,2.8381,3.37219,0.182927,1.31098,-2.22561,-9.75491,-0.498164,1.5879,0.0914634,-0.304878,7.5
462.565,71.7349,9.50079,0,9.00767,2.85965,3.2716,-0.0609756,1.06707,-2.34756,-9.73096,-0.443079,1.61903,0.0609756,-0.27439,7.5
462.575,71.7242,9.4964,0,9.01485,2.89079,3.30273,-0.426829,1.25,-2.2561,-9.71659,-0.380808,1.61903,0.152439,0.0914634,7.40854
462.585,71.7155,9.48114,0,8.97653,2.87163,3.32668,-0.518293,0.914634,-2.19512,-9.73096,-0.354463,1.60227,-0.0609756,0.121951,7.2561
462.595,71.7133,9.45326,0,8.98851,2.85486,3.31471,-0.701219,1.34146,-1.92073,-9.75012,-0.361648,1.57592,0,0.304878,7.07317
462.605,71.7118,9.46258,0,8.91905,2.8357,3.27639,-0.457317,1.34146,-1.85976,-9.71899,-0.366438,1.63819,-0.152439,0.518293,7.13415
462.615,71.7109,9.46249,0,8.91426,2.8381,3.3674,-0.548781,0.97561,-1.76829,-9.75491,-0.380808,1.62622,0.213415,0.640244,6.7378
462.625,71.7105,9.45889,0,8.91905,2.81894,3.40811,-0.396341,0.97561,-1.95122,-9.72857,-0.409548,1.61424,0.213415,0.548781,7.04268
462.635,71.7076,9.4441,0,8.91905,2.84768,3.38177,-0.182927,0.640244,-1.82927,-9.70941,-0.428708,1.5879,-0.0304878,0.487805,7.22561
462.645,71.709,9.46487,0,8.92384,2.82852,3.40572,-0.121951,0,-1.7378,-9.67827,-0.423918,1.65496,0.152439,0.609756,6.92073
462.655,71.7101,9.46661,0,8.92624,2.84528,3.37698,-0.0304878,-0.213415,-1.58537,-9.68306,-0.414338,1.61903,0.152439,0.792683,7.13415
462.665,71.7063,9.46894,0,8.91187,2.86923,3.36979,-0.0914634,-0.426829,-1.61585,-9.68546,-0.404758,1.62143,0.213415,0.884146,7.34756
462.675,71.7013,9.49997,0,8.89989,2.86205,3.37458,0,-0.670732,-1.76829,-9.6639,-0.390388,1.6837,0.457317,0.762195,7.62195
462.685,71.6917,9.47839,0,8.90468,2.88121,3.44643,-0.243902,-0.701219,-1.92073,-9.66151,-0.416733,1.57592,0.304878,0.426829,7.5
462.695,71.6833,9.50027,0,8.90468,2.88839,3.34584,-0.213415,-0.792683,-1.76829,-9.69983,-0.419128,1.66454,0.365854,0.487805,7.37805
462.705,71.6732,9.52096,0,8.90468,2.89558,3.35063,0,-1.25,-1.82927,-9.68546,-0.421523,1.66454,0.213415,0.548781,7.56098
462.715,71.6658,9.55508,0,8.91666,2.88839,3.32908,-0.426829,-1.03659,-1.76829,-9.69264,-0.423918,1.69567,0.335366,0.487805,7.19512
462.725,71.6538,9.55293,0,8.92863,2.92192,3.3171,-0.304878,-1.25,-1.79878,-9.69983,-0.435894,1.62861,0.121951,0.640244,7.13415
462.735,71.6459,9.57512,0,8.943,2.90995,3.31471,-0.518293,-1.34146,-1.67683,-9.68067,-0.414338,1.6813,0.213415,0.762195,7.37805
462.745,71.6407,9.59967,0,8.95498,2.90276,3.30752,-0.335366,-1.58537,-1.61585,-9.71659,-0.431104,1.70046,0.182927,0.853659,7.10366
462.755,71.6337,9.62662,0,8.98372,2.92671,3.27878,-0.579268,-1.40244,-1.58537,-9.68546,-0.402363,1.71244,0.0914634,1.12805,7.2561
462.765,71.6317,9.64154,0,8.98851,2.91713,3.33866,-0.640244,-1.46341,-1.34146,-9.74054,-0.409548,1.69807,-0.213415,1.34146,7.0122
462.776,71.6342,9.64955,0,9.00527,2.89797,3.27399,-0.518293,-1.4939,-1.31098,-9.70701,-0.455054,1.67172,-0.121951,1.09756,6.85976
462.785,71.6369,9.65072,0,9.00288,2.87402,3.28118,-0.670732,-1.34146,-1.55488,-9.70462,-0.443079,1.65496,-0.487805,1.4939,6.82927
462.795,71.647,9.65771,0,9.00527,2.85247,3.2692,-0.304878,-1.06707,-1.31098,-9.68306,-0.467029,1.66933,-0.27439,1.4939,7.31707
462.805,71.6546,9.66887,0,9.01725,2.85726,3.23807,0,-0.731707,-1.43293,-9.69025,-0.479004,1.68849,-0.152439,1.85976,7.19512
462.815,71.6615,9.6753,0,9.00767,2.85726,3.26681,0.121951,-0.884146,-1.43293,-9.69743,-0.455054,1.67412,0.0304878,1.61585,7.10366
462.825,71.6779,9.67092,0,9.02204,2.81894,3.23567,0,-0.792683,-1.28049,-9.66151,-0.426313,1.6334,0.27439,2.16463,7.28659
462.835,71.6919,9.66765,0,9.01725,2.80696,3.20454,0.0304878,-0.548781,-1.4939,-9.65911,-0.419128,1.6358,0.335366,2.56098,7.37805
462.845,71.7096,9.67305,0,9.03641,2.79978,3.23088,0.243902,-0.731707,-1.37195,-9.6663,-0.433499,1.66933,0.213415,2.53049,7.28659
462.855,71.7271,9.68173,0,9.01725,2.7902,3.20933,0.518293,-0.823171,-1.40244,-9.68306,-0.378413,1.68849,0.335366,3.17073,7.19512
462.865,71.743,9.68683,0,9.0388,2.81894,3.25483,0.243902,-0.548781,-1.25,-9.65672,-0.356858,1.67172,0.152439,3.56707,7.0122
462.875,71.7537,9.68835,0,9.01725,2.8381,3.15185,0.426829,-0.365854,-1.28049,-9.68067,-0.385598,1.66214,0.121951,3.81098,7.07317
462.885,71.7659,9.68751,0,8.98372,2.84528,3.23088,0.457317,-0.0914634,-1.0061,-9.62558,-0.414338,1.64298,0.121951,3.68902,7.16463
462.895,71.7736,9.68858,0,9.05557,2.8381,3.21891,0.426829,0.0609756,-1.52439,-9.6184,-0.426313,1.65017,0.0914634,4.29878,6.89024
462.905,71.7863,9.67982,0,9.03401,2.84049,3.22849,0.853659,0.182927,-1.12805,-9.58008,-0.469424,1.60227,-0.0304878,4.66463,7.19512
462.915,71.7899,9.67244,0,9.01006,2.86684,3.2237,0.731707,0.365854,-1.31098,-9.59684,-0.479004,1.60945,0.0609756,4.69512,7.22561
462.925,71.7886,9.65837,0,8.99569,2.89079,3.27639,0.853659,0.152439,-1.31098,-9.66151,-0.488584,1.59029,-0.213415,4.48171,7.19512
462.935,71.7851,9.64629,0,8.97414,2.88839,3.29555,0.884146,0.670732,-1.43293,-9.68306,-0.450264,1.59987,-0.0609756,4.5122,7.28659
462.945,71.7818,9.61965,0,8.97893,2.88121,3.30273,1.12805,0.884146,-1.52439,-9.75491,-0.435894,1.54718,0.121951,4.20732,7.5
462.955,71.7741,9.60226,0,8.95737,2.90995,3.28597,1.31098,0.609756,-1.43293,-9.72857,-0.445474,1.57832,0.243902,3.96341,7.5
462.965,71.7607,9.58737,0,8.95019,2.96264,3.26681,1.06707,0.823171,-1.09756,-9.72617,-0.443079,1.5855,0.426829,3.9939,7.86585
462.976,71.7484,9.56366,0,8.95019,2.96982,3.26681,1.34146,0.884146,-0.853659,-9.71659,-0.443079,1.54479,0.518293,3.71951,7.92683
462.985,71.7271,9.54626,0,8.95019,3.02251,3.23328,0.945122,0.792683,-0.518293,-9.7597,-0.428708,1.57353,0.27439,3.93293,8.01829
462.995,71.6981,9.52108,0,8.96935,3.05844,3.28118,0.365854,0.487805,0,-9.75731,-0.433499,1.5376,0.945122,3.75,7.7439
463.005,71.6755,9.50253,0,8.93582,3.04407,3.27399,0.27439,0.609756,0.182927,-9.77886,-0.426313,1.56395,0.426829,4.08537,7.71341
463.015,71.6649,9.47763,0,8.90229,3.0297,3.34824,0.182927,0.518293,0.701219,-9.75731,-0.390388,1.53042,0.426829,3.9939,7.31707
463.025,71.6683,9.45858,0,8.8975,2.98419,3.33387,-0.548781,0.548781,1.03659,-9.73336,-0.438289,1.54718,0.396341,4.02439,7.2561
463.035,71.6719,9.44968,0,8.84002,2.98419,3.37698,-0.609756,0.121951,1.34146,-9.72378,-0.462239,1.5855,0.640244,4.11585,7.16463
463.045,71.6847,9.42035,0,8.89271,2.98898,3.36979,-0.640244,0,1.95122,-9.73336,-0.495769,1.49928,0.426829,3.84146,7.31707
463.055,71.7012,9.38739,0,8.86157,3.00814,3.38416,-0.640244,-0.487805,2.68293,-9.70701,-0.481399,1.47294,0.579268,4.48171,7.37805
463.065,71.7233,9.35515,0,8.89989,3.01772,3.34584,-0.914634,-0.853659,3.20122,-9.72138,-0.464634,1.47294,0.945122,4.26829,7.56098
463.075,71.7549,9.34193,0,8.92384,3.01054,3.30992,-0.97561,-0.762195,3.9939,-9.69743,-0.364043,1.54479,0.853659,4.32927,7.59146
463.085,71.7931,9.33337,0,8.88073,2.96503,3.33626,-1.61585,-1.46341,4.35976,-9.64714,-0.332908,1.55437,0.548781,4.32927,7.31707
463.095,71.8437,9.33731,0,8.87594,2.89318,3.33626,-1.82927,-1.34146,4.84756,-9.6663,-0.239502,1.60945,0.396341,4.54268,6.95122
463.105,71.9068,9.33655,0,8.89989,2.80217,3.33387,-1.79878,-1.12805,5.03049,-9.68306,-0.160466,1.59269,-0.213415,4.42073,6.98171
463.115,71.9727,9.33681,0,8.87594,2.72793,3.38416,-2.07317,-1.79878,4.63415,-9.65432,-0.138911,1.59269,-1.03659,5,6.67683
463.125,72.0479,9.34591,0,8.8975,2.58662,3.42967,-1.92073,-1.89024,3.81098,-9.6663,-0.203577,1.6334,-1.7378,5.39634,6.52439
463.135,72.1234,9.32486,0,8.95498,2.53154,3.40811,-1.61585,-3.17073,2.80488,-9.69504,-0.258662,1.50886,-2.2561,5.64024,6.98171
463.145,72.192,9.30919,0,8.943,2.5483,3.42009,-1.37195,-4.05488,1.89024,-9.66151,-0.361648,1.52323,-2.62195,5.51829,7.40854
463.155,72.2436,9.27279,0,8.96216,2.65847,3.42727,-0.97561,-4.57317,1.03659,-9.69983,-0.459844,1.43701,-2.62195,4.96951,7.56098
463.165,72.2769,9.24313,0,9.02683,2.76385,3.34345,-0.670732,-4.54268,1.12805,-9.72378,-0.526904,1.46336,-1.70732,4.93902,8.47561
463.175,72.3191,9.19253,0,9.12263,2.73511,3.32189,-0.701219,-5.09146,1.4939,-9.77407,-0.579595,1.37714,-1.21951,4.20732,9.08537
463.185,72.3499,9.12739,0,9.20406,2.85486,3.24765,-0.670732,-3.01829,2.07317,-9.82916,-0.574805,1.31726,-0.304878,3.71951,9.42073
463.195,72.3531,9.05305,0,9.0891,3.14227,3.01054,-0.853659,-0.640244,3.38415,-9.9082,-0.555645,1.29092,0.487805,2.86585,9.48171
463.205,72.3863,8.94621,0,9.06036,2.82612,3.0297,-2.16463,-0.335366,2.65244,-9.95849,-0.524509,1.19511,1.03659,1.98171,9.57317
463.215,72.4246,8.79995,0,9.02683,2.81175,3.13987,-1.64634,0.426829,3.23171,-10.0471,-0.505349,1.1544,1.64634,0.97561,9.60366
463.225,72.445,8.63097,0,9.06754,3.01772,3.11113,-1.52439,1.21951,3.84146,-10.0878,-0.517324,1.16398,1.92073,0.396341,9.60366
463.235,72.4962,8.46658,0,9.10586,2.69679,3.20933,-3.07927,0.792683,2.86585,-10.1357,-0.476609,1.13045,1.89024,-0.457317,9.5122
463.245,72.5868,8.35437,0,9.14418,2.38304,3.29315,-2.92683,-0.213415,1.92073,-10.1621,-0.488584,1.18074,2.04268,-0.853659,9.45122
463.256,72.7131,8.241,0,9.24717,2.26569,3.23807,-2.19512,-0.457317,0.945122,-10.0639,-0.450264,1.14721,1.70732,-0.945122,8.90244
463.265,72.845,8.10874,0,9.23999,2.39981,3.21651,-1.67683,-1.09756,0.0914634,-10.0112,-0.440684,1.10889,1.55488,-0.701219,8.68902
463.275,72.9455,7.97018,0,9.24238,2.48843,3.25483,-2.19512,-1.76829,0.0609756,-9.91778,-0.428708,1.05141,1.31098,-0.853659,8.62805
463.285,73.0206,7.84222,0,9.23759,2.42855,3.20693,-2.34756,-1.46341,-0.701219,-9.83395,-0.433499,1.07776,1.4939,-0.701219,8.38415
463.295,73.0803,7.70445,0,9.19448,2.44052,3.15903,-2.46951,-1.34146,-0.945122,-9.77168,-0.407153,1.0586,1.46341,-0.548781,8.53659
463.305,73.1395,7.56764,0,9.11544,2.38304,3.16861,-2.37805,-1.21951,-1.15854,-9.7621,-0.359253,1.04662,1.7378,-0.487805,8.29268
463.316,73.1851,7.38263,0,9.13939,2.32796,3.19735,-2.53049,-0.487805,-1.92073,-9.67109,-0.344883,1.0107,2.43902,-0.0914634,8.71951
463.325,73.2177,7.25479,0,9.09389,2.37346,3.24046,-2.53049,0.121951,-2.10366,-9.65672,-0.344883,1.03704,2.92683,0.304878,8.75
463.335,73.2379,7.17144,0,9.04599,2.36628,3.26441,-2.16463,0.487805,-2.77439,-9.72378,-0.289797,1.07297,3.07927,0.518293,8.62805
463.345,73.2499,7.09773,0,9.08191,2.41657,3.31471,-2.0122,0.823171,-2.92683,-9.79084,-0.308958,1.04662,3.78049,0.945122,8.32317
463.355,73.2512,7.03622,0,9.06275,2.4549,3.33147,-1.67683,0.304878,-3.32317,-9.87227,-0.275427,1.04423,4.05488,1.34146,8.20122
463.365,73.2397,7.0283,0,9.0412,2.5483,3.3171,-1.34146,-0.304878,-3.35366,-9.9082,-0.208367,1.20469,3.96341,0.640244,7.83537
463.375,73.2241,7.07184,0,8.97893,2.55309,3.32189,-1.06707,-0.914634,-3.5061,-9.93454,-0.172441,1.31008,3.81098,0.213415,7.40854
463.385,73.2022,7.12104,0,8.97414,2.58183,3.34345,-0.97561,-1.25,-3.78049,-9.89383,-0.107776,1.31966,3.44512,0.182927,7.2561
463.396,73.1725,7.19977,0,8.96456,2.6465,3.37219,-0.823171,-2.56098,-3.78049,-9.84114,-0.0550855,1.37474,2.80488,-0.213415,7.37805
463.405,73.1398,7.29256,0,8.93821,2.66566,3.365,-0.518293,-3.23171,-3.81098,-9.83395,-0.0838257,1.4442,2.53049,-0.518293,7.71341
463.415,73.1118,7.37441,0,8.9909,2.66326,3.33147,-0.396341,-3.44512,-3.62805,-9.86269,-0.0814307,1.49928,2.04268,-1.15854,7.95732
463.425,73.0843,7.42298,0,8.95498,2.66566,3.30034,-0.304878,-3.93293,-3.47561,-9.88185,-0.114961,1.43222,1.06707,-1.43293,8.44512
463.435,73.0475,7.43135,0,8.96456,2.74948,3.29076,-0.0609756,-3.84146,-3.47561,-9.90101,-0.136516,1.31726,1.0061,-1.7378,8.32317
463.445,73.0078,7.46566,0,8.99569,2.80936,3.24046,-0.0609756,-3.96341,-3.20122,-9.89383,-0.182021,1.42264,0.609756,-2.5,8.47561
463.455,72.9683,7.50121,0,9.00527,2.85247,3.26202,-0.304878,-4.05488,-2.71341,-10.0399,-0.198787,1.46815,0.365854,-3.90244,8.20122
463.465,72.9339,7.53581,0,9.02443,2.84768,3.24286,-0.304878,-3.71951,-2.37805,-9.93215,-0.182021,1.45617,0.701219,-4.96951,8.01829
463.475,72.9022,7.5612,0,9.05078,2.86444,3.16382,-0.396341,-3.23171,-2.0122,-9.92257,-0.220342,1.42025,0.152439,-5.4878,7.65244
463.485,72.8755,7.59856,0,9.03641,2.84768,3.13508,-0.243902,-3.29268,-1.67683,-9.9058,-0.258662,1.47533,0.396341,-6.03659,7.71341
463.495,72.8529,7.63702,0,9.01246,2.81654,3.20454,0,-3.29268,-1.70732,-9.88185,-0.261057,1.48252,0.579268,-7.43902,7.68293
463.505,72.8448,7.68121,0,9.01246,2.75188,3.08718,-0.0304878,-2.92683,-1.34146,-9.87706,-0.296982,1.51365,1.0061,-7.9878,7.46951
463.515,72.8358,7.72732,0,9.03162,2.78062,3.16622,-0.0609756,-2.71341,-1.06707,-9.88185,-0.325723,1.53042,1.03659,-8.38415,7.40854
463.525,72.8352,7.77527,0,9.06515,2.7399,3.16622,0.0304878,-2.65244,-1.15854,-9.8555,-0.323328,1.54239,1.18902,-8.75,7.5
463.535,72.8313,7.82506,0,9.03162,2.75667,3.13269,0.121951,-2.95732,-1.03659,-9.79803,-0.323328,1.54958,1.18902,-9.14634,7.77439
463.545,72.841,7.88001,0,9.07952,2.70877,3.18298,0.0914634,-2.83537,-0.914634,-9.76928,-0.313748,1.57592,1.31098,-9.87805,7.95732
463.555,72.85,7.92529,0,9.04838,2.72553,3.13029,-0.152439,-2.80488,-0.640244,-9.73815,-0.277822,1.5376,1.46341,-10.2744,7.89634
463.565,72.8636,7.97975,0,9.06754,2.70877,3.11113,-0.0914634,-2.7439,-0.640244,-9.67827,-0.220342,1.57592,1.46341,-10.4878,7.56098
463.576,72.8748,8.05966,0,9.06994,2.69919,3.13508,-0.731707,-2.40854,-0.853659,-9.74054,-0.162861,1.70765,1.43293,-10.9146,7.56098
463.585,72.8906,8.19627,0,9.0412,2.68003,3.09437,-0.731707,-2.2561,-0.731707,-9.78126,-0.124541,1.98068,0.670732,-12.5305,6.82927
463.595,72.9074,8.30904,0,9.03162,2.67763,3.15185,-0.396341,-1.79878,-0.640244,-9.79084,-0.0838257,1.89925,0.0609756,-13.2927,6.95122
463.605,72.9186,8.37282,0,9.00527,2.692,3.21412,-0.152439,-2.04268,-0.640244,-9.67827,-0.110171,1.6813,-0.213415,-13.0488,6.67683
463.615,72.9013,8.47496,0,8.79451,2.83091,3.45601,-0.853659,-4.48171,0.945122,-9.59924,-0.114961,1.84656,-0.365854,-12.8049,6.92073
463.625,72.7496,8.57164,0,8.59812,4.88105,2.68721,0.701219,2.89634,10,-9.62319,-0.330513,1.84417,0.457317,-13.75,7.0122
463.635,72.8982,8.67637,0,9.02204,1.95673,2.52196,-9.08537,11.8902,4.69512,-9.70222,-0.507744,1.91123,1.31098,-14.6341,7.22561
463.645,73.0943,8.79508,0,8.86157,0.704136,3.86317,-12.4085,-6.40244,-5.79268,-9.72138,-0.598755,1.99505,2.53049,-15.4878,6.37195
463.655,73.1916,8.88278,0,10.6363,1.48012,2.57465,0.914634,5.45732,-8.41463,-9.79563,-0.687371,1.89207,2.59146,-15.6402,5.7622
463.666,73.239,8.91171,0,9.9058,2.06211,1.76992,20.122,16.8902,-5.51829,-9.75012,-0.598755,1.63819,3.10976,-15.3049,5.12195
463.675,73.191,8.98414,0,10.2651,2.95066,2.38783,14.6646,0.457317,-6.37195,-9.69264,-0.445474,1.825,3.07927,-15.6402,4.35976
463.685,73.0811,9.05654,0,9.35974,3.16622,3.31471,2.28659,-1.92073,-7.37805,-9.68067,-0.193997,1.83458,1.64634,-16.4634,4.81707
463.695,72.9465,9.09236,0,8.31311,2.96743,4.09788,-2.7439,2.07317,-8.17073,-9.60882,-0.0550855,1.67412,0.0609756,-15.7622,5.79268
463.705,72.8016,9.13983,0,7.87722,3.03449,4.00687,-3.93293,3.29268,-6.55488,-9.60642,-0.0191602,1.7316,-1.7378,-14.7256,7.0122
463.715,72.7393,9.19924,0,8.47837,2.87402,3.35063,0.701219,2.2561,-2.71341,-9.65193,-0.0550855,1.80105,-2.83537,-14.1768,8.41463
463.726,72.695,9.25994,0,9.01485,2.98419,3.21651,3.14024,0.426829,0.27439,-9.75252,-0.193997,1.83698,-3.44512,-13.1098,8.84146
463.735,72.6983,9.30756,0,9.22562,2.92192,3.33626,1.40244,-2.10366,1.12805,-9.91538,-0.390388,1.82021,-3.78049,-12.1646,8.84146
463.745,72.7448,9.28215,0,9.33818,2.71835,3.40572,0.213415,-0.914634,-0.0304878,-9.91299,-0.57241,1.50168,-2.62195,-10.4878,7.83537
463.755,72.7579,9.2877,0,9.22562,2.67763,3.30034,0.182927,0.152439,-1.52439,-9.86509,-0.670605,1.62861,-1.76829,-9.69512,7.13415
463.765,72.7361,9.34702,0,9.21125,2.83331,3.04646,-2.80488,-0.853659,-2.56098,-9.82916,-0.627495,1.86333,-0.97561,-10.3659,6.46341
463.775,72.7153,9.40555,0,9.22083,2.77583,3.08239,-5.94512,-0.853659,-3.23171,-9.86269,-0.526904,1.8753,-0.97561,-12.0122,6.34146
463.785,72.6993,9.46175,0,9.00048,2.62494,3.18298,-6.37195,-0.304878,-3.81098,-9.83156,-0.337698,1.86812,-0.457317,-13.3537,5.70122
463.795,72.6841,9.5346,0,8.93342,2.58902,3.2716,-5.39634,0.945122,-3.96341,-9.85072,-0.170046,1.95673,-0.609756,-13.4146,5.7622
463.805,72.664,9.60744,0,8.90947,2.62734,3.20933,-3.87195,1.21951,-3.93293,-9.83635,-0.0383203,1.96631,-0.731707,-14.0244,5.82317
463.815,72.6453,9.69058,0,8.98851,2.67045,3.09676,-3.07927,-1.0061,-3.59756,-9.78126,-0.0622705,2.01421,-0.823171,-14.3293,6.25
463.825,72.6221,9.77931,0,9.07952,2.80936,3.07042,-2.5,-1.37195,-2.7439,-9.71899,-0.0886157,2.04056,-1.25,-14.939,6.82927
463.835,72.617,9.87982,0,9.14658,2.65368,3.15424,-2.59146,-1.28049,-3.14024,-9.65911,-0.110171,2.09564,-1.18902,-15.3963,7.0122
463.845,72.631,9.98849,0,9.09389,2.47166,3.3171,-1.89024,-1.7378,-3.29268,-9.61121,-0.160466,2.13875,-0.97561,-15.8537,7.07317
463.855,72.6402,10.0955,0,9.05317,2.49801,3.29076,-0.365854,-1.46341,-3.29268,-9.5705,-0.146096,2.14115,-1.18902,-15.9756,7.5
463.865,72.6487,10.1984,0,9.09868,2.49561,3.24046,0.365854,-1.40244,-3.47561,-9.56331,-0.237107,2.14115,-1.4939,-15.3963,7.7439
463.875,72.6614,10.3006,0,9.18969,2.48124,3.11592,0.914634,-2.19512,-3.5061,-9.56331,-0.256267,2.15552,-1.70732,-15.4573,7.83537
463.885,72.6761,10.4051,0,9.22083,2.37825,3.12311,2.28659,-2.7439,-4.48171,-9.54415,-0.280217,2.17947,-1.4939,-15.4268,7.89634
463.895,72.6698,10.5012,0,9.17772,2.44771,3.20214,4.17683,-3.81098,-5.54878,-9.56571,-0.277822,2.1651,-1.82927,-15.7012,8.44512
463.905,72.6428,10.6185,0,9.15137,2.57704,3.19496,5.2439,-3.75,-6.03659,-9.59445,-0.282612,2.28245,-1.28049,-16.5244,8.53659
463.915,72.6102,10.7129,0,9.12981,2.62973,3.15185,6.06707,-3.56707,-5.97561,-9.69025,-0.275427,2.22258,-1.03659,-17.0732,8.84146
463.925,72.5656,10.7915,0,9.0891,2.65368,3.10395,6.21951,-3.2622,-6.82927,-9.78126,-0.227527,2.18905,-1.43293,-16.5854,8.65854
463.935,72.5114,10.8814,0,9.0891,2.78301,3.04407,6.52439,-3.20122,-6.37195,-9.76689,-0.203577,2.25132,-1.28049,-16.7073,8.93293
463.945,72.4529,10.9805,0,9.16813,2.89079,3.00096,6.03659,-2.59146,-5.94512,-9.83156,-0.174836,2.32317,-1.03659,-17.8354,8.41463
463.955,72.4061,11.0853,0,9.15616,2.85007,3.03928,5.15244,-2.2561,-5.30488,-9.86269,-0.172441,2.37346,-0.457317,-19.2683,7.9878
463.965,72.3585,11.1862,0,9.03641,2.84289,3.07281,4.60366,-2.34756,-5.12195,-9.87946,-0.174836,2.37825,-0.579268,-20.061,7.31707
463.975,72.3209,11.2626,0,9.06275,2.76625,3.00096,3.9939,-0.487805,-5.21341,-9.87467,-0.203577,2.28245,-0.670732,-20.3659,6.06707
463.985,72.2773,11.3507,0,9.01006,2.75667,3.08,3.65854,-0.396341,-5.82317,-9.82437,-0.285007,2.33754,-0.670732,-20.6707,4.96951
463.995,72.2251,11.4482,0,8.95737,2.75188,3.14466,3.29268,-0.97561,-6.64634,-9.76689,-0.311353,2.38304,-0.640244,-20.3963,4.5122
464.005,72.166,11.5486,0,8.88313,2.6944,3.32429,3.38415,-3.23171,-7.86585,-9.72857,-0.337698,2.4046,-0.487805,-20.2134,4.5122
464.015,72.0915,11.6394,0,8.94061,2.79499,3.29315,3.41463,-3.62805,-8.56707,-9.54894,-0.325723,2.33514,-0.121951,-20.1524,5.36585
464.025,72.0021,11.7391,0,8.88073,2.91953,3.34345,3.84146,-7.10366,-8.53659,-9.53936,-0.378413,2.38783,-0.27439,-21.311,6.28049
464.035,71.9054,11.846,0,8.80649,3.04407,3.25962,3.78049,-7.56098,-7.68293,-9.64953,-0.397573,2.46448,0.396341,-22.2561,6.92073
464.046,71.8126,11.931,0,8.83762,3.13029,3.18059,3.93293,-6.95122,-6.58537,-9.62319,-0.404758,2.37825,0.396341,-22.6524,7.62195
464.055,71.7395,11.9992,0,8.81607,3.14466,3.20214,4.5122,-7.56098,-4.45122,-9.62798,-0.390388,2.31838,0.945122,-23.2012,7.95732
464.065,71.6898,12.0648,0,8.85199,3.07281,3.33626,5.03049,-7.53049,-3.14024,-9.59924,-0.402363,2.31119,1.61585,-23.7805,7.77439
464.075,71.6596,12.1285,0,8.80888,2.95306,3.32429,5,-8.17073,-2.56098,-9.6184,-0.421523,2.31838,2.56098,-24.5732,7.40854
464.085,71.6304,12.2246,0,8.77296,2.94348,3.24286,5.18293,-8.87195,-2.5,-9.62558,-0.426313,2.47645,3.59756,-25.4268,7.0122
464.095,71.6157,12.3129,0,8.83523,2.85247,3.18059,5.18293,-10.9146,-2.62195,-9.63037,-0.368833,2.45969,3.96341,-26.0061,6.0061
464.105,71.6026,12.425,0,8.93342,2.80457,3.04407,5.91463,-11.2805,-3.41463,-9.70222,-0.263452,2.60099,4.39024,-27.2256,5.2439
464.115,71.576,12.5489,0,8.9454,2.7902,2.99377,6.76829,-10.5793,-4.93902,-9.73096,-0.253872,2.68242,4.26829,-28.9329,5.15244
464.125,71.5325,12.73,0,8.99569,2.90755,2.94587,7.0122,-10.122,-5.4878,-9.77886,-0.208367,2.98419,4.14634,-30.8537,5
464.135,71.4855,12.8978,0,8.8951,2.93869,3.0273,7.43902,-12.1341,-5.18293,-9.7621,-0.143701,2.94827,3.9939,-32.439,5.2439
464.145,71.444,13.0626,0,9.06994,3.00335,2.95545,8.07927,-10.8232,-4.63415,-9.73096,-0.136516,2.95545,3.62805,-33.3841,5.73171
464.155,71.4102,13.2348,0,9.23999,3.13269,2.73511,7.62195,-9.14634,-3.07927,-9.65911,-0.119751,2.99856,3.04878,-33.3232,6.52439
464.165,71.3857,13.415,0,9.26394,3.13987,2.76625,6.52439,-8.62805,-2.19512,-9.64474,-0.0790356,3.06323,3.04878,-33.689,7.07317
464.175,71.3762,13.5673,0,9.22322,3.09916,2.78301,5.4878,-8.68902,-1.09756,-9.64953,-0.0718506,2.96743,2.86585,-33.5976,7.40854
464.185,71.3947,13.7408,0,9.21364,2.95066,2.83091,5.7622,-8.38415,-0.945122,-9.60403,-0.0239502,3.08,2.28659,-33.9939,7.56098
464.195,71.4271,13.9332,0,9.0388,2.78301,2.79978,5.57927,-8.20122,-1.31098,-9.56092,0.00239502,3.18538,2.04268,-34.8171,7.68293
464.205,71.4625,14.1352,0,9.0388,2.6465,2.77343,5.27439,-8.04878,-2.10366,-9.51781,0,3.25004,1.64634,-36.4329,7.65244
464.215,71.4799,14.3357,0,8.98611,2.6441,2.692,4.66463,-9.26829,-3.04878,-9.44596,-0.0479004,3.25483,1.21951,-37.439,7.10366
464.225,71.4819,14.5431,0,8.84241,2.69679,2.7878,4.5122,-11.1585,-3.2622,-9.40764,-0.0790356,3.30992,1.21951,-38.4756,6.58537
464.235,71.4739,14.7492,0,9.25196,2.82133,2.6441,3.84146,-6.31098,-4.08537,-9.27831,-0.110171,3.29555,0.823171,-38.9024,5.97561
464.245,71.4616,14.9652,0,9.07233,2.79499,2.79978,3.41463,-9.78659,-4.20732,-9.18011,-0.146096,3.34345,0.731707,-38.872,5.36585
464.255,71.4557,15.1871,0,9.03401,2.66087,2.88839,2.89634,-10.5793,-5,-9.137,-0.158071,3.39374,0.487805,-38.6585,5.33537
464.265,71.4646,15.4125,0,9.16095,2.4549,2.79259,3.35366,-9.26829,-6.34146,-9.07473,-0.205972,3.42727,0.640244,-38.3232,5.2439
464.275,71.4646,15.6388,0,9.17772,2.43334,2.66326,3.23171,-10.5793,-7.53049,-9.03162,-0.239502,3.45601,0.853659,-38.0793,5.39634
464.285,71.4354,15.8792,0,9.18011,2.61297,2.5962,2.9878,-11.5854,-8.38415,-9.03162,-0.213157,3.56139,0.731707,-37.9573,5.88415
464.295,71.4023,16.1177,0,9.27831,2.65368,2.40939,3.47561,-9.11585,-8.68902,-9.03162,-0.241897,3.59732,1.0061,-37.2561,6.25
464.305,71.3557,16.3522,0,9.2807,2.76625,2.46208,3.71951,-10.122,-8.84146,-9.09389,-0.239502,3.64761,1.09756,-37.0427,6.7378
464.315,71.3022,16.5893,0,9.30226,2.85486,2.44052,3.32317,-9.81707,-8.68902,-9.09389,-0.227527,3.7027,1.40244,-37.378,6.37195
464.326,71.2408,16.8492,0,9.36213,2.91953,2.5004,3.23171,-8.59756,-9.08537,-9.14418,-0.239502,3.87514,1.70732,-37.8049,6.28049
464.335,71.1805,17.1186,0,9.28789,2.85965,2.5483,2.56098,-8.96341,-9.5122,-9.11065,-0.270637,3.95418,1.76829,-38.4756,5.97561
464.345,71.1004,17.3929,0,9.16095,2.96024,2.60578,2.53049,-9.02439,-10.0305,-9.0891,-0.280217,4.01884,1.79878,-38.5671,5.64024
464.355,71.0257,17.6897,0,9.12023,2.84049,2.62255,1.7378,-10.0305,-10.8841,-9.08431,-0.311353,4.17691,1.98171,-39.4512,5.73171
464.365,70.9314,17.9936,0,9.12502,3.02012,2.46208,2.77439,-10,-10.9756,-9.08431,-0.318538,4.26792,1.67683,-40.1829,5.36585
464.375,70.8469,18.3228,0,9.13221,2.9315,2.49322,2.31707,-12.7134,-11.2195,-9.02204,-0.328118,4.42121,1.76829,-40.6098,5.2439
464.385,70.7427,18.6511,0,9.16813,3.20214,2.48603,2.37805,-13.5061,-10.4268,-8.94061,-0.304167,4.44037,2.0122,-40.5793,4.93902
464.395,70.6229,18.9725,0,9.24478,3.45362,2.34712,2.43902,-12.1037,-9.72561,-8.76817,-0.328118,4.38528,1.92073,-39.9085,4.57317
464.405,70.4997,19.312,0,9.16813,3.53984,2.42376,0.396341,-12.2866,-9.02439,-8.57177,-0.320933,4.43318,2.2561,-39.6951,4.5122
464.415,70.4061,19.6467,0,9.12023,3.23567,2.56507,-0.335366,-12.378,-9.48171,-8.39933,-0.296982,4.38528,3.20122,-39.6037,4.60366
464.425,70.3065,19.9999,0,9.05796,3.23088,2.43334,0.640244,-12.3476,-10.0915,-8.28916,-0.356858,4.47629,3.47561,-39.5427,4.69512
464.435,70.1863,20.3899,0,8.91187,3.39374,2.34472,0.884146,-12.0122,-9.90854,-8.21731,-0.364043,4.67747,4.11585,-40.061,4.87805
464.445,70.0868,20.7838,0,8.88552,3.23567,2.58902,0.518293,-12.8049,-9.7561,-8.2221,-0.378413,4.77327,4.32927,-40.4573,4.93902
464.457,69.9691,21.1884,0,8.84002,3.56379,2.39981,2.28659,-13.5671,-7.83537,-8.20773,-0.373623,4.89302,4.5122,-40.6098,5.30488
464.466,69.8565,21.5885,0,8.97414,3.71468,2.38304,1.89024,-12.6524,-6.46341,-8.18139,-0.359253,4.93374,5.33537,-40.4878,5.33537
464.475,69.7678,21.9875,0,9.02204,3.59971,2.54112,0.701219,-14.2683,-5.7622,-8.16462,-0.342488,4.99601,5.79268,-40.5183,5.2439
464.485,69.7131,22.3742,0,9.0891,3.28597,2.56028,0.243902,-13.1707,-6.31098,-8.16223,-0.344883,5.01278,6.09756,-39.939,5.21341
464.495,69.6597,22.7612,0,9.05557,3.2213,2.46448,0.0304878,-13.7805,-6.89024,-8.08798,-0.323328,5.04391,7.04268,-39.9695,5.18293
464.505,69.5969,23.1642,0,9.01964,3.36021,2.41897,0.731707,-15.3963,-6.21951,-8.06882,-0.311353,5.18761,7.43902,-40.061,5.70122
464.515,69.531,23.5779,0,9.03162,3.52068,2.33993,1.21951,-14.3598,-4.87805,-7.99458,-0.244292,5.27383,7.7439,-40.6402,6.09756
464.525,69.4589,23.9933,0,8.97893,3.58295,2.22737,0.640244,-14.3902,-4.69512,-7.90835,-0.186812,5.30736,7.43902,-40.8232,7.04268
464.535,69.3897,24.4065,0,8.91426,3.61408,2.23216,0.0609756,-14.4817,-3.81098,-7.86764,-0.191602,5.35047,7.59146,-41.9817,7.89634
464.545,69.3323,24.8147,0,8.84481,3.48475,2.30161,-0.0304878,-14.2073,-3.96341,-7.85806,-0.198787,5.40077,7.34756,-43.2317,8.44512
464.556,69.2933,25.2203,0,8.92863,3.40572,2.28724,-0.365854,-14.9695,-3.53659,-7.86524,-0.184417,5.47501,6.67683,-43.5671,8.90244
464.565,69.2752,25.6154,0,9.00767,3.24046,2.12199,0.152439,-14.5732,-3.81098,-7.91314,-0.227527,5.53729,6.58537,-43.628,8.96341
464.575,69.2737,26.0133,0,9.24478,3.19735,1.95194,0.487805,-14.3293,-3.65854,-7.90356,-0.244292,5.6259,6.82927,-44.2683,8.59756
464.585,69.2829,26.4091,0,9.36213,3.12311,1.7795,0.27439,-14.7561,-3.87195,-7.94907,-0.217947,5.73128,6.15854,-44.0244,7.92683
464.595,69.286,26.8003,0,9.40045,3.13987,1.69567,-0.365854,-13.3232,-4.35976,-7.95625,-0.210762,5.79595,5.97561,-43.3537,7.40854
464.605,69.2834,27.2275,0,9.42919,3.13987,1.57832,-0.792683,-12.1951,-5,-7.81974,-0.213157,5.97318,5.15244,-42.8963,7.10366
464.615,69.2887,27.6548,0,9.27352,2.95306,1.55676,-1.46341,-11.4329,-5.73171,-7.68562,-0.114961,5.9636,3.87195,-42.2561,6.40244
464.625,69.292,28.0685,0,9.36453,2.87881,1.54239,-3.14024,-9.63415,-7.07317,-7.58024,-0.0239502,5.90133,2.89634,-40.7317,6.03659
464.635,69.2952,28.4854,0,9.4244,2.82373,1.56395,-2.71341,-9.57317,-7.89634,-7.48204,-0.0431104,5.93007,1.55488,-39.5732,5.7622
464.645,69.2926,28.9222,0,9.53457,2.9339,1.71483,-1.46341,-9.29878,-7.62195,-7.39103,-0.0431104,6.05461,1.03659,-38.7805,5.36585
464.655,69.2679,29.3713,0,9.70701,3.28597,1.72681,-0.518293,-9.08537,-6.61585,-7.33594,-0.0502954,6.17197,0.853659,-37.9573,4.96951
464.665,69.2228,29.7986,0,9.69025,3.57337,1.54479,-1.25,-6.40244,-5.60976,-7.22338,-0.177231,6.057,1.15854,-36.7073,4.87805
464.675,69.1789,30.2232,0,9.65193,3.60211,1.55437,-2.34756,-3.71951,-5.12195,-7.17069,-0.325723,6.09053,1.52439,-35.9146,4.54268
464.685,69.1194,30.6389,0,9.3765,3.6548,1.74836,-3.38415,-3.10976,-5.09146,-7.14195,-0.452659,6.10969,2.19512,-35.2439,4.42073
464.695,69.0495,31.0504,0,8.97174,3.55421,2.019,-3.81098,-2.77439,-5.64024,-7.1635,-0.55325,6.19592,3.35366,-34.8476,4.42073
464.705,68.9789,31.4287,0,8.86876,3.42248,2.05493,-4.29878,-1.34146,-6.89024,-7.23056,-0.58199,6.15999,4.39024,-35.0915,4.54268
464.715,68.9287,31.7855,0,8.86636,3.25244,2.14115,-3.78049,-2.65244,-6.92073,-7.3551,-0.656235,6.22945,6.28049,-35.4878,5
464.725,68.8709,32.1401,0,8.9909,3.33626,2.15312,-2.77439,-4.60366,-7.34756,-7.38385,-0.555645,6.32046,8.01829,-35.9451,5.70122
464.735,68.8065,32.5105,0,9.16813,3.56379,2.14354,-1.98171,-7.46951,-6.34146,-7.3575,-0.390388,6.46655,8.93293,-36.6159,6.4939
464.745,68.728,32.9125,0,9.20406,3.76497,2.04295,-2.65244,-6.25,-5.85366,-7.2617,-0.239502,6.64857,9.48171,-37.378,7.68293
464.755,68.6336,33.3118,0,9.06275,3.82485,1.93757,-4.57317,-7.56098,-6.34146,-7.08207,-0.0718506,6.55996,10.061,-38.0793,8.71951
464.765,68.5516,33.7582,0,8.93582,3.73144,1.88009,-5.30488,-5.85366,-5.70122,-6.87131,0.0431104,6.72761,9.02439,-38.1402,9.45122
464.775,68.5025,34.2024,0,8.87834,3.39614,1.8274,-6.03659,-4.32927,-6.06707,-6.74198,0.0934058,6.69168,7.7439,-38.4146,9.84756
464.785,68.4818,34.612,0,8.71787,2.99617,2.09085,-5.15244,-6.15854,-7.28659,-6.71803,0.0383203,6.56954,6.82927,-37.6524,9.54268
464.795,68.4714,35.0168,0,9.0412,2.96264,2.00703,-3.23171,-6.95122,-7.95732,-6.71324,-0.00239502,6.63181,6.46341,-37.378,8.90244
464.805,68.4419,35.4219,0,9.22562,3.17101,1.78668,-1.40244,-9.26829,-8.23171,-6.76833,-0.0574805,6.7827,6.28049,-37.378,8.01829
464.815,68.4017,35.8327,0,9.38369,3.39614,1.54,-0.182927,-9.54268,-7.5,-6.77551,0.0862207,6.92161,5.64024,-37.1646,7.37805
464.825,68.3483,36.2551,0,9.37411,3.59492,1.31726,-1.06707,-6.92073,-6.70732,-6.69647,0.177231,7.01262,4.54268,-36.0976,7.16463
464.835,68.3241,36.6861,0,9.60163,3.42967,1.20469,-1.34146,-3.04878,-6.55488,-6.61265,0.273032,7.08207,3.65854,-35.3963,7.53049
464.845,68.3215,37.1295,0,9.46991,3.15664,1.43462,-1.12805,-3.04878,-6.89024,-6.50248,0.227527,7.14913,2.65244,-34.9085,7.37805
464.856,68.3091,37.5666,0,9.44356,3.08958,1.61903,-0.579268,-1.76829,-8.53659,-6.39949,0.162861,7.10602,2.37805,-34.6037,7.5
464.865,68.2775,37.9929,0,9.2304,3.11113,1.78429,1.0061,-2.80488,-9.48171,-6.33243,-0.00958008,7.07489,2.5,-32.9573,7.43902
464.875,68.2427,38.4183,0,9.23759,3.19017,1.74836,2.40854,-2.0122,-8.9939,-6.22705,-0.198787,7.05812,2.95732,-31.5854,6.64634
464.885,68.206,38.8319,0,9.50104,3.35063,1.65256,2.53049,-0.243902,-8.5061,-6.17436,-0.280217,7.03178,3.65854,-29.5732,6.09756
464.895,68.1478,39.2617,0,9.45793,3.70989,1.55437,2.10366,1.76829,-6.70732,-6.13843,-0.232317,7.19943,3.90244,-28.0793,5.42683
464.905,68.0595,39.7026,0,9.17053,4.02603,1.69567,0.396341,4.05488,-5.21341,-6.08095,-0.105381,7.31439,3.29268,-26.9817,5.21341
464.915,67.9865,40.1065,0,8.81128,3.76976,1.86812,-0.487805,4.05488,-4.90854,-6.09772,-0.0574805,7.20901,2.65244,-26.128,5.15244
464.925,67.942,40.4921,0,8.58854,3.34345,2.16749,0.243902,1.95122,-6.06707,-6.06898,-0.0934058,7.16111,3.35366,-25.0305,5.60976
464.935,67.8995,40.8669,0,8.66997,3.26441,2.36867,1.61585,-2.37805,-7.2561,-6.07856,-0.227527,7.20182,4.78659,-24.7256,6.09756
464.945,67.8403,41.2097,0,8.88792,3.45362,2.34233,1.95122,-5.94512,-7.80488,-6.08814,-0.450264,7.10363,7.07317,-24.4207,6.15854
464.956,67.7256,41.5313,0,8.91905,3.95897,2.28245,-0.640244,-6.21951,-8.07927,-6.04024,-0.617915,7.00064,10.122,-23.9939,5.94512
464.965,67.6103,41.8606,0,9.06275,4.10746,2.21779,-4.81707,-4.2378,-7.46951,-5.8654,-0.728086,6.924,12.6524,-23.3537,5.73171
464.975,67.4354,42.2167,0,8.81128,4.65352,2.39981,-8.38415,-4.39024,-6.70732,-5.70733,-0.59157,6.98148,14.0854,-23.8415,5.51829
464.985,67.1995,42.5983,0,8.21492,5.13971,2.34233,-11.7683,-3.59756,-4.29878,-5.60195,-0.285007,7.10123,14.5122,-24.7256,6.64634
464.995,66.9258,43.0157,0,7.49641,4.6176,2.40699,-15.3354,-3.01829,-2.22561,-5.5301,-0.00239502,7.34073,13.3841,-26.4024,7.86585
465.006,66.7471,43.4283,0,7.41738,3.84401,2.56986,-15.6402,-8.87195,-1.92073,-5.55884,0.399968,7.45809,11.5244,-27.4085,9.57317
465.015,66.6652,43.8213,0,7.75268,3.57816,2.58902,-14.9695,-17.4695,-1.34146,-5.67141,0.708926,7.58503,8.78049,-27.6524,11.2805
465.025,66.6365,44.1589,0,8.3682,3.68114,2.23934,-15.5793,-21.1585,-1.61585,-5.9133,0.855022,7.62574,5.64024,-28.0183,12.0732
465.035,66.6049,44.4262,0,8.7993,3.81048,1.79147,-17.7744,-21.5244,-3.10976,-6.23184,0.795146,7.63293,2.83537,-27.7439,11.9512
465.046,66.577,44.6481,0,9.15376,3.78653,1.46575,-20.5793,-20.7012,-4.7561,-6.45458,0.58678,7.66167,1.15854,-28.7195,10.3659
465.055,66.5537,44.8131,0,9.2352,3.58295,1.35319,-21.1585,-21.128,-6.92073,-6.75395,0.270637,7.67843,0.914634,-30.2439,8.01829
465.065,66.5643,44.9329,0,9.50104,3.1255,1.01549,-19.8476,-15.9756,-9.60366,-6.88568,0.0335303,7.56347,1.70732,-31.25,4.84756
465.075,66.6009,45.0576,0,9.59445,2.79499,0.747246,-16.7378,-14.0549,-10.9451,-6.88568,-0.0694556,7.62574,3.56707,-32.5915,2.9878
465.085,66.65,45.187,0,10.107,2.7902,0.58678,-11.1585,-12.5915,-11.25,-6.77072,-0.0359253,7.56347,5.39634,-32.5,1.06707
465.095,66.6769,45.3972,0,10.3034,3.13508,0.335303,-7.31707,-12.5305,-10.3659,-6.42823,0.323328,7.75028,6.34146,-33.9939,1.03659
465.105,66.7058,45.5825,0,10.1812,3.28118,0.299377,-4.45122,-8.47561,-8.20122,-6.33243,0.61073,7.52276,5.88415,-33.4451,1.64634
465.115,66.7862,45.8179,0,10.0615,2.8357,0.330513,-2.22561,-2.19512,-7.22561,-6.24861,0.766406,7.81495,5.73171,-34.7866,2.95732
465.125,66.9266,46.0578,0,10.0854,2.26329,0.519719,1.4939,0.518293,-7.2561,-6.12406,0.831072,7.75507,4.90854,-34.9695,4.7561
465.135,67.0629,46.2148,0,10.107,2.16749,0.63947,6.12805,4.02439,-8.47561,-6.29651,0.632285,7.46528,4.63415,-33.9329,5
465.145,67.1658,46.3905,0,10.0878,2.25371,0.989143,8.87195,7.56098,-10.6098,-6.25819,0.60594,7.58742,4.69512,-34.0549,5.12195
465.155,67.2194,46.5637,0,9.91059,2.47406,1.27655,12.439,7.77439,-12.5305,-6.23184,0.445474,7.58503,5.15244,-34.2988,4.11585
465.165,67.2273,46.7542,0,9.83395,2.80696,1.28613,15.2439,7.31707,-13.1707,-6.18873,0.316143,7.69759,6.03659,-35.0915,3.01829
465.175,67.1748,46.9722,0,9.51062,3.13508,1.35558,15.8537,7.40854,-14.6037,-6.08814,0.273032,7.81495,7.07317,-35.8232,1.79878
465.185,67.0879,47.2299,0,9.29028,3.44404,1.30529,12.5915,9.87805,-13.9329,-5.90133,0.280217,7.91793,6.61585,-35.8537,1.43293
465.195,66.9824,47.4885,0,8.84241,3.5087,1.90404,11.8293,5.70122,-13.3537,-5.87259,0.308958,7.96104,6.55488,-35.4573,2.13415
465.205,66.8442,47.8177,0,8.65081,3.59732,2.15073,11.6463,2.71341,-15,-5.58519,0.340093,8.16462,5.7622,-35.9146,3.2622
465.215,66.7319,48.1334,0,8.96216,3.42967,2.17468,11.189,-0.457317,-15.9756,-5.47262,0.385598,7.99697,5.88415,-35.3049,4.93902
465.225,66.5901,48.4478,0,8.83044,3.56139,2.13875,10.2134,-5.67073,-17.1341,-5.55166,0.253872,8.20055,6.09756,-34.5122,5.36585
465.235,66.4112,48.8277,0,9.29268,4.04519,1.68849,6.37195,-7.62195,-18.0183,-5.24988,0.294587,8.35862,5.64024,-34.6646,5.60976
465.245,66.1629,49.2297,0,9.22801,4.60802,1.50168,-0.213415,-8.35366,-19.3293,-5.1469,0.308958,8.50232,5.06098,-33.9024,5.54878
465.255,65.91,49.5917,0,9.14418,4.69424,1.45378,-8.38415,-6.85976,-18.9939,-5.28341,0.253872,8.52387,4.39024,-33.2622,4.96951
465.265,65.6607,50.0033,0,9.14418,4.63676,1.97589,-13.75,-5.60976,-19.7256,-5.08463,0.347278,8.74422,3.71951,-32.6524,4.78659
465.275,65.3896,50.4025,0,8.7035,4.56491,2.42615,-16.4634,-8.90244,-20.8537,-4.95051,0.256267,8.55022,3.81098,-31.4329,3.93293
465.285,65.1547,50.8092,0,8.79451,4.31822,2.07648,-19.4207,-11.4024,-20.8232,-4.90021,0.282612,8.66997,5.30488,-30.0915,3.04878
465.295,64.9484,51.2412,0,8.87355,4.14099,1.43701,-22.6524,-9.78659,-20.7012,-4.90739,0.0910107,9.06515,5.91463,-29.4817,2.2561
465.305,64.7982,51.6986,0,9.06515,3.81766,1.07536,-22.1951,-9.42073,-19.8476,-4.6655,0.122146,9.02204,5.64024,-27.622,1.15854
465.315,64.6601,52.15,0,8.84241,3.72186,1.33403,-21.0671,-12.1341,-18.9329,-4.61281,0.268242,9.0412,3.84146,-25.8232,0.152439
465.325,64.5275,52.5942,0,9.23999,3.90628,1.43462,-18.628,-6.43293,-18.4756,-4.55772,0.62989,9.04359,2.56098,-23.2012,0.97561
465.335,64.3918,53.0745,0,8.82086,3.91825,1.34121,-14.6951,-11.128,-16.9512,-4.24397,0.665815,8.943,0.792683,-22.2256,2.2561
465.345,64.2813,53.4905,0,8.88552,3.87754,1.26457,-12.439,-8.68902,-15.4268,-4.29427,0.486189,8.6053,0.426829,-20.122,2.2561
465.355,64.1944,53.8933,0,9.09868,3.78892,1.20948,-10.2134,-6.85976,-15.2134,-4.28229,0.423918,8.61489,0.579268,-18.9634,2.40854
465.365,64.1125,54.2646,0,9.20166,3.73144,1.19032,-8.62805,-5.7622,-15.9756,-4.33259,0.0934058,8.56938,0.487805,-17.9878,1.40244
465.375,64.0289,54.6644,0,9.13939,3.69552,1.45378,-7.56098,-4.96951,-16.4329,-4.01884,0.0598755,8.34185,0.792683,-17.1037,1.09756
465.385,63.9266,55.0594,0,9.02922,3.80329,1.16158,-6.25,-3.38415,-16.8293,-3.9901,-0.107776,8.38736,1.43293,-16.189,1.09756
465.395,63.7787,55.4707,0,8.87834,4.26074,0.950823,-4.14634,-2.34756,-15.9756,-3.8943,-0.0167651,8.49274,1.46341,-15.9756,1.18902
465.405,63.6259,55.8742,0,8.41131,4.30385,1.38672,-3.44512,-5.51829,-13.811,-3.73623,0,8.23168,2.28659,-14.5427,1.85976
465.415,63.4839,56.2319,0,8.48316,4.42121,1.43222,-1.67683,-5.4878,-12.1341,-3.72186,-0.00239502,7.92751,3.14024,-11.6463,2.65244
465.425,63.35,56.6039,0,8.15744,4.39726,1.49689,-1.46341,-6.12805,-9.96951,-3.6548,-0.0311353,8.04727,4.05488,-10.061,3.65854
465.435,63.243,56.9437,0,8.34664,4.37331,1.61664,-0.304878,-5.15244,-8.87195,-3.70989,-0.296982,8.00416,4.93902,-9.69512,3.87195
465.446,63.1812,57.2316,0,8.68434,4.08111,1.54958,0.304878,-2.16463,-9.54268,-3.85359,-0.292192,7.95865,5.51829,-10.1524,2.04268
465.455,63.1096,57.6027,0,8.68434,4.06674,1.42743,-0.792683,-3.5061,-10.8232,-3.59492,0.00479004,8.28677,6.0061,-11.0366,2.59146
465.465,63.0431,57.9116,0,8.67476,3.96615,1.46336,-2.28659,-2.65244,-11.5244,-3.78413,0.0479004,8.24605,5.70122,-10.3354,2.89634
465.475,62.968,58.2504,0,8.35383,3.9925,1.65496,-2.19512,-2.13415,-10.5488,-3.66198,0.244292,8.38975,4.7561,-8.71951,3.78049
465.485,62.876,58.6004,0,8.01134,4.09788,1.31247,-2.37805,-3.38415,-9.26829,-3.57097,0.390388,8.4161,3.20122,-6.58537,4.02439
465.495,62.8349,58.9518,0,8.62926,4.10027,1.11129,-1.25,-3.78049,-7.68293,-3.64282,0.471819,8.7035,0.97561,-5.03049,4.63415
465.506,62.7862,59.2722,0,8.68195,4.34217,1.39869,-2.22561,-2.40854,-6.18902,-3.70989,0.534089,8.63884,-1.40244,-4.48171,4.63415
465.515,62.7225,59.6104,0,8.43047,4.49785,1.32684,-3.44512,-2.68293,-4.69512,-3.76018,0.58199,8.42568,-2.28659,-2.53049,4.42073
465.525,62.6684,60.0289,0,8.52866,4.57449,1.34121,-2.95732,-2.7439,-3.5061,-3.90867,0.469424,8.58375,-2.7439,-1.28049,3.93293
465.535,62.6002,60.3439,0,8.61968,4.76848,1.44659,-2.83537,-6.25,-3.47561,-4.16494,0.285007,8.67955,-2.34756,-1.03659,3.35366
465.545,62.5399,60.4996,0,8.88792,4.86668,1.36995,-3.10976,-5,-3.38415,-4.43797,0.00958008,8.72745,-1.82927,-1.4939,1.95122
465.555,62.4694,60.6167,0,8.96695,4.99362,1.41546,-3.56707,-4.42073,-3.71951,-4.57209,-0.134121,9.06515,-0.853659,-2.92683,1.40244
465.565,62.4076,60.7431,0,9.14658,5.01996,1.17356,-3.04878,1.4939,-3.75,-4.50982,-0.158071,9.13939,-0.426829,-4.42073,1.28049
465.575,62.3343,60.8866,0,8.87355,4.89781,1.39151,-2.68293,3.38415,-4.78659,-4.41881,-0.0958008,9.19209,-0.0304878,-6.15854,1.7378
465.585,62.2402,61.0418,0,8.54064,4.86189,1.52323,-1.31098,0.457317,-5.51829,-4.36133,-0.0191602,9.25436,-0.0609756,-6.79878,2.40854
465.595,62.1533,61.1721,0,8.79212,4.82836,1.39869,-1.40244,2.59146,-6.79878,-4.46432,0.0646655,9.27352,0.335366,-7.2561,3.20122
465.605,62.0599,61.3447,0,8.8472,4.8092,1.59508,-0.823171,-2.89634,-8.14024,-4.26792,0.146096,9.35974,1.09756,-8.47561,4.08537
465.616,61.9702,61.4955,0,9.38848,4.85231,1.16398,0.518293,1.15854,-10.3963,-4.40444,0.201182,9.49146,1.70732,-9.20732,4.5122
465.625,61.8604,61.6307,0,9.06515,4.89063,1.60466,1.85976,-5.09146,-10.5488,-4.50024,0.256267,9.58966,1.4939,-9.81707,4.7561
465.635,61.7243,61.8015,0,9.19209,5.19001,1.45617,2.77439,-2.68293,-11.2195,-4.27271,0.474214,9.54894,0.609756,-10.2744,5.12195
465.645,61.5805,61.8859,0,8.79691,5.04152,1.69088,3.04878,-5.88415,-11.5244,-4.66071,0.570015,9.50583,-0.426829,-10.4573,5.73171
465.655,61.483,62.0377,0,9.29986,4.8068,1.33642,4.20732,2.13415,-12.1646,-4.45713,0.766406,9.85311,-1.55488,-12.0732,6.15854
465.665,61.3538,62.1574,0,9.23999,4.91698,1.55676,4.2378,-1.0061,-14.2073,-4.50503,0.878972,9.65911,-3.07927,-13.0793,6.55488
465.675,61.2042,62.2309,0,9.20646,5.03673,1.65256,3.62805,-0.731707,-15.1829,-4.69184,0.874182,9.59684,-3.84146,-13.3537,6.79878
465.685,61.0415,62.3278,0,9.31184,5.14211,1.46815,2.9878,2.28659,-16.372,-4.59365,0.761616,9.67827,-3.96341,-13.872,6.85976
465.695,60.8872,62.4337,0,9.28789,4.98404,1.48731,4.42073,2.16463,-17.2561,-4.44995,0.505349,9.51302,-3.90244,-14.4817,6.55488
465.705,60.7083,62.5328,0,9.00048,4.96248,1.74357,5.82317,-1.55488,-18.75,-4.43797,0.316143,9.45793,-3.41463,-14.8476,6.46341
465.715,60.5341,62.6339,0,9.12502,4.8571,1.65975,8.17073,-0.792683,-20.3659,-4.47869,0.179626,9.60882,-2.40854,-15.1524,6.21951
465.725,60.357,62.7506,0,9.45554,4.8571,1.45138,8.29268,0.609756,-22.7134,-4.43558,0.112566,9.73336,-1.64634,-16.1585,6.89024
465.735,60.169,62.8692,0,9.54176,4.79722,1.70046,9.66463,-4.2378,-25.2134,-4.40205,0.0862207,9.73336,-0.426829,-16.7073,7.65244
465.745,59.9796,62.9942,0,10.2818,5.03912,1.09213,10.0305,6.95122,-26.9207,-4.35415,0.184417,9.75252,0.152439,-17.1341,8.38415
465.755,59.713,63.1358,0,9.35495,5.22593,1.70525,10.0305,0.487805,-28.9024,-4.24397,0.234712,9.75491,-0.365854,-16.6159,9.17683
465.765,59.4499,63.2813,0,9.3789,5.0511,1.48012,10.7927,8.56707,-30.8841,-4.16733,0.292192,9.69025,-0.243902,-16.189,9.29878
465.776,59.1422,63.3933,0,8.85918,5.04391,1.64777,10.8841,5.79268,-33.2317,-4.26074,0.373623,9.58487,-0.27439,-15.4573,8.75
465.785,58.823,63.5029,0,8.82804,4.96727,1.76034,11.8598,2.46951,-35.6098,-4.29187,0.409548,9.67827,0,-15.3049,8.32317
465.795,58.4749,63.6055,0,8.90708,5.18282,1.56155,11.7073,3.41463,-37.5305,-4.33978,0.409548,9.75491,-0.518293,-15.3049,8.59756
465.805,58.0936,63.7177,0,8.74901,5.40795,1.65017,11.4024,1.40244,-38.5061,-4.26553,0.433499,9.74533,-0.914634,-15.7317,8.71951
465.815,57.6941,63.8451,0,8.77775,5.76242,1.60466,10.4268,4.78659,-37.9573,-4.14338,0.445474,9.69264,-1.09756,-16.311,9.42073
465.826,57.28,63.9642,0,8.66518,5.99234,1.88967,10.0305,4.93902,-37.439,-4.09069,0.433499,9.53218,-1.7378,-16.2195,10
465.835,56.868,64.084,0,8.44005,5.87498,1.92799,9.05488,3.04878,-37.7134,-4.04998,0.438289,9.49865,-2.19512,-16.0976,10.9451
465.845,56.4737,64.203,0,8.72027,5.79116,1.79387,8.17073,3.84146,-39.2988,-4.02603,0.387993,9.48907,-2.7439,-16.2805,11.5854
465.855,56.0633,64.3122,0,8.56699,5.69775,1.94236,7.71341,3.75,-41.6768,-4.01166,0.342488,9.39327,-2.07317,-17.3171,12.0427
465.865,55.6224,64.4401,0,8.52148,5.9157,1.91123,8.56707,2.28659,-43.2927,-3.88951,0.282612,9.36692,-1.18902,-18.9024,11.7378
465.875,55.1485,64.5519,0,8.48795,6.31806,1.6837,7.59146,2.77439,-43.689,-3.86796,0.215552,9.1849,0.243902,-20.2439,11.2195
465.885,54.6637,64.6758,0,8.06164,6.21747,1.48012,7.59146,3.38415,-43.7805,-3.72665,0.0790356,9.03162,0.914634,-20.7927,10.6098
465.895,54.205,64.8235,0,7.85087,5.83906,1.57832,7.77439,2.34756,-44.1463,-3.59971,0.0455054,9.04599,0.823171,-20.9756,10.4268
465.905,53.7634,64.9902,0,7.62574,5.44148,1.54718,8.29268,1.15854,-45.6402,-3.45362,0.0694556,8.96456,1.06707,-20.9756,10.0305
465.915,53.3317,65.1712,0,7.70717,5.2882,1.75794,9.14634,0.27439,-47.6829,-3.37219,0.275427,8.99809,0.914634,-20.9756,10.8841
465.925,52.8544,65.3581,0,7.8389,5.94683,1.4921,8.96341,-0.731707,-47.6524,-3.3674,0.443079,9.14179,0.884146,-22.8354,12.4695
465.935,52.3558,65.4973,0,7.89877,6.47374,1.31726,8.29268,0.0609756,-46.4024,-3.45122,0.550855,8.87834,0.823171,-23.3841,14.2073
465.945,51.856,65.6504,0,7.62574,6.62941,1.2526,8.14024,1.09756,-44.1463,-3.42488,0.57241,9.0388,1.03659,-23.4451,14.8171
465.955,51.3749,65.8158,0,7.45091,6.44979,1.33403,7.7439,1.25,-43.5061,-3.34345,0.457449,9.0412,0.152439,-24.6037,14.7256
465.965,50.9342,65.9824,0,7.63293,6.27016,1.24062,8.07927,1.28049,-43.3841,-3.27639,0.352068,8.95258,0.426829,-24.939,13.6585
465.975,50.5135,66.173,0,7.67604,6.1552,1.1065,7.9878,3.56707,-43.628,-3.17819,0.316143,9.05796,0.609756,-26.189,11.9817
465.985,50.0994,66.3822,0,7.51797,5.89654,1.09931,9.60366,4.54268,-45.061,-3.09437,0.320933,9.15376,0.945122,-26.9817,11.4939
465.995,49.6666,66.5787,0,7.2114,5.8175,1.18314,10.3659,3.87195,-46.2195,-3.05604,0.299377,8.98372,1.43293,-26.4024,10.9451
466.005,49.2303,66.7839,0,7.28086,5.88217,1.10171,11.9817,1.46341,-47.378,-2.97701,0.265847,8.96695,1.34146,-25.4878,11.4329
466.015,48.7765,67.001,0,7.61377,6.27974,0.969983,12.8354,-0.97561,-48.872,-2.96743,0.311353,9.20885,0.914634,-25.8232,11.7378
466.025,48.3033,67.2071,0,7.58263,6.62462,0.895737,12.8049,0.853659,-48.4451,-3.01293,0.395178,9.31184,-0.243902,-27.439,12.8354
466.035,47.8354,67.4134,0,7.48444,6.72042,0.955613,12.6829,4.17683,-47.2866,-2.97222,0.423918,9.29986,-1.09756,-28.3232,12.9573
466.045,47.3757,67.629,0,7.42456,6.81862,1.11847,12.378,4.32927,-46.0976,-2.87881,0.443079,9.25196,-1.64634,-28.6585,12.9878
466.056,46.9278,67.8362,0,7.22338,6.65815,1.27894,11.25,6.34146,-45.6098,-2.83091,0.423918,9.10107,-2.65244,-28.0183,13.0488
466.065,46.4794,68.0555,0,6.924,6.53361,1.3484,10.7012,6.12805,-45.2134,-2.73751,0.385598,9.09149,-3.44512,-26.7378,12.3476
466.075,46.032,68.2873,0,6.88329,6.67971,1.31247,10.9756,3.90244,-44.3902,-2.66566,0.385598,9.16334,-3.62805,-26.1585,11.8293
466.085,45.6036,68.5255,0,6.98867,6.76114,1.0083,10.4878,3.35366,-43.5366,-2.56028,0.354463,9.03401,-3.87195,-25.0305,11.128
466.095,45.1644,68.7533,0,6.76833,6.86652,1.01309,9.69512,0.548781,-42.7439,-2.56267,0.368833,9.02922,-3.78049,-24.8171,10.9756
466.105,44.7541,68.9963,0,6.924,6.69408,1.03944,8.56707,4.02439,-43.5061,-2.46687,0.323328,9.06036,-4.08537,-24.5732,11.0976
466.116,44.3305,69.2274,0,6.71563,6.7348,1.35798,7.07317,1.82927,-43.5671,-2.46208,0.225132,9.01006,-3.75,-23.5976,11.0366
466.125,43.9094,69.4738,0,6.85694,7.01262,1.24302,6.89024,2.71341,-43.0183,-2.3567,0.184417,9.00527,-3.29268,-23.0793,10.9756
466.135,43.4962,69.7214,0,6.94795,7.16111,1.09452,5.88415,2.83537,-42.622,-2.28964,0.100591,8.92624,-2.86585,-22.5,10.6098
466.145,43.0299,69.9766,0,6.11688,7.19703,1.83698,6.0061,-7.5,-41.189,-2.21539,0.0981958,8.92384,-2.2561,-22.0427,10
466.156,42.6578,70.2354,0,6.924,7.08926,0.764011,4.57317,8.07927,-40.6098,-2.15791,0.0239502,8.92384,-1.76829,-21.2195,8.9939
466.165,42.2935,70.5009,0,6.69168,6.9264,0.850232,4.84756,9.20732,-39.939,-2.07888,0.0167651,8.89271,-0.97561,-20.122,8.9939
466.175,41.9391,70.7712,0,6.29172,6.70605,1.15679,5.94512,1.55488,-37.9573,-2.00224,0.0287402,8.83523,-0.335366,-19.0244,8.38415
466.185,41.6252,71.0412,0,6.48811,6.6366,1.0562,7.86585,3.14024,-36.9512,-1.9711,0.0407153,8.89271,-0.27439,-17.8963,8.14024
466.195,41.3241,71.3178,0,6.55517,6.65815,0.843047,8.47561,2.5,-36.7073,-1.89925,0.102986,8.89271,0.0609756,-16.5854,8.56707
466.205,41.0189,71.6022,0,6.27495,6.52643,0.996328,7.92683,0.518293,-36.3415,-1.83219,0.213157,8.943,-0.152439,-15.4573,9.17683
466.215,40.7437,71.8834,0,6.51685,6.3947,0.811912,9.20732,7.62195,-37.3171,-1.7771,0.285007,8.84002,0.0609756,-13.9634,10.1524
466.225,40.4649,72.1671,0,6.26058,6.23184,0.912502,11.9207,4.60366,-37.4085,-1.71483,0.332908,8.81128,-0.213415,-12.378,10.7927
466.235,40.1571,72.4454,0,6.0594,6.57193,0.888552,13.5976,2.56098,-35.9146,-1.6813,0.308958,8.76338,-1.06707,-10.9451,10.8841
466.245,39.8589,72.7331,0,6.31806,6.98148,0.598755,13.9024,6.67683,-34.4817,-1.60227,0.296982,8.78254,-1.28049,-9.54268,10.2134
466.255,39.5887,73.0144,0,6.36357,6.94556,0.608335,13.2317,5.51829,-32.9573,-1.57113,0.304167,8.72027,-2.22561,-8.32317,9.20732
466.265,39.3168,73.2754,0,6.26058,7.13237,0.874182,12.378,4.90854,-31.189,-1.59987,0.193997,8.66758,-2.89634,-7.10366,8.59756
466.275,39.0623,73.5183,0,6.31088,7.18506,0.730481,12.5915,5.54878,-30,-1.6358,0.0862207,8.62686,-2.92683,-5.64024,7.19512
466.286,38.7919,73.7506,0,6.04742,7.20661,0.799937,11.5854,3.93293,-29.5122,-1.67891,-0.00958008,8.69871,-2.89634,-4.60366,6.31098
466.295,38.5342,73.9816,0,6.04982,7.12758,0.857417,10.3354,3.14024,-29.4207,-1.74118,-0.0431104,8.75619,-2.65244,-3.38415,6.15854
466.305,38.2636,74.347,0,5.80792,7.19464,0.840652,9.11585,3.65854,-28.3841,-1.7795,-0.0143701,8.73224,-2.40854,-1.52439,6.06707
466.315,38.0533,74.9439,0,5.98755,6.78749,0.972378,9.7561,10.1829,-27.8963,-1.85375,0.00479004,8.73703,-2.56098,-0.396341,6.25
466.325,37.7803,75.287,0,5.42951,7.01022,0.941243,7.86585,-0.0914634,-27.2561,-1.85375,0.0502954,8.72985,-3.01829,0.945122,6.46341
466.335,37.5534,75.5376,0,5.73368,6.95035,1.12087,7.16463,4.96951,-26.7073,-1.9256,0.0886157,8.8975,-2.59146,0.945122,6.34146
466.345,37.3829,75.7212,0,6.36117,7.21619,0.749641,8.01829,8.04878,-25.2439,-1.96152,0.174836,8.97893,-1.82927,1.12805,6.52439
466.355,37.1532,75.8159,0,5.93965,7.72154,1.23583,6.28049,-0.304878,-23.811,-2.0214,0.205972,9.0867,-2.28659,2.13415,6.28049
466.365,36.959,75.8812,0,6.29172,7.89398,0.998723,6.98171,5,-22.6829,-2.06211,0.261057,9.16574,-2.7439,3.32317,6.15854
466.375,36.7436,75.921,0,6.04024,8.01853,1.02507,7.65244,4.72561,-22.0427,-2.14115,0.203577,9.17772,-3.10976,4.26829,5.88415
466.385,36.5033,75.9479,0,5.81032,8.11912,1.03704,4.7561,1.40244,-22.1646,-2.213,0.186812,9.29986,-3.5061,5,5.12195
466.395,36.2554,75.9718,0,5.56842,8.09038,1.2023,2.5,1.79878,-21.2805,-2.23934,0.165256,9.38129,-3.59756,5.57927,4.42073
466.405,36.0162,75.9831,0,5.51094,8.03769,1.17595,1.0061,-0.518293,-20.7012,-2.28964,0.148491,9.38129,-3.56707,6.03659,3.75
466.415,35.8041,75.9873,0,5.55884,7.81974,1.2502,1.55488,-3.62805,-20.3963,-2.36149,0.158071,9.55613,-3.71951,5.94512,3.10976
466.425,35.5885,75.9821,0,5.62351,8.00416,1.27415,2.10366,-8.20122,-20.5488,-2.40699,0.138911,9.57289,-3.62805,6.25,3.29268
466.435,35.4027,75.9721,0,5.82708,7.82213,1.11129,3.2622,-10.8841,-21.189,-2.44771,0.105381,9.64714,-2.10366,6.79878,3.07927
466.445,35.208,75.961,0,5.9612,8.05206,0.960403,4.39024,-11.7378,-22.1341,-2.48603,0.134121,9.77407,-1.85976,7.5,3.53659
466.455,34.9569,75.9445,0,5.58279,8.22929,0.969983,2.37805,-12.7744,-23.4756,-2.52675,0.0981958,9.83156,-1.34146,8.44512,3.90244
466.465,34.7502,75.9189,0,6.23903,8.25563,0.589175,2.19512,-3.47561,-25.4268,-2.57704,0.0670605,9.8555,-1.40244,9.63415,4.17683
466.475,34.4621,75.9102,0,5.45585,8.28198,1.09213,2.95732,-13.2927,-26.5854,-2.5004,0.0359253,9.84593,-1.06707,10.6402,4.45122
466.486,34.2028,75.911,0,5.68099,8.09517,0.773591,2.80488,-8.65854,-27.6829,-2.43813,0.0167651,9.76928,-0.884146,11.0671,4.81707
466.495,33.9424,75.9155,0,5.6738,8.10235,0.857417,1.25,-6.89024,-28.2012,-2.38065,-0.0479004,9.60642,-0.762195,11.9512,5.39634
466.505,33.6665,75.9252,0,5.58279,8.21731,0.924478,0.396341,-7.53049,-28.6585,-2.33035,-0.0311353,9.50583,-0.823171,13.0183,5.39634
466.515,33.4071,75.9261,0,5.76242,8.32509,0.883762,0.152439,-6.58537,-28.5671,-2.33993,-0.0479004,9.39566,-0.823171,13.5061,5.70122
466.525,33.1623,75.9316,0,5.81271,8.28677,0.926873,0.640244,-5.39634,-28.3232,-2.32317,-0.0526904,9.41243,-0.670732,14.2988,5.39634
466.535,32.9191,75.9494,0,5.76481,8.38975,0.924478,1.15854,-5.39634,-27.5305,-2.29203,-0.00239502,9.51541,-0.457317,15.2134,5.42683
466.545,32.6852,75.9494,0,5.80553,8.26521,0.608335,2.5,-3.84146,-28.2927,-2.36867,0.0958008,9.5202,-0.487805,16.0366,5.42683
466.555,32.4289,75.9399,0,5.57082,8.13349,0.541274,4.05488,-3.32317,-29.6646,-2.37346,0.129331,9.3789,-0.487805,17.8963,5.27439
466.565,32.167,75.9122,0,5.46064,8.05445,0.692161,4.66463,-5.57927,-30.2134,-2.42615,0.253872,9.27352,-0.731707,20.0305,5.39634
466.575,31.8979,75.8828,0,5.4343,7.99937,0.490979,4.05488,-5.2439,-31.5854,-2.47406,0.316143,9.41722,-0.823171,22.1646,5.45732
466.585,31.6022,75.8491,0,5.23791,8.04487,0.627495,6.46341,-4.63415,-32.561,-2.56267,0.316143,9.65911,-0.853659,22.0122,5.79268
466.595,31.2665,75.7836,0,5.18522,8.6101,0.426313,4.93902,-7.19512,-33.1402,-2.64171,0.186812,9.39806,-0.152439,21.4634,5.45732
466.605,30.9634,75.6811,0,5.29539,8.32269,0.637075,5.57927,-10.5488,-33.3841,-2.63692,0.0742456,8.79691,1.21951,23.6585,5.2439
466.615,30.6272,75.6218,0,5.01996,8.45681,0.63468,8.29268,-10.1829,-33.75,-2.60818,-0.0311353,9.28549,0.97561,25.8841,5.03049
466.625,30.2868,75.5812,0,4.88344,8.45442,0.56283,8.35366,-9.35976,-33.4756,-2.63692,-0.155676,9.65193,1.58537,24.939,5.30488
466.635,29.9726,75.5231,0,5.13971,8.47597,0.735271,9.17683,-7.46951,-33.9939,-2.67284,-0.249082,9.46991,2.7439,24.7561,5.60976
466.645,29.6725,75.4559,0,5.22114,8.35143,0.759221,9.35976,-4.96951,-34.7866,-2.69679,-0.251477,9.37411,4.35976,25.4573,5.70122
466.655,29.3584,75.397,0,5.09181,8.36101,0.931663,9.96951,-5.33537,-35.4573,-2.67763,-0.189207,9.40285,4.72561,27.1037,6.34146
466.665,29.047,75.3266,0,5.1948,8.59093,0.845442,8.59756,-6.58537,-35.4573,-2.76864,-0.148491,9.50583,4.87805,28.689,6.67683
466.675,28.6861,75.2269,0,4.79004,8.78493,0.706531,7.10366,-6.79878,-35.9146,-2.84528,-0.0407153,9.2807,5.09146,29.9085,7.19512
466.685,28.3092,75.1167,0,4.58886,8.98611,0.5772,5.2439,-8.2622,-35.122,-2.89797,0.110171,9.24717,4.2378,31.4024,7.34756
466.695,27.9201,74.9828,0,4.35654,9.00767,0.570015,3.32317,-11.0976,-34.6037,-3.05365,0.153281,9.34058,4.35976,32.1951,7.22561
466.705,27.5344,74.8222,0,4.30385,8.8975,0.62031,2.95732,-12.4085,-35.061,-3.11592,0.222737,9.09389,4.5122,32.5,6.67683
466.716,27.1623,74.6339,0,4.38289,8.82565,0.675395,4.78659,-12.5,-35.6707,-3.1734,0.155676,8.83044,4.60366,33.2927,6.0061
466.725,26.7809,74.4165,0,4.33259,8.91666,0.761616,4.05488,-13.4451,-36.372,-3.29076,0.148491,8.71308,5.33537,33.4756,5.7622
466.735,26.4001,74.1869,0,4.31822,9.01006,0.768801,2.92683,-12.5915,-36.4634,-3.33387,0.117356,8.58854,6.0061,33.5366,5.42683
466.745,26.0296,73.9431,0,4.28469,9.03641,0.555645,2.46951,-11.0366,-35.7012,-3.39374,0.0790356,8.48316,6.76829,33.4451,5.06098
466.755,25.6751,73.6643,0,4.30385,9.08431,0.318538,0.823171,-10.3963,-34.7866,-3.48954,0.0191602,8.24845,7.5,33.5976,5.39634
466.765,25.3657,73.3817,0,4.5194,8.96935,0.486189,-0.27439,-9.87805,-33.75,-3.56379,0.0359253,8.2724,7.59146,33.5976,4.96951
466.775,25.1023,73.1126,0,4.75651,8.79451,0.249082,0.27439,-8.07927,-33.0793,-3.62606,0.0766406,8.44005,8.07927,32.8963,5.36585
466.785,24.8591,72.8365,0,4.87626,8.70111,0.0718506,0.426829,-4.2378,-33.3232,-3.65719,0.177231,8.32988,8.10976,31.8598,5.33537
466.796,24.6354,72.5411,0,4.87626,8.54782,0.241897,1.4939,-2.43902,-32.7134,-3.73863,0.263452,8.21731,7.71341,31.8598,5.33537
466.805,24.4231,72.2545,0,4.85949,8.44484,0.246687,3.2622,-0.548781,-32.439,-3.76976,0.416733,8.25324,7.07317,29.8171,5.39634
466.815,24.2087,71.9848,0,4.73016,8.40891,0.198787,4.17683,1.55488,-31.9512,-3.72186,0.536484,8.19815,6.25,27.9573,5.39634
466.825,24.0144,71.6999,0,4.6631,8.31072,0.0694556,4.45122,4.57317,-30.2134,-3.71707,0.64905,7.94188,5.91463,26.1585,5.67073
466.835,23.8534,71.4309,0,4.64155,8.1287,0.203577,7.71341,8.38415,-28.0793,-3.68594,0.740061,7.91554,4.96951,24.6951,5.85366
466.846,23.6778,71.1808,0,4.32541,8.11672,0.0862207,9.11585,9.5122,-26.4939,-3.67635,0.744851,7.96584,3.68902,22.4695,6.40244
466.856,23.5065,70.913,0,4.19368,8.18618,0.129331,9.11585,13.1402,-24.5122,-3.69073,0.699346,7.74549,2.62195,20.9146,5.70122
466.865,23.318,70.6507,0,3.9446,8.29395,0.196392,9.39024,15.2439,-23.1707,-3.65719,0.493374,7.62814,2.0122,19.6037,5.91463
466.875,23.092,70.4324,0,3.57576,8.33467,0.0766406,9.60366,16.7988,-22.8659,-3.63085,0.364043,7.86524,1.64634,16.8293,5.39634
466.885,22.8514,70.2036,0,3.40093,8.31311,0.167651,10.4573,13.5976,-22.8354,-3.6069,0.155676,7.64011,1.25,14.4207,5.09146
466.895,22.568,69.9789,0,3.13987,8.64363,0.402363,9.96951,8.68902,-23.0183,-3.58295,-0.0383203,7.54431,1.82927,13.5061,4.72561
466.905,22.2706,69.7706,0,2.99377,8.85678,0.268242,7.68293,1.31098,-22.4085,-3.6548,-0.0981958,7.75747,2.04268,11.2195,4.32927
466.916,21.9634,69.5513,0,2.97222,8.97414,0.301772,8.2622,-1.4939,-23.2927,-3.65719,-0.105381,7.59461,1.79878,10.4573,4.20732
466.925,21.5927,69.4096,0,2.52435,9.34776,0.675395,5.4878,-3.81098,-23.8415,-3.65719,0.00718506,8.2221,1.76829,9.29878,3.81098
466.935,21.235,69.2862,0,2.52914,9.25675,0.546064,3.29268,-4.72561,-23.628,-3.79371,0.107776,8.658,2.19512,6.7378,3.9939
466.945,20.9025,69.1016,0,2.6465,9.26873,0.476609,2.22561,-6.43293,-23.1098,-3.82485,0.251477,8.0808,2.0122,7.92683,4.54268
466.955,20.5859,68.9156,0,2.66087,9.24717,0.831072,4.72561,-10.4878,-22.4085,-3.85598,0.277822,8.06882,2.2561,10.8537,4.29878
466.965,20.2854,68.7633,0,2.78301,9.56331,0.519719,3.65854,-15.5183,-21.7683,-4.09788,0.275427,8.83523,2.40854,9.26829,4.39024
466.975,19.9765,68.5718,0,2.71116,9.65193,0.56283,1.09756,-19.3902,-22.1341,-4.26313,0.301772,8.72985,3.71951,6.98171,3.75
466.985,19.6704,68.3669,0,2.67524,9.53936,0.450264,0.731707,-23.5976,-22.439,-4.35654,0.296982,8.71548,3.56707,8.32317,3.01829
466.995,19.4031,68.1874,0,2.95066,9.4747,0.184417,0.792683,-26.4634,-22.439,-4.44755,0.280217,9.06994,3.32317,8.93293,2.28659
467.005,19.1968,67.9568,0,3.38177,9.3765,0.153281,0.335366,-25.9756,-21.9207,-4.62478,0.265847,8.85199,2.9878,9.96951,1.67683
467.016,19.0743,67.8145,0,4.00926,9.26154,0.0550855,1.15854,-24.2683,-21.0976,-4.24158,0.205972,8.86636,2.37805,14.2988,1.34146
467.025,19.0263,67.6973,0,4.55293,9.12981,-0.301772,1.25,-20.2134,-20.061,-4.16494,0.239502,8.90229,2.53049,14.6951,1.21951
467.035,19.0076,67.6249,0,4.74693,9.01485,-0.332908,0.518293,-14.6341,-19.7561,-3.96376,0.246687,8.88313,2.37805,17.1951,1.21951
467.045,19.0119,67.5956,0,4.79962,8.95019,-0.174836,1.21951,-12.1037,-18.3232,-3.87275,0.273032,9.11305,1.40244,18.3537,1.58537
467.055,19.049,67.5895,0,4.96248,8.95019,-0.251477,1.34146,-9.81707,-16.6159,-3.80329,0.376018,9.19927,-0.0609756,19.2988,2.10366
467.065,19.1192,67.6065,0,5.09181,8.90468,-0.198787,0.884146,-5.27439,-14.6951,-3.64761,0.541274,9.08431,-1.28049,21.2805,3.56707
467.075,19.214,67.6071,0,5.05828,8.85678,-0.143701,0.762195,-1.64634,-11.9817,-3.61169,0.699346,8.82565,-2.62195,24.3902,5.03049
467.085,19.3428,67.6045,0,5.03194,8.84481,0.0910107,1.98171,1.64634,-8.14024,-3.63324,0.771196,8.8472,-4.42073,26.8598,5.97561
467.095,19.484,67.5677,0,4.81159,9.11305,0.0359253,2.16463,0.670732,-3.53659,-3.75539,0.833467,8.76817,-5.36585,28.4451,7.28659
467.105,19.7023,67.4728,0,4.69184,8.97174,-0.0383203,1.40244,0.396341,-1.25,-3.85598,0.723296,8.39215,-5.88415,30.4878,7.37805
467.116,19.9526,67.3584,0,4.3302,8.90468,0.246687,2.04268,1.12805,-0.548781,-4.01405,0.63468,8.5095,-7.07317,32.7439,7.7439
467.125,20.0863,67.2144,0,3.97094,8.77535,0.225132,2.56098,4.14634,-1.28049,-4.14099,0.555645,8.44963,-7.13415,34.2683,7.10366
467.135,20.1218,67.0602,0,3.69073,8.72745,0.409548,2.5,3.38415,-2.9878,-4.25595,0.510139,8.53585,-7.71341,35.8537,6.95122
467.145,20.0999,66.8963,0,3.43206,8.75619,0.59157,5.09146,5.30488,-4.90854,-4.3302,0.450264,8.53824,-7.68293,37.8354,7.83537
467.155,20.0303,66.6796,0,3.19017,9.0412,0.761616,6.98171,3.9939,-5.73171,-4.4715,0.342488,8.27719,-6.89024,40.0305,8.62805
467.165,19.9319,66.4406,0,3.04167,9.40764,0.869392,6.7378,0.182927,-5.70122,-4.60562,0.227527,8.25803,-5.18293,41.4329,10.2134
467.175,19.8176,66.181,0,2.96982,9.58726,0.62031,6.40244,-2.68293,-6.09756,-4.77806,0.0502954,8.30593,-3.14024,41.4329,11.372
467.185,19.6911,65.8857,0,3.0273,9.59205,0.390388,5.4878,-3.47561,-8.20122,-4.91219,-0.0383203,8.15265,-0.609756,41.7073,12.7134
467.195,19.5322,65.5677,0,2.87163,9.5705,0.261057,4.17683,-3.68902,-10.122,-5.13971,-0.105381,8.24605,0.365854,42.2256,13.3841
467.205,19.3606,65.2321,0,2.78301,9.5705,0.220342,3.14024,-3.84146,-10.7317,-5.29299,-0.0790356,8.24605,0.945122,42.8354,13.4756
467.215,19.2092,64.8796,0,2.96743,9.39566,0.304167,2.56098,-7.65244,-11.7073,-5.44627,0.0766406,8.24366,1.58537,43.9939,12.622
467.225,19.0734,64.5044,0,3.16622,9.25436,0.366438,3.68902,-12.6524,-13.2012,-5.44627,0.227527,7.96344,2.22561,45.9146,11.9512
467.235,18.9296,64.1388,0,3.20693,9.39806,0.349673,4.2378,-16.8598,-14.2073,-5.50376,0.380808,8.00895,2.40854,46.6768,11.5244
467.245,18.793,63.7518,0,3.3195,9.40764,0.253872,4.2378,-17.0732,-14.9695,-5.56603,0.416733,7.83171,3.47561,46.7378,11.189
467.255,18.6384,63.3628,0,3.25483,9.64953,-0.170046,1.61585,-18.75,-15.4573,-5.51333,0.277822,7.63293,4.87805,46.9512,10.8232
467.265,18.4656,63.0336,0,3.09197,9.65911,-0.402363,-0.0609756,-19.3902,-15.8232,-5.36724,0.239502,7.74549,5.15244,46.4939,9.96951
467.275,18.3005,62.7092,0,2.95545,9.50104,-0.632285,-0.609756,-21.128,-14.4207,-5.30736,0.205972,7.5994,5.4878,45.7317,9.84756
467.285,18.1621,62.3882,0,2.79738,8.943,-0.344883,4.32927,-21.128,-12.2256,-5.26904,0.210762,7.47725,5.54878,45.5793,9.5122
467.295,18.0277,62.075,0,2.53393,8.79451,-0.519719,11.5244,-13.7805,-9.45122,-5.35526,0.179626,7.56347,5.42683,44.878,8.59756
467.305,17.875,61.7175,0,2.28964,8.92863,-0.414338,13.5366,-13.4756,-8.14024,-5.57321,0.170046,7.46767,5.2439,44.1463,7.95732
467.315,17.7505,61.3162,0,2.59141,8.93103,-0.170046,13.1098,-15.7317,-9.2378,-5.82469,0.198787,7.40301,5.27439,44.3598,7.19512
467.325,17.6026,60.9146,0,2.69919,9.02922,-0.203577,12.5915,-17.7744,-12.8354,-6.08814,0.246687,7.62335,4.63415,43.0488,6.61585
467.335,17.3927,60.4803,0,2.5962,9.28549,-0.359253,9.87805,-17.8963,-17.378,-6.30369,0.325723,7.55389,4.35976,42.2256,6.40244
467.345,17.1439,60.0317,0,2.63452,9.36453,-0.273032,7.5,-17.2866,-21.9512,-6.46176,0.366438,7.52755,4.2378,41.5549,6.12805
467.355,16.8594,59.5891,0,2.70877,9.20885,-0.490979,3.9939,-14.6951,-27.5,-6.46655,0.467029,7.4533,3.68902,40.3354,6.46341
467.365,16.527,59.1945,0,2.60099,9.16813,-0.459844,1.12805,-12.8659,-31.8293,-6.3947,0.548459,7.57066,3.41463,38.2012,6.70732
467.375,16.1717,58.8202,0,2.47166,9.35016,-0.361648,0.914634,-10.9451,-32.7439,-6.23184,0.58678,7.4078,3.5061,37.1037,7.34756
467.385,15.8231,58.4811,0,2.54591,9.87467,-0.464634,1.92073,-8.90244,-32.0732,-6.12646,0.61073,7.41498,2.59146,36.2805,7.13415
467.396,15.513,58.147,0,2.73751,9.80521,-0.457449,1.09756,-6.43293,-31.189,-6.08574,0.608335,7.3096,1.79878,35.3963,7.37805
467.405,15.2145,57.8204,0,2.6441,9.35495,-0.213157,2.59146,-5.30488,-31.0061,-6.09532,0.598755,7.28325,1.18902,35.122,6.76829
467.415,14.9478,57.4971,0,2.64889,9.4268,-0.296982,6.64634,-2.31707,-28.2012,-6.20789,0.548459,7.35271,0.365854,34.2073,6.67683
467.425,14.6854,57.141,0,2.39741,9.58966,-0.225132,9.42073,-5.70122,-24.9085,-6.27495,0.550855,7.13476,-0.121951,33.3232,6.4939
467.435,14.4361,56.8104,0,2.30401,9.25675,-0.282612,11.9512,-7.40854,-23.9939,-6.35159,0.548459,7.29523,-0.762195,33.0183,6.95122
467.445,14.1921,56.4739,0,2.42615,9.39327,-0.538879,11.6463,-5.73171,-25,-6.3971,0.502954,7.22338,-0.731707,32.0122,7.22561
467.455,13.931,56.1037,0,2.25371,9.45554,-0.766406,8.90244,-5.09146,-25.0305,-6.42344,0.450264,6.95753,-1.4939,32.3476,7.77439
467.465,13.6928,55.7653,0,2.52435,9.21843,-0.483794,8.23171,-3.81098,-27.1341,-6.37075,0.409548,7.00543,-1.64634,32.1037,7.56098
467.475,13.406,55.4576,0,2.26569,9.3286,-0.471819,7.34756,-0.670732,-29.1768,-6.39231,0.335303,7.13716,-1.76829,31.372,7.19512
467.485,13.0937,55.1161,0,2.09325,9.41482,-0.316143,5.79268,3.35366,-30.0915,-6.38512,0.380808,6.84497,-1.95122,31.4939,6.79878
467.495,12.7657,54.811,0,2.03098,9.66151,-0.289797,4.54268,4.87805,-30.9756,-6.38273,0.368833,6.98148,-2.0122,31.5244,6.76829
467.505,12.4368,54.5106,0,1.93997,9.7597,-0.342488,2.16463,4.5122,-30.4573,-6.44021,0.383203,6.99825,-2.0122,30.7012,6.46341
467.515,12.1471,54.1881,0,2.12438,9.67588,-0.220342,1.64634,2.83537,-29.4512,-6.44979,0.440684,6.80186,-1.7378,31.3415,6.67683
467.525,11.8807,53.8945,0,2.14833,9.76449,-0.129331,2.46951,-1.28049,-27.7134,-6.48092,0.481399,6.93358,-1.82927,32.0122,6.76829
467.535,11.6468,53.588,0,2.15073,9.77647,-0.198787,1.34146,-3.81098,-24.939,-6.59349,0.452659,6.90245,-1.28049,31.7073,6.85976
467.545,11.4365,53.2522,0,2.08127,9.44596,-0.203577,1.25,-5.18293,-23.0488,-6.62941,0.416733,6.69168,-1.18902,32.2256,6.61585
467.555,11.2359,52.9537,0,2.05732,9.33339,-0.0958008,4.90854,-5.54878,-22.5,-6.65336,0.426313,6.85934,-0.853659,32.2866,5.94512
467.565,11.0096,52.6652,0,1.81782,9.34537,-0.225132,6.37195,-4.60366,-22.622,-6.68929,0.371228,6.88568,-0.762195,32.1037,5.91463
467.575,10.7914,52.3562,0,1.84177,9.30226,-0.296982,6.25,-5.51829,-22.6524,-6.66534,0.378413,6.67013,-0.731707,32.4085,5.4878
467.585,10.5641,52.0617,0,1.67651,9.40764,-0.342488,6.79878,-6.03659,-21.7988,-6.70605,0.419128,6.72521,-1.18902,32.5,5.06098
467.595,10.3923,51.7865,0,2.20342,9.7621,-0.608335,5.64024,-3.78049,-21.9207,-6.74917,0.450264,6.81383,-1.67683,32.378,5
467.605,10.2279,51.4953,0,2.18905,9.87946,-0.65863,3.04878,-3.01829,-21.0671,-6.81144,0.483794,6.71563,-1.55488,32.622,4.93902
467.615,10.075,51.186,0,2.19384,9.9082,-0.63468,1.70732,-2.53049,-20.2134,-6.91203,0.524509,6.63899,-2.40854,32.8659,4.78659
467.625,9.95094,50.8602,0,2.29443,9.77407,-0.546064,0.792683,-1.31098,-19.0549,-6.95035,0.529299,6.50966,-1.92073,33.4756,4.90854
467.635,9.83045,50.5395,0,2.14594,9.67827,-0.56762,1.28049,-2.89634,-17.5,-7.00543,0.524509,6.51685,-2.07317,33.9634,4.45122
467.645,9.74035,50.2042,0,2.15552,9.6663,-0.57241,3.29268,-2.86585,-14.7866,-7.00783,0.481399,6.36357,-1.55488,34.4207,4.48171
467.655,9.65873,49.868,0,1.98308,9.6184,-0.373623,4.48171,-3.47561,-12.2256,-7.04375,0.471819,6.31806,-1.28049,35.3659,4.20732
467.665,9.6084,49.5426,0,2.00224,9.59445,-0.332908,4.26829,-3.68902,-9.48171,-7.0701,0.450264,6.32764,-1.70732,35.9451,3.5061
467.675,9.52317,49.2219,0,1.79866,9.42919,-0.423918,4.57317,-0.121951,-11.128,-7.118,0.488584,6.32525,-1.76829,36.4939,3.2622
467.685,9.4216,48.8908,0,1.78189,9.35974,-0.330513,4.7561,-1.43293,-12.9268,-7.20661,0.476609,6.27495,-2.13415,37.5915,2.86585
467.695,9.29779,48.546,0,1.67412,9.53936,-0.368833,3.59756,-3.01829,-13.7195,-7.3096,0.55325,6.21508,-2.22561,38.5366,3.32317
467.705,9.18396,48.1804,0,1.80824,9.69264,-0.435894,1.82927,-3.90244,-14.2073,-7.4557,0.517324,6.14802,-2.5,39.4207,3.65854
467.715,9.0859,47.8114,0,1.88009,9.88904,-0.505349,-0.487805,-5.18293,-13.2317,-7.51078,0.502954,6.09532,-2.53049,40,2.9878
467.725,9.01891,47.4429,0,2.00463,9.82437,-0.502954,-1.40244,-6.34146,-11.8293,-7.53234,0.486189,6.03545,-2.53049,40.1829,3.07927
467.735,8.97924,47.0615,0,2.0693,9.62798,-0.261057,0.396341,-4.48171,-10.3963,-7.58982,0.483794,5.93246,-2.92683,40.7622,2.89634
467.745,8.94104,46.6894,0,1.94715,9.81479,-0.411943,3.17073,-2.13415,-8.47561,-7.60419,0.438289,5.9133,-3.07927,41.0366,2.53049
467.755,8.92385,46.3078,0,1.84656,10.0064,-0.514929,2.89634,-2.65244,-4.87805,-7.54671,0.373623,5.74086,-2.62195,42.1341,2.19512
467.765,8.8943,45.9423,0,1.73878,9.99202,-0.476609,2.62195,-6.89024,-4.96951,-7.61377,0.285007,5.79834,-2.5,42.9573,2.31707
467.775,8.88815,45.5417,0,1.85375,9.69743,-0.59157,3.01829,-6.92073,-4.63415,-7.64251,0.296982,5.56124,-1.92073,43.8415,2.34756
467.785,8.88596,45.1375,0,1.83219,9.60642,-0.608335,2.7439,-9.48171,-4.2378,-7.73352,0.275427,5.52771,-1.61585,44.6341,2.77439
467.795,8.89307,44.7319,0,1.85614,9.54415,-0.402363,2.10366,-9.54268,-3.81098,-7.90356,0.234712,5.55884,-1.37195,45.3354,2.80488
467.805,8.89733,44.3041,0,1.96152,9.62319,-0.411943,0.914634,-9.02439,-5,-7.9323,0.287402,5.38161,-1.40244,45.9756,2.77439
467.816,8.88138,43.8746,0,1.83938,9.5705,-0.395178,0.121951,-8.41463,-5.70122,-8.02571,0.330513,5.35047,-1.67683,46.5549,2.77439
467.825,8.85239,43.4532,0,1.76513,9.57768,-0.270637,2.65244,-8.38415,-6.15854,-8.07601,0.368833,5.3385,-2.28659,47.2561,2.77439
467.835,8.81084,43.0168,0,1.65496,9.7142,-0.371228,4.45122,-8.62805,-5.91463,-8.06403,0.440684,5.17085,-2.16463,47.8049,2.59146
467.845,8.74569,42.5842,0,1.40827,9.75252,-0.744851,2.71341,-8.38415,-5.42683,-8.18378,0.438289,5.18043,-2.56098,48.9024,2.56098
467.855,8.73519,42.1279,0,1.88249,9.76689,-0.66821,3.01829,-11.4939,-5.51829,-8.11912,0.423918,4.93853,-2.9878,49.878,2.86585
467.865,8.70591,41.6896,0,1.78908,9.67348,-0.862207,2.65244,-7.0122,-6.55488,-8.2724,0.356858,5.03194,-3.10976,50.9146,2.65244
467.875,8.67201,41.2383,0,1.74836,9.77168,-0.958008,1.79878,-5.54878,-6.40244,-8.28677,0.304167,4.89063,-3.32317,51.3415,2.46951
467.885,8.62966,40.7676,0,1.65017,9.7118,-0.809517,0.609756,-5.73171,-6.31098,-8.34425,0.258662,4.74214,-3.44512,52.561,2.22561
467.895,8.55796,40.3159,0,1.41785,9.59445,-0.512534,-0.27439,-7.0122,-6.85976,-8.30593,0.280217,4.72298,-3.56707,52.9878,1.92073
467.905,8.50538,39.8628,0,1.68849,9.70222,-0.457449,0.670732,-6.12805,-8.04878,-8.24845,0.241897,4.59844,-3.81098,53.7195,1.7378
467.915,8.43568,39.4045,0,1.57353,9.63277,-0.387993,1.28049,-7.62195,-8.68902,-8.35622,0.258662,4.54814,-3.90244,54.0854,1.85976
467.925,8.36553,38.9615,0,1.58311,9.63037,-0.371228,2.04268,-8.62805,-8.9939,-8.4616,0.261057,4.59125,-4.29878,54.1768,1.92073
467.935,8.31982,38.4884,0,1.69567,9.58008,-0.550855,2.37805,-6.06707,-8.07927,-8.58136,0.229922,4.426,-4.90854,54.0854,1.79878
467.945,8.27217,38.0204,0,1.81542,9.63277,-0.711321,1.70732,-6.79878,-9.66463,-8.66518,0.246687,4.40444,-5.15244,55.3354,2.0122
467.955,8.21141,37.5293,0,1.71004,9.63995,-0.694556,0.701219,-8.47561,-9.84756,-8.65321,0.249082,4.20086,-5.2439,55.9756,2.10366
467.965,8.15442,37.0502,0,1.64059,9.60403,-0.809517,1.15854,-6.25,-8.84146,-8.66518,0.287402,4.17212,-5.94512,56.4329,2.56098
467.975,8.13379,36.5901,0,1.8753,9.73815,-0.756826,2.43902,-8.10976,-7.71341,-8.63884,0.292192,4.16015,-6.92073,56.9512,2.46951
467.985,8.11243,36.1268,0,1.8274,9.6639,-0.936453,1.82927,-7.10366,-7.43902,-8.55501,0.285007,4.02124,-7.53049,57.2866,2.68293
467.995,8.08482,35.6697,0,1.71962,9.63516,-0.840652,1.76829,-7.31707,-6.92073,-8.53585,0.287402,3.95657,-7.92683,57.7744,2.34756
468.005,8.03873,35.1901,0,1.43462,9.5202,-0.888552,1.79878,-3.81098,-5.70122,-8.80409,0.285007,3.89191,-8.68902,58.5061,2.16463
468.015,8.0356,34.6969,0,1.88967,9.55134,-0.785566,2.95732,-3.14024,-6.76829,-8.69392,0.270637,3.69552,-9.05488,59.2378,2.28659
468.025,7.99091,34.1684,0,1.61185,9.59684,-0.728086,2.9878,-2.2561,-7.62195,-8.85199,0.138911,3.51349,-9.54268,60.061,2.34756
468.035,7.91749,33.6339,0,1.33403,9.53457,-0.579595,3.47561,-2.10366,-7.43902,-8.87834,0.0550855,3.40332,-9.7561,61.1585,2.46951
468.045,7.89321,33.0866,0,1.72681,9.57289,-0.579595,4.05488,-0.213415,-7.19512,-9.02922,-0.00718506,3.30752,-9.96951,61.6159,2.46951
468.055,7.83376,32.5581,0,1.54958,9.60642,-0.787961,3.47561,-2.37805,-8.65854,-9.01246,-0.0862207,3.28836,-10.0915,61.6463,2.80488
468.066,7.76306,32.025,0,1.41546,9.63037,-0.6251,2.89634,-4.14634,-8.29268,-9.03162,-0.117356,3.18059,-10.122,61.6463,2.71341
468.076,7.70216,31.484,0,1.40827,9.58008,-0.816702,2.07317,-1.40244,-7.43902,-8.99569,-0.0646655,3.03928,-9.90854,61.189,3.38415
468.085,7.66637,30.9379,0,1.72202,9.71659,-0.845442,1.55488,-1.76829,-8.44512,-9.06994,-0.167651,2.94587,-9.42073,60.7317,3.29268
468.095,7.5965,30.3667,0,1.38193,9.78126,-0.723296,0.97561,-1.64634,-7.89634,-9.40285,-0.177231,2.84049,-8.53659,59.6037,3.01829
468.106,7.48744,29.8086,0,0.799937,9.60403,-0.538879,0.701219,-1.40244,-5.27439,-8.90468,0.193997,2.65129,-9.96951,62.1037,1.61585
468.115,7.45306,29.2263,0,1.54239,9.74773,-0.780776,2.31707,-0.701219,-6.58537,-9.02204,0.160466,2.48843,-10.7012,63.7805,2.77439
468.125,7.38939,28.7129,0,1.2526,9.616,-0.790356,2.34756,-3.78049,-6.43293,-9.39087,0.143701,2.79499,-11.5854,63.3537,3.35366
468.135,7.34261,28.1853,0,1.36037,9.52978,-1.00351,3.32317,-1.31098,-6.28049,-9.14658,0.146096,2.57225,-12.1951,64.1159,3.75
468.145,7.37442,27.6439,0,2.00463,9.60163,-1.00112,4.05488,-0.457317,-5.88415,-9.24717,0.0910107,2.44771,-12.0732,63.3232,3.93293
468.155,7.35204,27.1088,0,1.59029,9.51302,-1.08255,3.56707,-0.945122,-6.61585,-9.32381,0.0886157,2.4022,-13.2012,63.7195,3.35366
468.165,7.31164,26.5856,0,1.41067,9.51302,-0.831072,2.56098,-1.03659,-6.34146,-9.07712,0.0694556,2.29922,-13.9939,64.1159,3.56707
468.175,7.28853,26.0468,0,1.47773,9.49625,-0.785566,4.42073,1.76829,-5.51829,-9.29268,-0.0359253,2.19623,-15.1829,64.1768,3.41463
468.185,7.23482,25.4989,0,1.39151,9.6184,-0.682581,6.52439,3.10976,-7.40854,-9.25915,-0.0263452,2.05732,-15.4573,63.9634,3.59756
468.195,7.1742,24.9418,0,1.2981,9.54655,-0.847837,7.22561,8.01829,-7.22561,-9.49865,-0.107776,1.97589,-15.8232,64.6037,3.2622
468.205,7.13181,24.3998,0,1.45138,9.7597,-0.809517,7.2561,7.83537,-6.95122,-9.57768,-0.114961,1.96152,-16.0366,64.5732,3.07927
468.215,7.06098,23.8318,0,1.19272,9.84593,-1.06818,4.81707,11.7988,-6.76829,-9.616,-0.141306,1.76034,-15.9756,64.3902,3.44512
468.225,6.98644,23.2277,0,1.19751,9.74054,-0.953218,4.2378,11.8293,-7.5,-9.78126,-0.203577,1.53042,-15.6402,63.7805,2.86585
468.235,6.88188,22.6136,0,0.931663,9.65911,-0.850232,4.17683,13.2927,-7.65244,-9.86509,-0.246687,1.39151,-15.3659,62.439,3.41463
468.245,6.72632,22.0123,0,0.541274,9.50583,-0.790356,3.68902,11.1585,-8.47561,-9.96807,-0.316143,1.35319,-14.4512,60.7622,3.5061
468.255,6.56991,21.4241,0,0.514929,9.63037,-0.699346,4.2378,11.6463,-8.47561,-9.88904,-0.335303,1.29331,-13.5061,59.1159,3.87195
468.265,6.38956,20.8501,0,0.404758,9.68546,-0.62031,5.18293,11.4024,-9.87805,-9.93215,-0.354463,1.25739,-12.7744,57.5305,3.96341
468.275,6.16336,20.2714,0,0.0143701,9.69264,-0.56283,5.73171,9.45122,-10.2134,-9.98244,-0.378413,1.14003,-12.7134,56.311,4.54268
468.285,6.02654,19.7032,0,0.874182,9.93454,-0.732876,5.4878,6.43293,-11.6463,-9.79563,-0.361648,1.06339,-12.5,55.061,4.84756
468.295,5.85569,19.1406,0,0.565225,9.8603,-0.754431,3.14024,5,-11.8293,-9.92257,-0.378413,1.00112,-12.3171,53.5671,5.64024
468.305,5.69601,18.6021,0,0.749641,9.94652,-0.907712,1.76829,9.32927,-13.1402,-10.0232,-0.486189,1.01788,-12.0427,51.7073,5.67073
468.315,5.56852,18.0397,0,1.05381,9.90341,-1.11608,1.03659,13.2317,-13.7805,-9.80521,-0.354463,0.797541,-11.7378,50.5183,6.28049
468.325,5.40448,17.4892,0,0.802332,9.72378,-0.979563,1.89024,13.0793,-15,-9.97526,-0.414338,0.764011,-11.3415,49.0854,6.7378
468.335,5.21022,16.9522,0,0.512534,9.69504,-0.807122,3.10976,11.25,-14.9695,-10.0974,-0.481399,0.735271,-10.6707,47.5915,7.13415
468.345,5.03128,16.4307,0,0.730481,9.85072,-0.716111,5,9.48171,-16.2805,-10.2507,-0.541274,0.718506,-10.122,45.9756,7.46951
468.355,4.8442,15.9173,0,0.802332,9.94891,-1.0562,5.70122,14.5732,-18.2317,-10.3345,-0.474214,0.665815,-9.35976,44.3902,7.95732
468.365,4.62595,15.4245,0,0.514929,9.92496,-0.835862,5.45732,13.628,-18.4451,-10.2267,-0.426313,0.65863,-8.20122,42.6829,8.84146
468.375,4.41185,14.922,0,0.431104,9.83156,-0.754431,5.57927,12.1646,-17.5305,-10.2603,-0.476609,0.526904,-7.22561,41.5244,10.1829
468.385,4.19523,14.4261,0,0.476609,10.0184,-1.05141,4.87805,14.5122,-18.6585,-10.392,-0.548459,0.471819,-6.31098,40.3659,10.6402
468.395,3.94123,13.9396,0,0.0742456,9.93215,-0.732876,4.20732,12.0122,-18.2317,-10.3824,-0.507744,0.423918,-5,39.9085,11.128
468.405,3.67728,13.4829,0,-0.110171,9.92496,-0.62989,3.59756,7.95732,-17.5915,-10.2842,-0.529299,0.467029,-4.2378,39.0549,11.4634
468.415,3.39389,13.0391,0,-0.479004,9.90341,-0.845442,2.2561,8.78049,-15.7622,-9.91059,-0.464634,0.426313,-2.9878,37.9878,11.5854
468.425,3.17706,12.5645,0,0.150886,9.89622,-0.531694,2.53049,0.97561,-16.9817,-9.83156,-0.438289,0.213157,-2.0122,37.7744,11.4024
468.435,2.96106,12.1189,0,0.0958008,9.73575,-0.910107,1.28049,2.22561,-16.7073,-9.73815,-0.486189,0.253872,-1.4939,36.8902,11.0366
468.445,2.76537,11.676,0,0.179626,9.8076,-0.850232,1.25,-0.0304878,-16.0671,-9.75252,-0.390388,0.189207,-0.426829,35.3963,10.8537
468.455,2.57914,11.2277,0,0.100591,9.69264,-0.855022,1.18902,0.304878,-14.5732,-9.91778,-0.471819,0.0910107,0.243902,34.5427,10.6402
468.465,2.48397,10.7866,0,0.718506,9.64714,-0.993933,2.46951,3.5061,-13.1402,-10.2315,-0.565225,0.0455054,1.0061,33.5671,9.35976
468.475,2.38621,10.3716,0,0.732876,9.91059,-1.18793,1.92073,-0.0914634,-13.5366,-10.277,-0.512534,0.0838257,2.28659,32.439,8.62805
468.485,2.27259,9.93544,0,0.471819,9.75012,-0.859812,2.40854,-4.08537,-12.378,-9.89622,-0.407153,-0.0838257,3.38415,31.7683,8.96341
468.495,2.17907,9.51758,0,0.514929,9.7142,-1.14242,1.79878,1.7378,-11.0976,-9.80281,-0.522114,-0.0790356,4.26829,31.25,9.7561
468.505,2.16424,9.16952,0,1.07536,9.77647,-1.1065,1.79878,0.213415,-9.87805,-9.8555,-0.462239,0.150886,5.27439,30.122,10
468.515,2.10798,8.8107,0,0.670605,9.74294,-1.3005,1.98171,1.31098,-9.35976,-9.84353,-0.445474,0.0431104,5.94512,28.75,9.96951
468.525,2.04454,8.46233,0,0.534089,9.6639,-0.979563,2.0122,1.40244,-8.62805,-9.92017,-0.383203,0.0263452,6.31098,28.0488,9.78659
468.535,1.99497,8.11699,0,0.519719,9.62798,-1.08494,2.40854,2.22561,-7.19512,-10.016,-0.328118,-0.0215552,6.89024,27.2866,9.2378
468.545,1.95895,7.76549,0,0.517324,9.59924,-1.10889,3.35366,1.79878,-5.91463,-10.3058,-0.294587,-0.112566,6.82927,26.9512,8.14024
468.555,1.88915,7.41687,0,0.0502954,9.59924,-1.07297,3.20122,2.62195,-3.5061,-10.3034,-0.102986,-0.162861,7.34756,26.7988,7.34756
468.566,1.86434,7.06383,0,0.380808,9.81958,-0.895737,3.68902,-0.884146,-3.2622,-10.1309,-0.0407153,-0.241897,6.98171,26.3415,7.56098
468.575,1.82361,6.71898,0,0.222737,9.79084,-1.09692,2.5,1.76829,-2.89634,-9.95131,-0.0239502,-0.263452,7.0122,25.8537,7.59146
468.585,1.76175,6.3663,0,0.0790356,9.80281,-1.09452,1.21951,1.37195,-3.35366,-9.97047,-0.0670605,-0.359253,6.58537,24.939,7.40854
468.595,1.7108,6.02832,0,0.126936,9.65911,-1.00112,0.548781,0.457317,-2.89634,-10.0998,-0.0886157,-0.361648,6.52439,23.8415,6.98171
468.605,1.66555,5.69978,0,0.155676,9.64953,-1.08015,0.914634,0.914634,-2.80488,-9.93454,-0.0502954,-0.373623,5.88415,23.0793,6.85976
468.616,1.61095,5.37174,0,0.0622705,9.69264,-0.991538,0.426829,1.40244,-2.43902,-10.0375,-0.0479004,-0.433499,5.70122,22.439,6.58537
468.625,1.6381,5.04431,0,0.63947,9.61361,-0.934058,1.55488,0.0609756,-2.53049,-10.1237,-0.0814307,-0.493374,4.72561,21.5549,6.55488
468.635,1.57978,4.71051,0,0.0694556,9.84593,-1.07776,1.4939,0.0609756,-3.2622,-10.1094,-0.0479004,-0.579595,4.14634,20.9756,6.43293
468.645,1.55295,4.38312,0,0.352068,9.81719,-1.14242,0.97561,2.68293,-3.75,-10.1908,-0.0550855,-0.61552,3.07927,20.2744,6.52439
468.655,1.5068,4.06193,0,0.270637,9.84593,-1.00591,1.03659,1.43293,-4.7561,-10.0375,0.00718506,-0.637075,1.79878,19.4207,6.92073
468.665,1.45644,3.7427,0,0.285007,9.82437,-1.06578,0.97561,2.77439,-5.45732,-10.0687,-0.0167651,-0.687371,1.09756,18.9939,6.92073
468.675,1.40495,3.43868,0,0.337698,9.8076,-1.17116,1.43293,5.03049,-6.31098,-10.1597,-0.0886157,-0.682581,0.27439,18.3537,6.98171
468.685,1.33585,3.12173,0,0.258662,9.84353,-1.06818,1.46341,5.97561,-7.2561,-10.3106,-0.0862207,-0.807122,-0.731707,18.0183,6.55488
468.695,1.25489,2.81577,0,0.177231,9.78126,-0.986748,1.67683,6.64634,-7.65244,-10.3992,-0.0431104,-0.821492,-1.43293,17.7439,6.70732
468.705,1.16806,2.50002,0,0.138911,9.79563,-1.18553,0.914634,8.10976,-7.95732,-10.2842,-0.0167651,-0.912502,-1.43293,17.622,6.85976
468.715,1.07656,2.21616,0,0.0910107,9.70462,-1.0562,0.0914634,6.7378,-8.04878,-10.2435,-0.0311353,-0.821492,-2.37805,16.7378,7.0122
468.725,1.0212,1.93391,0,0.421523,9.63277,-1.0562,0.426829,7.07317,-8.56707,-10.2794,0.00479004,-0.869392,-2.77439,15.5793,7.19512
468.735,0.950063,1.67656,0,0.253872,9.70941,-1.19272,0,7.5,-8.23171,-10.2674,-0.00479004,-0.807122,-3.29268,14.1768,6.67683
468.745,0.875627,1.4437,0,0.196392,9.72378,-1.04423,0.304878,7.04268,-8.01829,-10.1956,0.0191602,-0.737666,-3.87195,13.2012,6.92073
468.755,0.802314,1.23027,0,0.150886,9.76928,-1.04662,0.548781,6.70732,-7.5,-10.2866,0.00718506,-0.699346,-4.7561,11.4329,6.76829
468.765,0.736917,1.00052,0,0.148491,9.85072,-1.12566,0.335366,6.18902,-6.79878,-10.2387,-0.00479004,-0.809517,-5.54878,10.2439,6.43293
468.775,0.681782,0.763349,0,0.186812,9.85311,-1.05141,0.213415,6.28049,-6.34146,-10.1932,-0.0646655,-0.881367,-5.4878,9.29878,6.52439
468.785,0.633103,0.536033,0,0.205972,9.8076,-1.05381,0.670732,5.88415,-6.03659,-10.1549,-0.124541,-0.876577,-6.09756,8.41463,6.21951
468.795,0.58769,0.30572,0,0.177231,9.82916,-1.16158,0.914634,5.91463,-5.45732,-10.1357,-0.191602,-0.929268,-6.34146,7.59146,6.06707
468.805,0.523451,0.0751447,0,0.0191602,9.73096,-1.12805,1.03659,5.57927,-5.57927,-10.1022,-0.244292,-0.967588,-6.03659,6.34146,5.67073
468.815,0.47304,-0.142401,0,0.0718506,9.7142,-1.12326,0.609756,4.93902,-4.93902,-10.0854,-0.306563,-0.943638,-6.06707,5.09146,5.27439
468.825,0.420582,-0.364198,0,0.0239502,9.70222,-1.07536,0.426829,4.48171,-4.66463,-10.083,-0.308958,-0.981958,-5.73171,3.87195,5.57927
468.835,0.380323,-0.601197,0,0.0862207,9.68306,-1.0586,0.487805,3.96341,-4.29878,-10.095,-0.265847,-1.00112,-5.54878,2.40854,5.36585
468.845,0.343979,-0.918597,0,0.110171,9.76928,-1.08015,0.670732,3.96341,-4.26829,-10.0423,-0.191602,-1.1065,-5.21341,1.28049,5.21341
468.855,0.317058,-1.34485,0,0.146096,9.76449,-1.18553,-0.304878,4.48171,-3.84146,-10.0399,-0.153281,-1.11608,-5.15244,0.396341,5.21341
468.865,0.293175,-1.82616,0,0.189207,9.85311,-1.1999,-1.15854,5.82317,-4.08537,-10.0136,-0.162861,-1.17356,-4.96951,0.152439,4.87805
468.875,0.261339,-2.28331,0,0.105381,9.81479,-1.02507,-0.609756,6.18902,-3.93293,-10.0303,-0.117356,-1.24062,-4.93902,0.182927,4.63415
468.885,0.222295,-2.7378,0,0.0502954,9.8124,-1.04183,-0.487805,5.7622,-4.05488,-10.0471,-0.167651,-1.2526,-4.66463,0.0304878,4.26829
468.895,0.186807,-3.0958,0,0.0934058,9.81958,-1.04423,-0.640244,5.54878,-4.29878,-10.0567,-0.201182,-1.21427,-4.45122,-0.182927,4.42073
468.905,0.157646,-3.42417,0,0.134121,9.76449,-1.05381,-1.18902,5.45732,-4.2378,-10.0615,-0.201182,-1.23104,-4.05488,-0.213415,3.90244
468.915,0.13471,-3.71626,0,0.177231,9.72617,-1.0083,-1.4939,4.32927,-4.20732,-10.0591,-0.167651,-1.22146,-4.26829,-0.243902,3.59756
468.925,0.119579,-4.10024,0,0.193997,9.69504,-0.948428,-1.43293,3.17073,-3.71951,-9.98723,-0.179626,-1.33403,-4.26829,0,3.44512
468.935,0.113931,-4.38418,0,0.253872,9.76449,-1.03225,-1.58537,2.16463,-3.53659,-9.99442,-0.210762,-1.39869,-3.78049,0.548781,3.20122
468.945,0.1068,-4.61433,0,0.229922,9.84593,-1.01788,-1.79878,1.61585,-3.38415,-10.0112,-0.234712,-1.31487,-3.53659,0.518293,3.14024
468.955,0.105437,-4.88525,0,0.265847,9.89143,-1.04423,-2.04268,1.95122,-3.2622,-9.95849,-0.189207,-1.31247,-3.20122,0.121951,3.23171
468.965,0.108024,-5.08128,0,0.306563,9.83395,-0.991538,-1.92073,1.89024,-3.38415,-9.92017,-0.215552,-1.29092,-3.01829,-0.518293,3.5061
468.975,0.120796,-5.2054,0,0.399968,9.75491,-1.02028,-2.10366,2.19512,-3.53659,-9.87467,-0.201182,-1.23104,-3.14024,-1.12805,3.62805
468.985,0.130507,-5.31103,0,0.380808,9.70941,-1.02507,-1.82927,2.46951,-3.59756,-9.83395,-0.198787,-1.23104,-3.14024,-1.52439,4.17683
468.995,0.13793,-5.41349,0,0.356858,9.74054,-1.0107,-1.52439,2.65244,-3.5061,-9.8579,-0.215552,-1.28852,-3.35366,-2.07317,4.45122
469.005,0.139267,-5.48297,0,0.289797,9.70462,-0.914897,-1.43293,2.83537,-3.32317,-9.84832,-0.213157,-1.19751,-3.5061,-2.37805,4.78659
469.015,0.13426,-5.53209,0,0.239502,9.7621,-0.893342,-1.43293,2.40854,-3.29268,-9.86269,-0.182021,-1.13763,-3.62805,-2.5,5.15244
469.025,0.135924,-5.57508,0,0.258662,9.81958,-0.883762,-1.64634,1.95122,-2.92683,-9.86269,-0.162861,-1.13045,-3.68902,-2.92683,5.57927
469.035,0.142166,-5.60948,0,0.268242,9.79563,-0.869392,-1.82927,1.37195,-2.68293,-9.85072,-0.167651,-1.1041,-3.90244,-3.10976,5.79268
469.045,0.160016,-5.63397,0,0.280217,9.8076,-1.00591,-2.43902,0.792683,-2.0122,-9.8603,-0.119751,-1.07536,-4.45122,-3.84146,6.0061
469.055,0.174821,-5.64647,0,0.227527,9.81,-0.986748,-2.77439,0.609756,-1.70732,-9.84353,-0.122146,-1.02746,-4.42073,-3.96341,6.37195
469.065,0.177749,-5.66391,0,0.119751,9.78366,-0.924478,-2.77439,-0.548781,-1.34146,-9.82677,-0.114961,-1.04902,-4.60366,-4.05488,6.61585
469.075,0.170904,-5.68676,0,0.0479004,9.76928,-1.0083,-3.01829,-2.19512,-1.06707,-9.78126,-0.112566,-1.07057,-4.2378,-4.2378,6.92073
469.085,0.168856,-5.71239,0,0.0502954,9.74294,-0.831072,-3.20122,-3.9939,-0.731707,-9.79084,-0.100591,-1.08734,-4.39024,-4.20732,7.37805
469.095,0.172221,-5.74849,0,0.0598755,9.72138,-0.802332,-2.53049,-4.48171,-0.518293,-9.81719,-0.158071,-1.14003,-4.35976,-4.32927,7.53049
469.105,0.197136,-5.78814,0,0.126936,9.7621,-0.778381,-2.71341,-4.63415,-0.335366,-9.84114,-0.182021,-1.16398,-3.96341,-4.2378,7.59146
469.115,0.249696,-5.82884,0,0.220342,9.78126,-0.692161,-2.59146,-5.57927,-0.27439,-9.86748,-0.203577,-1.17835,-3.90244,-4.17683,7.04268
469.125,0.337759,-5.87021,0,0.316143,9.75491,-0.953218,-2.34756,-5.7622,-0.121951,-9.83156,-0.213157,-1.18074,-3.96341,-3.71951,7.07317
469.135,0.412934,-5.91685,0,0.352068,9.82197,-1.0107,-2.22561,-4.84756,-0.365854,-9.85311,-0.225132,-1.21188,-3.81098,-3.59756,6.98171
469.145,0.482283,-5.9774,0,0.404758,9.80281,-0.914897,-1.7378,-3.04878,-0.701219,-9.8555,-0.189207,-1.27415,-3.62805,-3.2622,7.13415
469.155,0.541322,-6.03891,0,0.409548,9.82916,-0.850232,-1.34146,-2.19512,-0.884146,-9.83635,-0.213157,-1.28134,-3.35366,-3.01829,7.43902
469.165,0.60082,-6.10551,0,0.479004,9.75491,-0.838257,-1.18902,-0.823171,-1.25,-9.86269,-0.251477,-1.31487,-3.04878,-2.92683,7.65244
469.175,0.655391,-6.17399,0,0.502954,9.70222,-0.740061,-0.823171,0.792683,-1.52439,-9.89622,-0.287402,-1.32445,-2.80488,-2.40854,7.77439
469.185,0.709917,-6.25759,0,0.510139,9.68546,-0.850232,-1.28049,2.43902,-1.52439,-9.89383,-0.301772,-1.3963,-2.10366,-2.43902,7.95732
469.195,0.743836,-6.3321,0,0.414338,9.68785,-0.910107,-1.4939,3.14024,-1.61585,-9.86988,-0.275427,-1.36516,-1.21951,-2.28659,8.10976
469.205,0.753716,-6.38678,0,0.308958,9.67348,-1.02746,-1.64634,4.17683,-1.92073,-9.90101,-0.258662,-1.31247,-0.609756,-2.43902,8.10976
469.215,0.757053,-6.42411,0,0.270637,9.6639,-0.934058,-0.487805,4.14634,-1.95122,-9.92017,-0.273032,-1.26218,0.0304878,-2.71341,7.9878
469.225,0.751688,-6.45919,0,0.241897,9.78844,-0.850232,-0.27439,3.38415,-2.19512,-9.94891,-0.234712,-1.27176,0.487805,-3.44512,7.95732
469.235,0.736085,-6.48313,0,0.179626,9.73815,-0.821492,-0.640244,2.9878,-2.34756,-9.97286,-0.237107,-1.23583,0.487805,-3.87195,7.5
469.245,0.705671,-6.51488,0,0.0814307,9.71899,-0.946033,-0.945122,2.77439,-2.5,-9.97765,-0.215552,-1.27415,0.884146,-3.81098,7.53049
469.255,0.67893,-6.53392,0,0.122146,9.69025,-0.969983,-2.13415,2.43902,-2.77439,-10.0351,-0.208367,-1.23344,0.884146,-4.26829,7.13415
469.266,0.636856,-6.52476,0,0.0311353,9.69983,-0.974773,-2.46951,2.7439,-3.20122,-10.0854,-0.208367,-1.11847,0.640244,-4.45122,7.16463
469.276,0.590386,-6.51334,0,-0.0167651,9.73575,-1.01309,-2.80488,2.46951,-3.10976,-10.0375,-0.208367,-1.10171,0.731707,-4.81707,6.67683
469.285,0.563542,-6.49747,0,0.102986,9.78844,-1.0586,-2.89634,1.52439,-2.77439,-10.0136,-0.244292,-1.07776,0.365854,-5.7622,6.46341
469.295,0.543305,-6.48489,0,0.134121,9.78366,-1.01788,-3.07927,-0.213415,-2.59146,-9.97047,-0.241897,-1.08494,0.97561,-5.88415,6.06707
469.305,0.53961,-6.46637,0,0.213157,9.75731,-0.981958,-2.92683,-1.34146,-2.16463,-9.96568,-0.282612,-1.0562,0.762195,-6.31098,6.15854
469.315,0.542119,-6.43495,0,0.251477,9.79563,-0.907712,-3.65854,-1.64634,-2.10366,-9.96807,-0.335303,-0.996328,0.914634,-6.79878,6.31098
469.325,0.554185,-6.39992,0,0.289797,9.81719,-1.03225,-3.78049,-1.0061,-1.82927,-9.93933,-0.356858,-0.972378,0.762195,-7.31707,6.40244
469.335,0.575837,-6.37999,0,0.301772,9.74294,-0.967588,-3.38415,-1.46341,-1.46341,-9.98005,-0.395178,-1.03704,0.884146,-7.10366,6.64634
469.345,0.613179,-6.36421,0,0.399968,9.66151,-1.01549,-3.38415,-1.98171,-1.55488,-9.97286,-0.380808,-1.05141,1.03659,-7.31707,7.07317
469.355,0.647204,-6.36353,0,0.445474,9.62558,-1.07297,-3.2622,-0.945122,-1.98171,-9.86748,-0.265847,-1.1041,1.15854,-7.56098,7.86585
469.365,0.670664,-6.35904,0,0.426313,9.63756,-0.948428,-3.9939,0.762195,-2.31707,-9.93694,-0.217947,-1.09452,1.58537,-7.16463,8.71951
469.375,0.697878,-6.3253,0,0.464634,9.6663,-1.14003,-4.11585,2.37805,-2.34756,-10.0208,-0.191602,-0.972378,1.12805,-6.82927,9.72561
469.385,0.720352,-6.28808,0,0.467029,9.80042,-1.0586,-4.05488,3.5061,-2.5,-10.0447,-0.205972,-0.953218,0.701219,-6.92073,9.96951
469.395,0.738306,-6.24486,0,0.498164,9.83635,-0.986748,-4.11585,4.96951,-3.01829,-9.98723,-0.294587,-0.914897,-0.0304878,-7.34756,9.69512
469.406,0.776306,-6.23245,0,0.689766,9.58247,-0.965193,-3.93293,6.61585,-3.5061,-10.1022,-0.387993,-1.0562,-0.243902,-7.46951,9.35976
469.415,0.751396,-6.20493,0,0.268242,9.63277,-1.03704,-5.60976,9.35976,-4.26829,-10.1022,-0.416733,-0.986748,-0.457317,-8.29268,9.17683
469.425,0.679737,-6.19518,0,-0.167651,9.86748,-1.00112,-6.7378,10.122,-3.62805,-9.93454,-0.486189,-1.04423,-0.548781,-8.41463,9.39024
469.435,0.584124,-6.17801,0,-0.404758,9.93215,-1.18074,-8.35366,8.75,-3.20122,-10.1046,-0.65384,-1.02746,-0.670732,-8.96341,8.93293
469.445,0.480198,-6.18573,0,-0.421523,9.75252,-1.17356,-8.47561,6.34146,-4.17683,-10.1142,-0.725691,-1.13763,-0.487805,-9.02439,8.68902
469.455,0.38395,-6.1849,0,-0.304167,9.70462,-1.19751,-9.63415,2.28659,-5.12195,-9.92496,-0.787961,-1.08015,-0.27439,-9.35976,8.35366
469.465,0.301579,-6.17074,0,-0.143701,9.58966,-1.28373,-10.5183,-1.55488,-5.85366,-9.79563,-0.787961,-1.0083,-0.548781,-10.0305,8.32317
469.475,0.234852,-6.15379,0,0.00479004,9.57289,-1.36995,-10.7622,-1.55488,-6.25,-9.67348,-0.708926,-0.981958,-0.701219,-10.7927,7.83537
469.485,0.182913,-6.13725,0,0.134121,9.75012,-1.33403,-11.2195,-0.853659,-6.43293,-9.65911,-0.730481,-0.979563,-1.21951,-11.0671,7.86585
469.496,0.141391,-6.1249,0,0.246687,9.84353,-1.3005,-11.7378,-2.80488,-6.79878,-9.67348,-0.785566,-0.996328,-1.98171,-11.0976,7.53049
469.505,0.109417,-6.11121,0,0.397573,9.87467,-1.38193,-11.2805,-1.89024,-7.68293,-9.86748,-0.804727,-1.0083,-2.28659,-11.2195,7.2561
469.515,0.0824327,-6.12776,0,0.536484,9.93215,-1.38911,-10.4268,0.579268,-8.84146,-9.87467,-0.790356,-1.14003,-1.98171,-11.372,6.70732
469.525,0.0639801,-6.14439,0,0.699346,9.92736,-1.39869,-10.0305,3.23171,-9.93902,-10.0782,-0.809517,-1.16637,-2.40854,-10.8841,6.37195
469.535,0.0490006,-6.17665,0,0.783171,9.8555,-1.41067,-10.4878,4.39024,-10.6707,-10.0279,-0.804727,-1.23344,-2.65244,-10.7622,6.25
469.545,0.032888,-6.18781,0,0.785566,9.97765,-1.34361,-11.0671,6.18902,-10.7317,-10.1142,-0.778381,-1.1544,-3.04878,-10.6707,6.7378
469.555,0.0144305,-6.18528,0,0.759221,9.97286,-1.24062,-11.5549,5.82317,-10.7012,-10.1166,-0.792751,-1.09452,-4.20732,-10.3354,6.95122
469.566,0.00848254,-6.19107,0,0.785566,9.88904,-1.2023,-12.2866,4.60366,-9.84756,-9.89143,-0.821492,-1.1065,-4.87805,-10.3354,7.53049
469.575,0.0225091,-6.17918,0,0.893342,9.89143,-1.13763,-12.2866,3.07927,-9.08537,-9.7142,-0.866997,-1.0107,-5.91463,-9.90854,8.23171
469.585,0.0670582,-6.16673,0,1.08973,9.92496,-1.12326,-12.6524,2.59146,-8.20122,-9.57289,-0.931663,-0.991538,-6.58537,-9.81707,8.38415
469.595,0.140697,-6.14361,0,1.24541,9.89383,-1.02267,-12.9878,1.92073,-7.0122,-9.4723,-0.914897,-0.934058,-6.18902,-9.87805,8.38415
469.605,0.252628,-6.12061,0,1.38672,9.89383,-1.03225,-13.3841,1.21951,-4.78659,-9.46033,-0.912502,-0.929268,-6.31098,-9.5122,8.90244
469.615,0.442957,-6.09494,0,1.59029,9.79803,-1.02028,-14.5427,0.487805,-2.22561,-9.49625,-0.893342,-0.917292,-5.54878,-9.05488,9.39024
469.626,0.791507,-6.04503,0,1.81542,9.63995,-0.998723,-15.7012,1.31098,1.06707,-9.54176,-0.866997,-0.814307,-4.72561,-8.65854,10.2744
469.635,1.05285,-5.98639,0,1.91123,9.62558,-0.883762,-16.8598,1.03659,5.12195,-9.60163,-0.811912,-0.773591,-4.20732,-8.29268,11.0061
469.645,1.34932,-5.93297,0,1.86572,9.64714,-0.701741,-18.3841,-1.37195,10.061,-9.57289,-0.66821,-0.783171,-3.35366,-7.7439,11.8598
469.655,1.68188,-5.86819,0,1.75555,9.66151,-0.378413,-19.0549,-5.15244,15.6707,-9.57289,-0.637075,-0.725691,-2.92683,-6.95122,12.7134
469.665,2.07539,-5.80212,0,1.76273,9.65432,-0.0814307,-19.1768,-7.92683,22.4695,-9.59684,-0.641865,-0.711321,-2.56098,-6.03659,13.4146
469.675,2.55315,-5.7265,0,1.94236,9.53218,0.107776,-18.7805,-10.0305,29.4817,-9.59445,-0.752036,-0.661025,-2.22561,-5.27439,13.628
469.685,3.13378,-5.66145,0,2.2609,9.30465,0.136516,-18.3537,-10.5488,36.5854,-9.57289,-0.804727,-0.692161,-0.945122,-4.93902,14.0549
469.695,3.81879,-5.5961,0,2.57944,9.2831,0.0143701,-18.2317,-9.87805,44.6037,-9.51302,-0.775986,-0.675395,1.15854,-5.12195,14.3598
469.705,4.60018,-5.53641,0,2.78062,9.34776,0.00239502,-20.8232,-10.0915,53.7195,-9.56092,-0.749641,-0.692161,3.04878,-4.84756,14.3598
469.715,5.491,-5.4703,0,3.15664,9.4747,-0.0407153,-25.9756,-11.25,62.6829,-9.54415,-0.682581,-0.65384,5.73171,-5,13.7805
469.726,6.51322,-5.39875,0,3.66438,9.39087,-0.105381,-32.622,-14.9695,72.0122,-9.42201,-0.390388,-0.61073,8.87195,-5.70122,13.3841
469.735,7.68412,-5.341,0,4.42839,9.30944,-0.318538,-34.6037,-16.0671,80.8537,-9.25915,-0.00958008,-0.64426,12.0122,-6.31098,12.9268
469.745,8.98574,-5.25726,0,5.0008,8.87594,-0.708926,-29.2073,-13.0183,88.5061,-9.1849,0.416733,-0.524509,14.0244,-6.85976,12.561
469.755,10.3232,-5.19186,0,4.97206,8.68674,-1.06578,-18.3537,-3.93293,94.0244,-9.24717,0.725691,-0.589175,14.7866,-7.28659,12.0427
469.766,11.5734,-5.11366,0,4.4236,9.37171,-1.11847,-6.70732,9.14634,97.0732,-9.42201,0.979563,-0.536484,15.3049,-8.10976,11.2805
469.775,12.7141,-5.05406,0,3.73144,10.5692,-0.720901,-0.487805,21.128,100.335,-9.72138,1.0083,-0.62031,14.8476,-8.47561,9.90854
469.785,13.7843,-5.03102,0,2.90037,11.2231,0.0431104,0,23.9329,105.579,-10.1309,1.01788,-0.799937,13.811,-8.5061,8.29268
469.795,14.8363,-5.02091,0,2.34712,11.3404,0.766406,-2.5,23.5366,111.616,-10.4375,1.04183,-0.878972,12.0427,-7.65244,7.65244
469.805,15.8381,-5.06824,0,1.45857,11.1728,2.12199,-0.121951,17.1951,117.317,-10.7417,1.04662,-1.17595,10.0305,-6.61585,8.2622
469.815,16.8178,-5.15139,0,0.998723,11.3308,3.20933,8.35366,2.83537,122.012,-11.2039,1.03704,-1.41306,8.20122,-5.15244,9.39024
469.825,17.8392,-5.2661,0,1.22625,11.0602,2.88121,13.689,-13.8415,125.64,-11.3356,0.950823,-1.60466,6.4939,-4.42073,10.6098
469.835,18.9178,-5.40076,0,2.07169,10.8878,1.346,14.5122,-19.4817,124.482,-11.4362,0.864602,-1.74357,5.85366,-4.11585,11.372
469.845,19.9261,-5.53981,0,2.57225,11.2518,-0.61073,6.43293,-9.08537,115.213,-11.3141,0.802332,-1.7771,5.57927,-4.87805,11.2195
469.855,20.7403,-5.67277,0,2.58902,10.8542,-1.45617,-0.0609756,6.18902,96.3719,-11.0722,0.65863,-1.73878,6.18902,-6.21951,10.6402
469.865,21.3776,-5.829,0,2.62494,10.3561,-1.50168,0.457317,14.8476,78.3232,-10.871,0.579595,-1.84896,7.10366,-7.31707,10.122
469.875,21.8692,-5.99788,0,2.5507,10.3992,-0.914897,3.41463,10.7317,65.6707,-10.7393,0.507744,-1.91841,8.04878,-7.31707,9.84756
469.885,22.2673,-6.17447,0,2.47645,9.96328,-0.0981958,6.55488,3.29268,56.7683,-10.6243,0.447869,-1.96631,8.87195,-6.61585,10.2134
469.895,22.6133,-6.3314,0,2.5004,9.54655,0.373623,9.2378,-5.57927,50.7927,-10.404,0.409548,-1.86572,9.60366,-6.76829,10.8537
469.905,22.933,-6.45971,0,2.72314,9.24478,0.308958,12.1646,-6.37195,45.2744,-10.1285,0.428708,-1.71483,10.3963,-7.92683,11.9512
469.915,23.2418,-6.57187,0,3.14466,8.90708,-0.0694556,15.0915,3.10976,38.628,-9.9058,0.414338,-1.62861,11.6159,-9.08537,12.6829
469.925,23.5462,-6.63987,0,3.62845,8.59812,-0.0119751,17.378,16.6159,31.7988,-9.65911,0.469424,-1.41546,12.3171,-9.72561,13.3537
469.935,23.8383,-6.68006,0,4.06914,8.35622,0.241897,18.7805,28.7805,24.878,-9.48907,0.517324,-1.28373,13.2622,-10.061,13.5671
469.945,24.1129,-6.71557,0,4.48348,8.23168,0.150886,18.2927,40.8841,18.3537,-9.37411,0.565225,-1.25499,13.811,-9.81707,13.811
469.955,24.3601,-6.7096,0,4.73256,7.99697,0.124541,17.6524,52.1646,11.9512,-9.29507,0.66821,-1.07776,14.1463,-9.93902,13.1707
469.965,24.5675,-6.68776,0,4.73495,7.76705,0.213157,18.811,63.689,6.79878,-9.29507,0.843047,-1.0107,14.0549,-9.57317,12.9268
469.975,24.7237,-6.63439,0,4.43797,7.75747,0.335303,20.2439,72.3781,3.14024,-9.29268,0.991538,-0.876577,13.4146,-9.81707,12.7439
469.985,24.87,-6.59069,0,3.91107,7.8365,0.462239,21.0671,79.6037,0.670732,-9.31902,1.20709,-0.910107,11.0976,-9.42073,12.2866
469.996,24.7188,-6.54291,0,3.41769,8.09277,0.426313,21.3415,81.6159,-0.731707,-9.35016,1.346,-0.888552,8.84146,-8.90244,12.4695
470.005,24.581,-6.5123,0,3.13508,8.16223,0.340093,20.1524,79.7256,-2.34756,-9.39087,1.4897,-0.955613,6.70732,-8.04878,12.2866
470.015,24.4131,-6.46426,0,2.86444,8.41849,0.452659,15.7012,75.6707,-4.87805,-9.43638,1.50168,-0.881367,3.56707,-6.7378,11.9512
470.025,24.2009,-6.42741,0,2.61297,8.53585,0.948428,11.25,67.5305,-6.46341,-9.55613,1.42743,-0.931663,1.18902,-5.97561,11.25
470.035,24.0277,-6.39249,0,2.94348,8.54303,1.06099,10.8232,62.5,-7.04268,-9.68306,1.29571,-0.946033,-1.4939,-5.42683,10.1829
470.045,23.8721,-6.37083,0,2.91234,8.5574,1.60706,13.4451,48.3841,-4.90854,-9.79563,1.12805,-1.0083,-3.68902,-4.96951,8.96341
470.055,23.7634,-6.38135,0,3.17819,8.49034,1.83219,14.6646,34.5427,-2.77439,-9.91059,0.989143,-1.15679,-5.21341,-4.90854,7.62195
470.065,23.7576,-6.41786,0,3.78892,8.58615,1.35558,11.7988,24.3293,-0.823171,-9.9561,0.828677,-1.27655,-5.79268,-4.32927,6.40244
470.075,23.8929,-6.45174,0,4.23679,8.48076,1.03225,11.0671,14.8171,-0.548781,-9.98963,0.699346,-1.27655,-6.06707,-4.5122,5.60976
470.085,24.1393,-6.49354,0,4.75411,8.19336,1.14482,12.8659,10,-0.914634,-9.92017,0.593965,-1.31008,-5.79268,-5.15244,4.84756
470.095,24.4116,-6.55646,0,4.96248,8.11433,1.54479,18.1707,7.83537,-0.945122,-9.81719,0.459844,-1.3963,-4.96951,-5.30488,4.54268
470.105,24.7258,-6.62287,0,4.93853,8.44005,1.35798,18.0488,7.34756,-0.121951,-9.70701,0.419128,-1.40827,-3.93293,-5.97561,4.11585
470.115,24.9994,-6.69887,0,5.05828,8.44963,0.823887,13.1707,4.54268,0.457317,-9.6639,0.376018,-1.45378,-2.86585,-5.57927,3.90244
470.125,25.2589,-6.78142,0,5.18043,8.40891,0.584385,8.93293,8.44512,-0.609756,-9.65672,0.409548,-1.49449,-1.95122,-5.70122,3.75
470.135,25.4989,-6.86435,0,5.05349,8.14546,0.934058,10.9451,11.5244,-0.97561,-9.6639,0.452659,-1.51126,-1.09756,-5.60976,3.84146
470.145,25.7703,-6.944,0,5.22833,8.27,0.883762,13.4756,14.3293,-0.640244,-9.7118,0.510139,-1.52084,-0.27439,-6.31098,4.02439
470.155,26.0849,-7.03568,0,5.34808,8.2724,0.754431,13.9329,16.4634,0.457317,-9.68306,0.646655,-1.58311,0.609756,-6.55488,4.48171
470.165,26.3224,-7.13542,0,5.40795,8.27479,0.737666,13.2622,18.0183,1.09756,-9.67588,0.740061,-1.6334,1.21951,-6.7378,4.5122
470.176,26.6453,-7.23824,0,5.41035,8.05924,0.819097,12.1037,20.1524,0.670732,-9.72378,0.807122,-1.67172,1.55488,-6.34146,4.84756
470.185,27.1492,-7.34749,0,5.24988,7.87722,1.04662,10.0305,20.9756,-0.0304878,-9.65672,0.814307,-1.70525,1.85976,-6.03659,4.42073
470.195,27.4031,-7.46211,0,4.8068,7.76465,1.11608,8.01829,21.0366,-0.701219,-9.60163,0.843047,-1.73639,2.37805,-5.70122,4.05488
470.205,27.4877,-7.58878,0,4.39486,7.65448,1.05141,6.98171,18.1402,-1.58537,-9.59684,0.833467,-1.80584,2.5,-5.33537,3.53659
470.215,27.4934,-7.69897,0,4.09548,7.53952,1.10889,6.03659,11.0671,-2.56098,-9.58008,0.787961,-1.75315,2.5,-5.33537,3.17073
470.225,27.4682,-7.80525,0,4.03082,7.43414,1.06818,6.46341,2.95732,-4.69512,-9.68067,0.838257,-1.77231,2.43902,-5,2.77439
470.235,27.4347,-7.90952,0,4.0859,7.34313,1.11129,8.41463,-4.78659,-6.76829,-9.72138,0.984353,-1.78668,2.16463,-4.57317,1.70732
470.245,27.3967,-8.01206,0,4.23439,7.4054,1.07297,9.84756,-10.3354,-8.62805,-9.80042,1.13763,-1.80584,1.61585,-3.93293,1.46341
470.255,27.3406,-8.08656,0,4.34936,7.60658,0.960403,9.69512,-13.0183,-10.5488,-9.92257,1.24302,-1.72202,0.701219,-3.65854,0.914634
470.265,27.2841,-8.16113,0,4.61999,7.78621,0.840652,9.39024,-15.3354,-12.5915,-9.96328,1.35079,-1.74597,-0.335366,-3.90244,-0.304878
470.275,27.2177,-8.18965,0,4.81638,7.96344,0.835862,9.35976,-18.3232,-14.6951,-9.98963,1.36995,-1.56155,-2.0122,-4.02439,-1.06707
470.285,27.1566,-8.21783,0,5.11816,8.02092,0.989143,10,-21.5854,-17.1037,-9.98484,1.45378,-1.56634,-3.29268,-4.66463,-2.07317
470.295,27.1068,-8.24084,0,5.44867,8.12151,0.924478,11.8293,-24.2378,-18.75,-9.94173,1.4897,-1.54239,-4.63415,-5.03049,-2.43902
470.306,27.0853,-8.32465,0,5.89175,8.23647,0.850232,12.5,-23.1098,-19.4817,-9.83156,1.52084,-1.78908,-6.15854,-3.87195,-2.07317
470.315,27.1147,-8.48919,0,6.36596,8.32748,0.895737,11.6768,-21.4634,-18.0488,-9.71659,1.37235,-2.00463,-7.59146,-1.85976,-1.79878
470.325,27.204,-8.75569,0,6.79946,8.30593,0.646655,10.9146,-17.3171,-15.7622,-9.55373,1.29331,-2.07169,-9.11585,0.853659,-1.95122
470.336,27.2385,-8.92384,0,6.62462,8.72985,-0.179626,14.3293,-6.85976,-16.8598,-9.64474,1.12805,-1.81542,-9.72561,0.396341,-3.10976
470.345,27.0173,-8.81432,0,5.64985,10.6483,-0.744851,17.3476,4.69512,-24.0244,-10.2243,0.912502,-1.1544,-8.81098,-2.37805,-4.48171
470.355,26.4829,-8.64719,0,4.12662,12.8732,0.134121,18.628,13.811,-35.6707,-10.7632,0.337698,-0.871787,-5.60976,-6.52439,-5.39634
470.365,25.7512,-8.55494,0,2.36867,13.757,1.7316,16.9207,4.2378,-40.5488,-11.1536,-0.201182,-1.24302,0,-8.29268,-4.78659
470.375,25.1336,-8.52538,0,2.14115,11.9583,2.33754,15.5488,-23.7805,-31.189,-11.4266,-0.847837,-1.57353,6.67683,-6.46341,-2.04268
470.385,24.8581,-8.48156,0,4.26313,10.6818,1.80345,11.5244,-42.2561,-21.2195,-11.8386,-1.07057,-1.54718,14.2073,-5.12195,0.396341
470.396,24.901,-8.41024,0,6.61744,10.574,1.61424,4.78659,-41.311,-10.2744,-11.9559,-0.64905,-1.40827,20.3659,-7.5,1.67683
470.405,25.2796,-8.36638,0,8.40652,9.7621,1.22864,8.41463,-34.1159,6.31098,-11.259,-0.435894,-1.44899,30.8537,-6.0061,2.83537
470.415,25.8883,-8.2161,0,9.80042,8.97653,-1.21906,27.9268,-12.7744,16.7378,-10.6219,0.275427,-0.859812,35.7012,-4.54268,3.9939
470.426,26.2913,-7.97355,0,7.34792,9.58247,-3.64761,38.6585,24.0854,17.4695,-10.3058,0.752036,-0.471819,36.25,-2.53049,4.45122
470.435,26.1097,-7.69348,0,2.11241,10.2555,-2.53393,30.5793,47.378,11.372,-10.507,0.823887,-0.385598,35.2744,1.52439,3.41463
470.445,24.7736,-7.45161,0,-1.58311,9.73815,0.459844,22.5305,32.5305,0.731707,-10.6914,1.14721,-0.289797,32.4085,7.31707,1.31098
470.455,23.7726,-7.18381,0,-2.91474,8.31551,2.05493,20.9451,-5.4878,-12.1646,-10.8758,1.59029,-0.119751,28.1707,11.7378,1.4939
470.466,22.6907,-6.89048,0,-2.43094,7.60419,1.64538,22.9268,-37.4695,-25.7012,-10.8902,1.91123,0.0598755,22.1037,18.5061,2.10366
470.476,21.8282,-6.52768,0,-0.354463,7.94667,0.732876,20.8841,-59.5732,-36.4939,-11.1392,1.84656,0.462239,15.6402,21.2195,2.40854
470.485,21.1766,-6.13551,0,1.54239,8.95258,-1.67412,16.5549,-64.4207,-41.8902,-11.2087,1.46096,0.682581,8.65854,22.0427,1.79878
470.495,20.5686,-5.72817,0,2.26569,10.0471,-3.09676,17.6829,-64.5122,-44.7561,-11.2063,0.941243,0.833467,2.7439,20.7622,-0.823171
470.505,19.9066,-5.25128,0,2.10762,11.1871,-3.52307,20.3354,-61.6768,-47.3476,-11.1632,0.467029,1.2526,-2.13415,17.7439,-3.62805
470.515,19.2103,-4.69561,0,1.99745,11.7093,-2.76146,20.1524,-58.75,-50.1829,-11.1105,-0.0359253,1.7292,-6.46341,13.2622,-5.97561
470.525,18.5205,-4.13712,0,2.13636,10.9931,-2.08846,17.1341,-47.5915,-53.628,-10.7872,-0.57241,1.79626,-9.93902,9.48171,-7.46951
470.535,17.9012,-3.5815,0,2.692,10.0687,-1.83698,17.3476,-32.6829,-55.9451,-10.313,-1.15679,1.80105,-12.2561,6.52439,-8.17073
470.545,17.3197,-2.98907,0,2.98419,9.66869,-2.15791,14.7866,-18.4451,-57.8049,-9.96807,-1.47773,1.91602,-14.1768,3.56707,-7.95732
470.555,16.7168,-2.36943,0,2.81175,9.39327,-2.5507,11.5549,-9.7561,-60.1829,-9.54415,-1.62143,1.85135,-14.4512,2.7439,-6.85976
470.565,16.0203,-1.67422,0,2.0693,9.20885,-2.23216,10.4573,-10,-62.8049,-9.15616,-1.42983,1.71483,-14.7561,2.10366,-5.15244
470.575,15.2072,-1.15568,0,1.12087,9.23999,-2.09085,9.84756,-10.7317,-64.3902,-8.97653,-1.10171,1.45857,-14.5427,2.92683,-2.16463
470.585,14.3484,-0.826759,0,0.63468,9.29747,-2.01421,9.35976,-12.8354,-64.5732,-8.92863,-0.732876,1.0562,-13.4451,4.39024,1.4939
470.596,13.5059,-0.591926,0,0.462239,9.18729,-2.09085,9.29878,-17.2256,-62.561,-9.12263,-0.550855,0.807122,-12.1037,5.67073,3.68902
470.605,12.6745,-0.419326,0,0.182021,9.25196,-2.07409,10.1829,-24.6951,-59.5732,-9.46751,-0.56762,0.6251,-10.4268,6.34146,3.56707
470.615,11.8896,-0.320908,0,0.208367,9.25915,-2.28964,10.8537,-31.4939,-56.8598,-9.84593,-0.673001,0.359253,-8.78049,6.37195,2.07317
470.625,11.089,-0.26087,0,-0.205972,9.24478,-2.17707,10.2744,-45.3659,-54.8171,-10.1309,-0.910107,0.215552,-7.53049,5.91463,-1.4939
470.635,10.345,-0.212124,0,0.0335303,9.13939,-2.00463,10.1829,-51.7683,-53.7195,-10.2531,-0.991538,0.174836,-7.7439,4.54268,-4.72561
470.645,9.6634,-0.182188,0,0.371228,9.2304,-2.05253,9.69512,-62.5915,-53.1402,-10.1429,-1.04183,0.0934058,-8.20122,3.38415,-6.85976
470.655,9.14554,-0.131991,0,1.56155,9.4268,-2.10043,7.71341,-64.1768,-52.3171,-9.94652,-0.895737,0.146096,-9.93902,1.89024,-6.95122
470.665,8.73805,-0.0527144,0,2.38065,9.52499,-2.22737,5.97561,-62.2561,-51.5549,-9.78844,-0.728086,0.167651,-12.6829,0.884146,-6.09756
470.675,8.38436,0.044725,0,2.79738,9.57529,-2.22976,5,-56.189,-51.4939,-9.62079,-0.62031,0.141306,-15.6402,-0.27439,-4.32927
470.685,8.03396,-0.0147304,0,2.77822,9.46991,-2.31359,3.90244,-42.8049,-52.0122,-9.45554,-0.486189,-0.114961,-18.2927,-0.97561,-2.71341
470.695,7.6656,-0.0787243,0,2.54351,9.16813,-2.38783,4.66463,-33.4146,-52.8354,-9.19448,-0.443079,-0.189207,-20.5488,-2.19512,-0.97561
470.705,7.24107,-0.168521,0,2.05253,8.96456,-2.32556,5.45732,-26.9817,-53.9939,-9.01964,-0.474214,-0.294587,-22.1037,-2.7439,0.823171
470.715,6.79081,-0.312748,0,1.86812,8.80649,-2.27287,6.61585,-20.8841,-55.6098,-8.83044,-0.593965,-0.431104,-22.1341,-2.56098,1.7378
470.725,6.32952,-0.565989,0,1.82261,8.76098,-2.28485,7.43902,-14.5122,-57.1951,-8.75619,-0.814307,-0.5772,-21.9512,-1.82927,2.2561
470.735,5.84792,-0.922363,0,1.69807,8.71787,-2.13875,7.89634,-9.57317,-58.7195,-8.7059,-1.03465,-0.63468,-21.25,-1.28049,1.79878
470.745,5.33798,-1.28107,0,1.51365,8.8496,-2.05253,8.47561,-6.55488,-59.9085,-8.7514,-1.29571,-0.704136,-19.878,-1.21951,0.914634
470.755,4.7803,-1.7306,0,1.10889,9.00767,-1.89207,8.32317,-6.67683,-60.3354,-8.79451,-1.53042,-0.819097,-17.8049,-0.914634,-0.396341
470.765,4.21004,-2.03742,0,0.895737,9.12263,-1.70525,7.89634,-5.06098,-59.878,-8.89031,-1.6837,-0.886157,-16.128,-1.43293,-1.76829
470.775,3.61725,-2.24042,0,0.55325,9.22322,-1.54958,7.71341,-8.20122,-58.9024,-8.95498,-1.75076,-0.866997,-14.3293,-2.07317,-2.31707
470.785,3.04756,-2.45285,0,0.524509,9.24238,-1.69567,8.04878,-10.7012,-57.378,-8.92145,-1.74836,-0.910107,-12.0732,-2.04268,-2.07317
470.795,2.50418,-2.66272,0,0.490979,9.20646,-1.80584,8.32317,-14.6037,-55.4573,-8.91426,-1.72441,-1.02746,-10.3659,-2.59146,-0.640244
470.805,1.99243,-2.86763,0,0.479004,9.09389,-1.69567,8.68902,-19.6037,-53.2622,-8.9454,-1.76273,-1.07536,-8.41463,-2.7439,1.46341
470.815,1.52638,-3.11556,0,0.550855,9.15376,-1.98068,8.32317,-23.2622,-50.5183,-8.92384,-1.69328,-1.21667,-6.58537,-2.59146,3.62805
470.826,1.10504,-3.38165,0,0.61552,9.137,-1.98787,8.53659,-26.3415,-47.7439,-8.8975,-1.61903,-1.28613,-4.14634,-2.5,5.70122
470.835,0.706313,-3.6652,0,0.522114,9.19927,-1.92081,7.5,-22.8963,-45.061,-8.86157,-1.55437,-1.31966,-2.34756,-2.28659,8.04878
470.845,0.395207,-4.06396,0,1.03944,9.31902,-2.13396,6.95122,-23.9329,-43.2927,-8.90229,-1.59269,-1.46815,-0.487805,-1.58537,9.54268
470.855,0.110012,-4.69022,0,1.07297,9.24957,-2.20581,7.31707,-21.9207,-41.7988,-8.90708,-1.48252,-1.62622,1.15854,-0.884146,10.1829
470.866,-0.148853,-5.42274,0,1.29571,9.59205,-2.53633,8.84146,-15.4268,-41.8902,-8.89989,-1.50168,-1.86093,2.59146,0.792683,10.122
470.875,-0.423734,-5.8281,0,1.23344,9.5226,-2.61057,8.53659,-10.6098,-43.4146,-8.85439,-1.59987,-2.13157,4.48171,2.59146,10.0305
470.885,-0.752578,-6.18145,0,0.890947,9.5705,-2.27766,7.22561,-6.0061,-45.2744,-8.80409,-1.75794,-2.28006,7.53049,4.96951,10.5183
470.895,-1.09117,-6.54387,0,0.876577,9.73575,-2.21779,6.12805,-2.92683,-46.5854,-8.78493,-1.98787,-2.39741,10.2744,6.70732,10.9451
470.905,-1.50159,-6.86377,0,0.251477,9.81,-1.80105,3.75,-10.3659,-47.1037,-8.84241,-2.28724,-2.29922,13.2927,8.47561,12.0122
470.915,-1.91799,-7.09765,0,0.00479004,10.0351,-1.91123,-0.365854,-15.8232,-45.6098,-9.15376,-2.6944,-2.0669,15.4573,8.96341,11.7683
470.926,-2.20491,-7.235,0,0.914897,10.1645,-2.71595,-3.07927,-17.2866,-43.689,-9.62079,-2.79499,-1.78668,18.0793,9.05488,11.0671
470.935,-2.47472,-7.24539,0,0.764011,9.93454,-2.73272,-7.68293,-27.5915,-41.0061,-10.2722,-2.60339,-1.346,18.9634,6.46341,10.9756
470.945,-2.63089,-7.2899,0,1.36516,9.51302,-3.24286,-11.7378,-27.0427,-37.6524,-10.6363,-2.14833,-1.55916,19.6341,5.33537,11.7378
470.955,-2.72003,-7.2948,0,1.45378,8.93582,-3.16382,-13.2012,-26.25,-33.3232,-10.7081,-1.73399,-1.38911,20.2134,4.29878,12.3476
470.965,-2.77751,-7.24752,0,1.28852,8.94779,-2.99377,-13.0793,-26.5549,-28.1402,-10.5285,-1.31487,-1.13524,20.0305,2.65244,13.4451
470.975,-2.75497,-7.27021,0,1.61903,9.18011,-3.22849,-13.4756,-24.7866,-23.7805,-10.0016,-0.991538,-1.35319,19.2378,1.82927,14.6646
470.985,-2.67229,-7.43626,0,1.72441,9.06036,-3.29555,-13.7805,-20.8841,-19.1768,-9.50104,-0.730481,-1.89207,19.3902,3.87195,15.7317
470.995,-2.55679,-7.66207,0,1.65975,9.01006,-3.17101,-12.1951,-16.7683,-14.9695,-9.24717,-0.706531,-2.15073,20.5793,7.59146,16.1585
471.005,-2.42252,-7.88585,0,1.59987,9.30226,-2.92432,-9.69512,-13.689,-11.4329,-9.49386,-0.902922,-2.23695,23.2927,11.0671,15.4878
471.015,-2.24663,-8.06118,0,1.7771,9.96089,-2.75667,-8.84146,-12.8354,-7.65244,-9.97286,-1.33163,-2.1651,25.7012,13.0488,13.1098
471.025,-2.00948,-8.10436,0,1.99505,10.4399,-2.69919,-9.39024,-13.1402,-3.17073,-10.7225,-1.60466,-1.71483,27.2561,13.1707,10.3049
471.035,-1.69402,-8.07686,0,2.2585,10.9836,-2.55549,-12.5305,-12.8049,1.15854,-11.52,-1.45138,-1.48491,27.4085,13.1707,5.85366
471.045,-1.34795,-7.99956,0,2.44052,11.4602,-2.32556,-17.1037,-18.2927,7.31707,-12.2242,-1.05381,-1.29571,25.9451,15,1.7378
471.055,-0.878501,-7.81079,0,2.9315,11.3308,-2.01661,-23.689,-22.9878,15.5488,-12.7487,-0.725691,-0.701741,22.439,16.5854,-1.76829
471.065,-0.279737,-7.45915,0,3.29794,11.2877,-1.54479,-32.3171,-24.6646,26.0671,-13.2349,-0.162861,0.265847,17.2256,16.5244,-3.78049
471.075,0.455513,-7.03594,0,3.71468,11.6997,-1.12566,-42.1341,-25.2439,38.5061,-13.5869,0.299377,0.785566,12.1037,16.372,-4.11585
471.085,1.28213,-6.58941,0,3.58774,12.5475,-1.03465,-55.4268,-24.5122,52.7134,-13.8648,0.6251,1.04662,7.43902,15.5488,-2.59146
471.095,2.13971,-6.13064,0,2.72074,12.593,-0.843047,-70.2439,-24.0549,65.2439,-14.054,0.59157,1.24541,2.95732,13.811,-2.2561
471.105,3.06964,-5.78228,0,2.15312,11.6206,0.160466,-74.7561,-23.7195,77.8354,-12.8062,0.0598755,0.61073,0.0914634,12.9268,-3.14024
471.115,4.13177,-5.4237,0,2.03337,10.7441,0.641865,-71.5854,-25.3963,92.7744,-11.1608,-0.507744,0.64905,2.34756,11.2195,-4.11585
471.125,5.35934,-5.10628,0,2.08606,10.0735,0.462239,-70.3049,-24.4817,109.817,-9.51302,-1.03465,0.440684,9.02439,12.2256,-3.78049
471.135,6.6951,-4.79438,0,1.83458,9.46272,0.158071,-69.1463,-23.5366,124.848,-8.49992,-1.48731,0.421523,17.1341,13.9634,-1.92073
471.145,8.04744,-4.41236,0,1.11368,9.72378,-0.0455054,-62.5305,-30.1524,138.323,-8.21731,-1.82261,0.706531,25.5183,12.5305,-0.121951
471.155,9.36842,-4.02443,0,0.455054,10.6411,-0.268242,-51.7378,-36.25,146.22,-8.47358,-2.213,0.804727,32.0732,9.29878,0.670732
471.165,10.6013,-3.63009,0,-0.150886,11.9416,-1.14721,-39.3293,-40.9756,146.402,-8.9454,-2.12199,0.910107,37.0732,5.42683,0.853659
