time,angle1,angle2,intgangle,accX1,accY1,accZ1,gyroX1,gyroY1,gyroZ1,accX2,accY2,accZ2,gyroX2,gyroY2,gyroZ2
389.304,69.875,13.7104,0,8.66039,3.10634,4.09309,-0.579268,-0.121951,-1.40244,-9.60163,0.0239502,2.28964,0.792683,0.304878,6.06707
389.314,69.8777,13.6991,0,8.66039,3.06562,4.02842,-0.731707,-0.457317,-1.4939,-9.60882,0.0694556,2.32317,0.823171,0.27439,5.91463
389.324,69.881,13.7123,0,8.63884,3.05125,4.06674,-0.609756,0.0304878,-1.52439,-9.58726,0.0598755,2.35909,1.03659,-0.0914634,6.03659
389.334,69.8873,13.7392,0,8.62686,3.03688,4.02363,-1.09756,-0.396341,-1.43293,-9.58726,0.138911,2.38304,0.914634,0.0304878,5.85366
389.344,69.8865,13.7164,0,8.62446,3.07042,4.038,-1.06707,0.0304878,-1.52439,-9.57289,0.0910107,2.30161,0.97561,0.152439,5.79268
389.354,69.8882,13.7318,0,8.6101,3.05844,4.04758,-0.914634,-0.0914634,-1.43293,-9.55373,0.141306,2.3567,0.823171,0.0609756,5.88415
389.364,69.8978,13.744,0,8.6101,3.02012,4.02363,-0.884146,-0.0609756,-1.34146,-9.58008,0.148491,2.36149,0.579268,0.0914634,5.4878
389.374,69.9064,13.7678,0,8.6101,3.05125,4.06195,-0.792683,-0.457317,-1.03659,-9.55613,0.158071,2.38065,0.426829,0.243902,5.7622
389.384,69.9179,13.7644,0,8.61489,3.04167,4.09309,-0.518293,-0.426829,-0.97561,-9.58487,0.172441,2.34233,0.0914634,0.335366,5.88415
389.394,69.928,13.7887,0,8.62207,3.04646,4.09309,-0.487805,-0.670732,-1.0061,-9.57768,0.193997,2.38544,0.0914634,0.0304878,5.88415
389.404,69.9435,13.7934,0,8.62926,3.02491,4.07872,-0.457317,-0.914634,-0.945122,-9.5705,0.189207,2.3567,-0.365854,0.0914634,6.06707
389.414,69.9621,13.8007,0,8.62686,3.00335,4.04998,-0.365854,-0.823171,-0.97561,-9.5705,0.165256,2.36149,-0.152439,0.0609756,6.37195
389.424,69.9865,13.8028,0,8.65081,2.97701,4.07393,0.0609756,-0.97561,-0.97561,-9.55134,0.119751,2.34951,-0.457317,0.0609756,6.43293
389.434,70.0046,13.7985,0,8.59093,2.96743,4.12901,0.0914634,-1.40244,-1.15854,-9.55852,0.0694556,2.33993,-0.365854,0.487805,6.85976
389.444,70.0253,13.7973,0,8.62207,2.96264,4.10985,0.243902,-1.52439,-1.12805,-9.49625,0.0407153,2.33035,-0.243902,0.365854,6.92073
389.454,70.0428,13.7888,0,8.64123,2.99617,4.07632,0.365854,-1.7378,-1.0061,-9.53218,0.0407153,2.32317,-0.426829,0.579268,6.95122
389.464,70.052,13.7701,0,8.66039,3.00814,4.07632,0.518293,-1.76829,-1.37195,-9.53218,0.00718506,2.30161,-0.304878,0.518293,7.19512
389.474,70.0556,13.7624,0,8.64602,3.00814,4.07153,0.487805,-1.82927,-1.67683,-9.50104,0.0359253,2.31119,0.0609756,0.792683,7.43902
389.484,70.0561,13.7686,0,8.67716,3.04646,3.98052,0.640244,-1.98171,-1.58537,-9.47949,0.0526904,2.33754,-0.152439,0.914634,7.56098
389.494,70.0582,13.7549,0,8.66518,3.0297,4.00687,0.548781,-1.85976,-1.61585,-9.53697,0.0694556,2.30401,-0.27439,0.884146,7.5
389.504,70.0541,13.7537,0,8.71308,3.08479,3.97573,0.365854,-1.64634,-1.61585,-9.59684,0.00239502,2.34712,-0.304878,0.884146,7.59146
389.514,70.0486,13.7345,0,8.7059,3.0776,3.97573,0.152439,-1.4939,-1.79878,-9.59205,-0.0143701,2.29922,-0.426829,0.914634,7.31707
389.524,70.0467,13.6953,0,8.72506,3.06323,3.93741,0.0914634,-1.52439,-1.76829,-9.62319,-0.0287402,2.24653,-0.213415,1.03659,7.71341
389.534,70.046,13.6771,0,8.77535,3.07281,3.91346,-0.27439,-1.03659,-1.76829,-9.6184,-0.0143701,2.29682,-0.121951,0.945122,7.71341
389.544,70.0429,13.6475,0,8.73943,3.06562,4.00687,-0.152439,-1.12805,-1.89024,-9.6184,0.0119751,2.27527,-0.0609756,0.579268,7.34756
389.554,70.0414,13.6328,0,8.72506,3.05604,3.93023,-0.182927,-0.487805,-1.82927,-9.58726,-0.0167651,2.29203,-0.121951,0.853659,7.31707
389.564,70.0395,13.6216,0,8.69632,3.04167,3.95178,-0.518293,-0.27439,-1.92073,-9.62079,-0.0263452,2.3088,-0.0609756,0.579268,7.19512
389.574,70.0308,13.589,0,8.71548,3.0776,3.91586,-0.335366,0.0304878,-2.13415,-9.63037,0.0143701,2.26569,0.27439,0.457317,7.34756
389.584,70.0226,13.6043,0,8.73943,3.09437,3.94699,-0.335366,0.365854,-2.0122,-9.58966,0.0431104,2.35191,0.0304878,0.548781,7.37805
389.594,70.0194,13.6003,0,8.72745,3.08,3.91346,-0.853659,0.426829,-1.7378,-9.58247,0.0526904,2.31119,-0.243902,0.457317,7.22561
389.604,70.0181,13.5698,0,8.73703,3.06562,3.97813,-0.518293,0.792683,-1.79878,-9.59205,0.0431104,2.2585,-0.243902,0.457317,7.07317
389.614,70.0146,13.5604,0,8.7059,3.05125,3.96376,-0.640244,1.03659,-2.0122,-9.54894,0.0574805,2.28724,-0.426829,0.365854,7.04268
389.624,70.0143,13.5514,0,8.71069,3.03928,3.99729,-0.518293,1.03659,-1.92073,-9.52739,0.0239502,2.28245,-0.396341,0.243902,7.0122
389.634,70.0195,13.5299,0,8.71787,3.00814,3.94699,-0.487805,1.79878,-1.89024,-9.54655,0.0191602,2.26329,-0.0914634,0.243902,7.04268
389.644,70.0174,13.5062,0,8.68434,3.03928,3.99729,-0.640244,1.55488,-1.95122,-9.6184,0.00239502,2.27287,0.0304878,-0.152439,7.31707
389.654,70.0186,13.4882,0,8.69153,3.02251,3.99729,-0.396341,2.10366,-1.92073,-9.63277,0.00718506,2.28245,-0.152439,0.121951,7.40854
389.664,70.0205,13.4722,0,8.71308,3.0297,4.02603,-0.243902,2.13415,-1.85976,-9.64235,0.0335303,2.28245,0.304878,0.27439,7.37805
389.674,70.017,13.4442,0,8.67716,3.04167,4.01884,-0.396341,2.04268,-2.0122,-9.62798,0.0958008,2.25611,0.426829,-0.182927,7.10366
389.684,70.0158,13.4499,0,8.71548,3.03209,4.03561,-0.27439,2.31707,-2.07317,-9.62319,0.131726,2.31119,0.548781,-0.304878,7.10366
389.694,70.0128,13.4237,0,8.71069,3.06802,4.06435,-0.243902,2.16463,-1.79878,-9.6184,0.162861,2.2585,0.609756,0,6.95122
389.704,70.0122,13.4269,0,8.64842,3.03209,4.03561,-0.457317,2.19512,-1.79878,-9.59924,0.167651,2.29682,0.335366,0.152439,6.98171
389.714,70.0085,13.4185,0,8.6077,3.04407,4.06195,-0.457317,1.85976,-1.7378,-9.57768,0.129331,2.27287,0.27439,0.0609756,6.98171
389.724,70.01,13.4286,0,8.58375,3.00335,4.09788,-0.27439,1.89024,-1.7378,-9.59445,0.136516,2.3088,0.152439,0.335366,6.82927
389.734,70.0131,13.4135,0,8.58854,2.99377,4.09548,-0.0304878,2.0122,-1.7378,-9.5705,0.105381,2.2609,0.426829,0.0609756,7.16463
389.744,70.0186,13.4287,0,8.62207,2.99377,4.13141,-0.213415,1.4939,-1.67683,-9.57289,0.114961,2.31119,0.0609756,0.27439,7.0122
389.754,70.0216,13.4592,0,8.61968,2.97701,4.12422,0.0304878,1.52439,-2.0122,-9.57529,0.110171,2.33993,0.243902,0.182927,6.92073
389.764,70.0209,13.4495,0,8.61489,2.98898,4.1841,-0.0304878,1.03659,-2.13415,-9.55373,0.0910107,2.26808,0.0914634,0.396341,6.95122
389.774,70.013,13.4666,0,8.58854,3.01293,4.1338,-0.335366,0.609756,-2.34756,-9.51302,0.158071,2.31119,0.27439,0.579268,7.16463
389.784,70.002,13.4791,0,8.58854,3.04646,4.10267,-0.0914634,0.731707,-2.22561,-9.52499,0.220342,2.3064,-0.121951,0.487805,7.0122
389.794,69.9916,13.5122,0,8.55262,3.04646,4.12422,-0.335366,0.335366,-2.04268,-9.53936,0.179626,2.34233,0.396341,0.152439,6.98171
389.804,69.985,13.5215,0,8.5574,3.03209,4.11225,-0.396341,0.487805,-1.95122,-9.60882,0.165256,2.32556,-0.152439,0.152439,6.76829
389.814,69.9746,13.5273,0,8.5574,3.04886,4.15775,-0.0609756,-0.0609756,-2.07317,-9.55373,0.141306,2.3088,0.0609756,0.365854,6.79878
389.824,69.9638,13.5358,0,8.54543,3.06323,4.13141,-0.396341,-0.182927,-1.89024,-9.56092,0.150886,2.31359,0.182927,0.0304878,6.89024
389.834,69.9511,13.5547,0,8.55022,3.07281,4.0859,0.0304878,-0.365854,-1.98171,-9.60163,0.158071,2.34233,0.182927,0.0304878,6.76829
389.844,69.9434,13.5524,0,8.60052,3.08,4.10267,-0.243902,-0.701219,-1.70732,-9.59205,0.129331,2.3088,-0.0609756,-0.0304878,6.55488
389.854,69.9413,13.5654,0,8.60291,3.05125,4.12422,-0.0609756,-0.884146,-1.64634,-9.5681,0.134121,2.32796,0,0.0914634,6.7378
389.864,69.94,13.5843,0,8.57177,3.05125,4.0859,-0.182927,-1.03659,-1.46341,-9.54415,0.136516,2.33514,0.0304878,-0.182927,6.4939
389.874,69.9311,13.6099,0,8.61489,3.10634,4.0404,-0.304878,-0.823171,-1.55488,-9.55852,0.160466,2.3543,-0.243902,0.182927,6.76829
389.884,69.9262,13.6001,0,8.62207,3.08,4.10027,-0.518293,-1.0061,-1.61585,-9.59205,0.162861,2.30401,-0.121951,0.304878,6.61585
389.894,69.9235,13.5946,0,8.61728,3.07521,4.10267,0,-0.701219,-1.4939,-9.616,0.148491,2.31598,-0.27439,0.335366,6.64634
389.904,69.9216,13.5644,0,8.62926,3.08958,4.05956,-0.0304878,-0.792683,-1.31098,-9.61121,0.134121,2.27527,-0.27439,0.0304878,6.55488
389.914,69.9247,13.538,0,8.61249,3.06562,4.0404,0.121951,-0.792683,-1.18902,-9.63037,0.114961,2.28006,-0.243902,-0.0304878,6.58537
389.924,69.9264,13.5044,0,8.62926,3.07042,4.09548,0.0609756,-0.853659,-1.28049,-9.63037,0.119751,2.25371,-0.182927,-0.304878,6.4939
389.934,69.9236,13.5031,0,8.62207,3.08,4.05956,-0.182927,-1.15854,-1.46341,-9.59445,0.124541,2.30161,0.0914634,-0.304878,6.67683
389.944,69.9331,13.4999,0,8.61489,3.0297,4.07872,0.27439,-1.21951,-1.18902,-9.59445,0.141306,2.29682,-0.0914634,-0.487805,6.37195
389.954,69.9454,13.4812,0,8.62926,3.04407,4.05237,0.121951,-0.945122,-0.914634,-9.62079,0.122146,2.27287,0,-0.335366,6.37195
389.964,69.9543,13.478,0,8.64602,3.05365,4.02842,0.213415,-1.25,-1.03659,-9.58247,0.117356,2.28964,-0.0609756,-0.579268,6.06707
389.974,69.9714,13.4757,0,8.67237,3.02012,4.03082,0.0609756,-1.06707,-1.0061,-9.63995,0.0886157,2.30401,0.457317,-0.853659,5.67073
389.984,69.9898,13.4781,0,8.66997,2.99617,4.04519,-0.0304878,-0.945122,-1.12805,-9.50823,0.143701,2.28245,-0.0304878,-0.365854,5.97561
389.994,70.0135,13.5129,0,8.68434,3.00096,4.01166,0.0914634,-0.945122,-0.853659,-9.4723,0.136516,2.32796,-0.27439,-0.213415,6.18902
390.004,70.026,13.5095,0,8.70111,3.0273,4.08351,0.152439,-0.823171,-1.15854,-9.54415,0.0814307,2.28724,-0.152439,-0.27439,6.18902
390.014,70.0336,13.4971,0,8.67955,3.01293,4.04998,0.182927,-0.731707,-1.52439,-9.60882,0.0311353,2.28724,-0.335366,-0.121951,5.91463
390.024,70.0465,13.4852,0,8.66997,2.99138,4.04758,-0.335366,-0.884146,-1.37195,-9.60642,0.0407153,2.28485,-0.182927,-0.152439,6.18902
390.034,70.0618,13.4766,0,8.71069,2.98659,4.05477,-0.182927,-0.823171,-1.37195,-9.61121,0.0431104,2.28964,-0.0304878,-0.152439,6.03659
390.044,70.0651,13.4589,0,8.69392,3.02491,3.9901,-0.0914634,-0.792683,-1.67683,-9.59684,0.0502954,2.26808,0.0914634,-0.213415,6.12805
390.054,70.0706,13.4328,0,8.66758,3.00096,4.00687,0.0304878,-0.97561,-1.67683,-9.62079,0.0838257,2.25132,0.0304878,-0.335366,5.85366
390.064,70.0677,13.3906,0,8.66997,3.03449,4.02842,0.182927,-0.823171,-1.92073,-9.59684,0.110171,2.22497,0.0609756,-0.0304878,6.15854
390.074,70.0681,13.3807,0,8.68434,3.02251,4.00447,0.152439,-1.0061,-1.85976,-9.61121,0.0981958,2.26569,-0.121951,-0.579268,5.97561
390.084,70.0698,13.3815,0,8.70829,3.0297,4.01884,-0.152439,-0.792683,-1.76829,-9.58008,0.0622705,2.28006,0.0609756,-0.335366,5.79268
390.094,70.0697,13.3999,0,8.66039,3.03449,3.9925,-0.0304878,-0.884146,-1.67683,-9.60163,0.0526904,2.31838,-0.27439,-0.27439,5.88415
390.104,70.0711,13.3955,0,8.68913,3.03449,3.97094,-0.0609756,-0.792683,-1.67683,-9.60642,0.0622705,2.28006,0.335366,-0.304878,5.94512
390.114,70.0763,13.431,0,8.69392,3.01054,3.9925,0.548781,-0.426829,-1.67683,-9.63037,0.0455054,2.36149,0.121951,-0.27439,6.34146
390.124,70.0733,13.4319,0,8.69871,3.04886,4.02603,0.335366,-0.426829,-1.85976,-9.60163,0.0359253,2.29443,0.0914634,-0.396341,6.12805
390.134,70.0729,13.4092,0,8.67955,3.01772,3.98292,0.0304878,-0.335366,-1.95122,-9.60403,0.0598755,2.24653,-0.27439,-0.457317,6.31098
390.144,70.0653,13.402,0,8.66279,3.06083,3.99968,0.0914634,-0.365854,-1.95122,-9.62079,0.0550855,2.27766,-0.0914634,-0.518293,6.31098
390.154,70.0608,13.4107,0,8.67716,3.05125,4.01166,0.0609756,-0.152439,-1.89024,-9.60882,0.0574805,2.3064,-0.152439,-0.365854,6.15854
390.164,70.0611,13.4074,0,8.67476,3.0297,4.02603,0.213415,-0.0914634,-1.76829,-9.59205,0.0838257,2.28006,0.335366,-0.426829,6.09756
390.174,70.0539,13.4006,0,8.66758,3.04407,3.98292,0.243902,0.121951,-2.16463,-9.56092,0.0622705,2.26569,-0.0304878,-0.365854,6.09756
390.184,70.0455,13.4274,0,8.66039,3.04646,4.00208,0,0.182927,-2.22561,-9.55134,0.0550855,2.32317,0.121951,-0.243902,5.94512
390.194,70.0373,13.4504,0,8.6556,3.04167,3.99489,0,-0.182927,-2.2561,-9.53457,0.0622705,2.32317,0.121951,-0.518293,5.91463
390.204,70.0306,13.4738,0,8.67237,3.04886,3.98052,-0.0304878,0.0304878,-2.13415,-9.53936,0.0766406,2.32796,0.182927,-0.457317,6.21951
390.214,70.0279,13.5096,0,8.66997,3.05125,3.96376,0.0609756,-0.182927,-1.79878,-9.52978,0.0646655,2.35191,0.243902,-0.396341,6.03659
390.224,70.0251,13.5122,0,8.61489,3.0273,4.06914,0.0914634,0.335366,-1.85976,-9.53218,0.0886157,2.29443,0.457317,-0.152439,6.03659
390.234,70.0258,13.5191,0,8.6556,3.03209,4.02842,-0.182927,-0.121951,-1.70732,-9.53218,0.0526904,2.30161,0.213415,0.0914634,5.70122
390.244,70.0217,13.5613,0,8.63884,3.08,4.01166,0.182927,0.182927,-1.43293,-9.55852,0.0598755,2.36388,0.426829,0,5.94512
390.254,70.0185,13.589,0,8.63405,3.06562,4.03321,0.335366,0.304878,-1.52439,-9.52978,0.0790356,2.34233,0.335366,-0.0609756,5.79268
390.264,70.0095,13.6478,0,8.64363,3.09916,4.0404,0.27439,0.335366,-1.61585,-9.53457,0.0526904,2.39502,0.213415,0,5.97561
390.274,70.0372,13.7044,0,8.8017,2.88839,3.94939,-0.365854,1.98171,-1.82927,-9.54415,0.0766406,2.40699,0.518293,0.0304878,6.03659
390.284,70.0357,13.7464,0,8.53824,2.99377,4.13141,-0.152439,-0.609756,-1.82927,-9.54176,0.0742456,2.39981,0.335366,0.182927,5.85366
390.294,70.0165,13.752,0,8.64363,3.15903,4.03321,0.396341,-0.335366,-1.67683,-9.55613,0.0814307,2.34712,0.243902,0.121951,6.06707
390.304,70.0105,13.7594,0,8.56459,3.05844,3.9901,0.213415,0.701219,-1.55488,-9.55852,0.0646655,2.3543,0.335366,0.396341,6.34146
390.314,70.0015,13.7433,0,8.56938,3.04886,4.07153,0.121951,-0.457317,-1.95122,-9.55134,0.0742456,2.31359,0.426829,-0.0304878,6.18902
390.324,69.9982,13.7442,0,8.60291,3.04407,4.08111,0.579268,0,-1.70732,-9.53218,0.0910107,2.33275,0.182927,-0.304878,6.34146
390.334,69.9982,13.7456,0,8.61968,3.03449,4.08351,0.731707,-0.548781,-1.64634,-9.56571,0.114961,2.34233,0.152439,0.182927,6.03659
390.344,70.0032,13.7333,0,8.65321,3.06083,4.02603,0.762195,-0.762195,-1.12805,-9.55852,0.0766406,2.31838,0.487805,0.0609756,6.21951
390.354,70.0104,13.723,0,8.67476,3.05125,4.06674,0.640244,-0.335366,-1.15854,-9.54655,0.114961,2.31598,0.487805,0.152439,6.15854
390.364,70.0193,13.7395,0,8.66518,3.05125,4.05237,0.518293,-0.548781,-1.0061,-9.57289,0.0622705,2.36628,0.609756,0.152439,6.12805
390.374,70.0221,13.6999,0,8.64123,3.03928,4.07393,0.27439,-0.609756,-1.43293,-9.5705,0.100591,2.27287,0.27439,0.152439,6.18902
390.384,70.029,13.7079,0,8.64123,2.99617,4.06914,0.457317,-0.97561,-1.61585,-9.58966,0.0934058,2.3543,0.243902,0.426829,6.18902
390.394,70.0413,13.6752,0,8.67237,3.01533,4.00687,0.0609756,-0.823171,-1.18902,-9.5705,0.0742456,2.27287,0.182927,0.335366,6.15854
390.404,70.0488,13.64,0,8.62207,3.0297,4.04279,0.487805,-0.731707,-1.12805,-9.51302,0.0790356,2.24892,-0.0914634,0.396341,6.18902
390.414,70.057,13.6548,0,8.64123,3.02012,4.00687,0.396341,-0.609756,-1.25,-9.51541,0.0622705,2.33514,-0.213415,0.243902,6.06707
390.424,70.0616,13.6345,0,8.6101,3.01533,4.00447,0.579268,-0.97561,-1.40244,-9.49865,0.0790356,2.26808,-0.152439,0.487805,6.18902
390.434,70.0703,13.6315,0,8.59573,3.00575,4.04758,0.579268,-0.945122,-1.18902,-9.5226,0.0574805,2.30401,-0.213415,0.518293,6.12805
390.444,70.0671,13.6176,0,8.62207,3.06323,4.04998,0.640244,-0.548781,-1.40244,-9.53936,0.0431104,2.28485,-0.27439,0.548781,6.40244
390.454,70.0647,13.5997,0,8.62207,3.05365,4.06195,0.426829,-0.579268,-1.46341,-9.60163,0.00239502,2.28485,-0.0304878,0.701219,6.55488
390.464,70.0659,13.5711,0,8.67237,3.04886,4.05716,0.548781,-0.914634,-1.46341,-9.59684,0.0143701,2.26329,0.27439,0.457317,6.64634
390.474,70.0627,13.5828,0,8.66279,3.08,4.0859,0.365854,-1.09756,-1.37195,-9.59205,0.0335303,2.34233,0.304878,0.609756,6.37195
390.484,70.0588,13.5971,0,8.68434,3.09197,4.038,0.487805,-1.21951,-1.37195,-9.5681,0.0550855,2.34472,0.365854,0.670732,6.67683
390.494,70.0579,13.5804,0,8.63405,3.06083,3.99489,0.213415,-1.15854,-1.34146,-9.5681,0.0526904,2.27287,0.335366,0.914634,6.40244
390.504,70.0623,13.5847,0,8.63405,3.03209,4.02842,-0.152439,-1.12805,-1.31098,-9.53697,0.0790356,2.31838,0.0914634,1.46341,6.21951
390.514,70.0685,13.6025,0,8.63165,3.04646,4.0404,0.243902,-1.03659,-1.0061,-9.54655,0.0359253,2.36149,0.457317,1.37195,6.31098
390.524,70.072,13.6001,0,8.61489,3.03209,3.99489,-0.213415,-1.28049,-1.28049,-9.52739,0.0455054,2.29922,0.243902,1.52439,6.37195
390.534,70.0876,13.5938,0,8.64602,3.00096,4.00208,-0.0609756,-1.61585,-1.0061,-9.48667,0.0335303,2.27527,0.0914634,1.89024,6.4939
390.544,70.1012,13.5852,0,8.63884,2.97461,3.92544,0.0609756,-1.76829,-1.34146,-9.50104,0.0407153,2.26808,0.365854,2.2561,6.79878
390.554,70.1143,13.5993,0,8.65081,2.95545,3.97573,0.213415,-2.56098,-1.55488,-9.50583,0.0407153,2.35191,0.213415,2.34756,6.70732
390.564,70.1242,13.5999,0,8.63644,2.96024,4.07153,0.579268,-2.80488,-1.61585,-9.50583,0.155676,2.30401,-0.426829,2.56098,6.7378
390.574,70.1215,13.6004,0,8.6556,3.02491,4.03321,0.518293,-2.59146,-1.85976,-9.50583,0.160466,2.30401,-0.792683,2.7439,6.55488
390.584,70.11,13.6002,0,8.67955,3.09916,3.98531,0.518293,-2.80488,-1.76829,-9.49625,0.150886,2.29922,-0.548781,2.86585,6.58537
390.594,70.0898,13.6029,0,8.63165,3.15185,3.97573,-0.182927,-2.31707,-1.61585,-9.53697,0.0862207,2.32077,-0.945122,3.07927,6.4939
390.604,70.0726,13.6083,0,8.58136,3.12311,3.98771,-0.396341,-1.92073,-1.52439,-9.48667,0.0383203,2.32077,-1.12805,3.2622,6.31098
390.614,70.0529,13.6016,0,8.5574,3.15185,4.02363,-0.487805,-2.89634,-1.06707,-9.54176,-0.0119751,2.28485,-1.06707,3.44512,6.43293
390.624,70.0327,13.5839,0,8.5574,3.16622,4.0883,-0.762195,-2.37805,-0.823171,-9.56571,-0.0838257,2.24413,-0.670732,3.20122,6.37195
390.634,70.0002,13.5734,0,8.5598,3.21891,4.04519,-0.762195,-2.53049,-0.152439,-9.59445,-0.0981958,2.27766,-0.426829,3.10976,6.55488
390.644,69.9693,13.5542,0,8.59093,3.24765,3.98771,-1.37195,-2.40854,0.213415,-9.60882,-0.0574805,2.24413,-0.0914634,2.95732,6.76829
390.654,69.9544,13.5415,0,8.62926,3.28836,4.038,-1.46341,-2.77439,1.06707,-9.64235,-0.0526904,2.27527,0.213415,2.86585,6.82927
390.664,69.9397,13.5059,0,8.59333,3.34824,4.03321,-2.07317,-4.05488,1.7378,-9.63756,-0.107776,2.18665,0.792683,2.40854,6.89024
390.674,69.9366,13.4712,0,8.61968,3.30034,4.02842,-3.10976,-3.96341,1.92073,-9.60642,-0.198787,2.18665,0.914634,1.95122,6.70732
390.684,69.9425,13.417,0,8.64602,3.27639,3.93262,-3.62805,-3.90244,2.2561,-9.65432,-0.273032,2.15073,1.61585,1.31098,6.31098
390.694,69.9601,13.3736,0,8.66039,3.25723,3.94699,-3.93293,-4.87805,3.01829,-9.63277,-0.313748,2.20342,2.2561,0.548781,6.43293
390.704,69.9869,13.3436,0,8.65081,3.19496,3.93741,-4.57317,-5.64024,3.23171,-9.67109,-0.296982,2.24174,2.40854,-0.243902,6.55488
390.714,70.0431,13.3352,0,8.7059,2.94108,3.91825,-4.60366,-5.54878,2.68293,-9.69025,-0.126936,2.27287,2.46951,-1.12805,6.67683
390.724,70.0988,13.3261,0,8.74182,2.92911,3.95657,-4.29878,-5.21341,2.28659,-9.71659,0.0335303,2.27048,2.46951,-1.67683,6.95122
390.734,70.1336,13.3253,0,8.73464,3.10395,3.91825,-3.59756,-4.78659,2.80488,-9.69504,0.146096,2.29203,2.31707,-1.7378,7.34756
390.744,70.1881,13.315,0,8.8496,2.95545,3.8943,-4.20732,-4.60366,2.28659,-9.7142,0.232317,2.26329,2.07317,-1.76829,7.40854
390.754,70.2305,13.301,0,8.8472,3.0297,3.83203,-4.2378,-3.9939,2.16463,-9.68306,0.239502,2.23455,1.58537,-2.43902,7.43902
390.764,70.2779,13.2793,0,8.91666,3.00814,3.8009,-5.21341,-2.68293,2.16463,-9.73815,0.179626,2.2106,0.97561,-2.80488,7.04268
390.774,70.2255,13.2522,0,8.4161,4.26074,3.78892,-3.75,-1.76829,9.20732,-9.80281,0.0886157,2.19384,1.06707,-3.32317,6.70732
390.784,70.2928,13.2086,0,8.83044,3.5087,3.73863,-5.91463,1.40244,10.7317,-9.81,-0.0143701,2.1148,1.76829,-3.90244,6.34146
390.794,70.4289,13.1736,0,8.95019,2.90755,3.87993,-6.92073,0.762195,10.3963,-9.81958,-0.100591,2.14354,2.59146,-4.78659,5.85366
390.804,70.5819,13.135,0,8.96935,2.58183,3.96136,-6.12805,0.701219,8.44512,-9.82197,-0.114961,2.11959,3.5061,-5.51829,5.88415
390.814,70.7197,13.1344,0,8.73464,2.38544,3.99729,-5.79268,-0.945122,5.54878,-9.75731,-0.0646655,2.26808,4.05488,-6.79878,5.51829
390.824,70.8469,13.1446,0,8.58136,2.27766,4.01166,-5.82317,-1.67683,3.14024,-9.7597,0.0622705,2.31598,4.32927,-8.5061,5.82317
390.834,71.0117,13.1398,0,8.48076,2.27766,4.12422,-5.4878,-3.68902,0.914634,-9.7597,0.208367,2.24892,4.02439,-9.63415,5.85366
390.844,71.1151,13.1321,0,8.49753,2.35191,4.12662,-4.42073,-5.85366,-1.21951,-9.74294,0.256267,2.22976,3.62805,-10.8537,5.82317
390.854,71.174,13.124,0,8.55262,2.5004,4.16494,-3.04878,-7.5,-1.52439,-9.77168,0.337698,2.23216,2.92683,-12.1951,5.79268
390.864,71.2089,13.1332,0,8.55262,2.58423,4.1338,-2.13415,-9.45122,-1.82927,-9.78605,0.416733,2.31119,2.0122,-13.872,6.15854
390.874,71.2508,13.137,0,8.63884,2.59141,4.12422,-1.12805,-11.0366,-1.58537,-9.75491,0.462239,2.28006,0.640244,-14.6951,6.25
390.884,71.3044,13.1648,0,8.80888,2.54351,4.12662,-0.640244,-11.128,-1.61585,-9.71899,0.428708,2.38065,-0.152439,-15.4573,7.04268
390.894,71.3394,13.2171,0,8.79451,2.57704,4.02124,0.304878,-12.3171,-2.16463,-9.71899,0.383203,2.49561,-1.18902,-16.7988,7.62195
390.904,71.3699,13.2714,0,8.8951,2.57704,3.78174,0.762195,-11.0671,-2.62195,-9.77168,0.308958,2.52675,-1.95122,-18.5671,8.17073
390.914,71.3775,13.3414,0,8.93342,2.72074,3.72905,1.12805,-9.63415,-2.95732,-9.78366,0.268242,2.61057,-2.56098,-19.9695,8.53659
390.924,71.3761,13.4131,0,9.06515,2.84768,3.58534,1.92073,-8.14024,-2.77439,-9.81,0.239502,2.63692,-2.7439,-21.6463,8.87195
390.934,71.3729,13.4901,0,9.16574,2.96982,3.60929,2.13415,-6.06707,-1.95122,-9.79084,0.170046,2.66805,-2.65244,-22.7439,9.29878
390.944,71.3764,13.5696,0,9.18011,2.92671,3.62845,2.04268,-5.73171,-1.92073,-9.80521,0.153281,2.69679,-2.37805,-24.0244,8.96341
390.954,71.3809,13.6605,0,9.08431,2.89079,3.68594,2.71341,-4.69512,-1.92073,-9.72857,0.124541,2.7423,-2.04268,-24.939,8.68902
390.964,71.3924,13.7801,0,9.00048,2.81654,3.62606,3.65854,-4.81707,-1.92073,-9.75252,0.105381,2.89797,-1.85976,-26.4634,7.9878
390.974,71.3921,13.9087,0,8.84241,2.83331,3.69073,4.96951,-5.94512,-2.10366,-9.58247,0.114961,2.90995,-1.67683,-27.3171,7.19512
390.984,71.3657,14.0827,0,8.78014,3.03688,3.69073,5.88415,-7.7439,-1.31098,-9.50583,0.110171,3.11832,-1.46341,-28.628,6.67683
390.994,71.3111,14.2834,0,8.77296,3.14466,3.68833,6.4939,-9.96951,-0.0914634,-9.42201,0.174836,3.24525,-1.31098,-29.2378,6.34146
391.004,71.2838,14.486,0,8.7538,3.10634,3.81287,6.15854,-11.0976,0.548781,-9.53936,0.215552,3.33147,-1.34146,-30.1829,6.09756
391.014,71.2837,14.6654,0,8.79212,3.0297,3.753,6.09756,-11.0061,0.97561,-9.59445,0.232317,3.27878,-1.82927,-30.061,5.03049
391.024,71.2872,14.8631,0,8.69871,2.95306,3.72186,5.67073,-10.122,0.518293,-9.59205,0.258662,3.39853,-2.37805,-30.0915,5.4878
391.034,71.3073,15.044,0,8.66997,2.87881,3.67396,4.72561,-9.63415,0.640244,-9.49865,0.237107,3.32429,-3.01829,-28.628,6.18902
391.044,71.3283,15.2357,0,8.7514,2.89558,3.59253,2.95732,-7.2561,0.365854,-9.41482,0.234712,3.37937,-3.38415,-28.5366,7.13415
391.054,71.3571,15.4017,0,8.75859,2.83331,3.61408,1.43293,-6.34146,-0.426829,-9.39087,0.220342,3.28597,-3.56707,-28.7195,8.23171
391.064,71.3673,15.5208,0,8.68195,2.75906,3.73863,0.0914634,-6.03659,-1.7378,-9.4747,0.265847,3.1279,-4.69512,-28.1098,9.35976
391.074,71.3596,15.623,0,8.62686,2.75906,3.76737,-0.884146,-5.21341,-2.83537,-9.5681,0.258662,3.10155,-5.09146,-28.3537,9.57317
391.084,71.3429,15.7015,0,8.56459,2.67763,3.72665,-1.70732,-5.12195,-4.39024,-9.63037,0.263452,3.0297,-5.36585,-28.7195,10.3659
391.094,71.3199,15.7527,0,8.52148,2.56028,3.753,-2.34756,-5.70122,-6.31098,-9.76689,0.155676,2.95785,-5.54878,-29.6951,10.4268
391.104,71.2908,15.7891,0,8.52387,2.53872,3.7985,-1.37195,-8.5061,-7.2561,-9.80521,0.172441,2.90755,-5.12195,-31.128,10.1829
391.114,71.2423,15.8111,0,8.67476,2.70877,3.76497,0.152439,-8.84146,-7.7439,-9.87227,0.0574805,2.86444,-4.5122,-33.1098,9.84756
391.124,71.184,15.8129,0,8.84241,2.89558,3.67635,1.61585,-10.4268,-7.22561,-9.91059,-0.0670605,2.78301,-3.62805,-34.9085,9.84756
391.134,71.1256,15.8248,0,8.96456,3.0297,3.61408,3.38415,-12.7134,-6.25,-9.97047,-0.213157,2.84528,-2.7439,-37.5,9.20732
391.144,71.075,15.8347,0,9.06754,3.13987,3.54463,3.68902,-13.5366,-4.69512,-9.92975,-0.256267,2.82373,-1.79878,-40.3354,9.7561
391.154,71.0435,15.8399,0,9.12023,3.08479,3.33387,3.04878,-13.3537,-3.71951,-9.81958,-0.289797,2.77104,-1.15854,-42.0427,10.2439
391.164,71.0414,15.8478,0,9.137,2.91234,3.23088,2.37805,-10.6402,-3.01829,-9.71899,-0.263452,2.75427,-0.670732,-43.689,11.0061
391.174,71.0498,15.8873,0,9.11065,2.80457,3.08479,2.19512,-8.41463,-3.17073,-9.56571,-0.198787,2.85486,0.304878,-46.1585,12.0732
391.184,71.058,15.8917,0,9.14418,2.8357,3.15903,2.65244,-7.56098,-2.95732,-9.64474,-0.273032,2.72314,1.40244,-46.9817,12.0732
391.194,71.0687,15.898,0,9.12502,2.91713,3.29794,3.90244,-6.70732,-1.92073,-9.75491,-0.256267,2.76146,2.62195,-49.0549,11.7073
391.204,71.0832,15.9444,0,9.12742,2.96743,3.43206,5.06098,-7.10366,-1.18902,-9.86269,-0.217947,2.9818,3.71951,-50.1829,10.8841
391.214,71.0812,15.9853,0,9.02204,3.09197,3.43925,5.03049,-7.31707,-0.213415,-9.91059,-0.177231,2.9794,4.87805,-49.7866,9.84756
391.224,71.071,16.0499,0,8.99809,3.16861,3.21412,3.81098,-6.89024,0.701219,-9.89622,-0.0598755,3.09437,5.45732,-50.7927,8.62805
391.234,71.094,16.1556,0,9.10347,3.05365,3.06562,2.31707,-4.5122,1.21951,-9.8124,0.110171,3.27639,5.64024,-51.6463,8.59756
391.244,71.147,16.3121,0,9.12502,2.89079,3.08958,0.640244,-2.46951,0.792683,-9.5705,0.263452,3.45362,5.79268,-53.3841,9.11585
391.254,71.235,16.5114,0,9.14897,2.7399,3.31471,0.365854,-2.86585,0.487805,-9.40524,0.253872,3.62366,5.06098,-55.4268,10.0305
391.264,71.3342,16.7228,0,9.17532,2.61536,3.43685,0.0609756,-3.56707,-0.548781,-9.2831,0.244292,3.66917,5.51829,-57.2866,11.0976
391.274,71.387,16.942,0,9.12263,2.52914,3.61169,-0.0914634,-7.19512,-2.16463,-9.19448,0.0622705,3.70989,5.64024,-57.7439,11.5854
391.284,71.4189,17.1553,0,9.06994,2.57704,3.5087,-0.152439,-10.3659,-2.86585,-9.13939,-0.100591,3.70031,6.0061,-57.7134,11.25
391.294,71.4174,17.3687,0,8.98851,2.73751,3.36261,-1.28049,-11.3415,-3.65854,-8.99809,-0.129331,3.68354,6.55488,-57.1646,10.0305
391.304,71.4186,17.5918,0,8.83044,2.60818,3.37698,-2.0122,-11.8902,-4.32927,-8.87115,-0.122146,3.71468,7.22561,-56.8293,9.05488
391.314,71.4274,17.8556,0,8.83523,2.42376,3.35542,-1.89024,-12.2561,-5.7622,-8.81846,-0.0191602,3.92065,7.04268,-57.0732,7.46951
391.324,71.4237,18.1643,0,8.7993,2.4022,3.37937,-0.853659,-12.7134,-7.13415,-8.76577,0.119751,4.15536,6.98171,-58.1098,6.58537
391.334,71.4138,18.5133,0,8.93821,2.42855,3.28357,0.518293,-14.1463,-7.89634,-8.72506,0.287402,4.38528,6.46341,-59.6037,5.73171
391.344,71.401,18.8792,0,9.16334,2.5507,3.20693,1.06707,-15.6098,-7.5,-8.658,0.428708,4.49785,5.27439,-60.8841,5.94512
391.354,71.3758,19.2572,0,9.20646,2.73511,3.30034,1.58537,-17.5,-6.76829,-8.5095,0.498164,4.54814,3.90244,-60.8232,6.18902
391.364,71.3466,19.655,0,9.2328,2.78301,3.23328,1.67683,-16.6463,-6.76829,-8.44723,0.55804,4.68226,3.01829,-61.25,6.70732
391.374,71.3227,20.0771,0,9.18729,2.64889,3.2692,0.823171,-15.6707,-7.68293,-8.22689,0.58199,4.75172,1.61585,-61.2805,7.86585
391.384,71.2841,20.5275,0,9.03401,2.58423,3.27399,0.27439,-16.311,-9.48171,-8.09277,0.476609,4.89063,0.945122,-61.6159,8.07927
391.394,71.2214,20.9807,0,8.8975,2.55549,3.24286,-0.609756,-16.4024,-11.8902,-7.97542,0.337698,4.91937,0.304878,-61.5549,8.65854
391.404,71.1558,21.4498,0,8.87834,2.45969,3.30513,-0.884146,-17.5305,-13.4146,-7.85806,0.229922,5.01038,0.640244,-61.7378,8.68902
391.414,71.0816,21.8801,0,8.92624,2.49561,3.45122,0.579268,-19.2073,-14.1463,-7.98739,0.0335303,4.99362,1.34146,-61.2195,8.32317
391.424,70.9773,22.3257,0,8.91426,2.85726,3.33147,2.83537,-20.5183,-12.9878,-7.94667,-0.0359253,5.12774,2.22561,-60.6402,7.80488
391.434,70.8737,22.7772,0,9.10107,3.11832,3.20214,3.9939,-20.6098,-10.7927,-7.90596,-0.00958008,5.21875,3.59756,-60.3354,7.07317
391.444,70.7715,23.2449,0,9.10586,3.30752,3.14466,4.39024,-22.439,-8.71951,-7.86764,0.0239502,5.36484,5.42683,-59.939,6.55488
391.454,70.6965,23.7263,0,9.11544,3.11592,3.10874,3.47561,-22.1951,-8.38415,-7.76705,0.110171,5.46064,6.52439,-59.2378,6.52439
391.464,70.6419,24.2187,0,8.92145,2.73511,3.03688,2.34756,-22.7134,-10.1829,-7.72154,0.227527,5.58279,7.65244,-59.2988,7.31707
391.474,70.6024,24.7383,0,8.93821,2.40939,2.91953,1.82927,-22.0732,-12.7439,-7.68322,0.320933,5.79834,8.53659,-60.061,7.9878
391.484,70.5677,25.2715,0,8.87115,2.10283,2.8836,2.65244,-22.9268,-15.9146,-7.65688,0.356858,5.9612,8.59756,-60.7622,9.35976
391.494,70.5252,25.8072,0,9.15137,1.99984,2.7878,3.93293,-22.9573,-18.8415,-7.60658,0.392783,6.04982,8.44512,-61.3415,9.39024
391.504,70.4295,26.3702,0,9.31184,2.38304,2.82852,4.93902,-24.9695,-20.2134,-7.56347,0.481399,6.28453,7.40854,-60.7927,9.2378
391.514,70.2859,26.9378,0,9.68546,3.07042,2.56746,4.45122,-24.8476,-18.689,-7.46767,0.5772,6.35638,6.18902,-60.4878,8.81098
391.524,70.1323,27.4989,0,9.68546,3.37219,2.20342,2.83537,-19.9085,-16.7378,-7.3551,0.716111,6.35159,4.39024,-59.2988,8.04878
391.534,69.9934,28.086,0,9.43398,3.22609,1.9711,1.09756,-17.5305,-16.189,-7.15392,0.831072,6.44979,2.77439,-58.4451,7.9878
391.544,69.8853,28.6706,0,9.29747,2.82133,1.9256,0.0914634,-15.9756,-17.4085,-7.06531,0.828677,6.48811,1.40244,-57.9878,7.68293
391.554,69.812,29.234,0,9.36453,2.44052,1.95194,0.457317,-11.3415,-18.7195,-7.04854,0.761616,6.48332,0.609756,-58.2317,7.62195
391.564,69.7137,29.8112,0,9.34297,2.51238,2.03577,1.31098,-8.78049,-20.5183,-6.99346,0.735271,6.64139,-0.487805,-58.7195,7.43902
391.574,69.5818,30.3553,0,9.3765,2.76864,2.03577,1.92073,-6.76829,-21.2805,-7.02938,0.677791,6.61504,-1.09756,-58.3841,6.85976
391.584,69.4075,30.885,0,9.39327,3.14227,2.00463,2.13415,-6.28049,-21.7073,-7.00543,0.66821,6.6342,-2.40854,-58.628,6.4939
391.594,69.2201,31.4302,0,9.48188,3.38177,2.12917,1.4939,-3.59756,-21.0976,-7.01741,0.60594,6.86173,-2.86585,-59.7256,6.31098
391.604,69.0366,31.9545,0,9.52978,3.57097,2.31598,1.82927,-2.37805,-19.2073,-7.02699,0.60115,6.87371,-2.83537,-61.0976,6.21951
391.614,68.862,32.4816,0,9.58726,3.71707,2.39262,2.89634,-1.40244,-17.3476,-7.01501,0.531694,7.00304,-2.92683,-63.2927,6.4939
391.624,68.7033,33.011,0,9.43398,3.66198,2.42855,5.30488,-0.853659,-16.0366,-6.94556,0.407153,7.07489,-2.37805,-65.1524,6.37195
391.634,68.5385,33.5468,0,9.34297,3.71947,2.23934,3.78049,0.335366,-15.9756,-6.8282,0.320933,7.12279,-2.43902,-66.9817,6.31098
391.644,68.3834,34.1026,0,9.15856,3.47757,2.22258,0.97561,1.98171,-17.1951,-6.76593,0.208367,7.31678,-2.10366,-69.0244,6.43293
391.654,68.2755,34.6651,0,9.38608,2.95066,2.14594,1.0061,3.71951,-19.5122,-6.66773,0.0981958,7.39343,-1.64634,-71.2195,7.71341
391.664,68.1486,35.2379,0,9.32142,2.99138,2.31119,0.243902,2.95732,-20.9756,-6.53361,0.0239502,7.4557,-1.25,-72.7134,8.35366
391.674,67.987,35.8446,0,9.46272,3.18538,2.019,0.884146,2.07317,-23.1098,-6.38752,0.0838257,7.66406,-1.03659,-74.2683,9.32927
391.684,67.8013,36.4856,0,9.48428,3.40332,1.52802,2.34756,-1.7378,-23.5976,-6.21747,0.146096,7.86045,-1.06707,-75.4573,9.7561
391.694,67.5964,37.1891,0,9.62319,3.64761,1.35319,2.31707,0.762195,-23.8415,-6.0115,0.385598,8.23647,-2.10366,-75.8841,10.3963
391.704,67.3834,37.9321,0,9.41003,3.7051,2.08367,-0.365854,5.57927,-23.5976,-5.80074,0.646655,8.464,-4.02439,-75.9756,10.6402
391.714,67.1866,38.661,0,8.97893,3.5566,2.74469,-0.304878,4.2378,-22.1341,-5.79595,0.816702,8.58375,-5.79268,-74.1159,10.2744
391.724,67.0238,39.4204,0,8.7514,3.24525,2.71595,3.04878,-1.28049,-21.6463,-5.68817,0.907712,8.92145,-7.16463,-72.3781,9.29878
391.734,66.9032,40.1929,0,8.82565,2.9339,2.58662,2.59146,-5.60976,-21.6768,-5.58519,0.895737,9.14179,-7.83537,-71.0061,8.41463
391.744,66.8187,40.9772,0,9.77407,2.73272,2.27048,7.59146,-7.9878,-23.872,-5.40795,0.768801,9.23999,-6.7378,-68.3537,7.22561
391.754,66.7107,41.7895,0,10.186,2.80696,2.46448,14.8476,-7.80488,-26.8902,-5.25228,0.598755,9.54176,-5.7622,-64.8171,6.12805
391.764,66.5288,42.6403,0,9.98244,3.38177,2.87642,18.8415,-10.0915,-27.8963,-4.91219,0.390388,9.62798,-5.88415,-61.6159,5.33537
391.774,66.3146,43.5283,0,9.7118,3.61887,2.99138,18.6585,-9.35976,-28.0488,-4.63436,0.258662,9.83635,-6.31098,-58.7805,5.06098
391.784,66.1111,44.452,0,9.64235,3.42967,2.73511,18.3537,-5.79268,-29.1463,-4.22242,0.392783,9.75012,-7.2561,-54.7256,6.4939
391.794,65.9005,45.3906,0,9.06754,3.50631,3.01772,19.8476,-14.7256,-27.1037,-3.93502,0.617915,9.69504,-8.87195,-49.3598,8.41463
391.804,65.6741,46.3158,0,9.14658,3.62366,2.77343,20.1829,-14.4512,-28.1707,-3.77695,0.840652,9.60882,-10.4878,-42.9878,11.0061
391.814,65.4441,47.1481,0,9.41722,3.70989,2.38065,20.1524,-15.7012,-29.2378,-3.97573,0.804727,9.43638,-11.2195,-36.2805,12.7744
391.824,65.1841,47.9034,0,9.5202,3.92544,2.52196,19.6037,-16.4634,-30.9146,-4.19607,0.687371,9.45314,-11.9817,-31.9207,13.2927
391.834,64.8981,48.5844,0,9.62798,4.20805,2.24174,19.3902,-11.9817,-31.6463,-4.36133,0.423918,9.33579,-11.7378,-28.1098,12.1341
391.844,64.584,49.214,0,9.35734,4.33738,2.16749,19.2683,-8.59756,-32.5305,-4.45234,0.323328,9.27591,-11.7988,-25.1524,11.0366
391.854,64.245,49.8122,0,9.08191,4.43318,2.26329,19.9695,-9.2378,-33.3537,-4.46911,0.196392,9.24478,-12.2561,-24.2378,10.2744
391.864,63.8849,50.3796,0,8.90468,4.44995,2.43334,19.9695,-11.4939,-35.122,-4.4715,0.148491,9.17772,-11.9817,-23.4451,10.061
391.874,63.5136,50.9488,0,9.17053,4.67987,2.28964,20.6402,-5.64024,-36.0061,-4.3302,0.00479004,9.137,-11.189,-22.5,10.3963
391.884,63.1032,51.5379,0,9.04599,5.02475,2.33993,21.189,-8.2622,-36.6463,-4.0859,-0.0191602,9.05557,-10.8232,-22.0732,11.3415
391.894,62.6976,52.1566,0,9.38608,5.16366,2.1172,20.2439,-1.95122,-37.4695,-3.82245,-0.0383203,9.03162,-10.5183,-20.7622,12.3476
391.904,62.2896,52.7776,0,9.38608,5.2403,2.22976,19.4207,1.58537,-37.8049,-3.73144,-0.0550855,9.11544,-9.5122,-20.1829,13.2927
391.914,61.8676,53.3826,0,9.29028,5.41274,2.28964,19.4207,5.39634,-37.9268,-3.70749,-0.119751,9.15856,-8.78049,-18.9634,13.6585
391.924,61.4165,53.9721,0,9.18729,5.85103,2.18426,18.5366,7.31707,-37.1341,-3.68354,-0.114961,9.19927,-8.35366,-18.1707,13.4146
391.934,60.942,54.5733,0,9.19209,6.26537,1.91123,17.6524,12.7134,-36.7988,-3.59971,-0.112566,9.41003,-8.04878,-17.8354,13.2317
391.944,60.4295,55.1748,0,8.44244,6.21747,1.85614,16.0366,18.9634,-37.378,-3.51828,-0.0694556,9.49865,-8.2622,-17.5305,13.1098
391.954,59.8372,55.7349,0,7.05812,5.9612,2.27287,15.2744,17.4085,-38.7805,-3.59971,-0.126936,9.49386,-8.23171,-17.0122,13.0793
391.964,59.2207,56.2599,0,6.66773,5.85103,2.41657,15.7012,10.0915,-40.2439,-3.62127,-0.198787,9.39087,-8.07927,-16.0976,13.3232
391.974,58.6212,56.7551,0,7.12997,5.97078,2.22258,15.9451,4.42073,-42.4695,-3.68354,-0.251477,9.44117,-8.07927,-15.7317,13.2012
391.984,58.0229,57.2273,0,7.64251,6.24621,2.31119,15.9756,1.95122,-44.9695,-3.70749,-0.399968,9.45793,-6.70732,-17.3476,12.9878
391.994,57.4165,57.7004,0,8.04487,6.57912,2.15552,15.122,3.17073,-46.9817,-3.59013,-0.462239,9.39087,-5.27439,-19.2683,12.3476
392.004,56.7869,58.1969,0,7.99937,6.90484,2.06211,13.7805,5.70122,-47.4695,-3.33626,-0.512534,9.2352,-3.9939,-20.3049,11.5549
392.014,56.1434,58.7071,0,7.75268,6.9719,2.07409,12.7439,6.82927,-47.8049,-3.14227,-0.493374,9.11544,-3.17073,-20.3049,11.2805
392.024,55.4964,59.2381,0,7.41738,6.84976,1.93997,11.7378,8.62805,-47.9268,-2.94348,-0.404758,9.06994,-3.01829,-19.4817,10.5793
392.034,54.8732,59.7605,0,7.13716,6.50487,2.06211,11.25,6.92073,-47.5915,-2.90037,-0.268242,9.10826,-2.89634,-18.8415,10.6707
392.044,54.2774,60.2479,0,7.12279,6.47374,2.04056,12.1341,4.66463,-46.2195,-2.95545,-0.136516,9.08431,-3.17073,-18.2927,10.7012
392.054,53.6866,60.685,0,6.9743,6.45458,2.08846,10.8537,3.9939,-45.8841,-3.02491,-0.0742456,8.88313,-3.44512,-18.2012,10.8841
392.064,53.1053,61.058,0,6.81144,6.33483,2.05972,11.2805,0.27439,-45.8232,-3.15664,-0.0455054,8.67955,-3.2622,-18.3841,10.5488
392.074,52.5275,61.3757,0,6.69647,6.33004,2.05732,12.1037,-1.55488,-45.7012,-3.28357,-0.0670605,8.54782,-2.5,-18.7805,9.87805
392.084,51.9894,61.6825,0,6.95274,6.32285,1.88009,13.4756,-4.20732,-45.0915,-3.28118,-0.0981958,8.5598,-2.19512,-19.7561,9.32927
392.094,51.4695,61.9875,0,7.29523,6.65576,1.71483,13.2317,-3.62805,-44.1463,-3.25723,-0.105381,8.6101,-1.85976,-21.4329,8.41463
392.104,50.9634,62.2934,0,7.22577,6.71563,1.7795,10.9451,-0.0609756,-42.7134,-3.16622,-0.150886,8.51429,-2.31707,-22.5,8.04878
392.114,50.4773,62.6254,0,7.06291,6.5887,1.85135,10.4268,0.762195,-41.4939,-3.00096,-0.107776,8.50471,-2.22561,-22.6524,7.77439
392.124,50.017,62.9786,0,6.93837,6.39231,1.84417,10.3659,0.945122,-40.5793,-2.85486,-0.0694556,8.49753,-2.77439,-23.4146,7.77439
392.134,49.5667,63.3313,0,6.91442,6.43781,1.81303,10.3049,0.487805,-39.878,-2.74709,-0.110171,8.33946,-2.43902,-23.628,7.7439
392.144,49.137,63.6988,0,6.85694,6.41865,1.74597,10.3963,0.548781,-38.3841,-2.61536,-0.110171,8.29395,-2.04268,-22.9573,7.80488
392.154,48.7196,64.0582,0,6.73958,6.37794,1.76034,9.93902,0.853659,-37.378,-2.58423,-0.186812,8.27719,-1.58537,-22.6524,7.77439
392.164,48.3053,64.4147,0,6.48571,6.3013,1.88967,9.14634,-0.121951,-36.372,-2.5483,-0.239502,8.31072,-0.97561,-22.0732,7.77439
392.174,47.9222,64.7728,0,6.51924,6.26537,1.7795,9.14634,-2.28659,-34.6646,-2.51238,-0.265847,8.39933,-1.09756,-22.1341,8.01829
392.184,47.5768,65.1263,0,6.68689,6.31567,1.57113,8.68902,-2.5,-32.622,-2.4549,-0.162861,8.33706,-1.34146,-21.5854,8.44512
392.194,47.2445,65.4831,0,6.69168,6.41386,1.54,7.59146,-0.426829,-31.128,-2.38544,-0.00479004,8.33706,-2.0122,-21.2805,8.9939
392.204,46.9287,65.8204,0,6.61025,6.35159,1.57832,6.37195,-0.365854,-29.9695,-2.41178,0.114961,8.35383,-2.68293,-20.7317,9.54268
392.214,46.6477,66.1363,0,6.71084,6.26298,1.61664,6.58537,-1.0061,-28.7805,-2.45729,0.198787,8.40173,-3.44512,-20.3963,9.57317
392.224,46.4136,66.4208,0,6.91203,6.1073,1.75794,8.47561,-0.853659,-27.7439,-2.5483,0.177231,8.45202,-3.44512,-19.9695,9.14634
392.234,46.1753,66.6826,0,6.9264,6.31088,1.56874,9.08537,-3.84146,-26.8598,-2.57465,0.0407153,8.38736,-2.95732,-19.5427,8.35366
392.244,45.9323,66.9244,0,6.8761,6.48811,1.6358,7.86585,1.55488,-25.7927,-2.62255,-0.134121,8.41849,-2.22561,-18.3841,7.37805
392.254,45.7308,67.1712,0,7.17548,6.44021,1.53521,7.31707,2.86585,-24.9695,-2.61057,-0.237107,8.57656,-1.28049,-17.439,6.4939
392.264,45.5215,67.4395,0,6.88329,6.35638,1.73399,7.19512,-0.213415,-24.5122,-2.49082,-0.366438,8.6101,-1.15854,-16.3415,6.43293
392.274,45.3305,67.7168,0,6.94556,6.28693,1.48731,6.61585,1.79878,-24.2378,-2.43334,-0.402363,8.69632,-1.03659,-15.3659,6.52439
392.284,45.1509,68.0127,0,6.93598,6.24861,1.65017,6.92073,1.15854,-23.75,-2.31359,-0.304167,8.7059,-0.823171,-14.4512,7.5
392.294,44.9856,68.3034,0,7.10842,6.38991,1.50647,7.95732,1.37195,-22.7744,-2.30161,-0.241897,8.76577,-0.487805,-13.0488,8.90244
392.304,44.7816,68.5555,0,6.77072,6.6821,1.82261,5.06098,-1.95122,-21.6159,-2.43813,-0.232317,8.85918,-0.304878,-11.4634,9.69512
392.314,44.6208,68.7605,0,7.23296,6.83539,1.5376,4.26829,3.5061,-20.1524,-2.60818,-0.205972,8.90708,-0.0609756,-10.4268,9.81707
392.324,44.465,68.9223,0,7.22098,6.86413,1.50168,3.87195,2.07317,-19.6341,-2.77822,-0.170046,8.97414,0.0304878,-9.54268,9.35976
392.334,44.2981,69.0537,0,6.94795,6.73958,1.76273,3.44512,1.76829,-19.9085,-2.87881,-0.141306,8.96456,0.152439,-8.56707,8.62805
392.344,44.1398,69.1768,0,6.95274,6.66773,1.62143,4.02439,4.66463,-20.0305,-2.9315,-0.0455054,9.0867,0,-8.65854,8.44512
392.354,43.9683,69.2884,0,6.81144,6.69408,1.72202,5.09146,1.40244,-20.2744,-2.98659,-0.0287402,9.16334,-0.487805,-8.96341,8.29268
392.364,43.7834,69.403,0,6.76833,6.84976,1.60227,6.18902,-0.304878,-20.2744,-2.94827,0.0143701,9.14897,-0.731707,-8.81098,7.86585
392.374,43.5923,69.5242,0,6.75635,7.03657,1.65256,6.7378,0.701219,-19.6037,-2.89797,0.00479004,9.14658,-0.365854,-8.81098,7.86585
392.384,43.4052,69.6611,0,6.7348,7.10842,1.65975,6.89024,-2.07317,-18.811,-2.81415,-0.0550855,9.16813,-0.365854,-8.47561,7.31707
392.394,43.2337,69.7952,0,6.8785,7.17787,1.39869,6.21951,-2.13415,-18.2622,-2.79738,-0.143701,9.15376,0.579268,-7.53049,7.2561
392.404,43.0594,69.9197,0,6.79467,7.17548,1.44899,4.48171,0.97561,-18.2012,-2.83331,-0.229922,9.20885,0.304878,-7.04268,6.70732
392.414,42.8808,70.0334,0,6.6821,7.10602,1.63101,4.63415,0.701219,-18.5976,-2.90037,-0.296982,9.34058,0.518293,-6.76829,5.94512
392.424,42.7141,70.1407,0,6.75875,7.08207,1.70046,4.84756,0.97561,-18.5976,-2.93869,-0.244292,9.43638,0.0609756,-6.34146,5.64024
392.434,42.5301,70.2446,0,6.74438,7.22098,1.65975,4.66463,-0.182927,-19.4512,-2.90755,-0.126936,9.34776,-0.243902,-5.91463,5.60976
392.444,42.3416,70.34,0,6.77791,7.31199,1.40109,3.38415,-0.457317,-19.8476,-2.88839,-0.124541,9.21364,-0.304878,-5.09146,5.97561
392.454,42.1332,70.4129,0,6.50248,7.17548,1.64059,2.34756,-3.17073,-20.9451,-2.9818,-0.0646655,9.2304,0.152439,-4.14634,6.0061
392.464,41.9289,70.4824,0,6.46655,7.04375,1.62861,2.46951,-3.56707,-21.7073,-2.99377,-0.0790356,9.26873,-0.0609756,-4.35976,5.67073
392.474,41.722,70.556,0,6.38273,7.06291,1.57113,1.95122,-3.56707,-21.4634,-2.95545,-0.0407153,9.24238,-0.182927,-4.29878,4.84756
392.484,41.5291,70.6259,0,6.51685,7.13716,1.67891,1.85976,-5.64024,-21.0671,-2.96982,-0.0263452,9.28549,-0.792683,-4.72561,4.69512
392.494,41.3604,70.6967,0,6.79946,7.29523,1.3939,0.487805,-5.03049,-20.1829,-2.9315,-0.0263452,9.21603,-0.548781,-4.69512,4.26829
392.504,41.2082,70.7784,0,6.94077,7.36229,1.35079,-0.762195,-1.85976,-19.5122,-2.88121,-0.0359253,9.2328,-0.945122,-4.14634,4.08537
392.514,41.0638,70.8723,0,6.82102,7.20661,1.65735,-0.396341,-2.19512,-19.2683,-2.79738,-0.0670605,9.10107,-0.762195,-3.2622,3.41463
392.524,40.9406,70.991,0,6.73719,6.93598,1.47533,0.152439,-0.365854,-18.9024,-2.75427,-0.124541,9.12263,-1.09756,-2.22561,3.47561
392.534,40.8213,71.1655,0,6.49529,6.60786,1.50168,1.58537,0.518293,-19.4512,-2.67284,-0.182021,9.04359,-0.731707,-1.37195,2.9878
392.544,40.7083,71.3997,0,6.69887,6.75156,1.18793,2.80488,-0.701219,-19.6037,-2.58423,-0.229922,9.0867,-0.426829,-1.03659,2.65244
392.554,40.5742,71.8006,0,6.42823,6.75875,1.71483,3.90244,-7.95732,-19.5122,-2.55549,-0.234712,8.95977,-0.396341,0.121951,2.71341
392.564,40.4281,71.9867,0,6.37794,6.89047,1.45857,3.78049,-7.56098,-19.4207,-2.51477,-0.210762,8.82325,-1.25,1.25,2.89634
392.574,40.2818,72.082,0,6.41865,7.04615,1.42264,4.60366,-4.66463,-18.811,-2.55549,-0.227527,8.81367,-1.55488,2.46951,3.07927
392.584,40.1344,72.1513,0,6.24861,7.0222,1.47773,5.51829,-9.11585,-17.8659,-2.61297,-0.141306,8.88792,-1.70732,3.10976,3.35366
392.594,39.9937,72.2066,0,6.34201,7.20422,1.4442,4.48171,-8.20122,-16.8598,-2.66566,-0.122146,8.943,-1.64634,3.20122,3.59756
392.604,39.8845,72.2289,0,6.5887,7.15632,1.38193,2.9878,-7.92683,-16.5244,-2.76385,-0.0958008,8.89989,-1.89024,3.68902,3.78049
392.614,39.7684,72.2277,0,6.65815,7.3575,1.26697,-0.853659,-4.29878,-16.4634,-2.86684,-0.150886,8.94061,-1.67683,4.66463,3.53659
392.624,39.6372,72.218,0,6.43063,7.37187,1.48731,-3.65854,-0.27439,-16.0976,-2.85726,-0.160466,8.8017,-1.82927,5.73171,3.10976
392.634,39.5283,72.218,0,6.41147,7.23296,1.46336,-4.60366,-1.25,-15.0305,-2.79738,-0.153281,8.73943,-1.64634,6.89024,2.31707
392.644,39.428,72.2159,0,6.27016,6.95274,1.81303,-3.93293,-5.79268,-15.3659,-2.81175,-0.105381,8.75859,-1.95122,7.34756,2.16463
392.654,39.3228,72.2051,0,6.2055,6.94077,1.56395,-3.71951,-5.73171,-15.5793,-2.86444,-0.138911,8.80409,-1.37195,7.04268,2.07317
392.664,39.1954,72.2049,0,6.03784,7.12279,1.54479,-4.63415,-6.34146,-14.9695,-2.82852,-0.134121,8.82804,-0.609756,6.67683,1.64634
392.674,39.0853,72.2104,0,6.19831,7.23296,1.59029,-4.11585,-6.79878,-14.0854,-2.81415,-0.191602,8.85918,0.0609756,7.16463,2.40854
392.684,39.0078,72.2134,0,6.48571,7.25451,1.62143,-2.0122,-7.80488,-13.4451,-2.82373,-0.241897,8.86397,0.792683,8.62805,2.77439
392.694,38.9334,72.2046,0,6.66773,7.49641,1.30529,-2.43902,-7.83537,-12.9878,-2.89079,-0.390388,8.91905,1.61585,10.4268,3.01829
392.704,38.8711,72.1976,0,6.83778,7.50599,1.26936,-4.72561,-4.66463,-13.2927,-2.89797,-0.395178,8.96456,2.04268,11.311,3.14024
392.714,38.8095,72.1731,0,6.74438,7.39103,1.49928,-3.14024,-3.20122,-13.4451,-2.91474,-0.395178,8.78254,1.58537,12.6829,2.9878
392.724,38.7307,72.1471,0,6.59109,7.30241,1.46336,-1.79878,-2.22561,-14.6951,-2.93629,-0.376018,8.82086,1.61585,14.5732,2.80488
392.734,38.6147,72.1387,0,6.26058,7.33355,1.46575,-0.823171,-3.78049,-15.4268,-2.94827,-0.210762,9.07952,2.34756,15.122,3.2622
392.744,38.4795,72.115,0,6.15281,7.37666,1.37953,1.18902,-5.57927,-16.2805,-3.09197,-0.170046,9.30226,3.14024,14.6646,3.53659
392.754,38.3211,72.061,0,6.13843,7.59221,1.35319,2.5,-9.45122,-17.1341,-3.29315,-0.155676,9.46751,2.65244,14.1768,3.53659
392.764,38.177,71.9774,0,6.53361,7.85087,1.27655,2.62195,-7.53049,-17.6524,-3.53265,-0.136516,9.7142,2.92683,13.1402,3.87195
392.774,38.0341,71.8695,0,6.67731,8.03529,1.16877,4.48171,-6.37195,-17.7439,-3.74342,-0.0981958,9.91299,3.07927,12.2256,3.56707
392.784,37.9031,71.7498,0,6.95753,8.13109,1.23104,6.4939,-4.05488,-18.5061,-3.86077,-0.0431104,10.0088,3.17073,11.7073,3.14024
392.794,37.7825,71.6202,0,7.07489,8.08798,0.984353,7.62195,1.58537,-18.9939,-3.86796,-0.00479004,9.83635,3.20122,11.6159,3.47561
392.804,37.6341,71.4968,0,6.92879,8.13588,0.852627,7.2561,5.39634,-20.5183,-3.83682,0.0335303,9.77168,3.5061,11.7073,3.75
392.814,37.4566,71.381,0,6.65576,8.00655,1.14482,7.83537,7.89634,-22.4085,-3.82485,0.0143701,9.77168,4.32927,10.6707,3.90244
392.824,37.2456,71.2644,0,6.3971,7.95146,1.12087,8.23171,9.60366,-24.2988,-3.78653,-0.107776,9.60403,4.90854,9.11585,3.65854
392.834,37.0165,71.1488,0,6.33962,8.04248,1.00591,9.72561,8.35366,-25.4268,-3.72905,-0.179626,9.41243,5.64024,8.17073,3.47561
392.844,36.7458,71.0642,0,6.08335,8.1742,1.13763,11.6768,5.70122,-26.8902,-3.65001,-0.263452,9.53457,5.70122,7.86585,3.17073
392.854,36.4526,71.0035,0,5.93007,8.23168,1.13284,12.4695,5.70122,-27.9268,-3.59013,-0.311353,9.63756,4.29878,7.46951,3.07927
392.864,36.1698,70.9455,0,6.08814,8.24845,1.01788,12.8354,6.64634,-28.811,-3.62366,-0.258662,9.73096,2.92683,6.82927,2.95732
392.874,35.8814,70.8957,0,5.98276,8.04248,1.13045,12.6829,8.56707,-30.3963,-3.61887,-0.0766406,9.79323,1.67683,5.4878,3.78049
392.884,35.5833,70.8482,0,5.86301,7.98021,1.32684,11.8902,8.71951,-31.2805,-3.61169,0.100591,9.77886,0.27439,5.67073,4.54268
392.894,35.2543,70.7936,0,5.64027,8.12391,1.30768,10.8841,9.20732,-31.9207,-3.65719,0.232317,9.78366,-1.31098,5.33537,4.72561
392.904,34.916,70.7366,0,5.51094,8.19815,1.37474,9.93902,7.68293,-31.7683,-3.67635,0.376018,9.77647,-2.9878,4.60366,4.96951
392.914,34.562,70.683,0,5.30736,8.30353,1.43222,7.56098,8.17073,-31.372,-3.6069,0.450264,9.60882,-4.63415,4.32927,5.09146
392.924,34.2058,70.6478,0,5.18522,8.30593,1.47773,6.61585,6.89024,-31.0671,-3.4632,0.517324,9.43398,-6.7378,3.81098,5
392.934,33.8518,70.6094,0,5.03673,8.2221,1.69328,5.82317,4.63415,-30.5793,-3.34345,0.505349,9.06036,-8.68902,3.81098,4.5122
392.944,33.5044,70.5746,0,4.93614,8.20534,1.76034,4.54268,3.56707,-29.6951,-3.19017,0.378413,8.66039,-9.84756,4.87805,4.32927
392.954,33.1868,70.5695,0,4.96727,8.18139,1.66454,2.59146,1.55488,-27.8354,-3.0273,0.253872,8.53824,-10.2439,6.15854,3.68902
392.964,32.9013,70.578,0,5.10139,8.11193,1.73878,1.92073,-0.243902,-27.0427,-3.01054,0.0718506,8.65081,-10.122,6.28049,3.20122
392.974,32.6124,70.584,0,4.93853,8.08319,1.72202,1.67683,-1.98171,-26.4634,-2.97222,-0.167651,8.51429,-9.20732,5.88415,2.65244
392.984,32.3307,70.5799,0,4.89302,8.15265,1.49928,-0.152439,-2.22561,-25.3963,-2.96503,-0.366438,8.38017,-7.65244,6.70732,2.10366
392.994,32.0682,70.603,0,4.91937,8.03769,1.79626,-0.945122,-1.67683,-25.0305,-2.90755,-0.507744,8.53824,-5.91463,6.92073,1.46341
393.004,31.8207,70.6321,0,4.90739,7.82932,1.59029,0.670732,-2.43902,-25.2744,-2.90276,-0.570015,8.6101,-4.08537,6.7378,2.04268
393.014,31.5566,70.6334,0,4.75651,7.87482,1.70525,0.396341,-4.29878,-25.5488,-2.95066,-0.661025,8.42568,-1.89024,7.5,2.65244
393.024,31.311,70.6312,0,4.88824,7.97302,1.82979,0.304878,-6.0061,-24.9695,-2.93869,-0.706531,8.35383,-0.335366,7.92683,3.78049
393.034,31.0973,70.6109,0,5.1469,8.00416,1.6813,1.43293,-5.12195,-24.7256,-2.95785,-0.747246,8.19815,2.13415,8.71951,4.63415
393.044,30.8884,70.5916,0,5.20917,8.2724,1.43941,1.82927,-3.78049,-23.5671,-3.01533,-0.684976,8.36101,4.17683,9.14634,5.51829
393.054,30.7075,70.5706,0,5.40316,8.35622,1.46575,1.31098,-0.701219,-22.5305,-3.17819,-0.55804,8.78254,5.82317,9.08537,6.31098
393.064,30.5228,70.5581,0,5.35766,8.32988,1.43701,0.945122,0.701219,-23.0183,-3.15185,-0.507744,8.8017,7.19512,8.41463,7.22561
393.074,30.3555,70.5086,0,5.5301,8.36101,1.31487,0.152439,1.40244,-23.1098,-3.32668,-0.356858,8.82565,8.17073,7.59146,7.77439
393.084,30.171,70.46,0,5.40316,8.39454,1.46336,1.76829,3.01829,-23.75,-3.35303,-0.205972,8.88552,8.9939,8.47561,8.81098
393.094,29.967,70.4356,0,5.22593,8.33946,1.24062,1.52439,0.640244,-24.6951,-3.35542,-0.0886157,9.16334,9.90854,9.14634,9.60366
393.104,29.7555,70.4166,0,5.09421,8.1287,1.2023,1.28049,-0.487805,-25.8841,-3.38895,-0.0359253,9.31184,11.2195,9.20732,10.2439
393.114,29.5197,70.3544,0,4.86668,8.11672,1.33642,1.89024,-1.61585,-26.4939,-3.47757,-0.0526904,9.01246,11.3415,10.9756,10.4878
393.124,29.2669,70.2774,0,4.67268,8.28677,1.47533,2.62195,-5.4878,-25.5793,-3.4608,-0.0191602,8.77535,12.3171,13.4756,10.4573
393.134,29.001,70.2215,0,4.55533,8.5574,1.42504,3.47561,-7.07317,-24.6037,-3.47757,0.0479004,9.03162,12.0427,15.4878,10.3659
393.144,28.7376,70.1943,0,4.64394,8.83283,1.33642,4.02439,-10.061,-24.2988,-3.49433,0.119751,9.40285,11.4024,15.9146,10.3049
393.154,28.4872,70.1243,0,4.83554,8.96216,1.21906,2.95732,-10.3659,-24.7561,-3.67396,0.225132,9.331,10.061,16.189,10.3049
393.164,28.2342,70.0249,0,4.83794,8.95737,1.17595,1.64634,-9.72561,-25.5793,-3.6045,0.273032,8.78972,9.42073,18.2622,10.061
393.174,28.008,69.9194,0,5.05589,8.94061,1.03225,1.85976,-10.8537,-25.6402,-3.7506,0.282612,9.0388,8.53659,20.5793,9.90854
393.184,27.7597,69.8195,0,4.91698,9.04599,1.03944,1.46341,-11.6159,-26.4024,-3.98771,0.253872,9.62558,7.31707,20.061,9.96951
393.194,27.4931,69.6657,0,4.75172,9.02922,1.11368,2.07317,-11.7683,-27.1951,-4.22721,0.110171,9.50823,7.28659,19.2683,9.42073
393.204,27.2243,69.431,0,4.74453,9.0388,1.22386,3.04878,-10.4878,-27.8354,-4.34217,-0.0718506,8.84002,7.56098,20.3963,8.01829
393.214,26.9697,69.1891,0,4.86189,8.97414,1.18793,2.40854,-9.02439,-28.4756,-4.26313,-0.170046,8.52866,7.9878,24.2378,7.0122
393.224,26.7156,69.0093,0,4.83075,8.90229,0.821492,2.83537,-9.57317,-29.0244,-4.20805,-0.155676,8.93582,8.71951,27.0427,5.60976
393.234,26.4634,68.8644,0,4.83075,8.80649,0.955613,2.59146,-8.01829,-29.878,-4.11943,-0.153281,9.03162,9.66463,26.7683,5.18293
393.244,26.1822,68.7256,0,4.52659,8.84002,1.02267,2.77439,-6.34146,-30.0305,-3.96615,-0.0479004,8.70111,10,27.3476,5.15244
393.254,25.9042,68.6548,0,4.50503,8.76338,1.00591,3.20122,-7.19512,-30.4573,-3.85119,0,9.10347,9.81707,26.4634,5.88415
393.264,25.6223,68.5711,0,4.39007,8.81367,0.938848,4.57317,-9.72561,-29.939,-3.85838,0.0431104,8.943,10.0915,24.7866,6.82927
393.274,25.3519,68.4733,0,4.36852,8.62446,1.14242,6.28049,-10.7317,-30.122,-3.80329,0.0646655,8.63405,10.8841,25.4268,7.59146
393.284,25.0777,68.3319,0,4.28948,8.67476,0.958008,8.20122,-11.8293,-29.939,-3.87514,0.100591,8.32269,11.0061,26.2805,8.23171
393.294,24.8092,68.1621,0,4.25595,8.66518,0.811912,8.71951,-11.2805,-29.6037,-3.88712,0.0814307,8.03529,11.2805,28.0183,7.86585
393.304,24.5116,68.0191,0,3.98531,8.84481,0.864602,6.98171,-11.128,-29.2378,-3.96376,0.102986,8.38017,10.9756,27.7744,7.22561
393.314,24.2192,67.7839,0,3.93023,8.75619,0.799937,7.34756,-10.3354,-29.1463,-4.04519,0.129331,7.68083,10.7927,29.2988,5.88415
393.324,23.9107,67.5842,0,3.71228,8.85918,0.680186,7.62195,-10.9451,-28.4451,-4.08351,0.215552,7.98021,10.2134,32.1037,4.39024
393.334,23.6286,67.445,0,3.85359,8.88552,0.684976,6.82927,-13.689,-27.8354,-4.21284,0.261057,8.72266,9.11585,30.7927,3.29268
393.344,23.4034,67.2699,0,4.16973,8.70111,0.943638,6.92073,-16.25,-27.0122,-4.20565,0.438289,8.31551,7.89634,29.9085,3.01829
393.354,23.2191,67.0583,0,4.35654,8.68195,1.02986,7.65244,-19.2378,-25.4268,-4.15296,0.526904,7.8389,7.2561,32.3476,3.04878
393.364,23.0556,66.8759,0,4.40923,8.82086,0.955613,8.59756,-19.7561,-23.5061,-4.16015,0.500559,8.0329,6.98171,34.0244,3.35366
393.374,22.855,66.6895,0,4.12422,9.22083,0.66342,5.79268,-17.1037,-22.5915,-4.33978,0.378413,8.27958,7.37805,34.1159,3.44512
393.384,22.668,66.4735,0,4.14578,9.1346,0.673001,5.57927,-18.9329,-22.2561,-4.52898,0.306563,8.30593,7.92683,33.2012,2.9878
393.394,22.4885,66.2049,0,4.20565,9.07952,0.285007,7.40854,-19.4817,-22.7744,-4.77327,0.177231,8.21971,8.47561,32.9573,1.79878
393.404,22.2928,65.9049,0,4.00208,8.92145,0.467029,7.0122,-18.5671,-23.3841,-4.95769,0.105381,8.18378,7.7439,33.2927,-0.121951
393.414,22.1067,65.5887,0,3.95897,8.80649,0.58678,7.28659,-14.939,-22.8963,-5.06786,0.0958008,8.13588,7.0122,32.3171,-1.37195
393.424,21.9396,65.2728,0,3.97094,8.65081,0.529299,6.98171,-12.9878,-22.2561,-5.0008,0.117356,7.92991,6.52439,30.8232,-2.28659
393.434,21.7912,64.9905,0,3.96855,8.47837,0.584385,7.65244,-12.8659,-21.5549,-4.89542,0.251477,7.92272,5.94512,29.0854,-1.64634
393.444,21.6421,64.8012,0,3.90628,8.44005,0.359253,8.20122,-13.2317,-21.4329,-4.62239,0.378413,8.11912,5.42683,27.7744,-0.396341
393.454,21.4761,64.6617,0,3.63324,8.38496,0.296982,7.0122,-12.0732,-20.5793,-4.40205,0.438289,8.0784,5.12195,27.1341,1.46341
393.464,21.3776,64.5428,0,4.07393,8.12391,0.59157,8.23171,-9.81707,-20.5793,-4.26792,0.464634,7.95865,4.84756,27.9878,2.92683
393.474,21.2851,64.4824,0,4.30385,8.35383,0.376018,8.04878,-3.93293,-21.4329,-4.16973,0.498164,8.24126,4.2378,29.1463,3.65854
393.484,21.1839,64.3898,0,4.38289,8.63165,0.538879,8.07927,0.97561,-21.8293,-4.232,0.565225,8.05685,3.87195,29.2073,4.39024
393.494,21.0783,64.2663,0,4.46911,8.97653,0.661025,9.63415,5.60976,-21.5549,-4.33738,0.5772,7.96344,3.78049,30.8232,4.87805
393.504,20.9245,64.1478,0,4.16973,9.47949,0.483794,7.34756,9.57317,-21.128,-4.4739,0.498164,8.21492,3.9939,31.2195,4.66463
393.514,20.7362,63.9435,0,3.81527,9.51781,0.565225,6.31098,11.128,-21.0976,-4.81638,0.280217,8.06164,4.2378,31.3415,4.35976
393.524,20.4967,63.7223,0,3.34824,9.59684,0.706531,5.94512,11.8293,-21.372,-5.0511,0.100591,8.24845,4.60366,32.0732,3.62805
393.534,20.2134,63.4628,0,2.93869,9.48907,0.708926,4.42073,5.85366,-22.1951,-5.16845,0.0143701,8.05924,5.09146,32.1646,3.04878
393.544,19.8912,63.195,0,2.5986,9.25675,1.07297,4.90854,0.0609756,-23.628,-5.2882,0.110171,8.09996,4.90854,32.439,3.23171
393.554,19.5446,62.9144,0,2.34951,9.21364,1.14721,4.39024,-4.66463,-23.9634,-5.43909,0.196392,8.14546,5.21341,31.7683,3.5061
393.564,19.2133,62.6315,0,2.39023,9.14658,1.18074,5.30488,-9.26829,-23.811,-5.40316,0.373623,7.98979,5.39634,32.4695,4.42073
393.574,18.8966,62.3677,0,2.44292,9.16334,0.974773,6.18902,-11.4024,-23.5671,-5.36245,0.519719,7.98979,4.93902,32.6829,5.21341
393.584,18.6006,62.0819,0,2.60099,9.12263,0.929268,5.42683,-14.0549,-24.1159,-5.37203,0.59636,7.76226,5.88415,33.2927,6.06707
393.594,18.3147,61.7961,0,2.73032,8.92145,0.866997,3.32317,-14.8476,-25.9451,-5.39598,0.65384,7.71436,6.18902,32.9878,6.31098
393.604,18.0094,61.5211,0,2.68961,8.88552,0.799937,2.7439,-16.2805,-28.1402,-5.36963,0.64426,7.67125,6.95122,32.0427,6.61585
393.614,17.7108,61.2758,0,2.86684,9.11065,0.687371,4.08537,-19.4207,-29.3598,-5.38161,0.57241,7.82453,7.34756,30.9451,6.12805
393.624,17.4065,61.0351,0,2.91234,9.2328,0.304167,3.96341,-20.8537,-30.6402,-5.41514,0.5772,7.83411,7.83537,29.939,5.85366
393.634,17.1402,60.7771,0,3.22609,8.9933,0.304167,6.28049,-21.5549,-31.9207,-5.41514,0.531694,7.64011,7.40854,30.6098,6.58537
393.644,16.8844,60.5375,0,3.43206,8.97893,0.261057,7.77439,-22.1646,-33.811,-5.53729,0.574805,7.87243,6.37195,30.7622,6.58537
393.654,16.621,60.3171,0,3.49912,9.26154,-0.0239502,7.07317,-14.1463,-34.6646,-5.52291,0.684976,7.92272,5.18293,29.8171,7.37805
393.664,16.3444,60.0717,0,3.38895,9.59684,0.150886,5.94512,-10.7622,-33.9939,-5.64985,0.778381,7.85327,4.11585,30.1829,8.14024
393.674,16.0944,59.8275,0,3.44164,9.71899,0.00718506,7.40854,-8.81098,-31.9512,-5.73847,0.804727,7.91554,3.35366,30.7622,8.44512
393.684,15.8436,59.5619,0,3.32429,9.79563,-0.191602,7.07317,-6.06707,-31.0061,-5.78158,0.775986,7.75028,3.10976,31.8902,8.2622
393.694,15.591,59.2938,0,3.1255,9.69504,0.124541,5.21341,-2.89634,-29.9085,-5.79355,0.732876,7.67604,2.53049,33.0488,8.23171
393.704,15.3252,59.0354,0,2.84528,9.50823,0.479004,6.09756,0.792683,-29.2988,-5.73368,0.718506,7.58982,2.5,33.2317,8.04878
393.714,15.0582,58.7909,0,2.73751,9.30705,0.723296,8.5061,1.09756,-29.4207,-5.69536,0.641865,7.56587,2.10366,33.5061,7.86585
393.724,14.7565,58.5423,0,2.29922,8.92145,0.65384,9.11585,1.40244,-29.5427,-5.66183,0.603545,7.42696,2.40854,33.9024,7.71341
393.734,14.472,58.3055,0,2.46927,8.95019,0.888552,8.9939,-1.18902,-30.3963,-5.70973,0.55325,7.5036,2.0122,34.2073,7.62195
393.744,14.2127,58.0702,0,2.66566,8.9454,0.680186,8.56707,-5.2439,-30.7927,-5.67141,0.579595,7.40061,1.64634,34.6341,7.43902
393.754,13.9301,57.8436,0,2.55788,9.01964,0.335303,8.14024,-5.7622,-32.1341,-5.59237,0.59157,7.29523,1.52439,36.0061,7.46951
393.764,13.6068,57.594,0,2.34951,9.24717,0.105381,7.16463,-4.69512,-33.6585,-5.73607,0.63947,7.26888,1.52439,36.9512,7.16463
393.774,13.2717,57.3325,0,2.3064,9.37411,0.292192,4.60366,-8.62805,-34.6341,-5.82229,0.63468,7.23535,1.12805,37.7134,7.04268
393.784,12.9502,57.0629,0,2.15791,9.13939,0.229922,5.27439,-9.45122,-32.8354,-5.86061,0.63468,7.1659,0.670732,39.5427,7.07317
393.794,12.6373,56.7804,0,2.08846,9.28549,0.0574805,7.31707,-9.35976,-31.372,-5.98755,0.687371,7.16829,0.792683,40.4268,6.58537
393.804,12.3531,56.4625,0,2.06451,9.53457,0.186812,8.32317,-12.8659,-28.1402,-6.12406,0.670605,7.03417,0.823171,41.311,6.61585
393.814,12.1432,56.1072,0,2.49322,9.91778,0.447869,9.72561,-17.0732,-25,-6.33722,0.59157,6.96472,1.34146,42.439,6.09756
393.824,11.9603,55.7431,0,2.39981,10.0782,0.337698,7.7439,-20.3659,-21.2195,-6.46895,0.560435,6.96711,2.10366,42.7439,5.67073
393.834,11.8335,55.3679,0,2.57944,9.81958,0.155676,5.97561,-19.5122,-18.5671,-6.48811,0.471819,6.83299,2.56098,43.3537,5.03049
393.844,11.739,54.9916,0,2.62015,9.58247,0.323328,5.91463,-20.7012,-16.7073,-6.60307,0.440684,6.85694,3.01829,43.4146,4.57317
393.854,11.6828,54.6428,0,2.82852,9.43638,-0.0718506,6.92073,-19.0244,-15.8232,-6.67013,0.500559,7.00304,2.83537,42.8354,4.48171
393.864,11.6295,54.296,0,2.88121,9.43638,-0.416733,7.34756,-12.2256,-16.25,-6.61744,0.524509,6.8761,2.34756,42.8049,3.9939
393.874,11.5446,53.9154,0,2.60578,9.53218,-0.172441,7.59146,-9.60366,-16.128,-6.73958,0.603545,6.71563,2.31707,43.1707,3.90244
393.884,11.4578,53.5239,0,2.56267,9.69504,0.0119751,6.92073,-7.07317,-15.5183,-6.74438,0.646655,6.56954,1.34146,44.1463,3.84146
393.894,11.3819,53.1675,0,2.61776,9.65911,0.143701,5.57927,-5.36585,-15.3049,-6.7324,0.780776,6.67252,1.03659,44.1768,4.11585
393.904,11.3051,52.8214,0,2.55788,9.65911,0.0646655,4.14634,-5.97561,-14.878,-6.67013,0.768801,6.5887,0.609756,44.6646,4.42073
393.914,11.2343,52.4624,0,2.50519,9.51062,0.0215552,2.28659,-5.12195,-14.2683,-6.77072,0.744851,6.53361,0.27439,45.4573,4.69512
393.924,11.1633,52.0883,0,2.49082,9.55373,-0.0550855,2.07317,-4.90854,-14.1463,-6.96232,0.761616,6.54798,0.213415,45.7622,4.57317
393.934,11.0665,51.6858,0,2.23934,9.63037,-0.0694556,4.17683,-2.83537,-13.811,-7.10602,0.747246,6.43302,-0.304878,46.4939,4.29878
393.944,10.9464,51.2636,0,1.90883,9.67827,-0.196392,6.52439,1.55488,-12.439,-7.30002,0.687371,6.40428,-1.06707,47.561,3.41463
393.954,10.8822,50.8266,0,2.18186,9.64714,0.0934058,9.66463,0.670732,-10.2134,-7.35271,0.699346,6.27256,-1.40244,48.5061,2.80488
393.964,10.7622,50.3841,0,1.71004,9.64953,-0.213157,10.7012,1.46341,-10.5488,-7.47246,0.66342,6.24621,-1.82927,48.6585,2.28659
393.974,10.6424,49.9578,0,1.74836,9.6663,-0.280217,9.02439,-0.335366,-11.189,-7.43414,0.56762,6.20789,-1.82927,49.1159,1.76829
393.984,10.5073,49.5079,0,1.74836,9.64953,-0.0742456,5.82317,-5.54878,-13.0183,-7.52755,0.555645,6.06179,-1.98171,50.122,1.18902
393.994,10.3589,49.0829,0,1.76034,9.67109,-0.0981958,3.41463,-7.71341,-14.7561,-7.46049,0.526904,6.04742,-2.65244,50.9146,0.914634
394.004,10.2111,48.6575,0,1.79866,9.82197,-0.225132,1.55488,-7.34756,-15.122,-7.41498,0.519719,5.91809,-2.46951,51.5244,0.884146
394.014,10.061,48.2423,0,1.69567,9.79803,0.0239502,0.426829,-9.35976,-14.5122,-7.38864,0.457449,5.86301,-2.56098,52.2561,1.31098
394.024,9.92739,47.8085,0,1.75315,9.62079,0.160466,0.762195,-9.14634,-14.1768,-7.58982,0.457449,5.83427,-2.43902,52.7744,1.03659
394.034,9.80144,47.3609,0,1.80584,9.67109,0.134121,2.0122,-7.59146,-14.1768,-7.57066,0.459844,5.65704,-2.71341,53.0793,1.31098
394.044,9.64424,46.8947,0,1.38911,9.69264,-0.0838257,2.83537,-6.4939,-12.6829,-7.71915,0.483794,5.578,-2.59146,53.5671,1.28049
394.054,9.52742,46.4151,0,1.67172,9.85311,0.0311353,3.53659,-11.6768,-11.8902,-7.83171,0.510139,5.49417,-2.46951,54.1768,1.18902
394.064,9.41264,45.9327,0,1.73639,9.75491,-0.136516,3.59756,-10.9756,-12.8659,-7.91314,0.481399,5.43909,-2.07317,54.1768,0.884146
394.074,9.30912,45.4294,0,1.81063,9.53697,-0.318538,2.62195,-11.4939,-13.2927,-8.00655,0.490979,5.29778,-1.92073,54.5122,0.762195
394.084,9.19559,44.9446,0,1.74357,9.54176,-0.308958,1.92073,-11.6768,-13.7195,-7.89638,0.486189,5.21875,-1.67683,55.3659,0.640244
394.094,9.06967,44.4479,0,1.64538,9.59924,-0.227527,2.34756,-12.8963,-13.9329,-7.95625,0.483794,5.10379,-2.28659,55.7927,0.457317
394.104,8.92457,43.9508,0,1.41067,9.60163,-0.222737,2.13415,-14.6951,-13.3537,-8.04487,0.423918,5.06068,-2.59146,55.9756,0.121951
394.114,8.83053,43.4853,0,1.91602,9.75731,-0.00718506,0.914634,-16.6159,-14.0549,-7.89638,0.486189,5.02475,-2.95732,55.5183,0.487805
394.124,8.70655,43.0078,0,1.76752,9.68785,-0.182021,0.914634,-13.872,-15.7317,-7.94907,0.316143,4.90979,-2.71341,55.6098,0.548781
394.134,8.57719,42.5145,0,1.78429,9.79803,-0.0502954,0.152439,-12.2256,-16.4939,-8.24845,0.239502,4.92177,-2.53049,55.061,0.609756
394.144,8.46148,42.0459,0,1.91602,9.66151,-0.0526904,1.34146,-10.1524,-17.1951,-8.20294,0.354463,4.91937,-2.65244,54.6951,1.12805
394.154,8.34974,41.5625,0,1.87051,9.75731,-0.184417,2.07317,-8.04878,-16.2805,-8.32269,0.421523,4.82596,-2.43902,54.0854,2.13415
394.164,8.24656,41.0679,0,1.90404,9.87467,-0.196392,1.31098,-4.72561,-15.7622,-8.47118,0.56283,4.7613,-2.68293,54.0549,3.38415
394.174,8.13169,40.556,0,1.81303,9.81479,-0.143701,1.21951,-2.43902,-16.25,-8.60291,0.646655,4.65352,-3.17073,54.1159,4.32927
394.184,7.99582,40.0622,0,1.66454,9.76449,-0.227527,0,0.609756,-17.0122,-8.52866,0.687371,4.60323,-3.78049,54.8476,5.18293
394.194,7.83248,39.5697,0,1.47294,9.58966,-0.201182,-0.579268,1.28049,-18.1707,-8.55501,0.656235,4.52898,-4.20732,55.0305,5.73171
394.204,7.65573,39.0658,0,1.46336,9.45793,-0.352068,0.182927,4.05488,-20,-8.54303,0.60115,4.3757,-5.03049,55.4268,5.73171
394.214,7.37916,38.5578,0,0.507744,9.27352,-0.330513,0.0304878,4.96951,-18.9939,-8.464,0.505349,4.22242,-5.73171,55.7622,5.33537
394.224,7.2196,38.0707,0,1.60706,9.68067,-0.00239502,3.04878,5,-20.4573,-8.25084,0.416733,4.11943,-6.52439,55.7317,4.66463
394.234,6.99858,37.5752,0,1.0562,9.6639,0.124541,5.42683,0.792683,-20.5488,-8.49274,0.356858,4.11225,-6.98171,55.9756,3.9939
394.244,6.80586,37.0633,0,1.12326,9.80521,-0.198787,4.66463,4.32927,-18.7195,-8.6077,0.323328,3.99968,-7.10366,55.5183,3.53659
394.254,6.64329,36.5195,0,1.31487,9.87946,-0.186812,3.71951,-0.853659,-18.1707,-8.76817,0.349673,3.83203,-7.43902,55.9146,3.29268
394.264,6.47858,35.9603,0,1.25499,9.78126,-0.208367,3.2622,-2.7439,-18.1707,-8.90708,0.306563,3.72186,-7.40854,56.3415,3.62805
394.274,6.33499,35.4015,0,1.36277,9.70462,-0.299377,2.04268,-2.19512,-17.7439,-8.96456,0.287402,3.64522,-7.71341,56.128,3.96341
394.284,6.18163,34.8377,0,1.25739,9.75252,-0.182021,1.43293,-3.38415,-17.7134,-9.0388,0.246687,3.54942,-7.83537,56.0366,4.48171
394.294,5.9888,34.2652,0,0.641865,9.69983,-0.0910107,-0.213415,-4.69512,-14.7866,-9.14658,0.225132,3.44883,-7.80488,56.311,4.54268
394.304,5.87707,33.7209,0,1.36277,9.80042,-0.0479004,2.40854,-5.60976,-15.3354,-9.01006,0.249082,3.42248,-7.46951,56.4634,4.7561
394.314,5.74449,33.1682,0,1.12326,9.80042,-0.256267,3.59756,-5.54878,-14.878,-8.99809,0.148491,3.28357,-7.10366,56.9817,4.48171
394.324,5.60152,32.6435,0,0.898132,9.70222,-0.208367,2.68293,-6.31098,-13.6585,-8.87115,0.126936,3.26441,-6.92073,57.4695,4.72561
394.334,5.50168,32.0956,0,1.16877,9.76689,-0.462239,2.59146,-5.60976,-12.6829,-9.05796,0.0742456,3.13508,-6.70732,57.378,4.5122
394.344,5.42768,31.54,0,1.36516,9.7118,-0.574805,2.46951,-2.92683,-12.6524,-9.14897,0.0862207,3.03449,-6.15854,57.378,4.17683
394.354,5.33574,30.9611,0,1.16398,9.79563,-0.337698,1.58537,-6.55488,-12.1341,-9.18729,0.0934058,2.84528,-5.36585,57.8049,3.93293
394.364,5.28863,30.3865,0,1.4442,9.72378,-0.5772,1.46341,-3.53659,-11.1585,-9.33579,0.00479004,2.80696,-4.45122,57.5915,3.90244
394.374,5.24452,29.784,0,1.36756,9.73336,-0.579595,2.40854,-5.30488,-10.0305,-9.44835,-0.0287402,2.61297,-3.65854,57.8659,3.5061
394.384,5.17523,29.1851,0,1.10889,9.84593,-0.538879,2.16463,-5.33537,-9.48171,-9.44596,-0.0910107,2.52196,-2.86585,58.3537,2.80488
394.394,5.09378,28.5992,0,0.864602,9.79084,-0.488584,1.4939,-3.65854,-8.04878,-9.46033,-0.150886,2.47885,-1.61585,59.1463,2.19512
394.404,5.08004,28.0121,0,1.38193,9.79084,-0.431104,2.59146,-2.28659,-7.40854,-9.36692,-0.241897,2.34712,-0.396341,59.4817,1.55488
394.414,4.99254,27.4347,0,0.823887,9.72378,-0.287402,3.20122,-5.67073,-8.44512,-9.32381,-0.330513,2.27766,0.487805,59.6037,1.06707
394.424,4.88172,26.8721,0,0.62031,9.76449,-0.277822,3.65854,-5.79268,-8.53659,-9.35255,-0.280217,2.24892,1.85976,59.4512,0.670732
394.434,4.78375,26.3288,0,0.584385,9.77407,-0.275427,3.53659,-7.07317,-7.0122,-9.07712,-0.129331,2.16989,2.86585,59.0549,1.15854
394.444,4.67561,25.7647,0,0.531694,9.77647,-0.349673,3.41463,-7.9878,-7.62195,-9.12502,-0.0431104,2.00224,3.93293,58.9024,1.52439
394.454,4.57199,25.2302,0,0.462239,9.75731,-0.514929,2.83537,-5.4878,-6.55488,-9.3765,-0.0239502,2.08846,4.05488,58.2927,1.70732
394.464,4.44253,24.7009,0,0.299377,9.73096,-0.366438,2.62195,-8.47561,-7.46951,-9.5226,0.131726,2.05014,4.20732,57.7439,1.58537
394.474,4.31373,24.1734,0,0.210762,9.74533,-0.428708,3.17073,-7.22561,-6.58537,-9.75731,0.126936,2.01421,3.62805,57.3171,1.34146
394.484,4.17033,23.6534,0,0.0502954,9.81,-0.366438,3.62805,-11.128,-6.40244,-9.79323,0.232317,1.96152,3.5061,57.3476,1.09756
394.494,4.03966,23.1431,0,0.134121,9.79084,-0.493374,3.07927,-10.4268,-6.40244,-9.91299,0.261057,1.93518,2.95732,56.7378,0.762195
394.504,3.94069,22.6488,0,0.347278,9.80042,-0.313748,3.32317,-15.6402,-5.97561,-9.80042,0.263452,1.89446,2.40854,56.372,0.304878
394.514,3.85976,22.1553,0,0.541274,9.78126,-0.390388,3.20122,-14.4207,-6.67683,-9.64953,0.201182,1.78189,1.7378,55.8232,-0.0609756
394.524,3.73278,21.6826,0,0.0263452,9.5226,-0.263452,2.19512,-12.9268,-5.30488,-9.58008,0.117356,1.77471,0.792683,55.7927,-0.121951
394.534,3.67251,21.2072,0,0.656235,9.66151,-0.296982,3.93293,-12.0122,-6.46341,-9.5705,0.0910107,1.67891,-0.0914634,54.7256,0.243902
394.544,3.61784,20.7245,0,0.65863,9.67348,-0.445474,2.59146,-9.48171,-6.03659,-9.44835,0.160466,1.54479,-1.0061,54.1159,0.243902
394.554,3.57019,20.2401,0,0.694556,9.72378,-0.443079,1.0061,-11.128,-5.82317,-9.45314,0.0622705,1.45617,-1.70732,53.8415,0.853659
394.564,3.57249,19.7597,0,1.20948,9.75252,-0.565225,2.5,-9.14634,-6.92073,-9.71659,0.0550855,1.42983,-1.95122,53.0793,0.426829
394.574,3.5389,19.2807,0,0.840652,9.70701,-0.689766,2.59146,-4.69512,-6.25,-9.63756,0.155676,1.34121,-2.95732,52.1951,1.31098
394.584,3.49778,18.8034,0,0.871787,9.83395,-0.593965,3.32317,-4.29878,-7.31707,-9.86748,0.134121,1.29571,-3.90244,51.189,1.31098
394.594,3.47419,18.3063,0,1.04662,9.92257,-0.534089,2.07317,-1.28049,-7.56098,-9.79563,0.167651,1.11608,-5.06098,50.3659,1.85976
394.604,3.46351,17.8054,0,1.16877,9.90101,-0.63468,0.945122,4.02439,-7.7439,-10.0327,-0.00479004,1.03704,-5.21341,49.2683,2.2561
394.614,3.43705,17.3285,0,0.989143,9.86988,-0.416733,0.27439,4.11585,-7.31707,-9.84353,0.0335303,1.03465,-5.42683,47.9878,2.56098
394.624,3.38757,16.8514,0,0.708926,9.75252,-0.517324,1.15854,11.0671,-6.52439,-10.0256,-0.0239502,0.967588,-5.45732,46.8293,2.77439
394.634,3.34654,16.3535,0,0.720901,9.81719,-0.332908,1.31098,7.46951,-5.85366,-10.0663,-0.0455054,0.792751,-5.70122,45.6402,3.01829
394.644,3.28164,15.8719,0,0.538879,9.79323,-0.285007,2.31707,6.67683,-6.21951,-10.0256,-0.0694556,0.773591,-5.57927,44.4817,3.47561
394.654,3.19746,15.3876,0,0.301772,9.74294,-0.318538,3.32317,6.82927,-5.4878,-10.0519,-0.0431104,0.677791,-6.25,43.4756,3.47561
394.664,3.11642,14.9033,0,0.261057,9.75012,-0.299377,2.83537,6.0061,-4.81707,-9.93694,0.0383203,0.584385,-6.15854,41.9207,3.62805
394.674,3.0653,14.4082,0,0.490979,9.8124,-0.529299,2.37805,7.68293,-4.69512,-9.90101,0.00718506,0.450264,-6.46341,40.9451,3.90244
394.684,2.99288,13.9506,0,0.282612,9.76449,-0.510139,2.83537,4.45122,-4.45122,-9.98484,0.0526904,0.531694,-7.04268,39.6037,4.05488
394.694,2.8821,13.492,0,-0.112566,9.69743,-0.510139,3.32317,6.37195,-3.10976,-9.91299,0.0263452,0.443079,-7.07317,38.2927,4.14634
394.704,2.86491,13.0455,0,0.603545,9.84593,-0.395178,4.11585,3.9939,-3.14024,-9.87706,0.0502954,0.414338,-7.28659,37.439,4.26829
394.714,2.80277,12.5953,0,0.251477,9.96089,-0.55804,2.19512,5.2439,-3.2622,-10.0519,-0.00479004,0.325723,-7.53049,36.4329,4.08537
394.725,2.66166,12.1626,0,-0.304167,9.72857,-0.502954,0.518293,5.2439,-1.82927,-10.2028,-0.0311353,0.328118,-7.89634,34.8171,3.59756
394.734,2.66024,11.7293,0,0.723296,9.84114,-0.675395,1.31098,9.42073,-3.47561,-10.0782,-0.0119751,0.244292,-8.04878,33.8415,3.47561
394.744,2.57213,11.2817,0,0.0335303,9.79323,-0.419128,1.18902,4.42073,-3.71951,-10.0735,-0.0239502,0.102986,-8.20122,32.5915,4.05488
394.754,2.47825,10.8256,0,-0.0502954,9.6663,-0.59157,1.0061,7.16463,-3.17073,-10.2507,-0.0670605,-0.0143701,-8.38415,31.0061,3.93293
394.764,2.41657,10.3761,0,0.249082,9.79084,-0.366438,2.34756,3.41463,-4.14634,-10.1549,-0.0383203,-0.0670605,-8.71951,30,4.20732
394.774,2.34031,9.91168,0,0.129331,9.86269,-0.385598,1.43293,4.7561,-4.29878,-10.3369,-0.0670605,-0.217947,-8.38415,28.9634,4.17683
394.784,2.26643,9.47227,0,0.179626,9.90341,-0.529299,1.12805,5.94512,-4.84756,-10.2315,-0.0742456,-0.186812,-8.9939,28.0183,4.7561
394.794,2.18418,9.03335,0,0.0934058,9.94891,-0.447869,0.792683,4.84756,-4.81707,-10.3848,-0.189207,-0.268242,-8.59756,26.6159,4.48171
394.804,2.0799,8.59812,0,-0.0886157,9.98723,-0.409548,0.518293,6.55488,-5.09146,-10.3992,-0.249082,-0.332908,-8.38415,25.0305,4.42073
394.814,2.01564,8.14934,0,0.213157,9.98005,-0.414338,0.670732,7.86585,-4.78659,-10.3225,-0.313748,-0.471819,-7.71341,23.75,4.84756
394.824,1.91091,7.7441,0,-0.0239502,10.0208,-0.529299,0.579268,5.33537,-6.28049,-10.4231,-0.368833,-0.359253,-7.19512,22.2256,4.96951
394.834,1.78898,7.31811,0,-0.134121,9.91299,-0.603545,0.335366,5.57927,-6.95122,-10.3249,-0.383203,-0.524509,-6.67683,21.25,5.36585
394.844,1.66209,6.92606,0,-0.167651,9.78605,-0.541274,0.914634,4.54268,-7.28659,-10.4519,-0.440684,-0.452659,-6.25,20.6402,5.18293
394.854,1.53453,6.53674,0,-0.172441,9.80042,-0.538879,0.640244,3.10976,-7.56098,-10.3465,-0.347278,-0.507744,-5.73171,19.3598,5.27439
394.864,1.41678,6.15068,0,-0.114961,9.74773,-0.399968,0.304878,2.28659,-7.5,-10.3201,-0.361648,-0.56283,-5.09146,18.2927,5.67073
394.874,1.31492,5.74085,0,-0.0455054,9.76928,-0.495769,0.0609756,2.43902,-6.95122,-10.1956,-0.344883,-0.732876,-4.48171,17.5915,5.73171
394.884,1.22681,5.34912,0,-0.0263452,9.74054,-0.514929,-0.182927,1.46341,-5.97561,-10.1357,-0.332908,-0.720901,-3.44512,16.7988,5.7622
394.894,1.16027,4.98864,0,0.0718506,9.84593,-0.469424,-0.213415,-0.365854,-5.12195,-10.2555,-0.335303,-0.65863,-2.5,16.0366,5.73171
394.904,1.10097,4.66652,0,0.110171,9.91778,-0.507744,-0.304878,-0.396341,-4.96951,-10.1237,-0.323328,-0.543669,-1.98171,14.4817,5.7622
394.914,1.04604,4.36356,0,0.114961,9.96568,-0.507744,-0.426829,-0.213415,-4.69512,-10.2411,-0.337698,-0.522114,-0.792683,13.2012,5.27439
394.924,0.990523,4.07224,0,0.114961,9.90341,-0.445474,-0.731707,0.182927,-4.87805,-10.1405,-0.263452,-0.519719,-0.792683,11.9207,5.2439
394.934,0.941605,3.79945,0,0.191602,9.86748,-0.452659,-0.27439,1.12805,-5.2439,-10.1764,-0.270637,-0.490979,-0.365854,10.9146,5.57927
394.944,0.892924,3.53361,0,0.208367,9.87227,-0.565225,-1.0061,1.7378,-5.51829,-10.1453,-0.182021,-0.507744,-0.853659,9.72561,5.21341
394.954,0.838265,3.28054,0,0.155676,9.81958,-0.574805,-1.37195,3.14024,-5.60976,-10.2459,-0.179626,-0.502954,-1.15854,9.29878,5.12195
394.964,0.786901,3.02686,0,0.167651,9.72857,-0.517324,-0.914634,3.32317,-5.54878,-10.2315,-0.0910107,-0.550855,-1.55488,8.44512,5.39634
394.974,0.751695,2.77331,0,0.220342,9.70462,-0.481399,-0.487805,3.53659,-4.66463,-10.1142,-0.0622705,-0.589175,-1.70732,7.65244,5.60976
394.984,0.721715,2.53094,0,0.261057,9.72857,-0.514929,0.487805,4.39024,-4.69512,-10.0016,-0.0910107,-0.5772,-1.92073,6.85976,5.94512
394.994,0.683527,2.27775,0,0.203577,9.76449,-0.531694,0.518293,5.45732,-4.87805,-9.9058,-0.153281,-0.65863,-1.98171,5.94512,6.0061
395.004,0.638443,2.03864,0,0.126936,9.78844,-0.500559,0.0914634,5.36585,-4.72561,-9.91299,-0.186812,-0.63947,-1.82927,5.51829,6.34146
395.014,0.581944,1.80251,0,0.0359253,9.83395,-0.531694,-0.365854,4.66463,-4.87805,-9.96328,-0.217947,-0.66342,-1.64634,4.66463,6.28049
395.024,0.537958,1.55517,0,0.124541,9.84114,-0.55325,-1.12805,3.01829,-4.78659,-9.9537,-0.239502,-0.718506,-1.67683,3.5061,6.15854
395.034,0.509838,1.3047,0,0.215552,9.77168,-0.519719,-0.762195,3.14024,-4.39024,-9.93454,-0.191602,-0.720901,-1.52439,2.77439,6.03659
395.044,0.477199,1.0599,0,0.158071,9.78366,-0.447869,-0.0609756,3.07927,-4.20732,-10.0806,-0.162861,-0.61073,-1.64634,1.61585,6.12805
395.054,0.451264,0.765383,0,0.196392,9.83635,-0.507744,-0.304878,3.14024,-4.05488,-10.0495,-0.0766406,-0.63468,-1.82927,0.945122,6.15854
395.064,0.429935,0.377387,0,0.210762,9.80042,-0.399968,-0.27439,3.20122,-3.84146,-10.1405,-0.0431104,-0.687371,-2.40854,0.213415,6.15854
395.074,0.407622,0.0401418,0,0.201182,9.78126,-0.483794,0.243902,3.32317,-3.87195,-10.1381,-0.0694556,-0.764011,-2.62195,-0.518293,6.25
395.084,0.39217,-0.3094,0,0.203577,9.81,-0.500559,-0.487805,2.89634,-3.29268,-10.0878,-0.0622705,-0.869392,-2.53049,-0.609756,6.21951
395.094,0.387311,-0.620358,0,0.253872,9.80521,-0.498164,-1.09756,3.04878,-2.95732,-10.0543,-0.105381,-0.871787,-2.89634,-0.762195,6.12805
395.104,0.39882,-0.905977,0,0.340093,9.79084,-0.56283,-1.64634,3.41463,-2.59146,-10.0232,-0.174836,-0.931663,-2.80488,-1.03659,6.31098
395.114,0.423187,-1.15702,0,0.411943,9.75491,-0.546064,-1.25,3.81098,-2.40854,-10.0423,-0.241897,-0.895737,-2.62195,-1.06707,5.94512
395.124,0.443232,-1.35672,0,0.395178,9.87227,-0.510139,-0.914634,4.2378,-2.40854,-10.0567,-0.268242,-0.886157,-2.31707,-1.58537,5.94512
395.134,0.451182,-1.55215,0,0.320933,9.95849,-0.462239,-1.46341,3.41463,-2.46951,-10.0016,-0.227527,-0.898132,-2.10366,-1.61585,5.88415
395.144,0.453153,-1.72859,0,0.311353,9.86748,-0.438289,-1.52439,2.80488,-2.86585,-9.95131,-0.215552,-0.922083,-1.67683,-2.13415,6.18902
395.154,0.44412,-1.88351,0,0.229922,9.90101,-0.387993,-1.18902,2.59146,-2.89634,-9.91778,-0.177231,-0.893342,-1.34146,-2.43902,6.64634
395.164,0.425285,-2.04481,0,0.174836,9.9082,-0.399968,-1.95122,2.04268,-3.17073,-9.88904,-0.201182,-0.926873,-1.06707,-2.28659,6.70732
395.174,0.412545,-2.2088,0,0.205972,9.79323,-0.407153,-2.37805,0.823171,-3.04878,-9.90341,-0.179626,-0.965193,-1.52439,-2.2561,7.19512
395.184,0.408269,-2.33671,0,0.268242,9.81958,-0.435894,-2.43902,0.579268,-3.01829,-9.92975,-0.165256,-0.886157,-1.21951,-2.62195,7.65244
395.194,0.415296,-2.44933,0,0.330513,9.8124,-0.435894,-2.7439,0.121951,-2.77439,-9.96807,-0.138911,-0.871787,-1.06707,-3.07927,7.34756
395.204,0.433799,-2.54309,0,0.387993,9.81479,-0.368833,-2.46951,0.121951,-2.5,-10.0064,-0.122146,-0.828677,-1.12805,-3.56707,7.40854
395.214,0.456451,-2.643,0,0.378413,9.83395,-0.344883,-1.89024,0.823171,-2.13415,-9.95131,-0.0934058,-0.869392,-0.97561,-3.78049,7.13415
395.224,0.494061,-2.72528,0,0.419128,9.86988,-0.361648,-1.37195,0.365854,-1.64634,-9.99442,-0.105381,-0.819097,-0.609756,-4.05488,6.95122
395.234,0.53197,-2.8223,0,0.462239,9.88425,-0.455054,-1.76829,-0.0304878,-1.85976,-9.87706,-0.122146,-0.888552,-0.884146,-4.32927,6.98171
395.244,0.568764,-2.91514,0,0.428708,9.87946,-0.476609,-1.61585,-0.182927,-1.64634,-10.0064,-0.217947,-0.898132,-0.914634,-4.11585,6.52439
395.254,0.602641,-3.01879,0,0.402363,9.87706,-0.397573,-1.18902,0.304878,-1.55488,-10.0184,-0.158071,-0.960403,-0.884146,-3.93293,6.52439
395.264,0.637108,-3.11422,0,0.440684,9.8555,-0.414338,-1.52439,0.426829,-1.76829,-9.96807,-0.174836,-0.936453,-0.609756,-3.84146,6.85976
395.274,0.660257,-3.20964,0,0.411943,9.81958,-0.474214,-1.55488,0.823171,-2.10366,-9.88664,-0.124541,-0.946033,-0.762195,-3.96341,7.53049
395.284,0.675641,-3.2985,0,0.385598,9.8076,-0.450264,-2.34756,0.792683,-2.31707,-9.89143,-0.136516,-0.931663,-0.670732,-3.71951,7.46951
395.294,0.67941,-3.40189,0,0.356858,9.80042,-0.390388,-2.19512,0.518293,-2.83537,-9.86269,-0.167651,-0.972378,-0.914634,-2.65244,7.89634
395.304,0.683506,-3.51988,0,0.392783,9.83635,-0.342488,-2.5,0.579268,-3.14024,-9.95849,-0.196392,-0.972378,-0.396341,-1.46341,8.07927
395.314,0.694474,-3.61615,0,0.486189,9.84832,-0.337698,-2.16463,2.0122,-3.5061,-9.90341,-0.179626,-0.893342,0.0609756,-1.25,8.14024
395.324,0.696361,-3.71149,0,0.443079,9.89862,-0.354463,-1.95122,2.86585,-3.78049,-10.0758,-0.208367,-0.888552,0.426829,-0.731707,7.86585
395.334,0.690702,-3.77283,0,0.407153,9.98244,-0.373623,-2.56098,2.80488,-4.02439,-10.0926,-0.0239502,-0.843047,0.457317,-1.12805,7.92683
395.344,0.681303,-3.84075,0,0.352068,9.85311,-0.332908,-2.77439,3.44512,-3.84146,-10.0591,0.0359253,-0.905317,0.762195,-1.7378,7.65244
395.354,0.669667,-3.8793,0,0.320933,9.78605,-0.399968,-2.34756,2.77439,-3.75,-9.98005,0.0167651,-0.828677,0.884146,-2.86585,7.22561
395.364,0.668779,-3.91282,0,0.347278,9.70462,-0.452659,-2.65244,2.34756,-3.17073,-9.9561,-0.0335303,-0.819097,0.670732,-3.5061,6.76829
395.374,0.663672,-3.93851,0,0.313748,9.63756,-0.342488,-2.53049,1.21951,-3.20122,-9.88185,-0.0718506,-0.787961,0.609756,-3.93293,6.4939
395.384,0.651926,-3.94961,0,0.265847,9.66869,-0.378413,-1.85976,1.03659,-3.23171,-9.81719,-0.124541,-0.725691,0.213415,-3.90244,6.37195
395.394,0.640275,-3.95649,0,0.246687,9.69504,-0.359253,-1.4939,1.4939,-3.01829,-9.77168,-0.131726,-0.706531,-0.182927,-3.87195,6.06707
395.404,0.632781,-3.95284,0,0.263452,9.77886,-0.349673,-1.95122,0.97561,-2.83537,-9.79803,-0.0718506,-0.665815,0.121951,-4.08537,6.25
395.414,0.630865,-3.94596,0,0.285007,9.79563,-0.244292,-1.37195,0.487805,-2.62195,-9.79323,-0.0766406,-0.651445,-0.304878,-4.7561,6.76829
395.424,0.634253,-3.9491,0,0.328118,9.9082,-0.354463,-1.21951,0.548781,-2.59146,-9.84832,0.0167651,-0.696951,-0.396341,-4.84756,6.89024
395.434,0.638226,-3.94105,0,0.337698,9.88185,-0.268242,-1.12805,-0.0304878,-2.65244,-9.87946,0.00718506,-0.651445,-0.853659,-4.84756,7.31707
395.444,0.64944,-3.93516,0,0.397573,9.84353,-0.282612,-1.70732,-0.243902,-2.71341,-9.83156,0.0526904,-0.656235,-1.09756,-4.93902,7.59146
395.454,0.668711,-3.91778,0,0.467029,9.79084,-0.275427,-1.12805,0.0914634,-2.80488,-9.91059,-0.00479004,-0.61073,-1.82927,-4.84756,7.46951
395.464,0.675594,-3.90201,0,0.414338,9.7621,-0.316143,-1.37195,0.701219,-3.20122,-9.96328,0.0335303,-0.617915,-1.82927,-5.12195,7.46951
395.474,0.681659,-3.89184,0,0.416733,9.78605,-0.328118,-0.945122,1.85976,-3.2622,-9.96089,0.0790356,-0.63947,-2.07317,-5.18293,7.34756
395.484,0.681366,-3.89082,0,0.366438,9.82437,-0.287402,-1.43293,2.5,-3.23171,-9.89383,0.0958008,-0.673001,-2.31707,-5.06098,7.31707
395.494,0.678267,-3.8889,0,0.347278,9.77647,-0.282612,-1.18902,2.77439,-3.29268,-9.88185,0.0622705,-0.66821,-2.19512,-5.21341,7.2561
395.504,0.662499,-3.89066,0,0.249082,9.8603,-0.277822,-1.52439,1.61585,-3.29268,-9.89622,0.0502954,-0.684976,-2.68293,-5.33537,7.28659
395.514,0.650898,-3.89777,0,0.249082,9.84114,-0.289797,-1.0061,-0.579268,-2.95732,-9.90341,-0.00239502,-0.708926,-2.59146,-5.2439,7.2561
395.524,0.62469,-3.89419,0,0.158071,9.86988,-0.387993,-0.335366,-1.09756,-3.2622,-9.97047,0.0143701,-0.66821,-2.80488,-5.2439,7.43902
395.534,0.584255,-3.88175,0,0.0622705,9.81719,-0.301772,-0.487805,-2.9878,-3.56707,-9.98244,0,-0.62989,-2.95732,-5.85366,7.2561
395.544,0.531027,-3.88437,0,-0.00479004,9.83395,-0.320933,-0.579268,-2.95732,-4.14634,-9.95131,-0.0335303,-0.692161,-3.41463,-6.31098,7.37805
395.554,0.472791,-3.85625,0,-0.00958008,9.82677,-0.347278,-0.914634,-3.38415,-4.72561,-10.083,-0.00718506,-0.565225,-3.75,-6.64634,7.22561
395.564,0.41569,-3.82762,0,0,9.75731,-0.318538,-0.670732,-4.17683,-4.84756,-10.0327,0.0455054,-0.555645,-4.26829,-7.2561,7.40854
395.574,0.360466,-3.80029,0,0.0335303,9.80042,-0.289797,-1.4939,-5.42683,-5.18293,-10.0591,0.0766406,-0.55804,-4.66463,-7.53049,7.7439
395.584,0.31193,-3.75775,0,0.100591,9.76449,-0.325723,-2.10366,-6.15854,-5.42683,-10.0639,0.0263452,-0.486189,-6.21951,-7.89634,7.83537
395.594,0.276184,-3.7288,0,0.244292,9.77647,-0.328118,-2.37805,-6.61585,-5.94512,-10.0591,-0.0311353,-0.538879,-6.92073,-7.95732,7.43902
395.604,0.225589,-3.693,0,0.0981958,9.9058,-0.455054,-2.83537,-5.97561,-5.7622,-9.9537,-0.146096,-0.498164,-7.77439,-8.04878,7.37805
395.614,0.167033,-3.66909,0,-0.0455054,9.9537,-0.433499,-3.71951,-6.12805,-4.96951,-9.89622,-0.241897,-0.541274,-7.92683,-8.32317,6.92073
395.624,0.115885,-3.63545,0,-0.00479004,9.87227,-0.500559,-4.17683,-6.82927,-4.81707,-9.92017,-0.383203,-0.495769,-8.20122,-8.32317,7.13415
395.634,0.0725933,-3.61362,0,0.110171,9.92257,-0.531694,-4.7561,-7.2561,-5.4878,-9.91059,-0.510139,-0.541274,-7.9878,-8.44512,7.22561
395.644,0.0358441,-3.6082,0,0.177231,9.79084,-0.579595,-4.60366,-6.52439,-5.73171,-9.88904,-0.56762,-0.608335,-7.28659,-8.75,7.22561
395.654,0.00388303,-3.59666,0,0.205972,9.76928,-0.617915,-4.78659,-5.30488,-5.67073,-9.86988,-0.665815,-0.579595,-6.76829,-8.87195,7.86585
395.664,-0.0255762,-3.58776,0,0.205972,9.87227,-0.60594,-5.39634,-4.60366,-5.45732,-9.91299,-0.718506,-0.59157,-6.12805,-8.71951,8.32317
395.674,-0.0520208,-3.56367,0,0.227527,10.0136,-0.622705,-5.70122,-4.84756,-5.42683,-9.83395,-0.797541,-0.519719,-5.21341,-9.2378,8.71951
395.684,-0.068798,-3.55058,0,0.251477,10.0399,-0.749641,-5.94512,-4.48171,-4.78659,-9.94173,-0.946033,-0.570015,-4.42073,-9.7561,8.96341
395.694,-0.0763938,-3.53397,0,0.277822,10.0136,-0.785566,-5.60976,-3.35366,-4.2378,-9.91538,-1.00112,-0.550855,-3.2622,-9.84756,8.90244
395.704,-0.0797285,-3.52364,0,0.253872,9.93694,-0.814307,-5.82317,-2.34756,-3.62805,-9.86748,-1.05381,-0.57241,-1.95122,-9.48171,8.93293
395.714,-0.0814505,-3.51481,0,0.234712,9.78366,-0.783171,-5.94512,-2.95732,-3.35366,-9.9082,-1.06818,-0.579595,-0.487805,-9.48171,8.90244
395.724,-0.0796785,-3.53386,0,0.170046,9.73575,-0.756826,-5.67073,-4.2378,-2.43902,-9.96807,-0.998723,-0.704136,1.40244,-9.05488,8.9939
395.734,-0.0760512,-3.55106,0,0.150886,9.74533,-0.941243,-6.03659,-5.60976,-2.10366,-9.93694,-0.917292,-0.696951,2.7439,-8.90244,9.08537
395.744,-0.057996,-3.56962,0,0.148491,9.74773,-0.804727,-6.85976,-7.37805,-1.25,-9.9082,-0.804727,-0.704136,3.53659,-9.11585,9.05488
395.754,-0.0392531,-3.58355,0,0.167651,9.77168,-0.802332,-7.0122,-7.86585,-1.34146,-9.91299,-0.790356,-0.687371,4.02439,-9.17683,9.14634
395.764,-0.0236577,-3.59422,0,0.165256,9.80281,-0.711321,-7.56098,-8.07927,-1.43293,-9.91059,-0.843047,-0.675395,4.32927,-9.20732,8.62805
395.774,0.00701228,-3.59037,0,0.263452,9.83156,-0.716111,-8.14024,-6.52439,-1.46341,-9.97526,-0.850232,-0.617915,4.78659,-9.60366,8.68902
395.784,0.0345266,-3.57911,0,0.201182,9.91538,-0.622705,-9.02439,-5.97561,-1.03659,-10.016,-0.764011,-0.58678,5.2439,-9.45122,8.93293
395.794,0.0647599,-3.53823,0,0.222737,9.90101,-0.555645,-8.75,-7.95732,-1.06707,-9.88904,-0.598755,-0.447869,5.64024,-9.32927,9.42073
395.804,0.102206,-3.51803,0,0.217947,9.90341,-0.570015,-8.75,-9.35976,-0.731707,-10.0064,-0.637075,-0.536484,6.03659,-8.20122,9.87805
395.814,0.141484,-3.49016,0,0.215552,9.79803,-0.543669,-8.23171,-9.96951,-0.701219,-10.0399,-0.522114,-0.500559,6.55488,-7.9878,9.60366
395.824,0.172626,-3.47078,0,0.217947,9.79563,-0.505349,-8.5061,-9.96951,-0.945122,-10.0184,-0.488584,-0.531694,7.0122,-7.43902,9.72561
395.834,0.231263,-3.44736,0,0.332908,9.76449,-0.433499,-9.05488,-10.122,-0.853659,-9.92017,-0.464634,-0.505349,6.4939,-7.28659,9.35976
395.844,0.314997,-3.41602,0,0.493374,9.8124,-0.55804,-9.20732,-8.81098,-0.945122,-9.78126,-0.493374,-0.459844,6.64634,-6.92073,8.87195
395.854,0.382894,-3.36576,0,0.510139,9.82677,-0.481399,-10.061,-8.38415,-1.31098,-9.73336,-0.428708,-0.371228,6.37195,-7.07317,8.9939
395.864,0.438439,-3.32022,0,0.524509,9.81958,-0.546064,-9.84756,-6.61585,-1.70732,-9.74533,-0.376018,-0.383203,6.28049,-6.70732,8.9939
395.874,0.478247,-3.26228,0,0.512534,9.79084,-0.469424,-9.93902,-6.85976,-2.2561,-9.55613,-0.229922,-0.316143,5.88415,-6.85976,9.48171
395.884,0.520475,-3.19805,0,0.55325,9.7142,-0.440684,-10.2134,-5.94512,-2.43902,-9.72857,-0.172441,-0.285007,5.45732,-6.92073,9.54268
395.894,0.553108,-3.12608,0,0.59636,9.62558,-0.416733,-10.4878,-4.66463,-3.35366,-9.86748,-0.126936,-0.244292,4.81707,-6.18902,9.26829
395.904,0.576545,-3.05875,0,0.598755,9.60642,-0.376018,-10.6402,-3.90244,-4.02439,-9.83635,-0.0311353,-0.251477,4.08537,-5.79268,9.29878
395.914,0.588434,-2.99509,0,0.546064,9.63516,-0.299377,-11.0976,-3.04878,-4.39024,-9.81,0.0622705,-0.256267,3.20122,-5.03049,9.11585
395.924,0.598627,-2.9298,0,0.55804,9.69743,-0.289797,-11.9512,-2.62195,-4.60366,-9.7118,-0.0191602,-0.239502,1.98171,-4.35976,8.32317
395.934,0.616292,-2.84458,0,0.61073,9.73815,-0.261057,-12.7439,-2.65244,-4.45122,-9.74533,-0.102986,-0.146096,1.09756,-4.29878,7.71341
395.944,0.65478,-2.80261,0,0.756826,9.73575,-0.337698,-13.9939,-2.19512,-4.14634,-9.65911,-0.201182,-0.311353,0,-4.02439,6.61585
395.954,0.713608,-2.77374,0,0.895737,9.76928,-0.299377,-14.7561,-1.09756,-3.78049,-9.6184,-0.385598,-0.361648,-0.0609756,-3.20122,5.18293
395.964,0.788319,-2.76221,0,1.00591,9.76449,-0.210762,-15.8232,0.335366,-3.53659,-9.52739,-0.541274,-0.423918,-0.213415,-2.43902,4.2378
395.974,0.896738,-2.76924,0,1.07297,9.73575,-0.196392,-16.0671,1.82927,-2.34756,-9.52739,-0.701741,-0.481399,0.579268,-1.70732,3.29268
395.984,1.10426,-2.76415,0,1.13763,9.64235,-0.239502,-17.0732,3.41463,-0.945122,-9.58726,-0.778381,-0.450264,1.55488,-1.64634,3.41463
395.994,1.36191,-2.74765,0,1.14482,9.55613,-0.232317,-18.0488,5.30488,0.701219,-9.66151,-0.716111,-0.421523,2.95732,-1.43293,3.81098
396.004,1.50931,-2.70799,0,1.10171,9.49386,-0.184417,-19.0854,6.28049,3.2622,-9.77407,-0.60594,-0.352068,3.93293,-1.4939,3.9939
396.014,1.68076,-2.63248,0,1.12566,9.51062,0.0335303,-19.6951,6.03659,6.76829,-9.75491,-0.390388,-0.203577,4.69512,-2.10366,4.45122
396.024,1.90402,-2.54727,0,1.29092,9.56092,0.126936,-19.4817,4.63415,10.5183,-9.90101,-0.328118,-0.167651,4.69512,-1.82927,4.60366
396.034,2.1839,-2.44557,0,1.50407,9.79803,0.402363,-18.75,0.853659,14.6341,-9.8579,-0.174836,-0.0766406,4.20732,-2.16463,4.45122
396.044,2.52536,-2.38982,0,1.78189,10.1573,0.380808,-18.4451,0.884146,18.9939,-9.96328,-0.229922,-0.241897,4.45122,-1.64634,4.57317
396.054,2.92634,-2.33259,0,1.96871,10.1884,0.325723,-19.5732,0.0914634,23.75,-10.0088,-0.275427,-0.275427,4.66463,-0.731707,4.2378
396.064,3.39783,-2.29316,0,2.10522,10.1956,0.467029,-21.9817,-1.95122,30.2744,-9.98244,-0.390388,-0.337698,6.09756,0.0609756,4.60366
396.074,3.97436,-2.24829,0,2.53154,10.1884,0.426313,-26.0366,-3.56707,37.2866,-9.91538,-0.498164,-0.296982,8.23171,0.579268,4.7561
396.084,4.67385,-2.25408,0,2.94827,9.99442,0.457449,-30.061,-5.42683,45.9451,-9.93694,-0.57241,-0.402363,11.0976,0.518293,5.67073
396.094,5.50394,-2.18303,0,3.29555,9.69983,0.740061,-32.6524,-9.29878,55.9451,-10.0064,-0.541274,-0.251477,14.2378,-0.27439,6.61585
396.104,6.49848,-2.13635,0,3.92783,9.52499,0.792751,-32.4085,-10.3354,66.9817,-10.0782,-0.423918,-0.220342,17.1951,-1.76829,7.2561
396.114,7.62285,-2.11458,0,4.40923,9.54176,0.701741,-27.9878,-9.81707,77.3781,-10.0256,-0.198787,-0.287402,20.4268,-2.9878,7.89634
396.124,8.82102,-2.0834,0,4.5673,9.56571,0.555645,-19.9085,-6.28049,85.7317,-9.92975,0.138911,-0.237107,23.5976,-4.20732,8.75
396.134,10.0265,-2.02119,0,4.45713,9.88185,0.361648,-9.2378,2.2561,91.4634,-10.0088,0.371228,-0.0958008,25.3659,-5.94512,10.0915
396.144,11.1765,-1.92204,0,3.8943,10.6602,0.347278,-1.18902,11.4634,96.8598,-10.3345,0.63947,0.0790356,26.7683,-8.87195,11.189
396.154,12.3068,-1.84363,0,3.31471,11.2805,0.555645,3.93293,18.1098,104.726,-10.5668,0.833467,0,27.439,-11.7073,12.7134
396.164,13.4536,-1.80165,0,2.99377,11.338,1.11608,7.40854,19.2988,111.951,-10.7057,0.996328,-0.158071,27.0732,-12.622,14.2378
396.174,14.61,-1.81385,0,2.56028,10.9907,1.71962,11.7073,18.1402,118.689,-10.689,1.28134,-0.404758,25.8841,-11.8902,16.372
396.184,15.741,-1.88871,0,1.88728,10.7991,3.01293,18.4756,12.1341,125,-10.5884,1.45857,-0.694556,23.8415,-9.84756,18.7195
396.194,16.8416,-2.00036,0,1.28852,10.8782,4.30146,27.378,-3.9939,130.64,-10.471,1.70286,-0.869392,20.8841,-7.89634,21.128
396.204,18.0042,-2.13208,0,1.78668,10.3848,4.41163,33.9024,-18.7805,133.079,-10.3872,1.72681,-0.972378,18.0488,-5.94512,23.1402
396.214,19.1816,-2.26766,0,2.57704,10.8039,2.99138,34.3598,-20.0305,129.512,-10.5213,1.65975,-1.02507,15.3049,-5.12195,23.5671
396.224,20.2214,-2.39604,0,2.80696,11.92,0.886157,17.1646,-6.4939,118.201,-10.6291,1.36516,-1.02746,12.9268,-5.18293,22.8659
396.234,21.0318,-2.53505,0,2.46687,11.0171,-0.0479004,5.36585,11.311,98.2012,-10.7225,1.03225,-1.11129,11.2805,-5.12195,21.0976
396.244,21.6465,-2.69337,0,2.27048,10.2986,-0.534089,4.17683,24.939,80.2744,-10.78,0.565225,-1.23583,11.4329,-5.03049,19.5732
396.254,22.0908,-2.87887,0,2.04056,10.3992,-0.323328,8.2622,25.6707,66.8598,-10.7536,0.208367,-1.39151,11.8598,-4.7561,18.4756
396.264,22.3966,-3.08985,0,1.67412,10.1621,-0.0191602,10.5183,17.3171,57.1951,-10.7896,-0.00239502,-1.55437,13.5366,-4.69512,18.4756
396.274,22.6318,-3.29695,0,1.37714,9.28789,0.368833,11.9207,1.15854,52.5,-10.7944,0.00239502,-1.58311,15.9146,-6.21951,18.5671
396.284,22.9076,-3.50065,0,1.90883,8.44244,0.332908,15.8841,-8.41463,48.3232,-10.5261,0.213157,-1.56874,18.7195,-7.65244,19.3293
396.294,23.2208,-3.69683,0,2.64171,8.01853,0.0718506,22.3476,-6.92073,41.4939,-9.97526,0.500559,-1.4897,21.311,-8.2622,20.0915
396.304,23.5494,-3.86526,0,3.37698,7.77663,0.213157,26.9207,0.304878,33.0183,-9.44835,0.795146,-1.32684,22.8354,-9.08537,20.5183
396.314,23.907,-3.96242,0,4.29427,7.53234,0.0479004,27.9573,11.6463,23.9634,-9.07712,0.984353,-1.01309,23.4756,-10.061,20.0305
396.324,24.286,-3.99858,0,5.12774,7.14674,0.0143701,28.5976,26.6463,14.6951,-8.89031,1.21667,-0.766406,23.0183,-10.4573,18.1707
396.334,24.6483,-3.98704,0,5.65943,6.93358,0.00479004,30.4878,44.5427,6.18902,-8.82086,1.46096,-0.579595,22.2866,-10.5488,16.2195
396.344,26.1408,-3.97664,0,5.69296,6.91203,-0.220342,31.372,63.2927,0.152439,-8.79212,1.69567,-0.579595,20.7012,-9.5122,14.1768
396.354,26.385,-3.95953,0,5.10858,6.81623,0.131726,33.9634,75.7317,-3.23171,-8.83044,1.91602,-0.55325,17.5305,-8.07927,12.7439
396.364,26.4455,-3.93751,0,4.44755,7.03178,0.419128,36.7683,87.4695,-6.15854,-8.92863,2.019,-0.536484,13.0793,-5.88415,11.8293
396.374,26.3535,-3.91178,0,3.46799,7.32397,0.905317,40.3963,86.4024,-7.10366,-9.05317,2.02379,-0.526904,9.11585,-4.63415,10.9146
396.384,26.2017,-3.89598,0,3.23807,7.77902,0.565225,38.2012,89.5427,-7.80488,-9.07473,2.01421,-0.56283,3.90244,-4.48171,10.0915
396.394,25.9728,-3.87258,0,2.75188,7.94907,0.876577,33.1402,84.9085,-8.84146,-9.04599,2.07169,-0.529299,-0.701219,-4.48171,9.20732
396.404,25.6736,-3.83988,0,2.28485,8.14067,1.34121,31.6159,76.0366,-9.5122,-9.1346,2.05014,-0.493374,-4.96951,-4.7561,8.07927
396.414,25.3654,-3.82353,0,2.16989,8.02811,1.54,30.122,62.8049,-9.90854,-9.39087,1.93518,-0.56762,-9.32927,-4.7561,6.76829
396.424,25.095,-3.82045,0,2.33993,8.00895,1.82979,31.6463,45.9451,-9.05488,-9.63516,1.8274,-0.63468,-13.2927,-4.17683,5.79268
396.434,24.8897,-3.82707,0,2.82852,8.18378,1.75076,32.439,29.7561,-8.62805,-9.88185,1.70525,-0.692161,-15.9451,-4.45122,3.90244
396.444,24.7787,-3.85716,0,3.6524,8.45681,1.81542,26.0671,16.0366,-8.20122,-10.1597,1.53042,-0.816702,-18.2927,-4.29878,2.16463
396.454,24.7889,-3.91665,0,4.56251,8.25084,1.76992,24.9085,9.2378,-7.46951,-10.2148,1.38432,-0.955613,-20.0915,-3.90244,0.152439
396.464,24.8642,-3.97193,0,5.1924,8.31072,1.59748,20.2134,2.65244,-7.04268,-10.1645,1.26697,-0.941243,-21.7988,-3.71951,-1.4939
396.474,24.9825,-4.0379,0,5.56124,8.32269,1.6813,15.7317,1.09756,-6.12805,-9.93215,1.17116,-0.972378,-22.8049,-3.65854,-2.56098
396.484,25.1216,-4.12247,0,5.63788,8.1742,1.36516,13.5366,2.07317,-5.54878,-9.65193,1.07776,-1.02507,-23.872,-3.47561,-3.10976
396.494,25.2812,-4.22869,0,5.87498,7.92033,0.907712,14.0244,2.92683,-7.10366,-9.47949,0.960403,-1.09931,-24.2378,-3.38415,-3.38415
396.504,25.4139,-4.39038,0,5.88696,7.75507,0.816702,17.3476,7.56098,-10.7927,-9.38608,0.914897,-1.23823,-24.939,-2.37805,-2.9878
396.514,25.5077,-4.69121,0,5.85343,7.87243,0.62989,18.2012,13.2317,-13.3232,-9.32381,0.795146,-1.43462,-24.9695,-1.31098,-2.65244
396.524,25.5855,-5.2188,0,5.98994,8.00895,0.548459,17.2561,17.4695,-15.0915,-9.37171,0.752036,-1.51605,-24.7256,-0.27439,-2.2561
396.534,25.6828,-5.70293,0,6.15281,7.94428,0.59636,16.4024,26.0976,-14.9085,-9.45793,0.670605,-1.61424,-24.2073,0.304878,-1.98171
396.544,25.7989,-6.01908,0,6.251,7.94907,0.665815,15.8232,35.061,-13.6585,-9.45075,0.694556,-1.6837,-23.3537,1.06707,-1.7378
396.554,25.9224,-6.31614,0,6.18394,7.94667,0.792751,14.7561,43.1402,-12.0732,-9.4723,0.713716,-1.72441,-21.7378,1.12805,-1.89024
396.564,26.0334,-6.56247,0,5.95402,7.94907,0.986748,13.872,48.3232,-10.9451,-9.43877,0.735271,-1.72681,-20.6707,1.4939,-2.31707
396.574,26.1344,-6.82189,0,5.74326,7.90596,0.886157,12.8659,49.5122,-10.0305,-9.44356,0.857417,-1.88249,-19.6951,1.76829,-2.92683
396.584,26.1996,-7.03163,0,5.3864,7.93709,0.862207,11.9512,47.561,-9.72561,-9.48188,0.895737,-1.91841,-18.7195,2.71341,-3.81098
396.594,26.2129,-7.22106,0,4.87865,7.99697,1.08015,11.0061,44.5122,-9.2378,-9.50583,0.936453,-1.89686,-17.9878,2.86585,-4.29878
396.604,26.1859,-7.382,0,4.46432,7.89159,1.24541,9.39024,39.878,-9.45122,-9.49146,0.922083,-1.85375,-16.7378,3.65854,-5.36585
396.614,26.1371,-7.55006,0,4.19607,7.6449,1.47054,8.41463,32.9268,-10.2439,-9.39566,0.876577,-1.90404,-16.2195,4.17683,-6.09756
396.624,26.087,-7.71421,0,4.17931,7.51797,1.81063,8.5061,24.7866,-11.0976,-9.28549,0.840652,-1.90883,-15.5793,5.33537,-6.92073
396.634,26.0316,-7.88013,0,4.16494,7.51557,2.09564,9.63415,15,-11.5854,-9.25196,0.857417,-1.94236,-15.2439,6.64634,-7.2561
396.644,26.0039,-8.0477,0,4.44037,7.61856,2.39262,13.9634,5.79268,-11.4024,-9.26394,0.986748,-1.98068,-15.4573,7.62195,-7.62195
396.654,25.9849,-8.09341,0,4.56012,7.79579,2.2106,18.9329,-2.86585,-10.7622,-9.35734,1.22146,-1.50886,-14.7256,8.32317,-7.43902
396.664,25.83,-8.06889,0,4.16973,9.21364,1.14482,25.2134,-7.9878,-12.4695,-9.68067,1.11368,-1.26457,-14.6951,6.76829,-8.23171
396.674,25.4689,-7.93988,0,3.40572,11.7332,0.313748,24.5732,-9.5122,-17.1646,-10.1932,0.792751,-0.874182,-13.4146,3.59756,-9.96951
396.684,24.963,-7.63052,0,2.34951,13.5007,1.23104,22.0427,-16.6463,-19.7866,-10.7536,0.330513,-0.62989,-9.90854,0.0609756,-11.6463
396.694,24.4849,-7.40528,0,1.98787,13.5534,2.5986,19.3902,-30.2134,-14.878,-11.3165,0.0742456,-0.526904,-4.87805,-1.09756,-11.8293
396.704,24.2393,-7.21309,0,3.08958,12.3344,3.02251,18.2317,-48.9939,-3.75,-11.7236,-0.265847,-0.699346,0.182927,0.27439,-9.5122
396.714,24.3556,-6.92363,0,5.57082,11.3284,2.47885,14.5427,-58.9329,7.89634,-11.7356,-0.744851,-0.148491,4.17683,0.792683,-4.57317
396.724,24.8576,-6.83765,0,8.47597,10.4734,1.23104,13.3537,-52.0732,21.372,-11.841,-0.579595,-0.989143,11.6463,2.68293,0.579268
396.734,25.6634,-6.81264,0,11.0219,9.26873,-1.42983,22.5305,-22.1951,31.0366,-11.3356,-0.565225,-1.22625,18.7805,6.55488,4.7561
396.744,26.3977,-6.67269,0,10.9117,9.58247,-3.85359,24.2988,43.1098,27.8963,-10.4902,0.251477,-0.59157,20.4878,10.2744,8.35366
396.754,26.5722,-6.42555,0,5.24749,10.2076,-1.97829,19.3902,93.1098,16.1585,-10.4447,1.05141,-0.0670605,18.0793,12.9573,9.7561
396.764,25.3806,-6.17931,0,-0.871787,9.03401,1.23823,14.1768,81.0366,-1.52439,-10.986,1.99745,-0.0239502,12.0427,16.6463,8.87195
396.774,24.1896,-5.95123,0,-3.27639,7.59461,1.38672,20.7317,44.3293,-22.1037,-11.5847,2.72553,-0.0646655,5.42683,20.1829,7.68293
396.784,22.8301,-5.71281,0,-3.40572,7.8389,0.66821,24.8476,0.396341,-41.4329,-12.2122,3.30513,0.0383203,-1.21951,22.2561,7.86585
396.794,21.7748,-5.3599,0,-0.373623,8.8496,-0.0287402,30,-35.1524,-56.1585,-12.9666,3.03928,0.749641,-8.17073,22.1951,7.95732
396.804,20.9912,-4.94165,0,2.37346,10.974,-2.3064,37.8963,-42.1646,-60.4268,-13.6588,2.28964,1.26697,-14.939,19.6951,6.40244
396.814,20.2903,-4.50857,0,2.91234,13.0792,-3.54702,40.1524,-25.4573,-54.2988,-13.8384,1.00112,1.47294,-20.8537,16.3415,3.5061
396.824,19.5321,-4.0838,0,1.36277,13.2325,-2.26808,34.6037,-10.3963,-47.9573,-13.3187,-0.124541,1.46575,-24.2378,12.561,0.396341
396.834,18.6581,-3.65089,0,-0.215552,11.6685,-0.950823,29.7256,-4.93902,-47.1646,-12.3631,-0.922083,1.49449,-26.2195,9.02439,-2.28659
396.844,17.7066,-3.16683,0,-0.845442,10.3082,-0.919688,27.3171,-10.4878,-49.4512,-11.2877,-1.23823,1.70286,-28.1098,5.39634,-4.2378
396.854,16.7623,-2.60055,0,-0.459844,9.83395,-1.10889,24.3902,-22.2866,-54.7561,-10.2842,-1.42983,1.88728,-30.3049,2.83537,-5.60976
396.864,15.8551,-1.93737,0,0.153281,9.5226,-1.46336,21.2195,-33.689,-60.2439,-9.44835,-1.50168,1.73639,-32.1951,2.0122,-5.85366
396.874,14.9598,-1.13518,0,0.474214,9.37171,-2.0669,18.628,-39.878,-64.9085,-8.84241,-1.43701,1.65496,-32.9878,1.85976,-5.45732
396.884,14.0862,-0.0404025,0,0.687371,9.2831,-2.17707,15.9451,-43.5061,-67.2561,-8.50471,-1.32684,1.45857,-32.2866,1.31098,-3.9939
396.894,13.2624,0.69959,0,0.984353,9.27112,-2.51956,14.6037,-43.1707,-67.6829,-8.38257,-1.23583,1.04902,-30.3963,1.46341,-1.76829
396.904,12.517,0.868358,0,1.42983,9.58487,-2.83091,14.8476,-36.6159,-66.311,-8.61249,-1.32924,0.519719,-26.9512,2.34756,0
396.914,11.8244,0.902945,0,1.47054,9.77168,-2.70637,15.122,-32.9878,-62.5915,-9.05796,-1.57592,0.261057,-21.6463,3.2622,-0.0609756
396.924,11.1421,0.808205,0,1.19751,9.60403,-2.47645,16.6463,-30.3659,-60,-9.54655,-1.80824,-0.239502,-16.9512,5.27439,-1.21951
396.934,10.4474,0.704417,0,0.773591,9.34297,-2.39981,17.2866,-35.0915,-57.8049,-10.0447,-2.12199,-0.311353,-12.439,6.79878,-3.84146
396.944,9.74534,0.620998,0,0.498164,8.98132,-2.24892,17.439,-40.061,-56.7988,-10.1573,-2.15312,-0.241897,-8.90244,7.34756,-6.79878
396.954,9.02935,0.5485,0,0.277822,9.1849,-2.11241,16.6159,-45.3354,-56.7073,-9.95849,-2.019,-0.203577,-6.64634,7.53049,-9.05488
396.964,8.33116,0.505587,0,0.270637,9.55373,-1.88488,15.2439,-53.5061,-56.128,-9.65911,-1.78429,-0.0838257,-5.85366,7.40854,-9.72561
396.974,7.65432,0.496299,0,0.265847,9.86509,-1.88009,12.9573,-61.8902,-55.2134,-9.45793,-1.5855,0.0502954,-6.70732,6.64634,-9.90854
396.984,7.01785,0.48713,0,0.428708,10.0112,-1.86093,12.0732,-67.9878,-54.3293,-9.26154,-1.3939,0.0479004,-8.5061,6.03659,-9.48171
396.994,6.43333,0.446856,0,0.764011,10.0351,-2.00224,8.78049,-71.25,-54.2073,-9.04599,-1.1999,-0.0766406,-10.4573,5.39634,-7.56098
397.004,5.89307,0.395421,0,1.03704,9.67827,-1.81782,7.5,-73.4146,-54.4817,-8.8951,-1.01309,-0.119751,-12.3171,4.60366,-5
397.014,5.39026,0.328272,0,1.26936,9.57289,-2.03577,5.97561,-72.4085,-54.6951,-8.78733,-0.886157,-0.160466,-14.0549,3.47561,-1.82927
397.024,4.91406,0.193476,0,1.42264,9.58726,-2.12438,4.17683,-69.4512,-54.8171,-8.7538,-0.855022,-0.294587,-14.9695,2.37805,1.25
397.034,4.48043,-0.0261003,0,1.68849,9.22083,-2.3543,4.2378,-63.0183,-55.3963,-8.74182,-0.917292,-0.486189,-15.1524,2.13415,3.65854
397.044,4.04582,-0.320786,0,1.57353,8.80409,-2.31119,3.9939,-58.5061,-55.8841,-8.78254,-1.05381,-0.677791,-14.0244,1.98171,5.88415
397.054,3.62388,-0.575049,0,1.66454,8.58375,-2.32077,5,-50.2744,-57.1951,-8.87115,-1.27655,-0.706531,-12.2256,2.16463,6.58537
397.064,3.22617,-0.912917,0,1.81542,8.57177,-2.36867,5.88415,-39.8171,-57.5915,-8.97653,-1.46815,-0.641865,-10.0915,1.0061,5.97561
397.074,2.83463,-1.30981,0,1.81303,8.80888,-2.34472,6.98171,-30.9146,-57.1037,-9.07233,-1.72202,-0.632285,-7.56098,-0.396341,4.78659
397.084,2.44235,-1.42696,0,1.62382,8.90468,-1.98547,6.70732,-22.5305,-55.3354,-9.08431,-1.81303,-0.56283,-5.4878,-2.31707,2.65244
397.094,2.05581,-1.53925,0,1.66933,9.12742,-1.88967,7.80488,-18.0183,-55.6098,-9.00527,-1.8274,-0.617915,-3.41463,-3.23171,1.4939
397.104,1.67511,-1.65413,0,1.55676,8.97893,-2.08127,8.5061,-11.0671,-54.7256,-8.93582,-1.75794,-0.66821,-1.89024,-4.05488,0.884146
397.114,1.24207,-1.75035,0,0.890947,8.87355,-1.96392,7.56098,-10.7012,-52.4695,-8.82565,-1.62143,-0.613125,-0.914634,-4.35976,2.34756
397.124,0.794633,-1.885,0,0.58678,9.07712,-1.96152,7.40854,-13.4756,-50.6707,-8.72027,-1.53281,-0.761616,-0.457317,-4.48171,4.45122
397.135,0.386165,-2.02871,0,0.699346,9.0412,-2.02619,7.62195,-18.3232,-49.0854,-8.67955,-1.48012,-0.797541,0.365854,-4.11585,7.31707
397.144,-0.0158701,-2.18777,0,0.56762,8.97414,-2.07409,8.47561,-19.6951,-47.622,-8.69632,-1.45138,-0.869392,0.884146,-3.96341,9.66463
397.154,-0.416107,-2.3519,0,0.354463,8.97653,-2.01661,8.20122,-25.3049,-45.4878,-8.68913,-1.38672,-0.914897,1.98171,-4.05488,11.7683
397.164,-0.749758,-2.52511,0,0.689766,9.12263,-2.05732,9.02439,-23.6585,-43.7195,-8.72027,-1.35319,-0.981958,3.56707,-4.14634,13.4451
397.174,-1.03617,-2.74976,0,0.821492,9.31902,-2.18426,7.95732,-20.8232,-41.0366,-8.76338,-1.33882,-1.19511,5.51829,-3.9939,14.5427
397.184,-1.30769,-3.07406,0,0.742456,9.50823,-1.95194,8.90244,-22.1037,-38.9329,-8.8017,-1.36277,-1.34361,7.56098,-2.43902,14.8171
397.194,-1.6145,-3.73092,0,0.313748,9.57768,-2.1172,8.17073,-22.9573,-37.8049,-8.84241,-1.43462,-1.6813,10.1524,-1.21951,14.4817
397.204,-1.8972,-4.3528,0,0.392783,9.4244,-2.3064,8.5061,-25.7622,-37.0122,-8.84241,-1.48252,-2.01182,12.5915,1.61585,14.2988
397.214,-2.16679,-4.77962,0,0.426313,9.40764,-2.17228,9.39024,-26.0976,-36.6768,-8.8496,-1.58071,-2.29682,15.5793,4.11585,14.3902
397.224,-2.42418,-5.17369,0,0.481399,9.38848,-1.84656,8.10976,-24.939,-36.6768,-8.85439,-1.6813,-2.31598,18.5671,6.70732,15.1524
397.234,-2.6879,-5.52772,0,0.421523,9.44356,-1.59269,6.21951,-24.939,-37.0732,-8.91905,-1.79387,-2.23455,21.372,8.07927,15.7317
397.244,-2.94219,-5.79898,0,0.455054,9.63516,-1.75315,3.32317,-25.6098,-36.9512,-8.98372,-1.82021,-1.96392,23.2622,8.14024,16.311
397.254,-3.15309,-5.99385,0,0.792751,9.53457,-2.17707,0.518293,-28.75,-37.2256,-9.22322,-1.74357,-1.73878,24.0854,7.83537,17.0122
397.264,-3.37523,-6.09303,0,0.696951,9.41243,-2.4022,-0.914634,-33.9939,-37.7439,-9.72617,-1.48012,-1.44659,24.3598,6.55488,16.7683
397.274,-3.50728,-6.19063,0,1.41067,9.22322,-2.98898,-2.19512,-25.2439,-38.1098,-10.0399,-1.11129,-1.50407,23.5061,6.06707,16.2805
397.284,-3.6696,-6.2308,0,1.0562,8.92145,-2.90516,-2.65244,-23.3537,-37.5,-10.2579,-0.859812,-1.29092,22.1037,5.85366,15.8841
397.294,-3.83253,-6.17915,0,0.843047,8.83044,-3.01533,-1.85976,-19.6646,-35.2439,-10.404,-0.646655,-0.898132,19.6646,3.90244,15.6098
397.304,-3.94438,-6.10222,0,1.0107,8.87115,-3.2692,-2.13415,-18.4451,-32.5,-10.2986,-0.55325,-0.828677,16.5549,1.58537,15.4573
397.314,-4.00187,-6.15623,0,1.16398,8.97653,-3.32908,-2.77439,-17.4695,-28.9939,-10.0256,-0.416733,-1.21667,14.4817,0.792683,15.4878
397.324,-4.05802,-6.35874,0,0.804727,9.1849,-3.02251,-2.46951,-12.9268,-24.1159,-9.69025,-0.301772,-1.81542,13.628,2.56098,16.2805
397.334,-4.16762,-6.65671,0,0.0550855,9.81,-2.63452,-1.37195,-8.59756,-20.122,-9.5705,-0.486189,-2.34951,15.3354,5.39634,16.8902
397.344,-4.2902,-7.05009,0,-0.299377,10.6075,-2.23455,-2.10366,-8.93293,-17.7134,-9.69983,-1.02028,-2.88121,18.5366,9.29878,15.9756
397.354,-4.40817,-7.47351,0,-0.464634,11.1297,-1.86812,-4.96951,-16.372,-15.9146,-10.0016,-1.73878,-3.18777,24.0854,12.9268,14.0244
397.364,-4.42041,-7.83691,0,0.289797,11.2302,-1.91602,-9.69512,-24.6951,-13.2622,-10.5572,-2.38065,-3.14227,29.3902,15.2134,10.4268
397.374,-4.31682,-8.0478,0,1.14721,11.2781,-2.24174,-15.2134,-31.6159,-10.3049,-11.2135,-2.68961,-2.60578,33.2012,16.189,6.4939
397.384,-4.08283,-8.15662,0,2.07169,11.2135,-2.68242,-20.7012,-35.0915,-6.31098,-12.0014,-2.63692,-2.27048,34.7256,16.7683,3.35366
397.394,-3.69611,-8.23219,0,2.91953,11.3284,-2.99377,-24.6951,-33.6585,-1.06707,-12.3631,-1.80105,-2.17468,34.5732,17.9268,1.52439
397.404,-3.20821,-8.21914,0,3.68354,11.3787,-3.03688,-28.0488,-29.5427,5.60976,-12.5475,-1.03944,-1.71962,32.2256,19.939,2.13415
397.414,-2.60689,-8.02373,0,4.15296,11.2183,-2.68721,-32.4695,-24.1768,13.3537,-12.6409,-0.215552,-0.704136,26.6768,19.4817,4.11585
397.424,-1.87158,-7.64102,0,4.81159,11.3524,-2.4022,-36.6159,-15.6402,22.8354,-12.8756,0.493374,0.387993,19.7561,17.2561,6.67683
397.434,-1.01511,-7.11944,0,5.25228,11.6111,-2.30161,-42.8354,-6.52439,33.9024,-13.2971,1.14003,1.30289,12.2866,13.3232,9.35976
397.444,-0.0914541,-6.55462,0,4.92656,11.726,-1.88967,-48.689,3.78049,45.6707,-13.5654,1.6837,1.71244,4.5122,10.3049,11.1585
397.454,0.825693,-6.04413,0,4.04758,12.1164,-1.94715,-58.7805,12.3476,55.7012,-13.4145,1.79147,1.50168,-3.35366,10.2744,10.6098
397.464,1.73626,-5.63002,0,2.82852,11.5009,-1.1544,-61.0976,21.6463,66.4024,-12.6361,1.00112,0.989143,-7.37805,12.6524,7.22561
397.474,2.69254,-5.4757,0,1.8753,10.677,0.129331,-57.0427,20.6098,80.7927,-10.6363,0.148491,-0.304167,-8.96341,19.2073,2.71341
397.484,3.82927,-5.45114,0,1.8777,10.1764,1.35079,-57.1951,15.6402,100.152,-8.88792,-0.907712,-0.735271,-4.29878,25.5488,-0.396341
397.494,5.09241,-5.34039,0,1.48012,10.0112,2.3088,-66.4024,-3.56707,119.543,-8.27479,-1.79866,-0.364043,4.05488,27.3171,-2.59146
397.504,6.38854,-5.15177,0,0.570015,10.1118,1.5879,-70.5488,-22.6829,136.067,-8.05924,-2.54351,-0.0646655,14.1159,23.75,-3.2622
397.514,7.64387,-4.92889,0,-0.318538,10.1884,0.00718506,-66.3415,-24.0854,144.787,-8.33946,-2.78301,0.0814307,25.0915,16.7683,-2.28659
397.524,8.76664,-4.65857,0,-1.36756,9.82437,-0.807122,-48.5366,-22.1341,146.341,-8.93821,-2.56986,0.304167,34.6341,10.5488,0
397.534,9.81067,-4.29525,0,-1.76273,10.3034,-2.47406,-28.8415,-20.9146,144.238,-9.86509,-1.70525,0.680186,41.0366,3.14024,3.90244
397.544,10.8228,-3.96113,0,-1.70525,11.7931,-2.36628,-26.9817,-28.1707,140.091,-10.9907,-0.390388,0.730481,43.9634,-2.68293,8.38415
397.554,11.8349,-3.67172,0,-1.03704,12.6697,-1.50168,-30.061,-34.6037,134.909,-12.0062,1.41067,0.694556,44.9695,-4.72561,13.0183
397.564,12.8778,-3.48641,0,0.0191602,12.3846,-0.761616,-28.628,-34.878,130.396,-11.1081,2.42136,0.182021,40.9451,-3.62805,18.6585
397.574,13.9529,-3.19642,0,0.780776,11.7164,-0.239502,-19.4512,-28.7195,128.201,-10.4183,3.0297,0.479004,35,1.25,22.5
397.584,15.0386,-2.85512,0,1.03225,11.0315,-0.00479004,-5.39634,-19.4817,128.354,-10.1094,3.33387,0.924478,25.7927,3.47561,24.1768
397.594,16.1691,-2.512,0,1.99505,11.4554,-0.304167,7.43902,-4.29878,125.884,-9.58487,2.76146,0.941243,14.5732,4.11585,22.9573
397.604,17.2842,-2.176,0,2.73032,12.6002,-0.512534,11.9817,11.0366,121.829,-8.95258,1.81542,0.843047,5.91463,3.87195,18.5976
397.614,18.3604,-1.80942,0,2.64889,12.4349,-0.385598,12.0732,21.0976,120.549,-8.8472,0.984353,0.747246,0.0609756,2.68293,13.5976
397.624,19.4281,-1.62,0,2.61776,11.0554,-0.416733,15.2439,28.9939,119.238,-9.16095,0.500559,0.213157,-2.71341,1.95122,10.4268
397.634,20.3914,-1.59739,0,2.02379,10.21,-0.716111,23.4146,39.0549,115.061,-9.67109,0.217947,-0.201182,-3.17073,1.82927,9.84756
397.644,21.269,-1.71232,0,1.91602,10.1094,-1.08015,27.4085,53.7195,109.268,-10.1525,0.114961,-0.706531,-1.58537,1.85976,12.6829
397.654,22.0939,-1.88698,0,2.14115,10.2531,-0.871787,27.1341,66.8293,103.506,-10.3345,-0.100591,-0.946033,0.548781,1.4939,16.311
397.664,22.8336,-2.17966,0,1.9735,10.3201,-0.467029,24.3598,78.2317,98.4756,-10.1477,-0.270637,-0.958008,2.07317,0.182927,19.2378
397.674,23.5378,-2.33555,0,2.20342,9.99442,-0.0742456,22.1341,91.5549,93.0793,-9.79084,-0.330513,-0.878972,3.75,-1.7378,19.9085
397.684,24.1697,-2.42934,0,2.14594,9.34537,0.392783,21.7683,102.348,86.1281,-9.3765,-0.114961,-0.752036,4.84756,-3.87195,18.7805
397.694,24.6997,-2.5041,0,2.02379,8.98611,0.280217,22.7744,108.78,77.5,-9.02683,0.275427,-0.675395,4.60366,-4.81707,17.4085
397.704,25.1328,-2.52108,0,1.89925,8.90229,-0.0862207,22.3171,116.585,70.0305,-8.79451,0.783171,-0.455054,3.04878,-6.52439,17.1646
397.714,25.4111,-2.54209,0,1.28852,8.87834,-0.356858,18.2622,126.28,62.8354,-8.69871,1.05141,-0.469424,0.792683,-7.80488,16.4634
397.724,25.5167,-2.57349,0,0.457449,8.83283,-0.0790356,12.8049,117.774,56.5854,-8.68674,1.15919,-0.512534,-1.43293,-8.56707,15.7317
397.734,25.474,-2.62108,0,-0.364043,8.01613,0.265847,12.2866,108.293,53.0183,-8.74422,1.28373,-0.584385,-4.05488,-9.81707,15.1829
397.744,25.2841,-2.67583,0,-1.0107,7.41738,0.217947,16.9512,92.5305,48.4451,-8.82565,1.37714,-0.6251,-6.92073,-9.69512,14.4817
397.754,24.9139,-2.76719,0,-1.71244,6.92879,0.277822,20.4573,81.5244,42.1646,-8.82086,1.36277,-0.775986,-10.4573,-9.2378,13.811
397.764,24.394,-2.88786,0,-2.21539,6.5408,0.340093,22.561,69.939,35.9756,-8.78254,1.33642,-0.900527,-13.4756,-8.59756,12.7439
397.774,23.733,-3.00667,0,-2.70398,6.44021,0.411943,22.4695,50.7012,28.811,-8.78972,1.19511,-0.912502,-16.2805,-8.47561,11.4329
397.784,22.9705,-3.14591,0,-2.92432,6.28932,0.536484,21.8293,27.8354,21.5244,-8.78733,1.08494,-1.0107,-18.0183,-8.47561,9.78659
397.794,22.2091,-3.30723,0,-2.49082,6.42584,0.548459,19.5122,7.40854,12.439,-8.75619,0.864602,-1.11608,-19.3902,-9.29878,7.46951
397.804,19.5371,-3.50462,0,-2.14833,6.36596,0.852627,18.2317,-15,2.89634,-8.74422,0.656235,-1.28134,-19.878,-9.42073,5.09146
397.814,18.7939,-3.72964,0,-1.43941,6.19592,1.05381,21.6463,-35.8537,-8.47561,-8.72506,0.486189,-1.41785,-20.3049,-9.29878,3.01829
397.824,18.1365,-4.04642,0,-0.361648,6.50248,0.809517,25.3659,-49.1768,-22.2256,-8.7035,0.387993,-1.81063,-20.5488,-7.80488,0.762195
397.834,17.4846,-4.38169,0,0.275427,6.47853,0.823887,25.7012,-59.0854,-34.4817,-8.84481,0.502954,-1.95434,-20.7012,-6.03659,-0.579268
397.844,16.9635,-4.70721,0,1.4921,6.42344,0.783171,23.7805,-62.0732,-44.1768,-9.06275,0.737666,-1.98787,-21.4329,-4.63415,-1.0061
397.854,16.5943,-4.97086,0,3.03928,6.73958,0.876577,19.4817,-52.6524,-52.5915,-9.2831,0.919688,-1.84896,-22.0122,-4.93902,-0.884146
397.864,16.2206,-5.18384,0,4.24876,7.86285,1.18314,12.439,-39.2378,-62.1951,-9.32142,1.05141,-1.69807,-22.2866,-5.57927,-1.25
397.874,15.8667,-5.40708,0,5.77679,8.9909,1.18314,3.44512,-29.0244,-69.7866,-9.26154,0.960403,-1.76992,-22.6829,-6.15854,-1.89024
397.884,15.6415,-5.68816,0,7.89159,9.69025,0.306563,-7.34756,-20.4573,-70.5183,-9.20885,0.761616,-2.0214,-22.8659,-4.87805,-3.04878
397.894,15.5823,-5.92906,0,10.004,10.0735,-0.155676,-17.439,-5.18293,-65.5488,-9.41722,0.560435,-1.90165,-21.9512,-3.59756,-3.84146
397.904,15.695,-6.1587,0,11.2662,9.98963,-0.179626,-15.8537,7.95732,-55.5488,-9.78126,0.308958,-1.92081,-19.9085,-2.62195,-3.84146
397.914,16.0406,-6.36191,0,12.8517,9.67588,-1.27894,4.39024,20.061,-40.9146,-10.0974,0.208367,-1.87291,-17.622,-1.92073,-2.86585
397.924,16.51,-6.59735,0,12.8948,10.1788,-2.08367,15.7317,38.9939,-24.9085,-10.3034,0.0526904,-2.03098,-13.9634,-1.40244,-0.365854
397.934,17.0733,-6.91847,0,11.5224,10.7536,-2.5507,15.2439,56.4024,-4.69512,-10.4111,0.119751,-2.22976,-10.3659,-0.579268,2.65244
397.944,17.7466,-7.25819,0,9.85072,11.0219,-2.80457,13.872,62.7439,18.2622,-10.4231,0.249082,-2.46687,-7.40854,0.853659,5.97561
397.954,18.5312,-7.59303,0,8.37059,10.586,-2.29682,16.372,66.1585,38.0488,-10.3896,0.253872,-2.88839,-6.79878,3.65854,7.16463
397.964,19.3669,-7.97919,0,6.35399,8.98611,-1.1065,23.811,62.0732,51.128,-10.2722,0.320933,-3.19975,-7.46951,8.2622,5.97561
397.974,20.0982,-8.30842,0,4.37331,7.53952,0.548459,34.9695,46.1585,52.6829,-10.38,0.706531,-3.02251,-9.32927,11.7683,4.08537
397.984,20.5034,-8.54704,0,2.99856,7.76465,1.47054,40.2134,25.7012,39.2683,-10.6363,1.17116,-2.70637,-12.1951,11.7988,1.95122
397.994,20.509,-8.63838,0,2.17947,9.11305,2.29922,43.7805,4.7561,14.9695,-11.0099,1.23823,-2.10283,-13.689,8.17073,0.27439
398.004,20.1552,-8.75235,0,2.05493,11.4051,2.4022,51.2805,-5.73171,-15.0915,-11.4218,0.63947,-2.32077,-12.5305,4.84756,-0.701219
398.014,19.5171,-8.91472,0,1.18553,12.8684,2.42855,55.3049,-18.5976,-34.7256,-11.8913,-0.280217,-2.70637,-8.59756,5.73171,-0.152439
398.024,18.9166,-9.05053,0,1.61903,13.0409,2.89558,42.5,-40.8841,-35.8841,-12.5619,-0.926873,-2.73751,-3.23171,10.2134,2.10366
398.034,18.6158,-9.0703,0,4.83794,12.9595,2.16989,12.7134,-40.6098,-33.872,-13.0121,-1.3939,-2.17228,2.16463,14.5732,5.94512
398.044,18.6654,-8.9845,0,7.89159,12.0254,1.60706,1.12805,-6.03659,-24.8476,-12.9858,-1.6334,-1.55197,7.13415,17.8354,10.7012
398.054,19.1531,-8.82269,0,10.8662,11.6661,-1.48731,18.689,23.1707,-0.0304878,-12.7535,-1.65017,-1.07297,12.0732,18.0793,14.6646
398.064,19.7896,-8.58554,0,10.198,10.9189,-6.1576,47.9573,77.6219,16.189,-11.999,-1.27655,-0.5772,17.8659,16.1585,18.3841
398.074,19.7879,-8.38389,0,2.8836,11.7595,-6.23903,37.8354,129.756,12.1037,-10.483,-0.931663,-0.6251,23.6585,16.311,23.2622
398.084,15.6908,-7.93723,0,-1.8274,8.6101,-0.325723,20.122,104.726,0,-10.1812,0.522114,0.526904,22.7134,13.5976,25.4878
398.094,14.361,-7.36066,0,-5.66901,6.38512,2.61536,18.5976,48.75,-18.7805,-10.0543,1.24302,1.18074,18.811,15.2134,24.2988
398.104,12.4431,-6.63789,0,-7.27128,4.49306,1.12566,22.5305,-6.15854,-47.439,-10.2076,2.03577,1.97829,9.60366,15.6098,20.5793
398.114,10.6006,-5.82216,0,-4.72537,4.69903,0.136516,23.2317,-54.3293,-70.4573,-10.3034,2.74709,2.57465,-3.20122,13.8415,16.5549
398.124,9.71749,-4.98343,0,0.565225,6.45458,-2.68003,35.5183,-64.0244,-78.689,-10.2627,3.1734,2.82852,-18.1707,10.3659,13.3232
398.134,9.05912,-4.19467,0,2.42615,11.5368,-5.83427,38.2927,-46.4024,-71.5854,-10.1669,2.99617,2.70877,-32.7439,5.67073,11.4329
398.144,8.40199,-3.26997,0,1.88009,15.5317,-5.73128,31.189,-24.3598,-62.6524,-10.5788,1.90644,2.65608,-44.4512,0.701219,10.0305
398.154,7.75121,-2.6876,0,1.38432,13.5558,-3.47278,23.0183,-2.2561,-61.1585,-11.2518,0.471819,2.26569,-51.25,-5.39634,7.71341
398.164,6.98888,-2.31528,0,0.141306,11.4338,-1.95913,19.7866,15.3963,-63.4146,-11.8386,-0.924478,1.38432,-52.622,-8.9939,5.33537
398.174,6.12988,-2.14837,0,-0.517324,10.1549,-1.90883,17.2561,19.1768,-67.439,-11.8769,-2.213,0.385598,-48.8415,-8.04878,3.44512
398.184,5.2577,-2.08521,0,-0.548459,9.43159,-2.42615,14.2073,15.3049,-69.6951,-11.556,-3.1279,-0.117356,-42.1037,-5.42683,2.43902
398.194,4.29919,-2.06132,0,-1.37953,9.00288,-2.22737,13.4756,-0.762195,-69.2988,-11.1225,-3.69552,-0.292192,-32.5,-3.17073,1.64634
398.204,3.29502,-2.06783,0,-1.98308,9.00767,-1.95673,13.811,-18.8415,-68.3537,-10.1405,-3.58774,-0.395178,-22.0427,-2.7439,1.55488
398.214,2.26445,-1.99073,0,-2.39741,9.35974,-2.18665,13.1098,-35.4573,-69.1159,-9.26633,-2.98898,-0.0311353,-12.0732,-4.39024,2.5
398.224,1.25997,-1.86128,0,-2.3567,9.69743,-2.28964,12.0427,-50.6402,-70,-9.12502,-2.32796,0.196392,-4.63415,-6.67683,3.17073
398.234,0.26234,-1.74005,0,-2.49801,9.92496,-2.1627,10.5183,-76.9817,-70.3963,-9.59445,-1.76513,0.193997,0.823171,-8.01829,2.77439
398.244,-0.549875,-1.62192,0,-1.13045,9.79084,-2.7399,8.41463,-88.0488,-68.9024,-10.3177,-1.03944,0.215552,2.89634,-9.26829,0.945122
398.254,-1.19844,-1.58952,0,-0.0790356,9.61361,-2.6944,7.0122,-95.2744,-66.3415,-10.4854,-0.665815,-0.153281,3.75,-6.64634,-2.04268
398.264,-1.6454,-1.59198,0,1.33642,9.63037,-2.59381,3.65854,-92.4695,-64.1768,-10.3824,-0.299377,-0.304167,3.17073,-5.39634,-5.67073
398.274,-1.98846,-1.58662,0,2.05732,9.49146,-2.24413,2.86585,-83.9024,-63.3232,-9.80521,0.0167651,-0.253872,0.914634,-4.96951,-7.28659
398.284,-2.28522,-1.59238,0,2.29203,9.34297,-2.39981,2.31707,-72.9573,-62.4695,-9.14897,0.122146,-0.280217,-1.89024,-5.15244,-7.31707
398.294,-2.60937,-1.58381,0,1.88249,8.8017,-2.53154,2.19512,-60.061,-62.378,-8.66758,0.0766406,-0.213157,-4.11585,-5.91463,-6.52439
398.304,-2.96731,-1.5938,0,1.47054,8.43047,-2.7878,4.60366,-47.4695,-62.0427,-8.30832,-0.122146,-0.270637,-5.82317,-6.58537,-4.66463
398.314,-3.38371,-1.61338,0,1.03704,8.42568,-2.73751,6.67683,-38.4146,-62.8659,-8.15265,-0.440684,-0.301772,-7.46951,-7.16463,-3.20122
398.324,-3.85519,-1.64356,0,0.708926,8.57177,-2.61057,8.01829,-31.2805,-64.6646,-8.16462,-0.838257,-0.344883,-7.95732,-8.93293,-2.5
398.335,-4.39004,-1.72919,0,0.249082,8.85678,-2.37107,8.65854,-30.5183,-65.7317,-8.21013,-1.22625,-0.55325,-7.46951,-10.122,-2.43902
398.344,-4.91398,-1.85623,0,0.313748,8.94061,-2.09804,7.86585,-31.2805,-66.5244,-8.12151,-1.47294,-0.708926,-5.54878,-10.5488,-2.68293
398.354,-5.40855,-2.02655,0,0.476609,8.96216,-1.74597,7.46951,-31.128,-66.7073,-8.10475,-1.65735,-0.881367,-3.10976,-10.1829,-2.59146
398.364,-5.90284,-2.26303,0,0.419128,8.943,-1.57832,7.40854,-32.6524,-66.9512,-8.07601,-1.80345,-1.14003,-0.396341,-8.87195,-2.37805
398.374,-6.3763,-2.50086,0,0.495769,8.9933,-1.63819,6.40244,-33.4756,-66.7988,-8.11672,-1.88967,-1.18074,3.14024,-7.40854,-1.43293
398.384,-6.83835,-2.73543,0,0.399968,8.97893,-1.75794,5.21341,-37.439,-65.3659,-8.21731,-1.89446,-1.21427,6.25,-6.70732,-0.213415
398.394,-7.26647,-2.95873,0,0.426313,9.16095,-1.83698,4.17683,-41.0976,-63.0793,-8.31072,-1.74118,-1.22146,9.26829,-6.70732,1.82927
398.404,-7.6065,-3.16027,0,0.866997,9.17053,-2.04535,2.68293,-41.6768,-60.5488,-8.35622,-1.59269,-1.18074,11.7683,-6.76829,3.96341
398.414,-7.9149,-3.34688,0,0.962798,9.20646,-2.13875,1.70732,-40.9451,-59.1768,-8.34664,-1.40827,-1.152,13.5671,-6.55488,5.60976
398.424,-8.16416,-3.54471,0,1.27894,9.12742,-2.11001,0.762195,-37.6524,-57.8659,-8.19336,-1.20709,-1.18314,15.3354,-5.57927,7.19512
398.434,-8.32063,-3.84856,0,1.85854,9.11065,-2.27527,0.853659,-32.0732,-56.1585,-8.09756,-1.07297,-1.3963,15.7927,-3.65854,8.93293
398.444,-8.45371,-4.72467,0,1.86093,8.87594,-2.213,1.31098,-27.6829,-54.7256,-8.04248,-0.989143,-1.55197,16.9817,-1.46341,10.3963
398.454,-8.55638,-5.49087,0,1.90404,8.90947,-2.1172,1.43293,-23.7195,-52.3476,-8.0305,-0.950823,-1.90165,18.628,1.95122,11.0671
398.464,-8.65239,-5.8691,0,1.73399,8.98851,-2.04056,1.52439,-21.189,-49.5427,-8.20773,-1.00591,-2.10522,20.6098,4.60366,11.6463
398.474,-8.75465,-6.23043,0,1.46336,9.23759,-1.95194,1.92073,-18.2622,-46.4634,-8.52866,-1.07776,-2.27287,23.2317,7.13415,11.4329
398.484,-8.91396,-6.53025,0,0.807122,9.22322,-2.23216,-2.59146,-15.122,-44.3293,-9.01246,-1.28134,-2.20581,25.5488,9.45122,11.0061
398.494,-9.005,-6.83364,0,1.37474,9.96807,-2.52196,0.365854,-16.7378,-43.5061,-9.3286,-1.35319,-2.34951,26.6159,11.0976,10.4878
398.504,-9.12686,-6.97854,0,1.00112,10.1693,-2.73751,-1.55488,-19.3902,-42.2866,-9.93454,-1.40588,-1.82979,25.9146,11.4024,9.5122
398.514,-9.18914,-6.94921,0,1.37235,9.93215,-3.08958,-3.59756,-22.7134,-41.0366,-10.7177,-1.37474,-1.16398,22.8659,8.07927,8.75
398.524,-9.17757,-6.9752,0,1.81303,9.65911,-3.49194,-6.12805,-27.4695,-39.2683,-11.041,-1.21188,-1.46815,19.2073,6.15854,7.71341
398.534,-9.11209,-6.97157,0,1.81542,9.05557,-3.52068,-8.56707,-22.1646,-35.1829,-11.1105,-1.00351,-1.33642,15.0915,5.06098,6.92073
398.544,-9.00636,-6.93399,0,1.79147,9.06994,-3.49194,-8.68902,-18.1402,-30.6098,-10.7967,-0.804727,-1.13763,10.9756,3.96341,6.92073
398.554,-8.81144,-6.98131,0,2.30161,9.19687,-3.75539,-9.57317,-13.1402,-27.1646,-10.4135,-0.742456,-1.47773,6.98171,3.44512,7.10366
398.564,-8.56451,-7.19077,0,2.55309,9.16813,-4.02603,-10,-5.79268,-24.5427,-9.92257,-0.60594,-2.14833,4.39024,5.60976,7.53049
398.574,-8.32802,-7.48031,0,2.32077,9.26633,-3.90388,-8.14024,1.28049,-22.0427,-9.68785,-0.62031,-2.49801,3.68902,7.56098,7.7439
