time,angle1,angle2,intgangle,accX1,accY1,accZ1,gyroX1,gyroY1,gyroZ1,accX2,accY2,accZ2,gyroX2,gyroY2,gyroZ2
352.23,73.3302,9.07186,0,8.98132,2.58423,3.38895,-0.762195,-1.18902,-1.37195,-9.76449,0.249082,1.55916,2.10366,-0.670732,6.67683
352.24,73.3297,9.08749,0,8.99809,2.62015,3.44643,-0.792683,-1.25,-1.34146,-9.76449,0.292192,1.59987,2.10366,-1.0061,6.46341
352.25,73.3353,9.10803,0,9.02922,2.56028,3.43925,-0.609756,-1.82927,-1.67683,-9.78126,0.294587,1.62382,2.07317,-1.25,6.34146
352.26,73.3422,9.13252,0,9.03162,2.56267,3.32908,-0.152439,-1.70732,-1.58537,-9.74294,0.308958,1.63101,2.19512,-1.21951,6.43293
352.27,73.3415,9.16235,0,9.01006,2.58423,3.37458,-0.152439,-1.76829,-1.79878,-9.7597,0.332908,1.65496,1.82927,-1.25,6.25
352.28,73.3433,9.19769,0,9.04599,2.56267,3.36979,-0.0914634,-1.46341,-1.95122,-9.75491,0.349673,1.67651,1.52439,-1.28049,6.18902
352.29,73.3463,9.2255,0,9.04838,2.56986,3.30513,0.0304878,-1.52439,-1.79878,-9.72857,0.325723,1.66693,1.46341,-1.76829,6.0061
352.3,73.343,9.26145,0,9.06275,2.57704,3.26681,0,-1.18902,-2.22561,-9.70222,0.344883,1.68849,1.06707,-1.58537,6.06707
352.31,73.3368,9.28655,0,9.05557,2.61057,3.28118,0.243902,-0.945122,-2.07317,-9.67109,0.347278,1.65975,1.18902,-1.85976,5.94512
352.32,73.3299,9.31509,0,9.06515,2.61057,3.27399,0.335366,-0.487805,-2.16463,-9.68546,0.347278,1.67651,0.884146,-1.76829,6.03659
352.33,73.3308,9.34166,0,9.05317,2.5986,3.26681,0.487805,-0.457317,-1.67683,-9.70222,0.378413,1.6813,0.701219,-1.92073,5.70122
352.34,73.3337,9.36823,0,9.05317,2.57704,3.30273,0.518293,0.0304878,-1.76829,-9.69743,0.344883,1.6813,0.152439,-1.7378,6.15854
352.35,73.3411,9.38045,0,9.06515,2.58902,3.30273,0.792683,0.27439,-1.37195,-9.73336,0.397573,1.64298,0.304878,-1.52439,5.97561
352.36,73.343,9.39998,0,9.01964,2.60578,3.33866,0.762195,0.548781,-1.40244,-9.74054,0.402363,1.66693,-0.182927,-1.37195,5.91463
352.37,73.3598,9.41812,0,9.05317,2.56746,3.35063,0.884146,0.731707,-1.0061,-9.71899,0.397573,1.66454,-0.27439,-1.52439,6.09756
352.38,73.381,9.42579,0,9.05557,2.49561,3.38656,1.28049,0.823171,-1.40244,-9.69025,0.378413,1.62861,-0.304878,-1.34146,6.46341
352.39,73.39,9.45058,0,9.03641,2.56028,3.38895,1.55488,0.762195,-1.40244,-9.68546,0.285007,1.6813,-0.27439,-1.43293,6.4939
352.4,73.4,9.45059,0,9.01006,2.51477,3.40572,1.40244,0.396341,-1.70732,-9.68785,0.275427,1.61185,-0.243902,-0.914634,6.31098
352.41,73.412,9.46466,0,9.04838,2.51238,3.42967,1.85976,0.213415,-1.67683,-9.68785,0.229922,1.64538,-0.213415,-0.823171,6.98171
352.42,73.4182,9.48744,0,9.05078,2.54591,3.39374,2.34756,-0.152439,-1.70732,-9.68546,0.220342,1.66454,-0.213415,-0.670732,7.16463
352.43,73.4141,9.46908,0,9.04359,2.58423,3.40332,1.95122,-0.182927,-2.0122,-9.72138,0.174836,1.5879,0,-0.426829,7.34756
352.44,73.4106,9.44119,0,9.05317,2.59141,3.36261,2.07317,-0.121951,-1.92073,-9.7118,0.184417,1.57113,0.121951,-0.213415,7.56098
352.45,73.4005,9.40562,0,9.00288,2.56986,3.4153,1.85976,-0.304878,-2.56098,-9.72378,0.201182,1.55676,0.182927,-0.152439,7.71341
352.46,73.3903,9.4166,0,9.04838,2.58183,3.39614,2.07317,-0.27439,-2.59146,-9.73575,0.186812,1.6334,0.670732,-0.335366,7.65244
352.47,73.3784,9.4191,0,9.02922,2.5986,3.37219,1.89024,-0.609756,-2.5,-9.72138,0.208367,1.61664,0.335366,-0.304878,7.77439
352.48,73.3703,9.42054,0,9.05557,2.5962,3.39135,1.70732,-0.670732,-2.31707,-9.74533,0.205972,1.61903,0.304878,-0.182927,7.80488
352.49,73.3613,9.45239,0,9.07952,2.58423,3.30752,1.85976,-0.457317,-2.62195,-9.73336,0.222737,1.67412,0.670732,0.27439,7.80488
352.5,73.347,9.48156,0,9.06275,2.60818,3.33387,1.67683,-0.762195,-2.77439,-9.70462,0.208367,1.66693,0.0914634,0.213415,7.68293
352.51,73.331,9.4859,0,9.06036,2.63931,3.30513,1.52439,-0.457317,-2.59146,-9.70222,0.229922,1.62861,0.0609756,0.304878,7.62195
352.52,73.3163,9.51908,0,9.09389,2.62015,3.30273,1.06707,-0.243902,-2.83537,-9.72378,0.246687,1.68609,-0.152439,0.27439,7.59146
352.53,73.2965,9.54334,0,9.06994,2.66326,3.27878,0.518293,0.365854,-2.7439,-9.69264,0.213157,1.67412,-0.121951,0.457317,7.71341
352.54,73.2817,9.58706,0,9.07473,2.62973,3.30513,0.27439,0.792683,-2.7439,-9.69743,0.234712,1.71723,-0.0304878,0.426829,7.53049
352.55,73.2673,9.59504,0,9.07473,2.6441,3.32908,-0.152439,0.97561,-2.56098,-9.69743,0.265847,1.65256,-0.304878,0.27439,7.40854
352.56,73.2547,9.62545,0,9.03641,2.62494,3.28357,0.182927,1.25,-2.53049,-9.72138,0.270637,1.69567,-0.396341,0.152439,7.34756
352.57,73.2379,9.62975,0,9.06994,2.65608,3.33387,0.152439,1.06707,-2.68293,-9.70222,0.287402,1.65256,-0.335366,-0.152439,7.07317
352.58,73.2236,9.62485,0,9.07712,2.6465,3.32429,0,1.43293,-2.62195,-9.74294,0.268242,1.64538,-0.579268,0,7.2561
352.59,73.1994,9.61243,0,9.06036,2.72074,3.33387,0.121951,1.4939,-2.62195,-9.74533,0.285007,1.63101,-0.609756,-0.152439,7.22561
352.6,73.1758,9.60051,0,9.0891,2.73751,3.33147,-0.0609756,1.95122,-2.5,-9.70462,0.210762,1.62382,-0.457317,-0.121951,7.19512
352.61,73.1576,9.60183,0,9.06036,2.67763,3.3195,-0.182927,2.10366,-2.68293,-9.74294,0.258662,1.65017,-0.182927,-0.182927,7.04268
352.62,73.1469,9.60147,0,9.06036,2.65129,3.40811,-0.152439,2.16463,-2.34756,-9.73336,0.249082,1.64538,0.152439,-0.518293,7.34756
352.63,73.1369,9.60948,0,9.02683,2.64171,3.34345,0.182927,2.56098,-2.31707,-9.77647,0.263452,1.67172,0.396341,-0.640244,7.43902
352.64,73.1212,9.60374,0,9.03162,2.65129,3.36261,-0.0609756,2.5,-2.7439,-9.73575,0.299377,1.6334,-0.0609756,-0.853659,7.56098
352.65,73.1138,9.63835,0,8.99569,2.6465,3.43685,0.365854,2.68293,-1.98171,-9.76689,0.380808,1.73878,0,-0.823171,7.22561
352.66,73.0989,9.62863,0,8.97653,2.67524,3.44404,0.27439,2.59146,-2.22561,-9.78844,0.407153,1.63819,0.213415,-0.731707,7.13415
352.67,73.0865,9.64596,0,8.98611,2.66087,3.46559,0.365854,2.53049,-2.2561,-9.77407,0.411943,1.70046,-0.335366,-0.792683,7.37805
352.68,73.069,9.66287,0,8.93582,2.68003,3.46559,0.121951,2.19512,-2.31707,-9.72857,0.390388,1.70286,-0.304878,-1.34146,7.13415
352.69,73.0469,9.67171,0,8.90947,2.692,3.47996,0,1.76829,-2.53049,-9.73336,0.356858,1.6813,-0.670732,-1.18902,7.31707
352.7,73.0323,9.68091,0,8.92624,2.67045,3.48236,0.213415,1.52439,-2.22561,-9.67827,0.359253,1.67412,-0.518293,-1.21951,7.43902
352.71,73.028,9.68539,0,8.90229,2.62494,3.43925,0.213415,1.37195,-1.85976,-9.73575,0.347278,1.67412,-0.548781,-1.67683,7.53049
352.72,73.0156,9.68282,0,8.9454,2.66566,3.48236,1.03659,1.09756,-2.19512,-9.71659,0.308958,1.64777,-0.548781,-1.92073,7.80488
352.73,73.0007,9.68505,0,8.943,2.68482,3.47996,0.609756,1.0061,-2.19512,-9.70462,0.311353,1.66214,-0.182927,-2.31707,8.07927
352.74,72.9885,9.68025,0,8.95977,2.66805,3.47038,0.670732,1.0061,-2.2561,-9.73096,0.268242,1.64059,-0.0914634,-2.37805,8.14024
352.75,72.9706,9.68621,0,8.97653,2.6944,3.42248,0.518293,1.09756,-2.53049,-9.69264,0.285007,1.67412,0.0914634,-2.62195,8.20122
352.76,72.9559,9.68493,0,8.96935,2.692,3.40572,0.548781,0.853659,-2.28659,-9.72378,0.292192,1.65256,-0.426829,-2.56098,8.17073
352.77,72.9486,9.68951,0,9.01725,2.64889,3.44404,0.426829,1.0061,-2.34756,-9.70462,0.316143,1.67172,0.121951,-2.65244,7.80488
352.78,72.934,9.67663,0,9.04359,2.70637,3.43446,0.365854,0.914634,-2.40854,-9.77886,0.335303,1.61664,0.152439,-2.65244,7.92683
352.79,72.9195,9.67156,0,9.05078,2.68721,3.39614,-0.396341,0.823171,-2.68293,-9.77407,0.287402,1.64538,0.0609756,-2.34756,7.68293
352.8,72.9101,9.6686,0,9.02683,2.67524,3.39374,-0.670732,0.762195,-2.31707,-9.78605,0.332908,1.65496,0.457317,-2.16463,7.53049
352.81,72.9036,9.66223,0,8.97893,2.65368,3.40572,-0.365854,1.09756,-2.19512,-9.75491,0.287402,1.63819,0.304878,-1.89024,7.28659
352.82,72.8992,9.65233,0,8.9933,2.64889,3.45841,-0.548781,1.15854,-2.13415,-9.74533,0.308958,1.62382,0.457317,-1.82927,7.2561
352.83,72.8898,9.64524,0,8.98132,2.66326,3.45122,-0.640244,0.914634,-2.34756,-9.70941,0.344883,1.62622,0.396341,-1.76829,7.0122
352.84,72.8879,9.66183,0,9.01006,2.64889,3.43446,-0.609756,0.792683,-2.0122,-9.69983,0.368833,1.69807,0.365854,-1.46341,7.28659
352.85,72.8781,9.67311,0,8.99569,2.67045,3.42488,-0.579268,0.487805,-2.37805,-9.71899,0.378413,1.68849,0.396341,-1.4939,7.22561
352.86,72.8783,9.68305,0,8.99809,2.64171,3.40811,-0.823171,0.396341,-1.92073,-9.7142,0.383203,1.6813,0.152439,-1.03659,7.10366
352.87,72.8792,9.69602,0,8.98611,2.63931,3.43925,-0.518293,0.335366,-1.85976,-9.68306,0.416733,1.6813,0.121951,-0.731707,7.10366
352.88,72.8813,9.72129,0,8.95977,2.62973,3.49194,-0.548781,0.640244,-1.79878,-9.65432,0.440684,1.70765,0.27439,-0.792683,7.07317
352.89,72.8826,9.76237,0,8.97414,2.62973,3.45841,-0.487805,0.579268,-1.89024,-9.67348,0.438289,1.73878,0.0304878,-0.457317,7.07317
352.9,72.8837,9.80509,0,8.90468,2.62734,3.41769,-0.518293,0.365854,-1.7378,-9.63277,0.433499,1.74836,0.213415,-0.640244,7.10366
352.91,72.8843,9.84229,0,8.93103,2.62015,3.43925,-0.457317,0.27439,-1.92073,-9.66151,0.395178,1.72681,0.0304878,-0.0304878,6.70732
352.92,72.8892,9.87983,0,8.96216,2.62255,3.50391,-0.335366,0,-1.67683,-9.65672,0.380808,1.73399,0.121951,0.0609756,6.92073
352.93,72.8908,9.90151,0,8.94061,2.65368,3.42727,0.0304878,0.0609756,-1.4939,-9.67588,0.366438,1.72441,0.0609756,0.27439,6.89024
352.94,72.8902,9.94495,0,8.95737,2.65847,3.45122,-0.243902,-0.121951,-1.64634,-9.65193,0.378413,1.76513,0.0609756,0.335366,7.0122
352.95,72.8862,9.98492,0,8.96695,2.67284,3.42488,0,-0.27439,-1.76829,-9.68785,0.378413,1.76273,-0.0304878,0.0609756,6.82927
352.96,72.8794,10.0259,0,8.96695,2.69679,3.44164,-0.152439,-0.213415,-1.70732,-9.69983,0.423918,1.7795,0.121951,0.182927,7.16463
352.97,72.8716,10.0431,0,8.96695,2.70637,3.43685,-0.0609756,-0.579268,-1.67683,-9.72617,0.423918,1.74836,-0.243902,0.0914634,7.0122
352.98,72.8629,10.0815,0,8.95737,2.70637,3.44883,-0.152439,-0.27439,-1.7378,-9.69025,0.378413,1.78429,-0.0609756,0.213415,6.95122
352.99,72.8582,10.1327,0,8.93582,2.70637,3.4608,0.182927,-0.335366,-1.34146,-9.7118,0.387993,1.81542,-0.0304878,-0.152439,6.76829
353,72.8475,10.1528,0,8.91905,2.72793,3.47038,-0.0609756,-0.548781,-1.4939,-9.69504,0.356858,1.76513,-0.121951,0.0609756,6.85976
353.01,72.8396,10.1537,0,8.98851,2.73032,3.44404,0.304878,-0.121951,-1.52439,-9.70222,0.359253,1.73878,-0.365854,-0.0304878,6.82927
353.02,72.8354,10.1473,0,9.01485,2.72793,3.42727,0.0609756,-0.152439,-1.37195,-9.73575,0.299377,1.7316,-0.304878,-0.243902,6.89024
353.03,72.8337,10.165,0,8.97893,2.69919,3.40093,-0.304878,-0.792683,-1.43293,-9.70701,0.325723,1.76992,-0.335366,-0.27439,6.64634
353.04,72.837,10.1571,0,9.0388,2.70877,3.40811,-0.396341,-0.396341,-1.15854,-9.7118,0.316143,1.72441,0,-0.487805,6.70732
353.05,72.8359,10.1616,0,8.97893,2.6944,3.4153,-0.396341,-0.0609756,-1.43293,-9.72378,0.366438,1.75076,0.0914634,-0.396341,6.89024
353.06,72.8386,10.1429,0,8.98851,2.68003,3.4153,-0.518293,-0.0304878,-1.37195,-9.70941,0.352068,1.69807,-0.27439,-0.640244,6.58537
353.07,72.8439,10.131,0,8.99809,2.66087,3.44404,-0.335366,0.0304878,-1.43293,-9.70701,0.352068,1.71244,-0.0609756,-0.426829,6.55488
353.08,72.8547,10.1133,0,8.98851,2.62494,3.41769,-0.426829,0.0609756,-1.43293,-9.68306,0.380808,1.69807,-0.426829,-0.27439,6.37195
353.09,72.8715,10.115,0,9.02204,2.62734,3.45601,-0.670732,-0.0609756,-1.12805,-9.69264,0.385598,1.7316,-0.213415,-0.243902,6.52439
353.1,72.8832,10.1379,0,9.01725,2.63452,3.40811,-0.304878,0.243902,-1.31098,-9.69983,0.347278,1.76752,-0.213415,-0.0609756,6.43293
353.11,72.8906,10.1161,0,9.00767,2.65129,3.46559,-0.182927,-0.487805,-1.34146,-9.68306,0.359253,1.69807,-0.457317,0,6.55488
353.12,72.905,10.0998,0,9.01964,2.61776,3.48954,-0.426829,-0.0914634,-1.28049,-9.68306,0.335303,1.70046,-0.426829,0.152439,6.15854
353.13,72.9197,10.119,0,9.03401,2.60818,3.44164,-0.487805,0.0609756,-1.37195,-9.69983,0.378413,1.76273,-0.396341,0.243902,6.18902
353.14,72.937,10.0661,0,9.01246,2.5986,3.45841,-0.0914634,0.182927,-1.25,-9.69983,0.380808,1.62382,-0.457317,0.487805,6.21951
353.15,72.9449,10.0446,0,8.95737,2.61536,3.43206,-0.27439,0.0914634,-1.46341,-9.69743,0.378413,1.67172,-0.396341,0.762195,6.15854
353.16,72.9558,10.0316,0,9.00527,2.60818,3.38895,0,-0.0304878,-1.46341,-9.73336,0.368833,1.69807,-0.213415,0.426829,6.4939
353.17,72.9581,10.0228,0,8.9909,2.64171,3.39374,-0.243902,0.0914634,-1.61585,-9.70462,0.387993,1.69567,-0.243902,0.884146,6.28049
353.18,72.9626,10.0144,0,9.01485,2.6441,3.44883,0,0.152439,-1.4939,-9.69983,0.385598,1.69567,-0.182927,0.701219,6.46341
353.19,72.966,9.99115,0,8.99569,2.64171,3.4608,0.152439,-0.0914634,-1.52439,-9.70941,0.349673,1.65975,-0.457317,0.792683,6.25
353.2,72.9676,9.99384,0,9.01006,2.67524,3.43925,0.27439,-0.213415,-1.31098,-9.74533,0.335303,1.72441,-0.27439,0.884146,6.15854
353.21,72.9642,9.9971,0,8.96456,2.66805,3.44643,-0.152439,0.121951,-1.61585,-9.73096,0.328118,1.72441,-0.518293,1.03659,6.31098
353.22,72.96,10.0085,0,9.00527,2.68482,3.40332,0.152439,0,-1.61585,-9.72857,0.330513,1.74597,-0.426829,1.0061,6.06707
353.23,72.9564,10.0183,0,8.97174,2.68961,3.38656,-0.0304878,0.0914634,-1.40244,-9.73096,0.359253,1.74357,-0.0609756,0.945122,6.09756
353.24,72.9556,10.0329,0,8.97893,2.67524,3.45362,-0.0609756,0.0609756,-1.40244,-9.66869,0.342488,1.74118,-0.121951,0.670732,6.18902
353.25,72.9599,10.0723,0,8.97414,2.64889,3.44404,-0.213415,0.182927,-1.34146,-9.66151,0.347278,1.79866,-0.213415,0.701219,6.40244
353.26,72.9569,10.0934,0,8.98851,2.68961,3.50152,-0.121951,-0.0304878,-1.40244,-9.67827,0.344883,1.76992,-0.487805,0.792683,6.0061
353.27,72.9539,10.1142,0,8.97174,2.70398,3.5087,0.0914634,-0.121951,-1.15854,-9.70701,0.371228,1.77231,-0.487805,0.518293,6.25
353.28,72.9497,10.1482,0,8.94779,2.68721,3.46799,0.0304878,-0.121951,-1.40244,-9.66869,0.347278,1.80345,-0.426829,0.731707,6.0061
353.29,72.9477,10.1532,0,8.96935,2.68721,3.47757,0.0304878,-0.609756,-1.31098,-9.69743,0.380808,1.74597,-0.548781,0.396341,6.37195
353.3,72.944,10.1952,0,8.943,2.70158,3.48236,0,-0.365854,-1.15854,-9.69025,0.376018,1.82261,-0.609756,0.487805,5.91463
353.31,72.9393,10.195,0,8.91666,2.70158,3.47757,0.0914634,-1.15854,-1.12805,-9.69504,0.361648,1.74357,-0.731707,0.304878,5.94512
353.32,72.9401,10.1922,0,8.87834,2.67284,3.56379,0.0609756,-1.85976,-0.97561,-9.73575,0.344883,1.74597,-0.823171,0.182927,5.67073
353.33,72.9387,10.1961,0,8.93342,2.70158,3.53026,0.548781,-2.65244,-0.945122,-9.68546,0.332908,1.74836,-0.762195,0.213415,5.79268
353.34,72.9336,10.1673,0,8.92145,2.7399,3.50631,0.487805,-2.83537,-0.487805,-9.69264,0.306563,1.69567,-0.548781,0.121951,5.85366
353.35,72.9323,10.1318,0,8.89031,2.72314,3.50391,0.762195,-3.35366,-0.304878,-9.67827,0.299377,1.67891,-0.487805,0.0914634,6.21951
353.36,72.9388,10.1434,0,8.89989,2.71835,3.48236,0.579268,-3.84146,0.27439,-9.69504,0.320933,1.75315,-0.243902,-0.243902,6.31098
353.37,72.9481,10.1176,0,8.91426,2.72793,3.48954,0.487805,-4.29878,0.792683,-9.69983,0.371228,1.6813,0.182927,-0.518293,6.15854
353.38,72.9661,10.0873,0,8.92863,2.68961,3.52307,0.823171,-5.09146,0.823171,-9.72138,0.407153,1.66933,0.0914634,-0.548781,6.06707
353.39,72.9782,10.0678,0,8.88552,2.70877,3.47517,0.701219,-5.64024,0.97561,-9.7597,0.414338,1.68609,-0.457317,-0.853659,6.18902
353.4,72.9899,10.0626,0,8.93103,2.73511,3.48954,0.945122,-6.43293,1.21951,-9.77407,0.373623,1.71723,-0.487805,-1.58537,5.97561
353.41,73.0044,10.065,0,8.96216,2.7399,3.48715,0.731707,-7.40854,1.46341,-9.87946,0.368833,1.76034,-0.518293,-2.13415,5.82317
353.42,73.0317,10.0416,0,8.91905,2.65368,3.45841,0.579268,-8.35366,1.61585,-9.90101,0.337698,1.65735,-0.0914634,-2.95732,5.60976
353.43,73.0556,10.0107,0,8.93342,2.66326,3.34345,0.365854,-8.81098,1.34146,-9.93454,0.342488,1.62382,0.304878,-3.38415,5.82317
353.44,73.0922,9.99415,0,8.93821,2.59141,3.32908,0.27439,-8.84146,1.52439,-9.92975,0.356858,1.67651,0.243902,-4.08537,5.91463
353.45,73.1381,9.97085,0,9.04359,2.55549,3.29076,-0.182927,-7.77439,1.25,-9.93694,0.337698,1.64298,0.609756,-4.87805,6.0061
353.46,73.1861,9.95292,0,9.08431,2.54591,3.2716,-0.640244,-6.89024,1.18902,-9.93694,0.328118,1.66214,0.823171,-5.21341,6.15854
353.47,73.241,9.93218,0,9.15137,2.51956,3.2237,-0.853659,-6.12805,1.0061,-9.87227,0.344883,1.6358,0.762195,-5.18293,6.15854
353.48,73.3063,9.92157,0,9.20166,2.48124,3.23328,-0.97561,-5.45732,0.731707,-9.87227,0.313748,1.67651,0.731707,-5.60976,6.18902
353.49,73.3763,9.90884,0,9.2352,2.47645,3.24525,-0.487805,-4.96951,0.457317,-9.78366,0.359253,1.65017,0.213415,-5.73171,6.37195
353.5,73.4479,9.88656,0,9.21603,2.47406,3.17819,-0.457317,-4.2378,0.304878,-9.73575,0.356858,1.59748,-0.213415,-6.09756,6.67683
353.51,73.4999,9.86757,0,9.17772,2.52196,3.14227,-0.457317,-3.87195,0.487805,-9.73096,0.337698,1.60706,-0.365854,-6.28049,6.82927
353.52,73.5572,9.86319,0,9.14179,2.49561,3.15664,-0.426829,-3.56707,0.335366,-9.75731,0.342488,1.67172,-0.487805,-7.07317,7.04268
353.53,73.6019,9.85603,0,9.07952,2.50519,3.24765,0.0304878,-3.84146,0.670732,-9.8076,0.313748,1.66693,-0.27439,-7.37805,6.79878
353.54,73.6516,9.85063,0,9.09389,2.49322,3.27639,0.823171,-3.78049,0.365854,-9.81479,0.285007,1.67412,-0.365854,-8.07927,6.85976
353.55,73.6984,9.85719,0,9.0891,2.5028,3.18298,1.09756,-3.9939,0.27439,-9.88664,0.268242,1.73878,0.0609756,-8.38415,6.85976
353.56,73.7453,9.87346,0,9.15616,2.50759,3.1758,1.4939,-4.48171,0.27439,-9.89383,0.265847,1.78429,-0.0914634,-9.05488,6.79878
353.57,73.7894,9.89252,0,9.19448,2.51717,3.1734,1.0061,-4.11585,-0.121951,-9.87706,0.270637,1.79626,-0.0609756,-9.60366,6.79878
353.58,73.8115,9.91219,0,9.1825,2.54112,3.09437,0.548781,-4.05488,-0.609756,-9.88664,0.273032,1.80345,0.0914634,-10.3659,6.21951
353.59,73.8232,9.9414,0,9.18729,2.55549,3.1279,0.304878,-3.47561,-0.945122,-9.8579,0.285007,1.84417,0.335366,-10.8537,6.21951
353.6,73.8348,9.96871,0,9.16813,2.51956,3.18059,0.152439,-2.89634,-1.25,-9.86509,0.320933,1.84177,0.152439,-11.2805,5.88415
353.61,73.8397,10.0102,0,9.15137,2.52435,3.16622,0.152439,-2.7439,-1.55488,-9.84593,0.311353,1.90644,0.121951,-11.8902,5.88415
353.62,73.8377,10.0348,0,9.15137,2.54112,3.1279,0,-2.22561,-1.85976,-9.81958,0.356858,1.83219,-0.365854,-12.5915,5.82317
353.63,73.8342,10.0658,0,9.13221,2.54351,3.17819,-0.213415,-1.82927,-1.89024,-9.82437,0.354463,1.86572,-0.27439,-12.8659,6.06707
353.64,73.8312,10.0994,0,9.08191,2.51717,3.19496,0.152439,-1.89024,-2.0122,-9.80042,0.335303,1.8777,-0.487805,-13.9634,6.37195
353.65,73.8242,10.1328,0,9.06754,2.54351,3.26202,0.670732,-2.28659,-1.98171,-9.81719,0.344883,1.88488,-0.884146,-15.0305,7.0122
353.66,73.8163,10.1764,0,9.08191,2.57465,3.26441,0.792683,-2.40854,-1.7378,-9.83874,0.320933,1.93997,-0.762195,-15.8841,6.92073
353.67,73.8061,10.2349,0,9.0891,2.58423,3.24046,0.914634,-3.07927,-1.85976,-9.8124,0.342488,2.00942,-0.97561,-16.5549,7.59146
353.68,73.8017,10.2983,0,9.05796,2.54591,3.2213,1.03659,-3.29268,-1.76829,-9.76689,0.349673,2.03098,-0.853659,-17.622,7.53049
353.69,73.796,10.3734,0,9.05557,2.56507,3.13987,1.18902,-3.68902,-1.64634,-9.73815,0.366438,2.08846,-0.945122,-18.4451,7.65244
353.7,73.7857,10.4586,0,9.02204,2.55788,3.2213,1.15854,-4.08537,-2.0122,-9.72378,0.361648,2.14354,-1.06707,-18.9634,7.46951
353.71,73.7746,10.55,0,9.00767,2.57465,3.22849,1.06707,-4.69512,-1.82927,-9.6639,0.387993,2.17228,-1.34146,-19.7256,7.28659
353.72,73.7617,10.6593,0,9.01725,2.59141,3.29555,1.46341,-5.36585,-1.82927,-9.74533,0.352068,2.28724,-1.52439,-20.5793,6.79878
353.73,73.7442,10.7631,0,9.02443,2.6465,3.30752,2.10366,-6.70732,-1.4939,-9.67588,0.371228,2.26569,-1.92073,-20.4878,6.70732
353.74,73.7159,10.8583,0,9.01964,2.71835,3.22609,1.89024,-7.56098,-1.40244,-9.7142,0.352068,2.25371,-2.43902,-21.0671,6.52439
353.75,73.6791,10.916,0,8.88073,2.72793,3.25483,1.15854,-9.87805,-0.97561,-9.65672,0.356858,2.09085,-2.10366,-20.3354,5.33537
353.76,73.6657,11.0476,0,9.01964,2.67045,3.15903,1.43293,-8.59756,-0.731707,-9.60163,0.392783,2.41657,-1.89024,-22.5915,5.42683
353.77,73.6612,11.1804,0,9.08431,2.67045,3.11592,1.55488,-9.66463,-0.243902,-9.80521,0.301772,2.49561,-2.13415,-24.4817,5.57927
353.78,73.6459,11.2944,0,8.91905,2.65847,3.15185,0.945122,-10.3354,-0.0609756,-9.84832,0.270637,2.44292,-1.79878,-25.8841,5.82317
353.79,73.6466,11.3768,0,9.13939,2.67763,2.98419,0.396341,-8.47561,-0.0609756,-9.77647,0.308958,2.30161,-1.70732,-25.5793,6.18902
353.8,73.6525,11.4636,0,8.9933,2.60339,3.2237,0.640244,-11.4634,-0.365854,-9.70941,0.285007,2.32077,-1.92073,-25.3354,6.4939
353.81,73.6702,11.5525,0,9.09868,2.58902,3.06802,0.548781,-8.84146,-0.335366,-9.79563,0.237107,2.36628,-1.98171,-25.9146,6.79878
353.82,73.6959,11.6413,0,9.06754,2.51717,3.11353,-0.121951,-9.81707,-0.640244,-9.78366,0.237107,2.37825,-1.89024,-26.6463,6.82927
353.83,73.7113,11.7394,0,9.02204,2.48364,3.1279,-0.426829,-11.0366,-1.28049,-9.7621,0.249082,2.43094,-1.67683,-27.7744,6.82927
353.84,73.7291,11.8673,0,9.15616,2.44292,3.0273,-0.426829,-9.72561,-1.76829,-9.79323,0.239502,2.59141,-1.92073,-29.3902,7.56098
353.85,73.737,11.9861,0,9.13221,2.48364,2.99856,-0.609756,-10.9451,-1.92073,-9.78366,0.277822,2.56986,-2.22561,-30.3049,7.83537
353.86,73.7399,12.1107,0,9.21364,2.51238,2.96743,-0.762195,-10.5183,-2.16463,-9.80042,0.268242,2.62255,-1.82927,-31.0061,8.2622
353.87,73.7447,12.2149,0,9.3765,2.55788,2.76146,-0.609756,-8.2622,-1.98171,-9.78126,0.282612,2.54591,-1.89024,-30.6098,8.44512
353.88,73.7373,12.2875,0,9.15137,2.57465,2.91234,-1.46341,-10.8841,-2.10366,-9.83395,0.210762,2.43334,-1.46341,-30.5793,8.75
353.89,73.7349,12.3508,0,9.24478,2.54591,2.78541,-1.28049,-9.63415,-2.31707,-9.70222,0.191602,2.37107,-1.25,-30.4268,8.71951
353.9,73.736,12.4659,0,9.25436,2.53154,2.77583,-1.37195,-9.20732,-2.22561,-9.63037,0.148491,2.5986,-1.43293,-31.9207,8.68902
353.91,73.7311,12.6126,0,9.20166,2.52196,2.78062,-1.03659,-9.78659,-2.65244,-9.74054,0.0981958,2.79259,-1.64634,-34.7561,8.56707
353.92,73.7259,12.7381,0,9.22083,2.49561,2.85486,-1.18902,-9.17683,-3.01829,-9.83874,0.131726,2.74709,-1.46341,-36.6463,8.59756
353.93,73.731,12.8399,0,9.30705,2.42136,2.85965,-0.152439,-8.29268,-3.17073,-9.85311,0.184417,2.66326,-1.82927,-37.2561,8.01829
353.94,73.7194,12.9729,0,9.19927,2.49801,2.7902,-0.609756,-11.9512,-3.5061,-9.81719,0.277822,2.81654,-1.89024,-38.3841,8.14024
353.95,73.7139,13.1339,0,9.40045,2.54112,2.74709,-0.579268,-8.2622,-3.07927,-9.73815,0.385598,2.94827,-1.98171,-39.1463,8.59756
353.96,73.7113,13.3135,0,9.38608,2.51717,2.73751,0.304878,-9.60366,-3.04878,-9.68785,0.368833,3.04886,-1.85976,-40.5183,8.87195
353.97,73.7119,13.4909,0,9.54655,2.53872,2.68003,-0.121951,-7.46951,-2.9878,-9.616,0.344883,3.04886,-1.21951,-40.8232,8.71951
353.98,73.7235,13.6499,0,9.51302,2.41657,2.78062,0.0609756,-8.47561,-3.20122,-9.61121,0.316143,2.99377,-0.396341,-41.4024,8.9939
353.99,73.7242,13.8113,0,9.38848,2.39741,2.63692,-0.152439,-8.14024,-4.02439,-9.51302,0.256267,3.00335,0.152439,-41.2195,9.05488
354,73.7193,13.9719,0,9.36692,2.37586,2.60578,0,-7.31707,-4.72561,-9.45314,0.241897,3.01054,0.914634,-40.6402,9.14634
354.01,73.6996,14.1292,0,9.25675,2.34951,2.66805,0,-7.34756,-6.18902,-9.41003,0.186812,3.01054,1.03659,-41.0061,9.69512
354.02,73.6596,14.2829,0,9.22801,2.45729,2.6944,0.335366,-7.13415,-6.92073,-9.48667,0.148491,3.04646,1.18902,-42.1341,9.45122
354.03,73.6094,14.4531,0,9.14418,2.4501,2.73751,0.487805,-7.34756,-7.86585,-9.54655,0.122146,3.16861,1.85976,-44.2073,9.17683
354.04,73.5526,14.6419,0,9.08191,2.45969,2.86205,0.792683,-8.04878,-8.32317,-9.65193,0.155676,3.32189,1.7378,-46.0366,9.5122
354.05,73.4864,14.8326,0,9.26633,2.57225,2.69679,0.914634,-6.12805,-8.65854,-9.65193,0.141306,3.365,1.58537,-48.1402,9.29878
354.06,73.4169,15.0077,0,9.07712,2.54112,2.86684,0.243902,-9.81707,-8.87195,-9.58008,0.179626,3.30034,1.64634,-49.5732,9.45122
354.07,73.3506,15.2135,0,9.26394,2.53393,2.71835,-0.945122,-9.02439,-9.39024,-9.48188,0.222737,3.44164,1.58537,-51.4939,9.87805
354.08,73.2799,15.439,0,9.25915,2.51238,2.67524,-1.55488,-11.0366,-10.2134,-9.44835,0.282612,3.559,2.10366,-54.0854,10.0915
354.09,73.2006,15.6806,0,9.34058,2.51717,2.66087,-2.28659,-11.0366,-11.4329,-9.45314,0.332908,3.67875,1.76829,-55.7622,10.2439
354.1,73.1084,15.9175,0,9.23759,2.49082,2.58902,-3.35366,-11.4634,-12.8963,-9.46272,0.332908,3.7051,1.4939,-56.5244,9.84756
354.11,72.9996,16.1658,0,9.16574,2.48843,2.62734,-3.78049,-12.6829,-14.5732,-9.33818,0.371228,3.75539,1.37195,-56.8598,9.45122
354.12,72.8825,16.4318,0,9.18969,2.5004,2.62734,-4.54268,-12.8963,-15.5793,-9.19927,0.356858,3.82964,1.61585,-56.8293,8.93293
354.13,72.7579,16.7279,0,9.31423,2.60818,2.49801,-4.87805,-12.8049,-15.7317,-9.02922,0.292192,3.94939,1.67683,-57.1341,8.41463
354.14,72.6182,17.057,0,9.26394,2.80457,2.57225,-5.57927,-13.628,-15.061,-8.89271,0.249082,4.10027,1.89024,-57.5,8.14024
354.15,72.4827,17.4114,0,9.29268,2.90037,2.52435,-6.37195,-14.1159,-13.9329,-8.78493,0.241897,4.232,1.95122,-57.5915,7.80488
354.16,72.3597,17.7761,0,9.3286,2.92432,2.46927,-7.65244,-13.2927,-12.7744,-8.71787,0.285007,4.31582,1.95122,-57.1341,7.59146
354.17,72.256,18.1528,0,9.42201,2.84528,2.38544,-9.05488,-11.7988,-12.2866,-8.63644,0.380808,4.40205,1.55488,-57.0732,7.71341
354.18,72.1643,18.5535,0,9.37411,2.68242,2.33993,-10.4878,-11.0671,-12.9878,-8.6077,0.481399,4.57449,1.43293,-56.8598,7.80488
354.19,72.0788,18.9549,0,9.38608,2.56986,2.36388,-9.90854,-10.5793,-13.872,-8.61728,0.550855,4.66071,1.40244,-57.2866,7.95732
354.2,71.9839,19.3449,0,9.38369,2.56746,2.39023,-8.78049,-10.1829,-15.0305,-8.58136,0.55325,4.6631,1.76829,-57.2866,8.04878
354.21,71.8788,19.741,0,9.41961,2.6441,2.33993,-7.0122,-11.6463,-15.4878,-8.53824,0.526904,4.74453,2.31707,-58.0183,8.10976
354.22,71.7611,20.1897,0,9.41003,2.75188,2.3088,-5.85366,-13.5061,-15.7317,-8.42328,0.495769,5.01757,3.20122,-58.9939,8.04878
354.23,71.6326,20.6593,0,9.50344,2.82133,2.25132,-5.27439,-12.622,-16.5854,-8.34425,0.450264,5.16366,3.9939,-59.9085,8.17073
354.24,71.5078,21.133,0,9.49625,2.78541,2.23455,-4.7561,-11.372,-16.8598,-8.24366,0.431104,5.21635,3.84146,-60.3049,8.32317
354.25,71.3587,21.6157,0,9.25196,2.90995,2.32077,-5.21341,-11.7988,-17.3171,-8.0808,0.490979,5.25228,3.65854,-60.4878,8.44512
354.26,71.2098,22.1035,0,9.14897,2.95785,2.3567,-4.26829,-11.7988,-16.6768,-7.98739,0.56762,5.31455,3.59756,-59.7256,8.81098
354.27,71.0602,22.6096,0,9.10347,3.07281,2.3088,-3.10976,-11.5854,-15.5488,-7.90596,0.673001,5.45106,2.68293,-59.878,9.05488
354.28,70.9251,23.122,0,9.12502,3.09197,2.32077,-2.86585,-11.7988,-14.2378,-7.87243,0.773591,5.56363,2.04268,-60.7622,9.14634
354.29,70.8137,23.6248,0,9.14418,2.98898,2.38065,-2.13415,-13.3841,-13.3537,-7.86285,0.807122,5.61153,1.09756,-61.3415,9.02439
354.3,70.7239,24.1315,0,9.25196,2.85247,2.4501,-2.40854,-13.4756,-13.3537,-7.77423,0.792751,5.67141,0.731707,-62.5305,8.38415
354.31,70.6477,24.6583,0,9.53218,2.69919,2.28006,-1.95122,-10,-14.8476,-7.66406,0.723296,5.80074,0.487805,-63.3841,8.01829
354.32,70.5643,25.1865,0,9.55373,2.692,2.22258,-1.06707,-10.7927,-15.8841,-7.60419,0.675395,5.87259,0.579268,-64.1463,7.59146
354.33,70.4587,25.7424,0,9.43159,2.63931,2.14354,-1.64634,-11.8293,-18.5366,-7.48444,0.548459,6.04024,0.548781,-64.6341,7.46951
354.34,70.3366,26.3069,0,9.51541,2.68482,1.99505,-1.46341,-9.32927,-20.1829,-7.3072,0.459844,6.06179,0.609756,-64.3293,7.37805
354.35,70.1936,26.8908,0,9.56331,2.83091,1.90404,-0.731707,-7.22561,-21.0671,-7.14674,0.416733,6.1552,1.18902,-63.9024,7.68293
354.36,70.0319,27.4828,0,9.44835,3.05125,2.019,0.152439,-5.4878,-20.3963,-7.03178,0.390388,6.22705,1.52439,-63.0488,7.62195
354.37,69.8433,28.0846,0,9.137,3.35542,2.26329,1.37195,-7.95732,-18.8415,-6.90484,0.426313,6.2989,1.92073,-62.3476,7.80488
354.38,69.6772,28.7124,0,9.26154,3.42727,2.1651,2.31707,-4.14634,-16.6463,-6.7324,0.500559,6.41865,1.67683,-61.6463,7.59146
354.39,69.5602,29.3524,0,9.19927,3.32189,2.17707,1.58537,-6.58537,-12.8963,-6.63181,0.608335,6.53361,1.40244,-60.6707,7.80488
354.4,69.4242,30.0181,0,8.72266,3.1758,2.18905,2.59146,-7.68293,-14.7561,-6.47613,0.66821,6.67492,0.792683,-60,7.71341
354.41,69.3024,30.6962,0,8.92863,3.10874,2.09325,3.10976,-6.28049,-15.2439,-6.46416,0.713716,6.89526,0.182927,-59.3293,7.53049
354.42,69.1934,31.3397,0,8.98851,3.07521,2.08606,3.35366,-7.53049,-14.8171,-6.50966,0.701741,6.89766,0.396341,-58.4451,7.07317
354.43,69.0803,31.9866,0,9.12023,3.12311,2.00224,3.44512,-8.07927,-15.4268,-6.50727,0.665815,7.07489,-0.518293,-57.1646,6.46341
354.44,68.9521,32.6268,0,9.18969,3.28118,2.0669,3.17073,-9.60366,-15.6707,-6.4929,0.62031,7.18027,-1.15854,-55.6402,5.45732
354.45,68.8052,33.2931,0,9.36692,3.50391,1.79866,2.40854,-6.95122,-16.0976,-6.38033,0.65863,7.38624,-2.56098,-55.0915,4.32927
354.46,68.6183,33.9625,0,9.06515,3.73863,1.77231,-0.823171,-7.16463,-16.5854,-6.28214,0.713716,7.46767,-3.32317,-54.4512,3.87195
354.47,68.4402,34.6349,0,9.11544,3.64282,1.64298,-2.53049,-2.71341,-17.3476,-6.18634,0.740061,7.5515,-4.45122,-54.1768,3.41463
354.48,68.2491,35.303,0,9.19209,3.81527,1.56634,-5.39634,-4.5122,-17.5,-6.057,0.711321,7.54431,-5.12195,-53.5366,2.86585
354.49,68.0714,35.9682,0,8.49034,3.47996,2.54112,-2.31707,-6.7378,-17.0427,-5.98036,0.641865,7.61137,-5.45732,-52.1951,2.77439
354.5,67.9104,36.636,0,9.26873,3.78413,2.01421,-0.670732,-1.79878,-15.8537,-5.8678,0.505349,7.66885,-5.67073,-51.1585,2.56098
354.51,67.749,37.3127,0,9.22083,3.88951,2.12678,-0.945122,-5.42683,-14.878,-5.68099,0.392783,7.67125,-5.15244,-49.6646,2.46951
354.52,67.5704,38.0088,0,8.74422,3.96615,2.2585,-2.59146,-7.28659,-13.8415,-5.46783,0.237107,7.70957,-5.03049,-47.9573,2.07317
354.53,67.4009,38.7275,0,8.85439,3.97573,1.86333,-4.78659,-3.71951,-13.7195,-5.23312,0.155676,7.73831,-4.60366,-45.7927,1.70732
354.54,67.2532,39.4688,0,8.66518,3.71707,2.05014,-6.12805,-4.96951,-13.811,-5.02475,0.148491,7.80537,-3.47561,-43.9939,1.58537
354.55,67.1178,40.2031,0,8.7538,3.7027,2.12199,-6.89024,-3.71951,-13.4451,-4.86668,0.0646655,7.72873,-2.22561,-42.439,1.31098
354.56,66.9719,40.9396,0,8.72506,3.753,2.14833,-7.16463,-3.87195,-14.0854,-4.76369,0.0215552,7.80537,-0.640244,-40.061,1.18902
354.57,66.7954,41.6769,0,8.58375,3.96376,2.33993,-6.89024,-7.19512,-14.4207,-4.65592,0.0191602,7.86285,0.243902,-38.1402,1.4939
354.58,66.6003,42.3902,0,8.41131,4.08351,2.47645,-7.10366,-10,-14.4207,-4.59604,0.0622705,7.80537,0.640244,-36.3415,1.64634
354.59,66.3959,43.0938,0,8.30593,4.24876,2.44292,-7.59146,-11.128,-13.3232,-4.50743,0.174836,7.80297,1.0061,-34.7561,2.43902
354.6,66.2002,43.7715,0,8.20294,4.34457,2.42855,-7.19512,-12.2866,-11.189,-4.50264,0.275427,7.81016,1.31098,-34.3598,3.14024
354.61,66.0265,44.4154,0,8.30593,4.39726,2.36628,-7.31707,-12.8354,-9.35976,-4.53377,0.311353,7.81016,1.64634,-33.9939,3.84146
354.62,65.8837,45.0246,0,8.58375,4.39726,2.07409,-8.47561,-12.378,-8.14024,-4.55533,0.273032,7.77423,2.37805,-33.7805,4.05488
354.63,65.7573,45.6161,0,8.68195,4.49306,2.05732,-8.62805,-13.7195,-6.25,-4.60802,0.246687,7.91554,3.10976,-33.9024,3.90244
354.64,65.6598,46.2025,0,8.70111,4.31343,1.97829,-8.2622,-12.6829,-5.57927,-4.57209,0.249082,8.00176,3.07927,-33.4146,3.56707
354.65,65.5913,46.7761,0,8.7993,4.16015,1.78908,-7.77439,-9.84756,-5,-4.51222,0.287402,7.98499,3.5061,-32.2256,3.14024
354.66,65.5263,47.3619,0,8.53585,4.06435,1.9256,-6.82927,-12.2561,-4.42073,-4.44516,0.411943,8.15744,2.62195,-31.5244,2.86585
354.67,65.4799,47.9611,0,8.55501,3.94939,1.67412,-6.79878,-7.95732,-4.08537,-4.36373,0.502954,8.32509,1.34146,-31.25,2.65244
354.68,65.4522,48.559,0,8.73224,3.91825,1.55437,-6.4939,-7.95732,-3.59756,-4.32062,0.550855,8.44484,0.152439,-31.0976,3.38415
354.69,65.4226,49.1352,0,8.6556,3.9446,1.89686,-6.37195,-10.3659,-3.14024,-4.29906,0.397573,8.42328,-1.21951,-30.2134,3.23171
354.7,65.3928,49.6778,0,8.69392,3.97813,1.9256,-6.40244,-10.8841,-3.01829,-4.25355,0.328118,8.23887,-1.64634,-28.872,2.83537
354.71,65.3537,50.1712,0,8.62926,4.08111,1.88009,-6.95122,-12.1646,-2.22561,-4.27511,0.134121,8.04248,-1.4939,-26.5549,2.40854
354.72,65.3138,50.651,0,8.6077,4.10267,1.86333,-6.98171,-14.0549,-1.0061,-4.24397,0.0862207,8.03769,-0.792683,-24.6646,2.10366
354.73,65.2922,51.096,0,8.66279,4.04519,1.88967,-7.28659,-12.9268,0,-4.39247,0.0167651,8.18139,-0.701219,-23.7805,1.31098
354.74,65.2812,51.4848,0,8.77296,4.15536,1.88249,-7.07317,-11.7988,1.03659,-4.63197,0.198787,8.28677,-1.15854,-23.811,0.731707
354.75,65.2916,51.814,0,9.04599,4.28229,1.70046,-7.07317,-9.26829,2.46951,-4.76609,0.469424,8.15025,-2.0122,-23.5061,1.64634
354.76,65.3452,52.1234,0,9.17292,3.96855,1.72681,-6.85976,-8.71951,2.46951,-4.93134,0.62031,8.37538,-2.77439,-23.628,2.13415
354.77,65.439,52.3704,0,9.15137,3.62127,1.91841,-5.54878,-12.5305,2.46951,-5.20917,0.574805,8.4137,-2.92683,-24.9695,2.56098
354.78,65.5521,52.5501,0,9.25196,3.54942,1.69567,-4.26829,-13.3232,1.37195,-5.39119,0.471819,8.23168,-1.85976,-26.128,1.95122
354.79,65.6758,52.7489,0,9.07712,3.559,1.60466,-3.01829,-15.5183,0.701219,-5.33371,0.280217,8.35143,-0.457317,-27.2561,1.09756
354.8,65.7757,52.9444,0,8.8975,3.6045,1.40827,-2.19512,-13.5061,0.762195,-5.2427,0.136516,8.24366,1.12805,-28.75,-0.213415
354.81,65.8395,53.1563,0,8.91666,3.70989,1.33163,-2.92683,-10.9146,1.34146,-5.07744,0.112566,8.1742,2.53049,-28.5976,-1.31098
354.82,65.8718,53.4316,0,8.80409,3.86077,1.46815,-3.5061,-11.0366,2.04268,-4.84033,0.193997,8.37059,2.77439,-29.4817,-1.61585
354.83,65.9355,53.6951,0,9.05317,3.77455,1.3484,-3.71951,-7.89634,3.23171,-4.7613,0.373623,8.22689,2.43902,-29.4512,-1.18902
354.84,66.0175,53.9666,0,9.1346,3.69312,1.25739,-3.07927,-7.5,4.05488,-4.73974,0.519719,8.34664,0.792683,-28.7195,0.121951
354.85,66.1255,54.2249,0,9.1849,3.42727,1.38432,-4.05488,-8.29268,3.41463,-4.84991,0.493374,8.51908,-1.06707,-29.0244,1.25
354.86,66.2819,54.4228,0,9.50344,3.08958,1.30529,-3.2622,-7.56098,2.53049,-5.09181,0.376018,8.49992,-1.52439,-29.3293,2.22561
354.87,66.469,54.5941,0,9.48667,3.14945,1.25978,-3.2622,-6.79878,0.823171,-5.21635,0.102986,8.54543,-1.34146,-30.061,2.07317
354.88,66.5537,54.7696,0,9.61121,3.35063,1.14003,-3.84146,-8.59756,-1.89024,-5.15887,-0.0359253,8.54303,-0.762195,-30.9756,2.10366
354.89,66.5848,54.9428,0,9.77886,3.56618,1.06099,-5.30488,-3.87195,-3.93293,-5.10618,-0.162861,8.49274,0.243902,-31.9817,2.31707
354.9,66.5787,55.1629,0,9.31663,3.57576,1.40588,-6.25,-3.01829,-5.57927,-4.81399,-0.138911,8.45202,0.914634,-33.3232,3.01829
354.91,66.6059,55.384,0,9.75731,3.40572,1.28373,-4.39024,-0.213415,-5.79268,-4.72298,-0.148491,8.37538,1.85976,-33.4146,3.17073
354.92,66.5731,55.6492,0,8.63405,3.46559,1.84656,-3.44512,-11.4329,-6.46341,-4.43079,-0.141306,8.30353,3.41463,-33.7195,3.47561
354.93,66.535,55.8516,0,9.0388,3.57337,1.54239,-4.90854,-7.80488,-7.68293,-4.4739,-0.296982,7.93949,5.54878,-32.5305,3.04878
354.94,66.5021,56.0297,0,9.33818,3.58534,1.42264,-5.06098,-7.43902,-8.38415,-4.67029,-0.60115,8.15265,9.02439,-31.6463,1.64634
354.95,66.4301,56.2387,0,9.16334,3.83682,1.42983,-6.31098,-15.1524,-8.93293,-4.68466,-0.502954,8.50471,11.7073,-31.25,-0.152439
354.96,66.3909,56.4142,0,9.65193,3.67396,1.09213,-8.47561,-13.6585,-9.57317,-4.8547,-0.467029,8.58615,12.2561,-31.189,-1.79878
354.97,66.379,56.6171,0,9.74533,3.39374,0.960403,-8.2622,-10.0305,-10.2134,-4.84033,-0.0838257,8.87115,11.4939,-31.2195,-2.10366
354.98,66.3456,56.8434,0,9.56571,3.51349,0.764011,-8.93293,-8.9939,-10.4573,-4.77088,0.167651,9.0388,10.5793,-32.1951,-1.34146
354.99,66.3147,57.0792,0,9.76449,3.51349,0.706531,-10.3049,-6.61585,-11.0366,-4.71579,0.514929,9.11305,9.45122,-32.1341,0
355,66.2766,57.3167,0,9.88904,3.37698,0.754431,-12.1951,-0.609756,-13.75,-4.76848,0.579595,9.32621,7.59146,-31.311,1.21951
355.01,66.2165,57.5549,0,9.88425,3.49912,0.684976,-14.1159,3.68902,-14.7561,-4.75651,0.574805,9.40764,6.09756,-31.25,0.97561
355.02,66.1364,57.7698,0,10.1214,3.71228,0.378413,-16.7073,6.79878,-15.6098,-4.75172,0.565225,9.25915,6.0061,-30.061,-0.0304878
355.03,66.0701,58.0431,0,10.6147,3.753,0.392783,-16.8598,7.68293,-15.7317,-4.48827,0.505349,9.41961,6.82927,-29.5427,-1.79878
355.04,66.0018,58.3521,0,10.1884,3.69791,1.01549,-17.2561,7.37805,-15.0915,-4.31822,0.179626,9.56331,7.5,-29.878,-3.75
355.05,65.9464,58.6692,0,9.99681,3.54463,0.979563,-18.7195,6.64634,-14.7866,-4.32541,-0.0934058,9.81479,7.13415,-28.689,-6.0061
355.06,65.8786,59.0529,0,9.70222,3.40332,1.03225,-18.1707,6.52439,-16.5549,-3.93981,-0.280217,9.8603,6.46341,-27.9878,-8.32317
355.07,65.7983,59.4652,0,9.616,3.38895,1.28134,-16.5244,0.609756,-17.8049,-3.63564,-0.0766406,9.64474,5.82317,-24.1159,-8.53659
355.08,65.6548,59.892,0,9.45554,3.753,1.32684,-15.6098,1.85976,-19.8476,-3.52068,0.179626,9.74773,5.88415,-20.5488,-6.95122
355.09,65.5015,60.3012,0,9.63277,3.78174,1.46096,-15.2134,4.87805,-21.5854,-3.58055,0.287402,9.9082,6.31098,-19.0854,-4.78659
355.1,65.2796,60.6945,0,9.2831,4.16494,2.3064,-16.4939,7.2561,-23.3232,-3.56139,0.335303,9.8603,6.67683,-18.3232,-3.10976
355.11,65.0649,61.0824,0,9.19448,4.09309,2.20102,-17.1951,-0.518293,-23.3841,-3.5087,0.378413,9.8555,6.12805,-17.7134,-2.16463
355.12,64.8636,61.468,0,9.20166,3.87275,2.12199,-17.9268,-1.67683,-24.8476,-3.49433,0.423918,9.99681,5.88415,-17.5915,-1.43293
355.13,64.6883,61.8988,0,9.10586,3.58774,2.65847,-16.0366,0.152439,-25.3049,-3.11113,0.718506,9.72857,5.79268,-16.372,-0.823171
355.14,64.4069,62.3216,0,7.99697,4.04758,2.76864,-16.2805,-16.9512,-25.5793,-3.06083,0.61073,9.70941,5.82317,-14.2378,0.182927
355.15,64.1749,62.7186,0,8.78014,3.95897,2.15791,-15.7927,-11.5549,-26.372,-3.17101,0.58678,9.92736,5.73171,-12.5305,-0.121951
355.16,63.966,63.1793,0,9.19927,3.93741,1.9711,-14.6341,-12.439,-26.7378,-2.71356,0.802332,9.65193,5.45732,-11.128,0.701219
355.17,63.7947,63.5562,0,9.68785,3.84161,1.83219,-11.6159,-12.5,-26.4634,-2.97701,0.866997,9.52978,5.2439,-7.9878,1.95122
355.18,63.6344,63.939,0,9.57289,3.78653,1.51844,-9.45122,-12.6524,-25.7927,-2.98419,0.943638,9.87227,4.84756,-7.40854,3.23171
355.19,63.4643,64.3402,0,9.45314,3.84401,1.26697,-8.23171,-9.11585,-26.0061,-2.75906,0.905317,9.63756,4.05488,-8.04878,4.20732
355.2,63.3035,64.6803,0,9.45075,3.74342,1.22864,-4.63415,-6.55488,-26.4634,-2.89558,0.862207,9.39566,3.5061,-6.46341,4.45122
355.21,63.1675,65.0194,0,9.12023,3.45601,1.35558,-1.43293,-5.82317,-26.0061,-2.84289,0.857417,9.39087,3.56707,-5.64024,5.12195
355.22,63.0323,65.3364,0,8.96216,3.38656,1.19272,3.9939,-5.82317,-26.311,-2.85726,0.749641,9.15616,3.90244,-3.9939,5.85366
355.23,62.8689,65.6692,0,8.85439,3.59492,1.12326,8.44512,-5.7622,-26.6159,-2.90995,0.699346,9.23759,3.75,-2.56098,6.25
355.24,62.7208,65.9492,0,9.02443,3.60211,0.878972,12.5,-6.46341,-26.0671,-3.01533,0.63947,9.43398,2.92683,-3.2622,6.95122
355.25,62.5794,66.2269,0,9.18729,3.68594,0.955613,15.3659,-6.55488,-25.4878,-2.98898,0.740061,9.63516,0.792683,-4.02439,7.86585
355.26,62.4482,66.4966,0,9.21364,3.64761,1.05141,17.5305,-2.22561,-25.2744,-2.91953,0.922083,9.41003,-1.28049,-3.84146,9.14634
355.27,62.2884,66.825,0,9.137,3.96136,1.17356,19.8171,-1.70732,-24.6951,-2.62973,1.11368,9.21603,-1.82927,-3.23171,10.6707
355.28,62.1012,67.284,0,8.95977,4.22721,1.31247,20.8232,1.82927,-24.1159,-2.39262,1.09213,9.08431,-2.7439,-2.0122,12.1341
355.29,61.8528,68.1611,0,8.05206,4.39965,1.53042,20.061,-1.64634,-23.811,-2.56507,0.816702,8.92863,-2.80488,-0.304878,11.9512
355.3,61.6314,68.5435,0,8.3682,4.38768,1.14003,19.2378,1.64634,-23.5671,-2.76146,0.603545,9.2304,-3.2622,0.97561,11.2805
355.31,61.4423,68.7666,0,8.77056,4.31582,1.61185,20.4878,6.52439,-23.7195,-2.77343,0.56283,9.17053,-3.90244,2.40854,10.122
355.32,61.1757,68.9607,0,8.06643,4.72058,2.00463,22.3171,-1.25,-23.5671,-2.66805,0.59157,9.02443,-4.57317,4.45122,10.3354
355.33,60.9273,69.1379,0,9.05078,5.0966,1.33403,21.6768,6.89024,-24.2073,-2.73511,0.550855,9.1849,-4.87805,5.45732,11.5854
355.34,60.6672,69.2959,0,8.63644,4.92177,1.91123,19.1463,6.76829,-25.3049,-2.85007,0.531694,9.40764,-5.64024,6.31098,12.6524
355.35,60.428,69.4057,0,8.85439,4.78764,1.76273,19.8171,8.96341,-26.311,-3.0297,0.589175,9.38129,-4.93902,7.5,13.7805
355.36,60.1944,69.4881,0,8.84481,4.73016,1.66454,19.6341,11.5549,-26.7683,-3.1758,0.603545,9.51062,-4.72561,9.48171,14.5122
355.37,59.931,69.5478,0,8.64123,4.84991,1.84177,17.2561,9.81707,-27.8963,-3.25723,0.637075,9.48667,-3.78049,11.372,14.4817
355.38,59.6722,69.572,0,8.86157,4.90261,1.81782,16.9817,10.3963,-28.689,-3.37698,0.622705,9.39327,-2.71341,13.628,13.7195
355.39,59.3938,69.6001,0,8.92863,5.07026,1.93757,15.7927,12.1037,-29.9085,-3.40811,0.589175,9.54655,-1.85976,14.4207,13.1707
355.4,59.0929,69.6061,0,8.92624,5.10618,2.08846,14.5122,11.6463,-32.4085,-3.53265,0.445474,9.616,-1.12805,15.1829,12.622
355.41,58.7771,69.5899,0,9.12981,5.10618,1.8274,14.4207,14.0549,-35.6707,-3.64522,0.306563,9.63516,-0.304878,16.25,12.2256
355.42,58.3893,69.5749,0,8.67237,5.37203,1.96631,14.2378,13.3841,-38.4451,-3.62845,0.299377,9.59924,0.0914634,16.8598,12.4695
355.43,57.9561,69.5736,0,8.54303,5.75523,1.89446,14.5122,12.9268,-39.3902,-3.57816,0.347278,9.63277,0.701219,16.2805,13.811
355.44,57.508,69.5417,0,8.68913,5.99713,1.89686,14.5122,15.3659,-40.4878,-3.59013,0.323328,9.2807,1.4939,16.6768,15.6402
355.45,57.0674,69.4558,0,8.76098,6.10251,1.80584,14.6646,18.4451,-40.122,-3.86077,0.347278,9.29747,2.46951,15.6402,17.561
355.46,56.6182,69.3235,0,8.37778,5.87019,2.08367,16.0976,17.9268,-41.5854,-4.17212,0.349673,9.45075,3.53659,13.1098,18.9939
355.47,56.1729,69.1613,0,8.55262,5.79834,1.76273,17.1341,16.9207,-43.9024,-4.35894,0.414338,9.46751,4.02439,10.4268,19.8171
355.48,55.688,68.9736,0,8.3682,5.87977,1.75315,17.4085,14.5122,-46.8902,-4.50743,0.500559,9.43398,3.56707,7.71341,20.122
355.49,55.1867,68.8028,0,8.41131,5.89893,1.56874,17.5915,16.8598,-49.6646,-4.57688,0.646655,9.69264,2.89634,4.39024,20.2744
355.5,54.6353,68.629,0,8.04487,6.04263,1.65256,18.2012,13.9634,-51.9817,-4.49785,0.850232,9.81958,1.31098,0.914634,19.8171
355.51,54.0508,68.4689,0,7.8365,6.28214,1.44899,18.2927,14.6037,-52.8049,-4.33738,1.09452,9.58966,-1.31098,-0.914634,20.1829
355.52,53.4721,68.3711,0,7.77423,6.43302,1.3963,18.2622,14.0549,-51.5854,-4.16494,1.30768,9.43638,-3.87195,-2.53049,20.5793
355.53,52.911,68.298,0,7.75507,6.39949,1.46575,18.3537,14.1768,-51.128,-4.06914,1.37474,9.38129,-5.15244,-3.87195,20.5488
355.54,52.3744,68.2399,0,7.83411,6.27735,1.61664,18.4146,12.8659,-51.4634,-4.00926,1.24781,9.35974,-6.03659,-5.51829,19.8476
355.55,51.8494,68.1665,0,7.98739,6.21029,1.56395,18.2012,14.6341,-53.0793,-4.038,0.948428,9.22083,-6.09756,-7.28659,18.6585
355.56,51.2714,68.1018,0,7.56826,6.43063,1.42264,16.9512,13.3537,-54.4817,-4.03082,0.627495,9.26873,-6.58537,-7.83537,16.9512
355.57,50.6689,68.0515,0,7.34313,6.59588,1.46096,18.1707,14.7561,-54.939,-3.97334,0.277822,9.26394,-6.82927,-9.11585,15.2134
355.58,50.0591,68.0138,0,7.24493,6.84976,1.3963,19.9695,14.3598,-53.9329,-3.82006,0.160466,9.02443,-7.89634,-8.96341,14.2988
355.59,49.4775,67.9939,0,7.46528,7.04136,1.4897,21.372,11.9207,-52.439,-3.71947,0.153281,8.96456,-8.35366,-9.14634,13.9024
355.6,48.9283,68.008,0,7.82932,7.21859,1.55676,21.2805,12.2561,-51.6463,-3.57576,0.153281,8.98372,-7.89634,-10.7927,14.2378
355.61,48.3956,68.033,0,7.94188,7.27128,1.27894,20.1829,13.9634,-51.4939,-3.57576,0.222737,9.11065,-6.28049,-13.6585,15
355.62,47.854,68.0533,0,7.66406,7.23775,1.25978,19.9085,15,-51.6768,-3.58055,0.253872,9.07473,-5.70122,-15.9146,15.7317
355.63,47.3294,68.0751,0,7.34313,6.90005,1.11129,20.7927,14.0244,-51.3415,-3.54702,0.275427,9.01485,-5.94512,-16.3415,16.128
355.64,46.8021,68.1335,0,7.07968,6.86892,0.814307,20.9451,14.9695,-50.8232,-3.42248,0.294587,9.13939,-6.64634,-15.9756,16.5854
355.65,46.2441,68.2239,0,6.21987,6.67731,1.03944,18.4756,20.5488,-49.1159,-3.25004,0.320933,9.09628,-6.89024,-15.8841,16.2195
355.66,45.6484,68.338,0,5.3385,6.18873,1.73639,19.5122,17.561,-49.6341,-3.11353,0.328118,9.05796,-7.2561,-15.3354,15.9146
355.67,45.0626,68.4604,0,5.59956,6.54319,1.65496,22.561,9.08537,-49.3902,-3.05844,0.347278,9.06275,-8.20122,-15.3963,15.7317
355.68,44.4825,68.5752,0,6.31327,7.47486,1.46815,24.6341,3.32317,-49.2378,-3.12311,0.320933,9.21364,-7.9878,-17.0732,15.3659
355.69,43.8976,68.6694,0,6.84497,8.19815,0.902922,24.1159,3.93293,-50.2439,-3.23328,0.301772,9.31663,-7.53049,-18.5671,14.8171
355.7,43.286,68.7615,0,6.84257,8.49992,1.08734,21.311,7.53049,-52.0732,-3.29555,0.251477,9.51541,-7.92683,-19.9695,14.5427
355.71,42.6737,68.8394,0,6.62941,8.21492,1.36277,20.3354,8.96341,-53.5366,-3.36261,0.263452,9.56092,-9.05488,-21.189,14.1463
355.72,42.0657,68.916,0,6.37315,7.86285,1.2981,19.2378,11.2805,-54.6037,-3.33626,0.337698,9.50823,-10.3963,-22.1037,13.628
355.73,41.4379,69.0195,0,5.92049,7.66406,1.35558,17.9573,13.7805,-55.122,-3.13987,0.467029,9.34058,-11.7378,-22.4085,13.1402
355.74,40.8095,69.1462,0,5.77918,7.69041,1.35079,18.0793,14.4817,-54.9085,-2.97222,0.522114,9.20406,-12.1037,-23.0488,12.9573
355.75,40.1781,69.3071,0,5.72889,7.82213,1.48491,17.6524,14.0549,-55.061,-2.74469,0.529299,9.03162,-11.7683,-23.0183,12.0427
355.76,39.55,69.4912,0,5.65464,8.00655,1.33403,17.8049,13.872,-53.9939,-2.53872,0.435894,8.76338,-11.2805,-22.7744,11.3415
355.77,38.9401,69.7067,0,5.5804,7.99937,1.23344,16.5854,13.0183,-52.7439,-2.36388,0.308958,8.71548,-11.0366,-21.6159,10.6098
355.78,38.3523,69.923,0,5.54447,7.68801,1.3005,15.1524,12.7134,-53.5671,-2.30161,0.0958008,8.62926,-10.7622,-21.0366,9.93902
355.79,37.7693,70.1629,0,5.39837,7.52036,1.41067,14.3293,10.7927,-54.0244,-2.1627,-0.0910107,8.59812,-9.96951,-19.939,9.45122
355.8,37.1945,70.4124,0,5.36005,7.60658,1.3484,13.1098,10.3049,-53.3537,-2.07409,-0.196392,8.55262,-9.26829,-19.1463,9.48171
355.81,36.6373,70.6784,0,5.33131,7.68562,1.29571,11.6159,9.5122,-51.8598,-1.93757,-0.232317,8.42089,-8.35366,-18.0488,9.78659
355.82,36.1087,70.96,0,5.32892,7.57545,1.26697,10.061,10.122,-50.8537,-1.84417,-0.179626,8.45921,-7.62195,-17.622,10.061
355.83,35.6028,71.2681,0,5.19719,7.49641,1.41067,8.65854,10.1829,-48.811,-1.69088,-0.102986,8.43047,-6.58537,-16.6463,10.6098
355.84,35.1144,71.5742,0,5.07744,7.52994,1.42983,8.20122,8.47561,-46.5549,-1.61903,-0.0622705,8.26761,-5.45732,-15.6707,10.8232
355.85,34.6574,71.9453,0,4.99362,7.36469,1.4921,7.0122,6.7378,-44.6341,-1.27655,0.0215552,7.95625,-4.96951,-12.1951,10.3354
355.86,34.2413,72.2786,0,5.01278,7.3072,1.38911,6.79878,6.70732,-42.0427,-1.39151,0.0526904,8.14067,-3.9939,-12.1341,10.061
355.87,33.8617,72.6076,0,4.97206,7.28565,1.26457,7.0122,7.34756,-38.872,-1.36756,0.134121,8.19815,-4.78659,-11.25,9.66463
355.88,33.5074,72.9456,0,4.93134,7.17787,1.17595,7.53049,6.25,-37.439,-1.29571,0.201182,8.26521,-5.06098,-9.29878,9.26829
355.89,33.1963,73.2939,0,5.03433,7.17787,1.03225,7.37805,3.14024,-34.878,-1.20948,0.213157,8.27,-5.2439,-8.17073,9.14634
355.9,32.904,73.6247,0,4.94811,7.30002,0.938848,7.68293,2.5,-31.7378,-1.22864,0.227527,8.28198,-5.18293,-7.22561,9.63415
355.91,32.6374,73.9382,0,4.97206,7.4533,0.862207,8.47561,3.01829,-28.8415,-1.2526,0.172441,8.23408,-5.4878,-6.03659,9.90854
355.92,32.383,74.2496,0,4.94811,7.56587,1.06578,9.20732,2.34756,-27.0732,-1.27655,0.0814307,8.3658,-5.18293,-4.81707,10.2439
355.93,32.147,74.5348,0,4.97206,7.66646,0.998723,9.42073,2.40854,-25.2744,-1.35079,-0.0814307,8.47597,-4.7561,-4.54268,10.1524
355.94,31.9248,74.8049,0,5.05828,7.87722,0.883762,11.4329,3.90244,-23.811,-1.42264,-0.165256,8.65081,-3.9939,-3.93293,9.54268
355.95,31.7026,75.0676,0,5.05589,7.9826,0.864602,10.9146,5.57927,-23.5366,-1.47533,-0.179626,8.7514,-3.56707,-3.35366,9.32927
355.96,31.4854,75.3339,0,5.10618,8.1287,0.775986,10.1524,7.31707,-23.0488,-1.5879,-0.210762,8.72985,-3.29268,-2.40854,9.42073
355.97,31.2621,75.643,0,4.95051,8.10954,0.958008,9.87805,9.11585,-22.622,-1.62622,-0.167651,8.83044,-4.08537,-1.67683,9.05488
355.98,31.0297,75.9078,0,4.81399,8.18139,1.03704,9.54268,9.20732,-22.1037,-1.73399,-0.0670605,8.93821,-3.59756,-1.40244,9.17683
355.99,30.7919,76.114,0,4.70142,8.30114,1.13045,8.23171,9.05488,-21.189,-1.80824,0.0742456,9.16334,-3.5061,-1.40244,9.35976
356,30.5724,76.293,0,4.71579,8.16223,1.08015,6.64634,6.4939,-20.8232,-1.88967,0.160466,9.37171,-3.14024,-1.12805,9.66463
356.01,30.3528,76.5491,0,4.65113,8.15265,1.15919,7.92683,3.5061,-20.6402,-1.93039,0.225132,9.27112,-2.37805,-0.152439,9.84756
356.02,30.1138,76.6584,0,4.44276,8.3203,1.31487,8.41463,2.07317,-19.7866,-1.99266,0.217947,9.4268,-1.58537,1.03659,9.87805
356.03,29.8761,76.7315,0,4.426,8.47837,1.3005,9.39024,-0.640244,-19.0549,-2.02858,0.146096,9.53936,-2.31707,1.67683,10.0305
356.04,29.6675,76.7962,0,4.67508,8.78014,1.03944,6.58537,-2.28659,-17.5305,-2.01661,0.110171,9.63037,-2.86585,2.59146,10.1524
356.05,29.5009,76.8532,0,5.03433,8.88313,1.0586,4.45122,-0.0914634,-16.7378,-1.96871,0.0910107,9.41482,-3.75,3.90244,9.54268
356.06,29.3362,76.906,0,5.0487,8.94061,1.0586,1.52439,2.16463,-16.7073,-1.91602,0.0886157,9.17532,-4.35976,5.85366,9.54268
356.07,29.1554,76.9651,0,4.83554,8.8472,1.26218,-0.762195,5.91463,-17.0732,-1.84656,0.114961,9.02204,-5.03049,7.71341,9.57317
356.08,28.9705,77.0169,0,4.60323,8.55262,1.346,-0.97561,8.04878,-17.1037,-1.85375,0.105381,8.96695,-5.09146,9.32927,8.9939
356.09,28.7838,77.0452,0,4.37331,8.35383,1.40348,0.853659,6.31098,-16.311,-1.94715,0.0838257,8.9933,-5.54878,10.5488,8.41463
356.1,28.6059,77.047,0,4.24397,8.16702,1.41067,2.77439,5.09146,-15.4573,-2.04535,0.0311353,8.96456,-5.06098,11.5244,7.53049
356.11,28.4248,77.0528,0,4.0859,8.19576,1.25739,4.39024,2.34756,-14.1768,-2.07888,0.0311353,9.19209,-4.14634,12.5305,6.58537
356.12,28.258,77.0557,0,4.11943,8.27,1.14482,5.57927,-3.90244,-13.0488,-2.1651,0.0598755,9.5226,-3.23171,13.0793,5.97561
356.13,28.1162,77.0528,0,4.27032,8.29635,0.948428,7.07317,-8.84146,-12.378,-2.2106,0.0407153,9.61361,-1.89024,13.8415,5
356.14,27.9291,77.0509,0,4.22481,8.69392,0.946033,7.65244,-14.1768,-14.6037,-2.24653,0,9.79563,-0.396341,15.7927,5.27439
356.15,27.7797,77.0456,0,4.50743,8.71548,0.888552,6.7378,-14.0244,-14.0549,-2.3064,-0.143701,9.99202,0.518293,17.2256,5.51829
356.16,27.624,77.0319,0,4.63915,8.92145,1.09213,6.64634,-16.7378,-15.2744,-2.39741,-0.217947,10.2124,1.82927,18.0488,6.03659
356.17,27.5079,77.0073,0,5.21635,9.15376,0.838257,6.0061,-16.372,-16.0366,-2.42615,-0.313748,10.1118,2.83537,19.878,6.67683
356.18,27.3897,76.9554,0,5.34329,9.36932,0.857417,3.81098,-14.3598,-16.5244,-2.52914,-0.443079,9.99681,3.87195,21.25,7.34756
356.19,27.2641,76.8488,0,5.38879,9.49386,0.934058,2.92683,-9.5122,-17.2866,-2.64171,-0.531694,9.45075,4.90854,24.0244,7.19512
356.2,27.0937,76.7177,0,5.02954,9.5226,0.804727,3.04878,-5.39634,-18.5671,-2.71595,-0.531694,9.27352,6.34146,28.1098,6.64634
356.21,26.8667,76.5814,0,4.53617,9.51062,0.754431,4.66463,-5.97561,-19.9085,-2.90037,-0.483794,9.74294,7.86585,29.2073,5.91463
356.22,26.6055,76.4154,0,4.35654,9.39566,0.864602,6.70732,-8.01829,-22.5915,-3.11113,-0.411943,9.88425,9.39024,28.1707,4.81707
356.23,26.3541,76.1806,0,4.43558,9.14179,0.799937,9.02439,-11.4329,-24.1768,-3.22609,-0.294587,9.18011,10.4573,30.7927,4.48171
356.24,26.0932,75.9458,0,4.49545,9.21364,0.352068,9.63415,-8.38415,-25.9146,-3.21651,-0.167651,9.05078,11.128,36.8293,4.17683
356.25,25.8104,75.7587,0,4.39965,9.30465,0.541274,8.5061,-8.87195,-27.2561,-3.25244,0.00239502,9.67588,10.122,40.3963,4.7561
356.26,25.5258,75.5236,0,4.44037,9.24478,0.661025,8.2622,-8.96341,-28.7195,-3.45601,0.153281,9.50823,10.2134,41.0366,5.39634
356.27,25.2562,75.1765,0,4.60562,9.10347,0.840652,9.02439,-7.31707,-30.1829,-3.44643,0.210762,8.11193,11.1585,45.3049,5.97561
356.28,24.9874,74.8665,0,4.64873,9.08431,0.855022,7.92683,-7.92683,-31.189,-3.51589,0.114961,8.52866,10.5793,49.8476,6.31098
356.29,24.7208,74.6236,0,4.6631,9.11065,0.720901,5.91463,-5.2439,-31.5244,-3.76976,0.0191602,9.80042,9.45122,46.4024,5.82317
356.3,24.4634,74.3274,0,4.57928,8.95977,0.787961,4.69512,-4.02439,-31.0671,-3.89191,-0.00239502,9.32381,8.29268,40.2134,4.45122
356.31,24.2045,73.9762,0,4.44516,8.86876,0.950823,3.81098,-5.7622,-30.8232,-3.72665,0.0191602,8.23647,8.62805,39.4512,3.53659
356.32,23.95,73.6766,0,4.27032,8.78972,0.929268,1.98171,-7.10366,-29.4512,-3.58534,0.122146,8.29156,8.78049,41.5244,2.83537
356.33,23.7222,73.4249,0,4.22481,8.57417,0.876577,2.10366,-9.11585,-27.8963,-3.54942,0.232317,8.57896,8.23171,41.4024,2.71341
356.34,23.5093,73.1636,0,4.15057,8.46639,0.840652,1.76829,-10.6098,-26.6159,-3.47996,0.325723,8.21252,8.35366,41.8293,2.92683
356.35,23.3287,72.916,0,4.15775,8.30353,0.843047,2.7439,-12.561,-24.7256,-3.42009,0.366438,8.10475,8.65854,42.5915,2.71341
356.36,23.1945,72.6861,0,4.29906,8.19336,0.510139,3.29268,-14.2683,-22.5915,-3.32189,0.464634,7.95146,8.44512,43.4756,2.28659
356.37,23.0789,72.5109,0,4.18889,8.10954,0.608335,4.11585,-15.2439,-20.2134,-3.26681,0.574805,8.28437,7.53049,44.1768,2.0122
356.38,22.9991,72.3099,0,4.19847,8.04487,0.775986,5.7622,-17.3476,-17.2866,-3.30034,0.701741,8.02811,7.16463,43.9024,1.70732
356.39,22.9787,72.0824,0,4.5218,8.17181,0.646655,4.90854,-16.8902,-14.2378,-3.38416,0.713716,7.89398,6.85976,46.2195,1.34146
356.4,22.9999,71.8599,0,4.69903,8.20294,0.716111,5.51829,-16.4329,-11.7683,-3.54223,0.675395,8.2221,6.4939,46.3415,0.884146
356.41,23.0336,71.6094,0,4.69184,8.30593,0.55804,6.46341,-15.9451,-9.7561,-3.77695,0.64905,8.38736,6.06707,45.2439,0.487805
356.42,23.0943,71.3043,0,4.85949,8.35862,0.323328,8.20122,-13.3841,-8.38415,-3.90867,0.617915,8.06164,6.12805,46.128,-0.335366
356.43,23.139,70.9576,0,4.67268,8.46639,0.435894,7.40854,-13.2012,-7.28659,-4.09309,0.55804,7.95865,5.64024,47.561,-0.27439
356.44,23.183,70.5915,0,4.5697,8.46639,0.332908,7.31707,-7.71341,-6.21951,-4.30625,0.550855,8.0808,4.72561,47.2866,-0.426829
356.45,23.211,70.2034,0,4.44516,8.57177,0.285007,5.54878,-7.68293,-5.82317,-4.52419,0.500559,8.16702,4.54268,45.3963,-0.0914634
356.46,23.2173,69.7827,0,4.22721,8.53345,0.464634,5.85366,-10.9451,-5.82317,-4.70861,0.438289,8.09038,4.60366,44.6037,0
356.47,23.2112,69.3424,0,4.22721,8.5598,0.440684,7.83537,-9.60366,-6.89024,-4.8092,0.397573,7.96823,4.14634,45,0.0304878
356.48,23.1642,68.9251,0,4.04279,8.67716,0.574805,8.9939,-7.92683,-8.41463,-4.93853,0.411943,8.22689,4.11585,44.2988,-0.0914634
356.49,23.0918,68.5097,0,3.99489,8.82565,0.536484,8.75,-7.2561,-9.81707,-5.07505,0.435894,8.32988,4.26829,42.7744,0
356.5,23.0007,68.0581,0,3.98771,8.89271,0.63947,9.32927,-4.57317,-11.4634,-5.24988,0.522114,8.18139,4.14634,41.9817,0.365854
356.51,22.8602,67.6053,0,3.77455,9.17053,0.59636,9.78659,-1.76829,-13.0488,-5.48459,0.488584,8.38975,4.02439,40.9146,0.945122
356.52,22.6547,67.1026,0,3.57337,9.65672,0.622705,8.35366,-3.78049,-15.7622,-5.83906,0.495769,8.37059,4.5122,38.3841,1.4939
356.53,22.4268,66.5497,0,3.65719,9.83874,0.311353,5.97561,-5.30488,-18.628,-6.03305,0.428708,8.10235,4.87805,37.9878,1.70732
356.54,22.2077,66.0239,0,3.85119,9.73575,0.146096,6.21951,-6.52439,-20.6402,-6.15281,0.359253,8.30114,4.63415,36.8902,1.7378
356.55,21.9724,65.5141,0,3.80329,9.67827,0.232317,6.4939,-6.79878,-22.4695,-6.18155,0.318538,8.30114,4.14634,35.5793,1.40244
356.56,21.6993,65.0141,0,3.49433,9.44596,0.617915,6.52439,-7.31707,-24.4512,-6.06898,0.268242,8.07122,4.45122,34.7866,1.06707
356.57,21.4201,64.5678,0,3.42009,9.25915,0.474214,7.10366,-7.31707,-25.5793,-5.88935,0.265847,8.0808,4.08537,34.2073,0.731707
356.58,21.1197,64.1615,0,3.30752,9.2328,0.519719,7.13415,-5.94512,-27.1646,-5.66422,0.320933,7.9323,3.81098,32.9268,0.609756
356.59,20.7982,63.7868,0,3.13508,9.23999,0.474214,7.07317,-7.40854,-27.9573,-5.41753,0.349673,7.69759,4.60366,32.8659,1.37195
356.6,20.4639,63.4369,0,3.07042,9.35495,0.203577,5.85366,-5.64024,-28.75,-5.34329,0.385598,7.66167,5.64024,32.1037,2.16463
356.61,20.1441,63.0838,0,3.13748,9.35974,0.256267,4.48171,-7.10366,-28.689,-5.36005,0.383203,7.56347,6.21951,31.2195,2.28659
356.62,19.8611,62.7049,0,3.39135,9.01246,0.263452,5.70122,-10.2439,-29.8476,-5.39119,0.364043,7.33115,7.86585,31.0671,2.31707
356.63,19.5809,62.3607,0,3.43925,8.6556,0.289797,7.07317,-11.0366,-32.2866,-5.41035,0.342488,7.49162,8.14024,30.8232,2.10366
356.64,19.3065,62.0418,0,3.6069,8.27,0.213157,7.7439,-9.02439,-36.128,-5.39358,0.296982,7.5491,8.71951,29.5427,1.79878
356.65,18.9876,61.7321,0,3.38895,8.29156,0.603545,8.9939,-8.5061,-38.5061,-5.35526,0.265847,7.47007,9.02439,29.0854,1.40244
356.66,18.6209,61.4496,0,3.0273,8.77775,0.378413,11.4939,-8.9939,-37.5,-5.2403,0.318538,7.41259,9.54268,28.7195,1.55488
356.67,18.2556,61.2002,0,2.9339,9.19448,0,10.061,-9.81707,-35.3963,-5.17085,0.407153,7.46528,9.08537,28.4146,2.07317
356.68,17.9355,60.9664,0,3.14945,9.20885,0.0143701,6.76829,-9.57317,-33.9329,-5.12055,0.512534,7.43175,8.47561,27.622,2.56098
356.69,17.628,60.7339,0,3.06323,9.29986,0.193997,3.96341,-10.8537,-31.9817,-5.1924,0.692161,7.47965,7.7439,27.1951,3.10976
356.7,17.3827,60.5197,0,3.29076,9.29507,0.126936,3.2622,-12.0122,-28.8415,-5.33371,0.826282,7.74789,6.46341,26.6463,3.01829
356.71,17.1747,60.2365,0,3.35782,9.41961,0.100591,3.32317,-10.4573,-25.7927,-5.51813,0.826282,7.45809,5.60976,27.1951,2.59146
356.72,16.979,59.9438,0,3.27399,9.40524,0.141306,2.92683,-7.9878,-24.0854,-5.74326,0.919688,7.61616,4.17683,27.561,1.7378
356.73,16.8063,59.629,0,3.30992,9.33818,0.476609,1.92073,-9.78659,-22.8049,-5.93725,0.898132,7.63532,2.89634,27.5,1.03659
356.74,16.6388,59.2819,0,3.26441,9.07473,0.328118,4.35976,-11.6159,-23.1707,-6.06658,0.888552,7.49162,1.89024,27.6524,0.792683
356.75,16.4565,58.9474,0,3.16382,9.05078,-0.0670605,4.17683,-12.0732,-23.9634,-6.08574,0.804727,7.50839,0.914634,27.9573,0.640244
356.76,16.2492,58.612,0,3.00575,8.91905,0.0550855,4.57317,-11.2805,-25.5793,-6.03784,0.713716,7.3551,-0.27439,28.1707,0.701219
356.77,16.0437,58.2964,0,3.03209,9.00288,-0.0790356,6.79878,-11.0976,-25.7927,-5.99473,0.677791,7.34552,-1.15854,28.5366,1.25
356.78,15.8489,57.9996,0,3.1255,9.03162,-0.119751,8.71951,-9.02439,-26.0976,-6.04982,0.627495,7.4557,-1.4939,28.4146,1.40244
356.79,15.6559,57.7045,0,3.14227,9.17772,-0.162861,10.1524,-5.18293,-25.9146,-5.95641,0.64426,7.27607,-1.52439,30.0305,2.13415
356.8,15.4541,57.4082,0,3.09916,9.49865,-0.237107,8.41463,-5.27439,-25.5183,-6.11209,0.589175,7.38145,-1.82927,30.4268,2.31707
356.81,15.2612,57.1096,0,3.22609,9.63756,-0.215552,6.0061,-7.62195,-25.9146,-6.22705,0.517324,7.42696,-2.10366,31.0366,2.56098
356.82,15.0856,56.7691,0,3.37219,9.62319,-0.170046,5.94512,-9.7561,-26.189,-6.36596,0.414338,7.23775,-2.0122,31.7073,2.43902
356.83,14.8913,56.4204,0,3.25723,9.58487,-0.134121,5.94512,-9.87805,-27.3476,-6.46895,0.352068,7.21619,-2.46951,32.622,2.65244
356.84,14.6593,56.059,0,2.95785,9.57289,0.0143701,6.06707,-7.31707,-28.3232,-6.59349,0.337698,7.18506,-2.5,33.0183,3.10976
356.85,14.391,55.6732,0,2.71356,9.45075,-0.0526904,4.96951,-5.15244,-30.1524,-6.67013,0.253872,7.02459,-2.34756,33.5671,3.56707
356.86,14.0877,55.2976,0,2.53872,9.27112,0.0167651,4.5122,-6.76829,-32.8354,-6.60546,0.285007,6.9264,-1.95122,34.6646,4.02439
356.87,13.7822,54.9309,0,2.42376,9.2328,-0.0766406,6.09756,-8.9939,-32.439,-6.58151,0.263452,6.86652,-2.43902,35.5793,4.60366
356.88,13.4867,54.5774,0,2.52435,9.3765,-0.165256,6.52439,-6.98171,-32.7744,-6.52403,0.244292,6.79946,-1.52439,36.4329,5.18293
356.89,13.2088,54.2119,0,2.58902,9.38129,-0.0574805,6.7378,-7.2561,-32.3171,-6.61265,0.239502,6.73719,-0.97561,37.5305,5.27439
356.9,12.9765,53.8624,0,2.83091,9.45793,0.227527,7.31707,-7.86585,-30.7622,-6.55756,0.273032,6.69168,-0.579268,39.1463,5.09146
356.91,12.7702,53.5184,0,2.82852,9.48667,-0.143701,7.59146,-8.71951,-28.4451,-6.5384,0.261057,6.62462,-0.792683,40.7622,5.12195
356.92,12.5711,53.1782,0,2.76385,9.43877,-0.464634,7.68293,-9.32927,-27.561,-6.63899,0.282612,6.67013,-0.426829,41.5244,4.63415
356.93,12.3785,52.8464,0,2.66087,9.31902,-0.392783,7.92683,-13.2622,-26.5244,-6.75156,0.373623,6.75395,-0.945122,42.3476,4.60366
356.94,12.1871,52.5111,0,2.68482,9.25436,-0.325723,8.04878,-16.1585,-27.2866,-6.78988,0.467029,6.69408,-1.92073,43.2622,4.39024
356.95,11.9983,52.187,0,2.81654,9.32621,-0.433499,8.53659,-14.9085,-28.689,-6.85455,0.534089,6.74677,-3.47561,44.6646,4.26829
356.96,11.79,51.8334,0,2.77104,9.48667,-0.361648,6.34146,-19.3293,-30,-6.93358,0.589175,6.57672,-5.09146,45.9451,4.11585
356.97,11.6055,51.4577,0,2.95066,9.31184,-0.371228,5.91463,-21.128,-30.6402,-7.08686,0.541274,6.51206,-6.03659,47.5,4.45122
356.98,11.4143,51.0845,0,2.95306,9.4747,-0.627495,5.42683,-21.1585,-31.1585,-7.09884,0.471819,6.45458,-6.85976,49.3598,4.48171
356.99,11.2031,50.6695,0,2.81175,9.69743,-0.785566,2.53049,-18.628,-31.25,-7.22098,0.354463,6.24621,-7.10366,51.5244,4.84756
357,10.9735,50.2493,0,2.77822,9.78366,-0.486189,0.945122,-13.6585,-32.9268,-7.18985,0.344883,6.10251,-6.82927,53.872,5.21341
357.01,10.7183,49.8151,0,2.55549,9.75491,-0.560435,1.25,-5.03049,-33.5976,-7.16829,0.213157,5.92288,-6.52439,56.3415,5.67073
357.02,10.447,49.4185,0,2.44292,9.89622,-0.397573,5.4878,-1.61585,-34.1159,-7.26888,0.146096,6.11688,-5.67073,57.1951,6.67683
357.03,10.1316,48.9772,0,2.02619,9.92017,-0.342488,7.07317,-2.43902,-34.4207,-7.33355,0.0215552,5.84624,-4.81707,57.8659,7.22561
357.04,9.83033,48.5171,0,2.17228,9.72378,-0.673001,6.28049,-0.823171,-35.7622,-7.48683,-0.0263452,5.77679,-3.71951,59.4207,7.2561
357.05,9.52853,48.0433,0,2.12917,9.69743,-0.730481,4.93902,-2.65244,-36.0061,-7.61137,0.0287402,5.70494,-3.17073,60.6707,7.53049
357.06,9.22391,47.5461,0,2.07648,9.63277,-0.828677,1.92073,-0.213415,-36.4634,-7.66646,0.112566,5.52771,-2.89634,61.6159,7.40854
357.07,8.90236,47.0454,0,1.84656,9.63516,-0.680186,-0.335366,-1.09756,-36.128,-7.6928,0.251477,5.42951,-2.16463,63.1402,7.34756
357.08,8.55553,46.5557,0,1.37714,9.51781,-0.483794,-3.59756,-0.640244,-34.0244,-7.72394,0.268242,5.40795,-2.04268,64.3293,6.89024
357.09,8.22885,46.085,0,1.44659,9.67348,0.0742456,-1.15854,0.579268,-33.2317,-7.65927,0.275427,5.36245,-2.65244,65.9451,5.94512
357.1,7.89905,45.6137,0,1.21906,9.8555,0.344883,-1.12805,-1.06707,-31.25,-7.68562,0.239502,5.28581,-3.84146,67.8963,4.69512
357.11,7.61558,45.1629,0,1.3939,10.0232,0.280217,-0.670732,-9.87805,-28.9634,-7.55629,0.210762,5.20677,-3.96341,68.4451,3.38415
357.12,7.36137,44.7047,0,1.50647,10.0088,-0.100591,-1.64634,-18.0488,-27.8659,-7.6928,0.0622705,5.17564,-3.71951,68.8719,2.71341
357.13,7.10657,44.2361,0,1.07536,9.97286,-0.526904,-2.71341,-19.1159,-23.5366,-7.81255,0.0479004,5.11576,-3.04878,69.6646,2.19512
357.14,6.98155,43.7273,0,1.7795,9.92736,-0.699346,-2.68293,-22.0732,-18.9939,-8.02332,0.00718506,4.96248,-2.22561,70.8841,2.16463
357.15,6.88935,43.1888,0,1.79626,9.73575,-0.960403,-1.25,-27.1951,-16.4939,-8.08319,-0.0526904,4.7589,-2.22561,72.3781,2.9878
357.16,6.84162,42.6308,0,1.96871,9.66869,-1.06339,-1.85976,-31.0061,-14.2988,-8.29635,-0.0694556,4.68705,-1.58537,73.9329,2.92683
357.17,6.84211,42.0854,0,2.1627,9.49865,-0.802332,0.548781,-35,-12.1646,-8.21013,-0.0383203,4.59365,-1.76829,74.6341,3.01829
357.18,6.87676,41.5316,0,2.2585,9.62558,-0.701741,2.10366,-33.9634,-9.45122,-8.23408,0.0407153,4.46671,-2.53049,76.1281,2.9878
357.19,6.91966,40.9735,0,2.08606,9.75731,-0.855022,0.518293,-29.6037,-6.25,-8.24605,0.0790356,4.35175,-3.53659,77.7744,2.46951
357.2,6.93491,40.3949,0,1.89207,9.78366,-0.902922,1.12805,-27.7134,-6.67683,-8.23887,0.237107,4.15296,-4.48171,78.8415,2.10366
357.21,6.928,39.8012,0,1.73639,9.76689,-1.00351,2.19512,-22.4085,-7.13415,-8.45202,0.311353,4.0859,-5.54878,80.0305,1.58537
357.22,6.87245,39.1908,0,1.28613,9.73575,-0.910107,0.518293,-18.8415,-6.89024,-8.48076,0.330513,3.91586,-6.06707,80.5183,1.58537
357.23,6.82734,38.5527,0,1.60466,9.79084,-0.855022,0.243902,-13.811,-9.57317,-8.61728,0.263452,3.74342,-6.61585,81.3415,1.61585
357.24,6.76923,37.9042,0,1.62143,9.64953,-0.730481,-0.640244,-10.122,-11.4634,-8.84002,0.249082,3.67635,-7.77439,81.8598,1.64634
357.25,6.70346,37.2359,0,1.61903,9.50583,-0.598755,-0.97561,-5.57927,-12.622,-8.96695,0.292192,3.52068,-8.47561,82.5305,2.19512
357.26,6.61805,36.5687,0,1.42504,9.46991,-0.59636,-1.25,0.792683,-12.5,-8.9454,0.263452,3.39853,-8.59756,83.689,2.80488
357.27,6.5098,35.8886,0,1.31966,9.49386,-0.316143,0.0304878,0.731707,-13.689,-8.95019,0.246687,3.2237,-8.81098,83.9329,2.9878
357.28,6.34867,35.2341,0,0.888552,9.47949,-0.316143,1.09756,2.62195,-14.0854,-8.81128,0.263452,3.16861,-9.20732,84.2988,3.62805
357.29,6.16913,34.5881,0,0.771196,9.70701,-0.467029,0.823171,7.95732,-14.6341,-8.78254,0.119751,3.08239,-9.60366,84.5122,3.62805
357.3,5.98799,33.9721,0,0.783171,9.86988,-0.469424,-0.640244,7.10366,-15.1524,-8.73464,0.0287402,3.08479,-9.02439,84.5427,3.41463
357.31,5.77459,33.349,0,0.380808,9.82437,-0.414338,0.182927,3.93293,-14.0854,-8.79691,-0.146096,2.96982,-8.47561,84.2988,3.14024
357.32,5.54238,32.7041,0,0.126936,9.86509,-0.534089,0.97561,1.15854,-13.4146,-8.7993,-0.196392,2.77104,-7.77439,84.2073,2.89634
357.33,5.32979,32.0378,0,0.112566,9.70462,-0.797541,-0.487805,-0.914634,-11.7378,-8.89031,-0.299377,2.5986,-7.07317,84.1768,2.83537
357.34,5.12072,31.4117,0,-0.00239502,9.58726,-0.469424,0.243902,-8.5061,-10.4268,-9.11065,-0.275427,2.72314,-6.92073,83.4146,2.77439
357.35,4.95303,30.7535,0,0.273032,9.46991,-0.344883,0.945122,-6.85976,-10.0305,-9.17772,-0.268242,2.49322,-6.61585,82.6219,3.01829
357.36,4.79507,30.1065,0,0.316143,9.55134,-0.0694556,2.43902,-5.97561,-9.87805,-9.2304,-0.232317,2.44292,-5.54878,82.3171,3.32317
357.37,4.62151,29.4997,0,0.0407153,9.6184,-0.141306,3.68902,-5.42683,-8.41463,-9.29268,-0.124541,2.52196,-5.09146,80.9756,3.62805
357.38,4.46998,28.8902,0,0.170046,9.82916,-0.189207,3.59756,-5.60976,-8.04878,-9.41482,-0.162861,2.43573,-4.39024,79.9695,3.75
357.39,4.3179,28.2628,0,-0.0191602,9.81479,-0.380808,2.2561,-2.37805,-6.12805,-9.49146,-0.146096,2.26808,-3.65854,79.2988,3.65854
357.4,4.21207,27.6456,0,0.332908,9.84593,-0.479004,2.9878,-1.76829,-5.91463,-9.4747,-0.100591,2.19863,-2.92683,78.4146,3.59756
357.41,4.0746,27.0728,0,-0.0742456,9.7621,-0.447869,2.92683,-4.63415,-4.26829,-9.4723,-0.0119751,2.28485,-2.77439,76.8902,4.32927
357.42,4.00056,26.486,0,0.495769,9.60403,-0.811912,4.45122,3.07927,-5.2439,-9.53457,0.0431104,2.13636,-2.80488,75.7927,4.05488
357.43,3.84005,25.8681,0,-0.201182,9.58247,-0.737666,3.93293,5.12195,-5.67073,-9.58008,-0.0191602,1.90644,-2.56098,75.4268,3.9939
357.44,3.68192,25.2755,0,-0.134121,9.80521,-0.407153,3.93293,5.79268,-6.67683,-9.62798,-0.0311353,1.91841,-1.98171,73.8719,3.90244
357.45,3.46767,24.7055,0,-0.62031,9.82916,-0.404758,1.70732,6.61585,-6.95122,-9.80042,-0.0934058,1.94715,-1.79878,71.4939,3.62805
357.461,3.24079,24.1092,0,-0.66342,9.6639,-0.160466,2.86585,7.77439,-8.04878,-9.70462,-0.0311353,1.71004,-1.89024,70.0915,2.7439
357.47,3.02254,23.5165,0,-0.682581,9.82437,-0.0550855,3.35366,6.03659,-7.53049,-9.8555,-0.0718506,1.64538,-1.79878,68.1098,2.56098
357.48,2.77939,22.9156,0,-0.902922,9.86269,-0.0814307,2.89634,6.92073,-7.95732,-9.78126,-0.179626,1.4921,-1.4939,66.7683,2.40854
357.49,2.58166,22.3826,0,-0.574805,9.90101,-0.395178,2.9878,2.83537,-7.71341,-9.89862,-0.198787,1.70525,-1.37195,64.2683,2.40854
357.5,2.35128,21.8109,0,-0.917292,9.81,-0.208367,2.71341,-0.640244,-7.31707,-10.0758,-0.217947,1.46096,-0.853659,61.6768,2.71341
357.51,2.18395,21.2047,0,-0.407153,9.68067,-0.510139,3.9939,0.670732,-7.34756,-9.89862,-0.177231,1.18074,-1.12805,60.3049,2.92683
357.52,1.95966,20.6182,0,-0.840652,9.73815,-0.490979,3.96341,-3.2622,-8.35366,-9.92017,-0.167651,1.16398,-0.487805,60.2439,3.96341
357.53,1.76925,20.0607,0,-0.5772,9.74294,-0.546064,4.39024,-1.61585,-8.5061,-9.86269,-0.153281,1.18074,0.0609756,57.8963,4.60366
357.54,1.58794,19.4715,0,-0.493374,9.82916,-0.524509,3.29268,-0.792683,-9.02439,-9.80042,-0.129331,0.936453,0.487805,55.9451,5.64024
357.55,1.42421,18.9019,0,-0.304167,9.82677,-0.337698,2.53049,-0.853659,-9.84756,-9.98963,-0.0646655,0.936453,0.457317,54.2378,5.60976
357.56,1.27563,18.3328,0,-0.0670605,9.91299,-0.385598,1.46341,1.18902,-11.4634,-10.1501,-0.100591,0.850232,0.487805,51.8293,5.45732
357.57,1.11545,17.7772,0,-0.0958008,9.73815,-0.399968,2.46951,2.53049,-12.5915,-10.1669,-0.112566,0.809517,0.579268,50.3049,5.12195
357.58,0.977523,17.1851,0,-0.00239502,9.56571,-0.462239,3.04878,3.78049,-11.7683,-10.2986,-0.143701,0.550855,0.884146,47.8963,4.39024
357.59,0.853206,16.5938,0,0.213157,9.69025,-0.687371,2.56098,7.65244,-13.2622,-10.3441,-0.134121,0.447869,1.37195,45.9451,4.54268
357.6,0.698684,15.9711,0,-0.0550855,9.57529,-0.723296,1.15854,9.39024,-13.3537,-10.4543,-0.208367,0.198787,2.56098,44.2683,3.59756
357.61,0.523031,15.349,0,-0.368833,9.67588,-0.749641,0.0914634,12.1037,-12.0427,-10.5429,-0.131726,0.0886157,2.34756,44.7256,2.89634
357.62,0.341328,14.7713,0,-0.546064,9.86269,-0.402363,0.121951,8.23171,-11.0061,-10.1142,-0.0526904,0.172441,2.2561,43.7195,3.47561
357.63,0.194883,14.2714,0,-0.282612,10.0998,-0.574805,0.396341,8.07927,-10.9756,-10.2076,-0.174836,0.419128,2.5,41.0671,4.81707
357.64,0.0619408,13.7813,0,-0.320933,10.095,-0.541274,0.579268,6.21951,-9.45122,-10.1357,-0.270637,0.368833,2.37805,38.1402,4.63415
357.65,-0.0593472,13.2774,0,-0.294587,10.016,-0.57241,0.0609756,4.54268,-8.81098,-10.0256,-0.241897,0.215552,2.92683,35.1524,4.93902
357.66,-0.172647,12.7937,0,-0.253872,9.91778,-0.481399,-0.609756,4.32927,-8.68902,-9.98484,-0.112566,0.213157,2.59146,32.6829,5.85366
357.67,-0.264602,12.3109,0,-0.179626,9.80281,-0.378413,-1.15854,4.26829,-7.59146,-9.97765,-0.0910107,0.131726,1.92073,30.8232,7.13415
357.68,-0.336721,11.8529,0,-0.155676,9.80281,-0.201182,-1.43293,1.79878,-6.03659,-10.0423,0.0479004,0.155676,1.25,29.0549,8.10976
357.69,-0.382046,11.4093,0,-0.117356,9.72378,-0.318538,0.304878,2.5,-3.87195,-10.289,0.112566,0.141306,0.0609756,27.5,8.62805
357.7,-0.369632,10.9639,0,0.249082,9.80042,-0.730481,-0.0914634,5.85366,-2.89634,-10.3585,0.203577,0.0526904,-0.792683,26.2805,8.90244
357.71,-0.336593,10.5117,0,0.390388,9.74054,-0.768801,0.609756,8.17073,-2.77439,-10.4016,0.234712,-0.0598755,-1.40244,25.1524,8.53659
357.72,-0.298211,10.0467,0,0.330513,9.7118,-0.811912,2.10366,7.80488,-2.04268,-10.3632,0.251477,-0.201182,-2.16463,24.2378,8.04878
357.73,-0.249674,9.58676,0,0.258662,9.82197,-0.783171,1.95122,8.04878,-1.09756,-10.2938,0.213157,-0.261057,-2.19512,23.1098,7.5
357.74,-0.282125,9.12217,0,-0.141306,9.80042,-0.694556,1.28049,9.35976,-0.152439,-10.2363,0.189207,-0.364043,-3.20122,21.9207,6.79878
357.75,-0.267151,8.63054,0,0.114961,9.91778,-0.917292,1.28049,11.9207,-1.31098,-10.1884,0.110171,-0.56762,-3.53659,21.0061,6.25
357.76,-0.316267,8.13817,0,-0.261057,9.92257,-0.720901,0.304878,11.0061,-1.64634,-10.2531,0.0263452,-0.66342,-4.54268,20.3659,5.70122
357.77,-0.353126,7.63773,0,-0.172441,9.87706,-0.570015,-0.396341,11.311,-2.04268,-10.2674,0.0335303,-0.790356,-5.12195,19.7256,5.57927
357.78,-0.397468,7.13625,0,-0.196392,9.83874,-0.459844,0.121951,11.128,-2.71341,-10.2698,0.0239502,-0.886157,-5.54878,19.0244,5.60976
357.79,-0.432285,6.63113,0,-0.141306,9.83156,-0.371228,0.365854,9.81707,-2.56098,-10.2483,0.00718506,-0.991538,-6.43293,18.811,5.60976
357.8,-0.450574,6.13086,0,-0.0790356,9.81,-0.450264,-0.0914634,8.93293,-1.79878,-10.2674,0.0215552,-1.06339,-6.70732,17.9573,6.28049
357.81,-0.462134,5.64714,0,-0.0455054,9.76689,-0.524509,-0.426829,7.68293,-1.70732,-10.2028,0.0431104,-1.07297,-7.40854,16.3415,6.46341
357.82,-0.462474,5.18348,0,0.0263452,9.8124,-0.57241,-1.21951,6.67683,-1.7378,-10.2291,0.0239502,-1.07297,-7.28659,14.8476,6.95122
357.83,-0.445842,4.74888,0,0.141306,9.8124,-0.488584,-1.79878,5.73171,-1.79878,-10.2411,0.0574805,-1.02746,-7.43902,12.5305,7.53049
357.84,-0.412435,4.33524,0,0.205972,9.82916,-0.550855,-2.28659,5.82317,-1.46341,-10.277,0.0431104,-1.01549,-8.01829,10.7012,7.53049
357.85,-0.380151,3.93795,0,0.186812,9.86509,-0.507744,-2.31707,5.94512,-1.31098,-10.2842,0.0742456,-1.01788,-8.10976,8.71951,7.65244
357.86,-0.36688,3.54153,0,0.0502954,9.88425,-0.541274,-2.34756,5.39634,-0.97561,-10.2962,0.0694556,-1.08734,-8.2622,7.2561,7.77439
357.87,-0.350796,3.15193,0,0.0239502,9.94412,-0.574805,-1.95122,5.12195,-0.487805,-10.3201,0.0479004,-1.12805,-8.65854,5.91463,7.71341
357.88,-0.319351,2.75754,0,0.0479004,9.93454,-0.637075,-1.70732,4.35976,0.304878,-10.3249,0.0550855,-1.21667,-8.59756,5.18293,7.19512
357.89,-0.29294,2.36313,0,0.0335303,9.87227,-0.622705,-2.07317,3.84146,0.670732,-10.2555,-0.0407153,-1.27415,-8.65854,4.78659,7.0122
357.9,-0.264338,1.95856,0,0.0455054,9.82197,-0.637075,-2.31707,2.37805,0.731707,-10.2315,-0.165256,-1.37714,-8.84146,4.26829,6.61585
357.91,-0.223042,1.53484,0,0.105381,9.73336,-0.675395,-2.40854,0.97561,0.945122,-10.2267,-0.268242,-1.54718,-8.38415,4.66463,5.94512
357.92,-0.168601,1.09534,0,0.170046,9.7142,-0.656235,-2.65244,-0.396341,0.914634,-10.174,-0.263452,-1.66933,-7.43902,4.05488,5.27439
357.93,-0.0997708,0.652429,0,0.246687,9.77886,-0.58678,-2.7439,-2.04268,0.823171,-10.0567,-0.165256,-1.71483,-7.07317,3.59756,5.09146
357.94,0.00204889,0.232226,0,0.366438,9.81,-0.5772,-2.04268,-2.59146,0.518293,-10.0471,-0.0838257,-1.67172,-6.64634,3.32317,5.21341
357.95,0.123352,-0.197972,0,0.378413,9.84114,-0.670605,-2.0122,-1.4939,-0.0609756,-9.98005,-0.0502954,-1.59748,-6.34146,2.19512,5.85366
357.96,0.224877,-0.724613,0,0.490979,9.79323,-0.716111,-1.67683,-0.518293,-0.701219,-9.99202,-0.0526904,-1.50647,-6.67683,0.914634,5.91463
357.97,0.292943,-1.35799,0,0.555645,9.80042,-0.63468,-1.61585,0.945122,-1.61585,-9.96568,-0.0215552,-1.45378,-7.07317,0.304878,5.79268
357.98,0.343589,-2.00353,0,0.637075,9.81,-0.632285,-1.34146,3.10976,-2.71341,-9.93694,-0.0287402,-1.48491,-7.19512,-0.182927,5.33537
357.99,0.380017,-2.5764,0,0.617915,9.87467,-0.61073,-1.64634,4.72561,-3.32317,-9.88904,-0.0167651,-1.3939,-6.82927,-0.152439,4.72561
358,0.40971,-3.12184,0,0.632285,9.85311,-0.62031,-1.15854,6.15854,-3.93293,-9.87706,-0.0502954,-1.38193,-6.7378,0.0609756,4.20732
358.01,0.421843,-3.47277,0,0.543669,9.73575,-0.584385,-0.97561,6.92073,-4.57317,-9.86509,-0.0622705,-1.49689,-6.76829,1.0061,3.65854
358.02,0.422338,-3.74845,0,0.462239,9.68546,-0.56283,-0.609756,7.19512,-4.7561,-9.8579,-0.0455054,-1.54718,-6.52439,1.79878,3.32317
358.03,0.418059,-3.96511,0,0.433499,9.74054,-0.637075,-0.731707,7.0122,-4.84756,-9.88185,-0.0886157,-1.50407,-6.06707,2.68293,3.5061
358.04,0.41306,-4.1577,0,0.411943,9.7142,-0.526904,0.0914634,7.34756,-4.69512,-9.90101,-0.160466,-1.45857,-6.06707,2.80488,3.2622
358.05,0.392146,-4.33853,0,0.263452,9.81479,-0.546064,0.426829,6.40244,-4.48171,-9.9561,-0.229922,-1.4418,-5.39634,2.59146,2.95732
358.06,0.371393,-4.52122,0,0.258662,9.81719,-0.62031,-0.243902,5.57927,-4.45122,-9.92736,-0.237107,-1.47533,-5.33537,2.59146,2.9878
358.07,0.35663,-4.69331,0,0.261057,9.77886,-0.526904,-0.243902,4.42073,-3.96341,-9.87706,-0.237107,-1.4418,-4.84756,2.43902,3.01829
358.08,0.344118,-4.84254,0,0.256267,9.80521,-0.507744,-0.640244,4.08537,-3.71951,-9.82916,-0.205972,-1.36516,-3.65854,2.34756,2.89634
358.09,0.34094,-4.98662,0,0.292192,9.78126,-0.411943,-1.0061,3.44512,-3.32317,-9.83395,-0.201182,-1.36037,-3.41463,2.19512,2.95732
358.1,0.335534,-5.10799,0,0.263452,9.80042,-0.534089,-1.0061,3.04878,-3.20122,-9.8076,-0.179626,-1.28613,-3.17073,2.07317,2.83537
358.11,0.333783,-5.227,0,0.316143,9.77168,-0.510139,-0.335366,3.90244,-3.47561,-9.79084,-0.153281,-1.25978,-3.14024,1.67683,3.01829
358.12,0.327824,-5.34769,0,0.280217,9.79563,-0.467029,-0.0914634,4.78659,-3.44512,-9.80042,-0.107776,-1.22625,-3.14024,1.12805,3.20122
358.13,0.316591,-5.49796,0,0.246687,9.84353,-0.440684,-0.670732,5.2439,-3.53659,-9.81479,-0.0622705,-1.24062,-3.32317,0.548781,3.78049
358.14,0.300657,-5.66225,0,0.225132,9.83874,-0.455054,-0.640244,6.12805,-3.75,-9.86988,-0.0191602,-1.25499,-3.59756,0.213415,4.2378
358.15,0.282171,-5.8729,0,0.217947,9.8579,-0.495769,-0.762195,5.79268,-3.93293,-9.88425,0.00479004,-1.36516,-3.71951,0.152439,4.84756
358.16,0.264429,-6.02694,0,0.229922,9.89143,-0.455054,-0.853659,6.37195,-4.02439,-9.94891,-0.00479004,-1.35798,-3.65854,0.396341,5.12195
358.17,0.24551,-6.13764,0,0.232317,9.86748,-0.387993,-0.182927,6.03659,-4.20732,-9.98244,-0.0383203,-1.38193,-3.84146,1.09756,5.33537
358.18,0.219618,-6.23955,0,0.189207,9.87946,-0.383203,-0.579268,5.06098,-4.42073,-10.0136,-0.160466,-1.42743,-4.14634,1.58537,5.54878
358.19,0.192283,-6.33044,0,0.153281,9.82677,-0.320933,0.213415,4.26829,-4.20732,-10.1022,-0.234712,-1.4418,-3.96341,1.82927,5.73171
358.2,0.162288,-6.40394,0,0.122146,9.88425,-0.392783,0.426829,4.26829,-4.14634,-10.0758,-0.225132,-1.40348,-3.65854,2.19512,6.0061
358.21,0.127663,-6.47177,0,0.0910107,9.88904,-0.387993,0.152439,4.08537,-4.29878,-9.98484,-0.182021,-1.35558,-3.47561,1.67683,6.67683
358.22,0.0983523,-6.55123,0,0.131726,9.84832,-0.407153,-0.182927,3.78049,-4.32927,-9.9058,-0.136516,-1.346,-3.04878,1.03659,7.07317
358.23,0.0675025,-6.63827,0,0.126936,9.86269,-0.440684,-0.304878,3.14024,-4.48171,-9.84832,-0.0670605,-1.28852,-2.86585,-0.182927,7.43902
358.24,0.0401414,-6.67648,0,0.131726,9.80042,-0.438289,-0.853659,2.22561,-4.26829,-9.81,-0.0215552,-1.23823,-2.83537,-0.884146,7.80488
358.25,0.0191539,-6.69056,0,0.119751,9.80521,-0.505349,-0.792683,1.67683,-3.56707,-9.79563,-0.0574805,-1.18793,-2.71341,-1.25,7.80488
358.26,-0.00186082,-6.68587,0,0.105381,9.79803,-0.459844,-1.46341,2.10366,-3.44512,-9.81,-0.100591,-1.13763,-2.59146,-1.46341,7.80488
358.27,-0.0180288,-6.69132,0,0.134121,9.74294,-0.378413,-1.52439,1.85976,-3.38415,-9.8076,-0.0862207,-1.16637,-2.92683,-1.25,7.62195
358.28,-0.0231054,-6.67902,0,0.179626,9.74533,-0.373623,-1.0061,1.76829,-2.95732,-9.84353,-0.0981958,-1.11847,-2.56098,-1.40244,7.2561
358.29,-0.0249394,-6.67435,0,0.184417,9.77407,-0.488584,-1.12805,2.40854,-2.7439,-9.80521,-0.0886157,-1.13524,-2.59146,-1.43293,7.46951
358.3,-0.0179393,-6.66706,0,0.210762,9.80042,-0.507744,-0.579268,2.16463,-2.34756,-9.81479,-0.102986,-1.13045,-2.62195,-0.97561,7.53049
358.31,-0.00772562,-6.65509,0,0.210762,9.89383,-0.402363,-0.792683,1.92073,-2.07317,-9.88904,-0.105381,-1.12566,-2.62195,-0.884146,7.83537
358.32,-0.0033741,-6.65677,0,0.153281,9.90101,-0.447869,-0.487805,2.40854,-1.89024,-9.88185,-0.0886157,-1.15679,-2.62195,-0.396341,8.29268
358.33,-0.00726184,-6.70548,0,0.0934058,9.92017,-0.519719,-0.304878,1.92073,-1.82927,-9.89862,-0.0814307,-1.23823,-2.68293,-0.0304878,8.2622
358.34,-0.0147385,-6.75751,0,0.100591,9.8579,-0.495769,-0.579268,0.609756,-2.22561,-9.90341,-0.0934058,-1.25499,-2.95732,0.0609756,8.35366
358.35,-0.01444,-6.81486,0,0.136516,9.83874,-0.519719,-0.670732,0.457317,-2.04268,-9.88904,-0.0814307,-1.27655,-2.77439,-0.152439,8.32317
358.36,-0.00813195,-6.86679,0,0.213157,9.78605,-0.510139,-0.853659,1.03659,-2.40854,-9.90101,-0.100591,-1.27894,-2.71341,-0.152439,8.23171
358.37,-0.0173379,-6.90589,0,0.126936,9.71659,-0.479004,-0.365854,1.92073,-2.71341,-9.88425,-0.0958008,-1.26936,-2.77439,-0.335366,8.35366
358.38,-0.0452352,-6.89916,0,0.00718506,9.74054,-0.471819,-0.0609756,2.43902,-2.9878,-9.88185,-0.0958008,-1.18074,-2.56098,-0.792683,8.20122
358.39,-0.0795373,-6.90846,0,-0.0335303,9.77886,-0.493374,0.121951,2.7439,-3.17073,-9.8603,-0.0958008,-1.21906,-2.65244,-1.0061,7.7439
358.4,-0.109136,-6.88155,0,0.00239502,9.78605,-0.505349,-0.152439,2.5,-3.23171,-9.85072,-0.110171,-1.11608,-2.22561,-1.25,7.7439
358.41,-0.13231,-6.85529,0,0.0407153,9.79803,-0.459844,-0.457317,2.92683,-3.14024,-9.81719,-0.0862207,-1.10889,-1.82927,-1.31098,7.80488
358.42,-0.161373,-6.85252,0,-0.0119751,9.80042,-0.445474,-0.762195,2.40854,-3.10976,-9.82677,-0.122146,-1.17356,-1.37195,-1.79878,7.43902
358.43,-0.192174,-6.84752,0,-0.0838257,9.77886,-0.356858,-0.609756,2.10366,-2.34756,-9.8555,-0.141306,-1.16877,-1.12805,-1.82927,7.53049
358.44,-0.223904,-6.83238,0,-0.112566,9.78126,-0.352068,0.0609756,0.914634,-2.04268,-9.85311,-0.158071,-1.13045,-0.304878,-2.07317,7.46951
358.45,-0.25424,-6.83256,0,-0.122146,9.84593,-0.373623,0.213415,0,-1.79878,-9.87227,-0.148491,-1.18553,0.548781,-2.28659,7.34756
358.46,-0.278374,-6.81891,0,-0.100591,9.8555,-0.538879,-0.548781,-0.335366,-1.52439,-9.91778,-0.124541,-1.13524,1.12805,-2.95732,7.65244
358.47,-0.287449,-6.81607,0,-0.0215552,9.81,-0.471819,-1.40244,0.213415,-1.40244,-9.92975,-0.158071,-1.17835,1.21951,-3.29268,7.7439
358.48,-0.291353,-6.81293,0,-0.00239502,9.80521,-0.368833,-1.7378,0.27439,-1.28049,-9.96328,-0.177231,-1.18074,1.61585,-3.90244,7.83537
358.49,-0.299612,-6.80368,0,-0.0191602,9.80521,-0.397573,-0.762195,0.487805,-1.40244,-9.98963,-0.129331,-1.15679,1.64634,-4.39024,7.92683
358.5,-0.31251,-6.79626,0,-0.0455054,9.85072,-0.476609,-0.97561,0.27439,-1.43293,-9.95131,-0.143701,-1.15919,1.67683,-5.36585,7.9878
358.51,-0.322262,-6.77417,0,-0.0191602,9.79563,-0.498164,-1.03659,-0.731707,-1.58537,-9.93933,-0.153281,-1.09213,1.89024,-6.0061,8.14024
358.52,-0.32694,-6.7489,0,0.0215552,9.77168,-0.399968,-1.03659,-1.76829,-1.7378,-9.94652,-0.126936,-1.07536,2.07317,-6.7378,8.14024
358.53,-0.333853,-6.70896,0,-0.0215552,9.8124,-0.479004,-1.21951,-1.89024,-1.34146,-9.94173,-0.143701,-1.00591,1.89024,-7.31707,8.23171
358.54,-0.334583,-6.67793,0,0.00958008,9.79803,-0.589175,-1.31098,-1.43293,-1.31098,-9.92736,-0.160466,-1.03704,1.79878,-7.62195,8.53659
358.55,-0.314977,-6.65488,0,0.0670605,9.77647,-0.593965,-1.85976,0.0609756,-0.823171,-9.89143,-0.205972,-1.06339,1.70732,-8.04878,8.32317
358.56,-0.298509,-6.61977,0,0.0431104,9.79563,-0.58678,-2.56098,0.792683,-0.670732,-10.004,-0.203577,-1.01788,2.07317,-8.29268,8.47561
358.57,-0.299132,-6.61452,0,-0.0431104,9.88664,-0.538879,-2.04268,0.396341,-0.304878,-10.0016,-0.261057,-1.14482,2.43902,-8.62805,8.44512
358.58,-0.304879,-6.58918,0,-0.0646655,9.83874,-0.579595,-2.53049,-0.914634,-0.182927,-10.016,-0.258662,-1.0562,2.53049,-9.08537,8.62805
358.59,-0.314934,-6.58048,0,-0.0862207,9.77886,-0.550855,-2.43902,-2.92683,0.121951,-9.98963,-0.296982,-1.12326,2.77439,-9.26829,8.9939
358.6,-0.316153,-6.56882,0,-0.0838257,9.83635,-0.60594,-2.89634,-4.08537,0.609756,-9.94652,-0.282612,-1.1041,2.77439,-9.7561,9.39024
358.61,-0.309015,-6.56166,0,-0.0670605,9.81719,-0.574805,-2.71341,-6.0061,1.0061,-9.86748,-0.294587,-1.11368,2.83537,-10.3354,9.60366
358.62,-0.299904,-6.5527,0,-0.0886157,9.88664,-0.62989,-3.23171,-7.31707,1.52439,-9.79803,-0.273032,-1.09692,2.83537,-10.6402,10.3049
358.63,-0.272504,-6.56286,0,0.00479004,9.8124,-0.565225,-3.53659,-9.45122,1.95122,-9.46751,-0.203577,-1.14003,3.10976,-11.4939,11.4024
358.64,-0.233334,-6.52234,0,0.0981958,9.80281,-0.65384,-3.35366,-9.63415,1.58537,-10.0519,-0.296982,-0.984353,3.07927,-10.7622,11.0976
358.65,-0.171353,-6.50699,0,0.222737,9.72857,-0.682581,-4.45122,-9.72561,1.21951,-10.2243,-0.246687,-1.10889,2.46951,-11.1585,11.189
358.66,-0.0511111,-6.51142,0,0.447869,9.58966,-0.768801,-5.42683,-9.57317,0.914634,-10.1693,-0.225132,-1.19032,2.31707,-11.5854,11.0671
358.67,0.0946663,-6.4933,0,0.502954,9.53936,-0.878972,-6.55488,-7.04268,0.670732,-10.4016,-0.153281,-1.11368,2.28659,-11.5854,10.4268
358.68,0.246427,-6.47511,0,0.368833,9.51302,-0.864602,-6.0061,-4.87805,0,-10.4064,-0.131726,-1.11129,2.13415,-12.439,9.48171
358.69,0.291053,-6.45308,0,0.179626,9.63995,-0.859812,-6.40244,-3.04878,-0.213415,-10.0735,-0.0574805,-1.0562,1.21951,-13.4756,9.63415
358.7,0.296462,-6.43943,0,0.155676,9.6639,-0.934058,-7.68293,-1.79878,-1.43293,-10.0926,-0.141306,-1.09213,0.701219,-13.689,9.5122
358.71,0.301291,-6.38709,0,0.213157,9.68306,-0.893342,-8.75,-0.884146,-2.04268,-10.1237,-0.263452,-0.919688,-0.914634,-14.7561,8.90244
358.72,0.297442,-6.32318,0,0.213157,9.7621,-0.871787,-9.05488,0.0304878,-2.62195,-10.1333,-0.352068,-0.859812,-2.68293,-15.4878,8.35366
358.73,0.264622,-6.26099,0,0.0814307,9.92257,-0.811912,-8.87195,1.0061,-3.71951,-9.91059,-0.340093,-0.838257,-4.57317,-16.5549,8.5061
358.74,0.189718,-6.26286,0,-0.186812,9.96328,-0.876577,-9.14634,1.7378,-4.87805,-9.81479,-0.464634,-1.09931,-5.64024,-16.7073,8.47561
358.75,0.104458,-6.25672,0,-0.205972,9.96568,-0.900527,-9.90854,-0.792683,-5.88415,-9.98244,-0.55325,-1.08255,-6.40244,-16.4634,8.2622
358.76,0.031638,-6.27975,0,-0.0431104,9.9058,-1.04662,-10,-3.71951,-6.70732,-10.004,-0.665815,-1.21427,-6.70732,-16.6463,7.65244
358.77,-0.0175554,-6.30072,0,0.244292,9.92257,-1.09213,-10.5793,-4.5122,-7.83537,-9.99442,-0.735271,-1.20709,-6.40244,-15.6098,6.82927
358.78,-0.052251,-6.33503,0,0.455054,9.87227,-1.17595,-11.189,-3.29268,-8.96341,-9.9537,-0.840652,-1.26457,-5.85366,-14.7866,6.21951
358.79,-0.084306,-6.34254,0,0.546064,9.9537,-1.05381,-11.5244,-1.70732,-9.78659,-9.81719,-0.914897,-1.13524,-5.15244,-14.4512,5.64024
358.8,-0.111866,-6.34248,0,0.593965,10.0639,-1.04423,-11.4939,-1.25,-9.87805,-9.74294,-1.06339,-1.09452,-4.69512,-13.9024,5.36585
358.81,-0.123066,-6.31658,0,0.699346,9.99202,-1.0083,-11.7378,-1.03659,-9.54268,-9.71659,-1.18553,-0.979563,-4.54268,-13.7805,5.06098
358.82,-0.11847,-6.2809,0,0.814307,10.0495,-0.996328,-12.3171,-0.0914634,-9.2378,-9.68067,-1.19272,-0.929268,-4.08537,-13.689,4.87805
358.83,-0.108985,-6.25093,0,0.766406,10.0232,-0.960403,-12.8049,-1.28049,-8.20122,-9.61121,-1.20948,-0.941243,-3.90244,-13.9634,5.15244
358.84,-0.085824,-6.20061,0,0.713716,9.92496,-0.919688,-13.3841,-3.59756,-6.28049,-9.62558,-1.19032,-0.850232,-3.5061,-13.6585,6.12805
358.85,-0.0285429,-6.15275,0,0.780776,9.83395,-0.912502,-13.9939,-6.03659,-3.93293,-9.62798,-1.12805,-0.852627,-2.92683,-13.9024,6.89024
358.86,0.0804722,-6.10522,0,0.850232,9.81,-0.919688,-15.1524,-8.23171,-1.89024,-9.64953,-1.09452,-0.847837,-2.28659,-13.9024,7.34756
358.87,0.280629,-6.04931,0,0.984353,9.85311,-0.912502,-16.7073,-10.0305,0.914634,-9.63037,-1.03704,-0.802332,-2.10366,-13.9329,8.20122
358.88,0.460581,-6.00876,0,1.21188,9.8603,-0.840652,-17.8354,-11.0366,4.32927,-9.64235,-0.977168,-0.859812,-1.46341,-14.2073,8.71951
358.89,0.69782,-5.97477,0,1.45857,9.80281,-0.859812,-19.1463,-12.5305,7.86585,-9.67588,-0.910107,-0.883762,-0.792683,-13.811,9.45122
358.9,0.976089,-5.90141,0,1.57353,9.77647,-0.570015,-20.061,-14.9085,11.1585,-9.84114,-0.857417,-0.720901,-0.518293,-13.5976,9.57317
358.91,1.29081,-5.83497,0,1.58311,9.87467,-0.368833,-21.4024,-16.189,15.5183,-9.89143,-0.768801,-0.742456,-0.365854,-13.9329,9.7561
358.92,1.64771,-5.79918,0,1.61185,9.83635,-0.158071,-21.6768,-16.372,20.061,-9.91299,-0.802332,-0.866997,0.0609756,-13.5976,10.3963
358.93,2.05392,-5.77,0,1.66214,9.73096,0.00479004,-21.311,-16.189,25.0305,-9.92975,-0.924478,-0.890947,0.731707,-13.0793,11.2195
358.94,2.5237,-5.74661,0,1.8274,9.64953,-0.00239502,-20.4878,-14.4512,30.2439,-10.0591,-1.32684,-0.922083,2.40854,-11.7378,11.2805
358.95,3.07302,-5.66918,0,2.07169,9.44117,0.0718506,-19.5732,-11.0976,35.9451,-10.1285,-1.62382,-0.680186,5.64024,-10.2439,11.128
358.96,3.71516,-5.62834,0,2.39262,9.20885,0.0886157,-19.6646,-7.2561,42.0732,-10.1381,-1.67651,-0.831072,9.11585,-9.78659,11.311
358.97,4.444,-5.62711,0,2.66326,9.19687,0.208367,-22.3476,-4.05488,48.9939,-9.9537,-1.41306,-0.984353,12.8963,-10.1829,11.6768
358.98,5.28219,-5.62869,0,3.14945,9.74533,0.153281,-28.7195,-2.62195,58.0488,-9.70222,-0.943638,-0.972378,16.7683,-11.3415,13.5061
358.99,6.25619,-5.61373,0,3.8967,10.3297,0.0718506,-37.0427,-3.93293,67.9878,-9.37411,-0.493374,-0.871787,20.9451,-12.622,14.878
359,7.39333,-5.54649,0,4.54575,10.0112,-0.0814307,-42.6524,-6.89024,78.9634,-9.0388,-0.0335303,-0.62989,25.3354,-14.2378,15.7317
359.01,8.68826,-5.43416,0,4.96967,9.40764,-0.0191602,-39.8171,-8.01829,90.3963,-8.80409,0.426313,-0.428708,28.5976,-15.7317,16.3415
359.02,10.0264,-5.27534,0,5.24988,9.78844,-0.138911,-29.8171,-2.83537,96.7073,-8.9454,0.871787,-0.234712,31.0366,-16.0366,15.8232
359.03,11.2778,-5.08706,0,4.84033,10.9165,-0.488584,-18.4451,7.77439,99.3598,-9.39566,1.16637,-0.0981958,31.8293,-15.7622,14.4512
359.04,12.4319,-4.87672,0,4.02842,11.7212,-0.344883,-12.3476,19.7866,102.073,-10.0519,1.3005,0.0263452,30.3354,-15.0305,12.2866
359.05,13.544,-4.68652,0,3.39614,11.7476,0.263452,-8.10976,28.2927,105.945,-10.7728,1.28852,-0.0263452,28.3841,-13.4451,9.72561
359.06,14.627,-4.56549,0,2.77343,11.1704,1.03465,-4.69512,33.2622,109.695,-11.362,1.346,-0.335303,25.7012,-12.1341,8.17073
359.07,15.6272,-4.51116,0,1.72202,10.6363,2.3064,-1.18902,27.1951,113.14,-11.4123,1.60706,-0.646655,23.2317,-10,9.54268
359.08,16.5404,-4.51891,0,0.828677,10.2435,3.72426,3.90244,13.689,115.64,-11.156,1.71962,-0.926873,20.9146,-8.59756,12.8963
359.09,17.4368,-4.57638,0,0.66821,10.1836,4.27511,13.0183,0.457317,117.561,-10.6483,1.71962,-1.12087,19.878,-7.92683,17.0122
359.1,18.3611,-4.65865,0,1.0562,10.0423,4.20565,22.4695,-11.189,117.652,-10.2818,1.48252,-1.20709,19.0549,-8.59756,20.1829
359.11,19.2534,-4.75969,0,1.30289,10.7776,3.17819,21.189,-18.2012,114.451,-10.2698,1.15679,-1.30768,19.5732,-9.39024,20.8232
359.12,20.0307,-4.89264,0,1.46336,11.4769,1.51844,7.83537,-14.9695,103.78,-10.4543,0.871787,-1.49928,21.372,-9.02439,18.7805
359.13,20.6223,-5.01767,0,1.36756,10.5788,0.481399,-0.426829,-8.10976,86.2195,-10.6626,0.723296,-1.51605,23.4756,-8.62805,16.8598
359.14,21.0905,-5.1499,0,1.68849,9.81719,-0.234712,-0.426829,0.548781,69.939,-10.7872,0.63468,-1.59269,26.1585,-8.56707,15.8537
359.15,21.4807,-5.28434,0,2.10762,9.64714,-0.330513,1.89024,5.15244,57.7134,-10.6914,0.5772,-1.61424,28.5671,-8.41463,16.4329
359.16,21.7948,-5.40502,0,2.30161,9.34776,0.258662,3.56707,0.335366,47.6524,-10.4662,0.550855,-1.54,30.6098,-8.01829,17.5305
359.17,22.0562,-5.52854,0,2.29443,9.07233,0.740061,6.43293,-9.2378,42.1951,-10.1166,0.65384,-1.52323,31.7073,-8.01829,18.872
359.18,22.3121,-5.61403,0,2.53154,8.73464,0.787961,11.0366,-15.122,38.1402,-9.7597,0.826282,-1.32445,32.9573,-8.41463,20.3354
359.19,22.5702,-5.64978,0,2.9794,8.51908,0.66342,15.1524,-13.7195,32.5305,-9.51302,1.01788,-1.09452,33.628,-9.42073,21.372
359.2,22.8284,-5.66321,0,3.4632,8.27719,0.728086,17.4085,-5.27439,26.0671,-9.26154,1.17835,-0.979563,34.1768,-9.81707,21.4024
359.21,23.0845,-5.64361,0,3.94939,8.04966,0.754431,17.378,6.70732,19.3902,-9.15616,1.28613,-0.835862,33.9024,-9.63415,20.5183
359.22,23.3423,-5.61442,0,4.36852,7.70478,0.847837,17.8049,18.3537,13.1098,-9.12023,1.31247,-0.790356,33.5671,-9.35976,19.1768
359.23,23.6036,-5.57834,0,4.94811,7.69999,0.680186,17.4085,32.0732,7.46951,-9.17532,1.39869,-0.761616,32.8963,-8.29268,17.1341
359.24,23.8917,-5.5097,0,5.1469,7.66885,0.64426,16.6463,43.1402,2.5,-9.16813,1.5376,-0.622705,31.3415,-7.59146,15.061
359.25,24.5774,-5.43148,0,5.02954,7.74549,0.462239,13.5061,47.5915,0.243902,-9.20166,1.67412,-0.574805,29.3598,-6.95122,13.3537
359.26,25.2067,-5.36785,0,4.7613,7.58742,0.546064,12.8049,50.0305,-0.365854,-9.18011,1.7771,-0.62031,27.3171,-6.12805,12.0732
359.27,25.5676,-5.31018,0,4.3757,7.6952,0.593965,12.9573,49.3902,-0.487805,-9.26633,1.95913,-0.641865,24.939,-5,11.7378
359.28,26.0417,-5.28242,0,4.55293,7.5036,0.359253,18.7805,57.2256,0.579268,-9.30944,1.85614,-0.759221,23.2317,-3.96341,10.7927
359.29,26.1283,-5.23595,0,4.04279,7.56108,0.55804,22.2866,53.3232,2.7439,-9.36453,1.80824,-0.696951,20.7317,-2.9878,10.4573
359.3,26.1691,-5.2007,0,3.72426,7.69999,0.855022,25.122,50.3354,4.84756,-9.46991,1.68849,-0.744851,18.1402,-2.53049,9.2378
359.31,26.213,-5.16598,0,3.65719,7.791,0.811912,27.1341,44.2378,6.58537,-9.49386,1.56395,-0.737666,16.4329,-2.83537,7.7439
359.32,26.2536,-5.14107,0,3.68594,7.92751,1.18314,30.0915,38.2012,6.76829,-9.58008,1.46815,-0.771196,13.9939,-3.23171,6.03659
359.33,26.2882,-5.11332,0,3.8009,8.05924,1.03944,30.4878,34.7866,5.60976,-9.62558,1.46575,-0.756826,11.9817,-3.59756,4.90854
359.34,26.3556,-5.07464,0,4.15536,7.98499,1.49689,27.9878,29.8476,4.29878,-9.67588,1.48731,-0.708926,9.7561,-3.9939,3.75
359.35,26.4846,-5.01588,0,4.56012,7.71915,1.83938,30.6402,21.3415,3.17073,-9.75491,1.51605,-0.62031,7.56098,-4.69512,2.34756
359.36,26.6204,-4.94865,0,4.74453,7.86285,1.62143,25.7012,12.5,3.2622,-9.79563,1.56634,-0.574805,4.48171,-5.39634,1.61585
359.37,26.7988,-4.87665,0,4.92416,7.76944,1.4442,22.5305,11.372,2.19512,-9.82437,1.63819,-0.543669,1.31098,-6.09756,0.457317
359.38,26.9606,-4.80362,0,4.97206,8.04966,1.26697,19.4207,11.311,-1.21951,-9.82677,1.73878,-0.526904,-2.22561,-6.55488,-0.457317
359.39,27.0237,-4.75142,0,4.92656,7.97062,1.66693,18.4451,11.9512,-3.84146,-9.76928,1.89925,-0.60115,-5.79268,-6.67683,-0.914634
359.4,27.0664,-4.71853,0,4.98643,8.14067,1.30529,18.4451,7.80488,-4.90854,-9.73336,1.93997,-0.673001,-9.17683,-6.58537,-1.40244
359.41,27.1071,-4.73683,0,5.23072,8.40412,1.07776,17.2866,5.42683,-5.7622,-9.69264,1.95673,-0.883762,-12.5305,-6.18902,-1.25
359.42,27.1545,-4.78064,0,5.26665,8.30593,0.809517,15.0915,6.82927,-5.97561,-9.64714,1.83698,-0.991538,-14.8476,-6.06707,-0.945122
359.43,27.2425,-4.87169,0,5.44627,8.03529,0.692161,14.3598,10.8232,-5.39634,-9.57768,1.69567,-1.19032,-16.2195,-5.33537,-0.914634
359.44,27.3374,-4.98614,0,5.52291,7.9347,0.859812,13.1098,15.9451,-5.91463,-9.57289,1.46575,-1.2981,-16.8293,-4.54268,-0.701219
359.45,27.4471,-5.13331,0,5.56842,7.7407,0.958008,11.5854,18.689,-6.03659,-9.57289,1.16398,-1.44899,-16.7378,-4.17683,-1.28049
359.46,27.574,-5.35837,0,5.65464,7.52276,0.694556,11.9207,22.1951,-6.4939,-9.50583,0.922083,-1.72681,-16.0976,-3.04878,-2.19512
359.47,27.6836,-5.59484,0,5.55884,7.51318,0.481399,11.9207,25.8537,-7.07317,-9.45314,0.661025,-1.7795,-15.1524,-2.89634,-3.62805
359.48,27.7711,-5.83363,0,5.33371,7.46528,0.433499,11.25,26.7073,-7.16463,-9.45793,0.565225,-1.83698,-13.4451,-2.95732,-4.81707
359.49,27.8355,-6.05199,0,5.12774,7.36469,0.536484,12.0427,24.878,-7.89634,-9.46991,0.548459,-1.83698,-11.6463,-3.41463,-5.42683
359.5,27.8752,-6.22191,0,4.96727,7.22098,0.814307,13.7805,23.1402,-9.60366,-9.44596,0.64905,-1.70525,-10.2744,-4.32927,-6.43293
359.51,27.8962,-6.35413,0,4.91458,7.15153,1.04662,15.061,22.622,-11.372,-9.5202,0.780776,-1.60466,-9.20732,-5.82317,-7.13415
359.52,27.8739,-6.44711,0,4.77327,7.15392,1.31008,16.0976,22.2256,-14.1463,-9.66151,0.984353,-1.48491,-8.44512,-7.62195,-7.59146
359.53,27.8166,-6.50682,0,4.78764,7.34552,1.46815,16.0671,20.5488,-16.4939,-9.83635,1.25499,-1.38193,-8.29268,-8.62805,-8.32317
359.54,27.7662,-6.58919,0,4.99841,7.4557,1.9232,17.0122,22.5915,-17.439,-9.94412,1.49689,-1.50886,-8.65854,-8.44512,-8.59756
359.55,27.7735,-6.70163,0,5.80074,7.7886,1.1041,14.9695,12.1037,-17.439,-10.0327,1.67172,-1.67172,-9.60366,-6.98171,-9.60366
359.56,27.7003,-6.83898,0,4.97446,7.9323,2.37346,14.6341,-5.39634,-16.2805,-10.0375,1.92799,-1.80105,-10.4878,-5.12195,-10.2744
359.57,27.8325,-7.02771,0,6.69887,7.75507,1.88488,18.7195,8.93293,-13.2927,-9.98723,1.99026,-2.00463,-11.7683,-2.92683,-10.4878
359.58,28.0335,-7.42752,0,7.17308,7.94428,0.831072,24.5732,0.365854,-8.56707,-9.68546,2.10043,-2.15073,-13.9329,-0.518293,-10.5793
359.59,28.1023,-7.43527,0,6.04742,8.76577,-0.627495,24.7561,0.548781,-6.40244,-9.89383,2.20821,-1.31726,-16.6159,-1.43293,-10.2439
359.6,27.9193,-7.28717,0,5.01757,10.5501,-1.06099,27.1037,11.0366,-13.2317,-10.4471,1.95913,-0.682581,-17.8659,-5.2439,-10.2439
359.61,27.2544,-6.97535,0,2.5028,14.1474,0.888552,32.1341,12.8659,-31.3415,-11.3859,1.12805,0.105381,-16.8598,-11.4939,-11.6463
359.62,26.2918,-6.75398,0,0.129331,16.267,2.6944,28.9024,0.304878,-43.5366,-11.9775,-0.232317,-0.304167,-11.2805,-14.0244,-13.3232
359.63,25.4106,-6.759,0,0.143701,13.9079,4.05477,22.9268,-22.439,-37.4695,-11.714,-1.32205,-1.42264,-3.75,-8.84146,-14.1463
359.64,24.9515,-6.76495,0,3.33626,12.0565,4.45713,9.48171,-40.5183,-26.5549,-12.2122,-1.8274,-1.48491,3.07927,-4.78659,-12.7134
359.65,25.1012,-6.70722,0,8.66997,11.2614,3.48715,-7.31707,-39.4207,-10.5183,-12.1188,-1.35079,-1.12566,10.7012,2.89634,-8.35366
359.66,25.7971,-6.47604,0,12.7463,9.60163,1.06578,-0.426829,-32.0732,14.0549,-11.7883,-0.0383203,-0.213157,15.0305,2.16463,-1.12805
359.67,26.5487,-6.34517,0,12.4014,9.34297,-2.15312,24.4207,-6.03659,21.1585,-11.0458,0.737666,-0.61073,15.3963,4.69512,6.12805
359.68,26.7422,-6.22934,0,5.59477,11.362,-4.01645,31.0976,40.2744,20.4268,-10.9907,1.08015,-0.64905,17.1951,8.29268,9.96951
359.69,26.1481,-6.06882,0,-0.969983,10.9285,-1.06339,18.5671,56.372,4.66463,-11.4027,1.2526,-0.421523,17.7744,11.8293,9.39024
359.7,24.9839,-5.88158,0,-3.96376,8.58375,2.30161,12.622,19.6951,-14.8476,-11.6685,1.6334,-0.258662,16.4024,14.2683,6.95122
359.71,23.4545,-5.62014,0,-4.46432,6.42344,2.89558,20.7927,-38.7195,-34.0549,-11.6039,2.1627,0.162861,12.7134,16.9207,4.66463
359.72,22.2538,-5.29426,0,-1.44899,6.47374,0.778381,27.3171,-76.3719,-48.9024,-11.2135,2.48603,0.529299,6.98171,18.8415,4.29878
359.73,21.6935,-4.88529,0,2.88121,7.50839,-0.989143,30,-79.1159,-54.6037,-10.8183,2.27527,0.972378,0.0304878,20.7927,4.11585
359.74,21.3207,-4.38877,0,4.89781,9.2807,-3.35782,30.8537,-54.3902,-50.5488,-10.6411,1.52802,1.44899,-6.92073,20.4573,3.68902
359.75,20.9253,-3.82748,0,4.96488,10.792,-4.4739,32.622,-29.1159,-47.2561,-10.6363,0.680186,1.85135,-13.9939,17.8963,1.15854
359.76,20.3415,-3.19767,0,3.28597,11.6781,-2.92911,33.3841,-17.561,-48.9329,-10.6722,-0.0263452,2.29682,-20,13.9024,-2.22561
359.77,19.6252,-2.56916,0,2.11001,11.4793,-1.28134,28.1402,-9.26829,-52.8354,-10.4255,-0.495769,2.3543,-25.122,10.4878,-4.35976
359.78,18.9086,-1.95564,0,2.14833,10.483,-1.06578,24.9695,1.46341,-56.7073,-9.96328,-0.996328,2.29203,-28.9939,7.86585,-5.09146
359.79,18.253,-1.38137,0,2.65608,10.0543,-1.4442,19.7561,12.4695,-58.5061,-9.42201,-1.38193,2.09804,-31.0061,7.0122,-4.78659
359.8,17.5908,-0.836222,0,2.3567,9.59684,-1.69567,15.9451,16.7378,-58.4756,-8.98372,-1.52323,1.9735,-32.3476,7.2561,-2.92683
359.81,16.8087,-0.366289,0,1.21427,9.41722,-1.9256,13.689,14.7866,-58.9024,-8.74901,-1.41546,1.70765,-32.439,7.65244,-0.243902
359.82,15.8479,0.0370273,0,-0.251477,9.49386,-1.56395,12.0732,6.12805,-60.6402,-8.7538,-1.3005,1.52084,-31.372,8.87195,2.95732
359.83,14.7694,0.336124,0,-1.29331,9.53936,-1.26936,10.6098,-8.75,-61.9512,-9.03641,-1.22625,1.21188,-29.6037,10.0305,4.7561
359.84,13.683,0.532997,0,-1.56395,9.59445,-1.46575,10.122,-24.939,-61.8293,-9.41243,-1.18793,0.883762,-26.6768,11.4024,5.4878
359.85,12.6584,0.66532,0,-1.36756,9.55613,-1.42264,10.6707,-42.378,-60,-9.78126,-1.2981,0.673001,-23.4451,12.439,4.84756
359.861,11.7785,0.768606,0,-0.617915,10.0423,-2.51477,8.84146,-53.2927,-56.7683,-10.1118,-1.49449,0.589175,-19.5427,12.3476,2.56098
359.87,11.0122,0.843526,0,0.100591,9.75491,-2.52435,9.81707,-61.1585,-55.3659,-10.1788,-1.50168,0.483794,-16.8598,12.2561,0.365854
359.88,10.2988,0.894157,0,0.237107,9.72857,-2.5028,9.69512,-70.9756,-53.1707,-10.174,-1.48252,0.387993,-15.1524,12.5,-0.792683
359.89,9.66778,0.95021,0,0.778381,9.71899,-2.39023,10.1524,-72.4695,-52.7134,-10.0112,-1.36756,0.414338,-14.0549,12.1951,-1.43293
359.9,9.09422,0.992257,0,1.1065,9.74773,-2.17947,9.17683,-73.5366,-52.0122,-9.74533,-1.26697,0.352068,-14.6646,11.5244,-1.61585
359.91,8.58603,1.02244,0,1.50168,9.80521,-1.93039,7.7439,-69.8781,-51.0671,-9.55852,-1.08255,0.301772,-16.128,10.8841,-1.0061
359.92,8.1505,1.04909,0,2.05253,9.65911,-2.04774,6.06707,-59.2988,-51.4024,-9.44356,-0.936453,0.287402,-17.4695,9.66463,0.152439
359.93,7.71477,1.07045,0,1.87051,9.45314,-2.04535,5.09146,-56.6159,-50.6707,-9.26154,-0.780776,0.263452,-19.2988,8.35366,1.82927
359.94,7.29236,1.07738,0,1.88488,9.15616,-2.33275,4.48171,-48.872,-51.0976,-9.20885,-0.677791,0.205972,-20.7622,7.31707,3.9939
359.95,6.85895,1.04995,0,1.71962,9.01964,-2.38065,5.06098,-44.2683,-51.372,-9.1346,-0.64426,0.0670605,-21.4634,6.37195,5.09146
359.96,6.41499,1.00643,0,1.56395,8.98132,-2.51238,4.72561,-38.7195,-51.4634,-9.11784,-0.65384,0,-22.0122,5.18293,6.03659
359.97,5.95269,0.933178,0,1.37714,8.80409,-2.45969,5.2439,-33.3841,-52.2256,-9.06754,-0.775986,-0.114961,-22.1646,4.29878,6.03659
359.98,5.49526,0.847697,0,1.36756,8.79691,-2.26808,6.92073,-25.3354,-52.561,-9.0388,-0.946033,-0.146096,-22.1646,3.29268,5.15244
359.99,5.03918,0.746843,0,1.3484,8.76577,-2.22976,8.44512,-18.0793,-53.1707,-8.98372,-1.14721,-0.189207,-21.9207,2.89634,4.81707
360,4.59242,0.651649,0,1.37474,8.88073,-2.12438,8.17073,-14.5427,-53.2622,-8.943,-1.35319,-0.129331,-21.4024,2.10366,3.5061
360.01,4.17238,0.471582,0,1.50886,8.78254,-2.0214,8.44512,-9.5122,-53.3841,-8.82804,-1.45378,-0.174836,-21.0366,1.09756,3.23171
360.02,3.74158,0.065435,0,1.34361,8.7035,-2.11241,9.29878,-6.09756,-53.3537,-8.82086,-1.4921,-0.268242,-20.6098,0.213415,3.2622
360.03,3.27681,-0.288683,0,1.00591,8.69153,-2.07169,9.54268,-2.07317,-53.2622,-8.81607,-1.44899,-0.328118,-19.8171,-0.396341,3.81098
360.04,2.78268,-0.678618,0,0.622705,8.74901,-1.98308,9.63415,-2.2561,-52.0427,-8.75859,-1.35079,-0.464634,-19.8171,-0.640244,5.30488
360.05,2.29316,-1.28335,0,0.507744,8.8472,-1.79147,11.25,-4.2378,-50.9756,-8.72506,-1.30768,-0.637075,-18.9024,-0.396341,6.7378
360.06,1.79144,-1.85905,0,0.306563,8.81846,-1.85375,11.4329,-6.0061,-50.5793,-8.66997,-1.28852,-0.66821,-17.9878,-0.365854,8.29268
360.07,1.28929,-2.24637,0,0.275427,8.63644,-2.03577,12.2256,-7.43902,-51.311,-8.51908,-1.22625,-0.641865,-17.5915,-0.731707,9.90854
360.08,0.830054,-2.84646,0,0.661025,8.54064,-2.24413,14.0244,-8.35366,-53.2622,-8.33706,-1.07536,-0.725691,-16.8598,-0.487805,11.5549
360.09,0.410028,-3.94003,0,0.919688,8.47118,-2.49082,15.6098,-0.365854,-53.811,-8.2221,-1.01549,-0.866997,-16.128,-0.0304878,12.5
360.1,-0.0190256,-4.34387,0,0.931663,8.98132,-2.32317,17.2866,5.7622,-55.0305,-8.21252,-1.03465,-1.32924,-15.3354,2.16463,12.9878
360.11,-0.522424,-4.66839,0,0.368833,9.56092,-1.97589,15.8841,11.128,-55.9146,-8.40173,-1.1544,-1.81303,-13.4756,4.96951,12.622
360.12,-1.08988,-4.9978,0,-0.107776,10.0279,-1.72681,13.689,16.9512,-57.7134,-8.79451,-1.40588,-2.019,-11.128,7.34756,11.4329
360.13,-1.70569,-5.30217,0,-0.622705,10.3704,-1.41067,10.4878,7.22561,-58.0488,-9.07952,-1.84896,-2.03577,-8.20122,8.62805,10.2744
360.14,-2.34062,-5.57584,0,-0.883762,10.301,-1.17835,7.95732,-2.95732,-58.2622,-9.27591,-2.09804,-1.99984,-5.18293,9.02439,10.0915
360.15,-2.91427,-5.85524,0,-0.450264,9.82437,-1.42504,6.40244,-8.38415,-57.9573,-9.31184,-2.31119,-2.07888,-2.19512,9.02439,11.128
360.16,-3.39663,-6.17428,0,0.148491,9.41722,-1.37474,3.38415,-13.3537,-57.0122,-9.24238,-2.3064,-2.28006,1.92073,10.8537,12.9573
360.17,-3.77343,-6.46865,0,0.646655,9.22083,-1.73878,1.0061,-12.5915,-53.5671,-9.38848,-2.17468,-2.26329,6.03659,10.8537,15.4573
360.18,-4.08494,-6.66317,0,0.766406,9.22801,-2.46448,-0.396341,-14.6951,-49.1768,-9.64953,-1.93518,-1.93278,10.2744,10.9756,16.9207
360.19,-4.3636,-6.7444,0,0.608335,9.4747,-2.692,-1.0061,-22.3476,-44.2683,-10.119,-1.71723,-1.54239,12.6829,9.63415,17.5305
360.2,-4.5513,-6.82412,0,1.03465,9.53218,-3.23567,-2.83537,-19.8476,-40.7012,-10.2483,-1.43222,-1.57113,14.2683,8.29268,17.439
360.21,-4.66447,-6.81989,0,1.2981,9.39566,-3.15664,-4.63415,-17.2256,-36.8902,-10.5692,-1.32684,-1.23823,14.5732,7.16463,16.2195
360.22,-4.72105,-6.79074,0,1.43462,9.59205,-2.78062,-5.4878,-14.9085,-32.6524,-10.495,-1.1041,-1.11368,14.0244,5.73171,14.6646
360.23,-4.70388,-6.79994,0,1.74836,9.82437,-3.18777,-7.19512,-13.5061,-28.4756,-10.4207,-0.886157,-1.27894,13.3537,4.96951,14.1159
360.24,-4.68425,-6.96172,0,1.53042,9.95849,-3.09197,-7.86585,-9.42073,-25.4268,-10.2004,-0.63947,-1.95434,12.378,7.31707,14.6037
360.25,-4.69656,-7.2483,0,1.08255,10.0327,-3.03209,-8.23171,-4.32927,-23.3841,-9.99202,-0.570015,-2.51717,12.5305,11.9207,15.8841
360.26,-4.74732,-7.52413,0,0.555645,10.2004,-2.85007,-9.72561,-4.42073,-21.128,-10.1333,-0.62989,-2.55309,13.0488,14.6341,16.4329
360.27,-4.77449,-7.7395,0,0.55804,10.5189,-2.78541,-11.8902,-8.81098,-18.6585,-10.6818,-0.869392,-2.44292,13.689,16.311,15.6098
360.28,-4.71255,-7.79572,0,1.17116,10.7105,-3.18538,-13.7805,-13.0488,-16.1585,-11.3859,-0.974773,-1.82021,13.1098,15.4268,13.628
360.29,-4.55544,-7.76493,0,1.77471,10.7872,-3.33866,-15.6098,-15.0915,-12.6524,-12.3894,-0.917292,-1.51126,12.0732,12.8659,10.3049
360.3,-4.28291,-7.80041,0,2.58183,10.962,-3.45362,-17.3476,-13.1707,-8.53659,-12.7199,-0.64905,-1.9232,9.63415,12.7744,6.85976
360.31,-3.89113,-7.8074,0,3.20214,10.8303,-3.26681,-19.4207,-7.92683,-2.9878,-12.8301,-0.730481,-1.7795,6.52439,16.2805,3.07927
360.32,-3.39567,-7.69259,0,3.69073,10.9189,-3.06083,-22.6829,-4.87805,4.35976,-12.8996,-0.965193,-1.08734,2.89634,18.1707,-0.518293
360.33,-2.81158,-7.5197,0,3.85838,11.1416,-2.82373,-27.622,0.243902,13.689,-12.4733,-0.984353,-0.704136,1.09756,19.3293,-2.31707
360.34,-2.16631,-7.2847,0,3.6045,11.5679,-2.29682,-32.622,5.45732,24.7866,-12.3751,-0.852627,-0.320933,1.64634,20.1524,-2.62195
360.35,-1.49217,-7.01275,0,2.82373,11.8074,-1.43222,-37.8963,6.82927,36.9207,-11.7332,-0.378413,-0.0646655,2.53049,20.5183,0.579268
360.36,-0.779632,-6.66098,0,2.019,11.5464,-0.795146,-42.1037,9.5122,49.4207,-11.6015,-0.138911,0.397573,2.89634,18.628,3.35366
360.37,-0.00912614,-6.30316,0,1.3963,11.1536,-0.0311353,-46.8902,10.3963,62.4695,-11.3284,-0.265847,0.486189,4.29878,16.7378,5
360.38,0.83026,-5.99346,0,0.864602,10.5788,0.969983,-52.5305,6.12805,76.0976,-11.1943,-0.66821,0.311353,8.17073,15.2439,4.32927
360.39,1.79359,-5.70568,0,0.646655,10.3297,1.31008,-59.8171,-0.213415,92.6829,-10.6674,-0.900527,0.251477,13.9024,15.5183,1.95122
360.4,2.82994,-5.44425,0,0.100591,9.73096,1.2526,-65.0305,-9.05488,108.201,-9.97526,-1.13284,0.170046,21.1585,16.25,-1.31098
360.41,3.89116,-5.14396,0,-0.821492,9.70941,0.510139,-64.5427,-24.2073,123.933,-9.79563,-1.30289,0.378413,28.811,14.878,-4.5122
360.42,4.97926,-4.78808,0,-1.50407,10.0687,-0.158071,-61.128,-36.8902,136.311,-9.77886,-1.38193,0.665815,35.9146,10.6098,-7.28659
360.43,6.04346,-4.37865,0,-2.17228,10.9836,-0.821492,-54.7866,-48.4451,141.585,-9.94412,-1.25499,0.962798,41.0061,5.7622,-8.20122
360.44,7.02549,-3.85159,0,-2.89558,11.8697,-1.16637,-48.628,-62.5915,140.518,-10.1764,-0.740061,1.13284,42.8963,1.64634,-6.34146
360.45,7.99714,-3.24634,0,-2.46927,12.3535,-1.30768,-41.6463,-71.5854,136.555,-10.2962,-0.0479004,1.16398,42.439,-0.853659,-2.22561
360.46,9.00459,-2.73561,0,-1.33642,12.6457,-1.13763,-36.0061,-75.5793,131.433,-10.0088,0.570015,1.12326,39.7256,-1.4939,3.96341
360.47,10.0783,-2.26251,0,-0.0502954,12.4996,-1.0083,-30.3049,-70.4878,128.415,-10.1525,1.26936,1.3484,34.878,-2.0122,9.63415
360.48,11.2589,-1.54288,0,1.26936,11.6853,-0.637075,-22.9268,-61.5549,128.384,-9.96328,1.81782,1.05141,28.872,-0.121951,14.1159
360.49,12.4831,-0.985419,0,2.00224,10.9931,-0.179626,-13.0488,-51.372,126.829,-9.75012,2.15552,0.941243,22.439,0.457317,17.1037
360.5,13.7198,-0.75583,0,2.76146,11.1919,-0.0622705,-2.68293,-40.0915,123.384,-9.41482,1.98308,0.543669,16.0366,1.89024,18.5061
360.51,14.9742,-0.618722,0,3.24525,11.1033,-0.0431104,5.4878,-24.4817,122.744,-9.21364,1.45138,0.332908,11.6463,2.62195,17.1951
360.52,16.2079,-0.593155,0,3.35542,10.4878,-0.0742456,11.2805,-4.42073,120.244,-9.21364,0.730481,-0.0167651,9.96951,2.5,14.5427
360.53,17.3401,-0.66739,0,2.80217,9.96568,-0.100591,16.2805,15.8537,116.555,-9.35016,0.205972,-0.285007,11.372,1.61585,12.2866
360.54,18.352,-0.863664,0,2.24174,9.69504,-0.275427,21.7683,31.8902,112.073,-9.58247,-0.0335303,-0.550855,13.3537,1.0061,11.4024
360.55,19.335,-1.30476,0,2.6441,9.7118,-0.66342,25.2744,48.3537,106.677,-9.7118,-0.189207,-0.775986,16.4329,-0.0304878,11.5244
360.56,20.227,-1.535,0,2.50759,9.82197,-0.773591,25.4268,64.0549,101.25,-9.70941,-0.320933,-0.862207,19.2073,-1.34146,12.5
360.57,21.1035,-1.69895,0,2.88839,9.90101,-0.890947,24.9085,82.3171,97.5305,-9.52978,-0.299377,-0.833467,21.4329,-2.53049,13.689
360.58,21.8945,-1.81811,0,2.61776,9.90341,-0.433499,25,92.9268,93.5671,-9.24957,-0.160466,-0.732876,22.8963,-3.87195,14.5122
360.59,22.5915,-1.9224,0,2.4549,9.8124,-0.383203,24.0854,106.433,87.1341,-8.98851,0.102986,-0.692161,22.7439,-5.03049,14.9695
360.6,23.2023,-1.98195,0,2.34712,9.52499,-0.402363,24.4817,119.573,80.1829,-8.87355,0.385598,-0.531694,22.2561,-5.67073,15.0305
360.61,23.6316,-2.00112,0,1.55676,9.34776,-0.172441,22.5,121.677,71.8598,-8.83523,0.754431,-0.385598,20.7012,-7.07317,14.6037
360.62,23.9385,-2.02668,0,1.31966,9.05078,-0.538879,17.9268,134.451,62.622,-8.88792,1.20948,-0.416733,17.8049,-7.86585,14.6037
360.63,23.9306,-2.06572,0,-0.541274,8.81128,-0.213157,12.1646,125.762,55.2134,-8.8975,1.56634,-0.474214,14.4512,-8.01829,14.9695
360.64,23.8546,-2.08406,0,-0.66342,8.45202,-0.0694556,5.94512,118.872,50.2439,-9.02204,1.88009,-0.404758,10.9756,-8.14024,15.8537
360.65,23.6488,-2.13318,0,-1.33882,7.58742,0.282612,6.46341,110.976,48.1098,-9.12981,1.96152,-0.536484,6.82927,-8.04878,15.7317
360.66,23.2418,-2.20796,0,-2.38544,7.30002,0.256267,13.628,95.2134,43.6585,-9.14897,1.89207,-0.64905,3.14024,-7.80488,14.7866
360.67,22.5435,-2.28793,0,-4.25834,7.15392,0.852627,17.3171,69.5122,38.9634,-9.21843,1.58071,-0.687371,-0.335366,-7.92683,13.2317
360.68,21.8906,-2.39265,0,-3.54702,6.92161,0.222737,22.378,51.8902,34.7561,-9.27831,1.28852,-0.807122,-3.65854,-8.32317,10.4878
360.69,21.1945,-2.5263,0,-3.49912,7.33355,0.416733,19.4512,17.9573,25.7012,-9.24717,0.984353,-0.941243,-5.51829,-9.17683,8.20122
360.7,20.4956,-2.65143,0,-2.77583,6.8761,0.579595,21.189,-5.42683,16.7988,-9.22801,0.756826,-0.926873,-7.16463,-10.0915,5.33537
360.71,19.807,-2.79564,0,-2.10522,6.88568,0.728086,23.811,-25.9756,7.43902,-9.11305,0.584385,-1.01309,-7.46951,-10.2744,3.62805
360.72,17.883,-3.00957,0,-1.84656,6.86413,0.819097,27.378,-49.2683,-2.80488,-8.89271,0.455054,-1.28852,-8.04878,-9.69512,2.34756
360.73,17.2873,-3.26704,0,-0.464634,6.79946,0.778381,34.3293,-68.6281,-16.311,-8.7514,0.443079,-1.46815,-8.41463,-7.22561,1.98171
360.74,16.6994,-3.56192,0,0.366438,6.93119,0.589175,36.8293,-81.1281,-30.8841,-8.69871,0.502954,-1.61185,-9.14634,-5.03049,2.0122
360.75,16.1635,-3.88071,0,1.31487,6.90963,0.761616,33.628,-87.2866,-42.5915,-8.82325,0.570015,-1.61664,-9.81707,-3.20122,2.04268
360.76,15.7902,-4.3265,0,3.00814,7.27128,1.06818,24.6951,-81.3415,-50.9756,-8.87355,0.56283,-1.70286,-10.1524,-1.92073,2.07317
360.77,15.5356,-5.61259,0,5.04152,8.20055,1.13524,13.2012,-68.1707,-58.2012,-8.9454,0.589175,-1.80345,-10.5488,-0.0304878,1.52439
360.78,15.3344,-6.04236,0,6.66294,9.16334,0.189207,3.32317,-56.3415,-62.3476,-9.06036,0.57241,-2.11241,-11.5244,1.98171,0.762195
360.79,15.225,-6.34336,0,8.13109,9.83635,-0.869392,-8.32317,-38.3841,-60.6402,-9.46033,0.536484,-2.21539,-11.6768,3.53659,-0.426829
360.8,15.2424,-6.54747,0,9.34776,10.1237,-0.931663,-18.75,-17.9878,-54.3293,-9.83395,0.543669,-1.92799,-10,2.95732,-0.396341
360.81,15.4299,-6.76124,0,9.85311,9.54655,-0.740061,-11.2805,-11.6463,-43.4451,-10.2411,0.512534,-1.70525,-7.92683,0.243902,0.701219
360.82,15.8157,-6.90001,0,11.0913,9.29507,-1.95434,11.372,-9.39024,-31.25,-10.4207,0.340093,-1.75794,-5.60976,-1.31098,2.71341
360.83,16.3241,-7.02075,0,11.9703,9.5226,-3.17819,25.8841,11.1585,-20.9451,-10.4567,0.0790356,-1.79866,-3.68902,-2.53049,4.42073
360.84,16.8489,-7.11101,0,11.0913,10.2722,-3.18059,19.878,36.4329,-9.45122,-10.5093,-0.114961,-1.71483,-1.34146,-3.62805,5.54878
360.85,17.4193,-7.21976,0,9.58966,10.5093,-2.71356,12.7134,52.1646,6.09756,-10.3417,-0.102986,-1.78908,0.243902,-3.78049,6.25
360.86,18.1241,-7.37306,0,9.07952,10.1932,-2.18426,13.9329,61.2195,22.378,-10.1381,0.0550855,-1.94236,0.914634,-2.80488,6.4939
360.87,18.9632,-7.74607,0,8.24126,9.10347,-1.06339,24.0549,70.4268,36.5854,-9.99442,0.294587,-2.24653,-1.15854,0.487805,5.82317
360.88,19.8023,-7.94818,0,6.75156,8.07601,-0.239502,38.4756,68.6585,42.8963,-9.99202,0.584385,-2.25611,-4.7561,4.08537,4.45122
360.89,20.4206,-8.14624,0,5.15648,8.12391,0.229922,44.7256,53.9939,37.378,-10.1573,0.977168,-2.32796,-9.26829,6.21951,2.2561
360.9,20.6418,-8.25435,0,3.42967,8.74661,1.05141,46.3415,38.1402,20.5488,-10.6794,1.3939,-2.04535,-12.9268,6.21951,1.15854
360.91,20.4029,-8.30392,0,1.95913,10.4088,1.56395,50.6098,26.6463,-3.5061,-11.1608,1.35319,-1.86333,-14.0244,4.48171,1.28049
360.92,19.8236,-8.35351,0,0.778381,12.0278,1.42504,55.1829,18.5366,-25.0305,-11.4602,0.835862,-1.9232,-13.2317,3.41463,2.77439
360.93,19.0916,-8.46495,0,-0.225132,12.3008,1.66693,51.0061,-0.97561,-32.1037,-11.6781,0.0574805,-2.29922,-10.5793,5.2439,6.79878
360.94,18.4741,-8.63178,0,0.826282,12.3966,1.52323,29.1768,-17.622,-31.8293,-12.1571,-0.57241,-2.72553,-6.34146,8.35366,11.0366
360.95,18.1007,-8.81722,0,3.07281,11.5153,0.560435,1.21951,-14.4207,-30.8841,-12.4325,-0.862207,-2.92911,-0.548781,11.6159,14.2378
360.96,18.0053,-8.79856,0,5.12295,10.4854,0.340093,0.487805,0.396341,-25.9451,-12.7199,-0.919688,-1.85375,4.87805,10.9756,14.7866
360.97,18.214,-8.55401,0,7.16111,9.86748,-0.66342,23.2317,16.4024,-15.3659,-12.6289,-0.57241,-0.570015,5.54878,7.89634,13.811
360.98,18.3095,-8.28685,0,6.17676,11.1368,-3.83203,40.9451,46.9512,-12.2866,-12.1308,-0.287402,-0.376018,5.70122,6.79878,11.6463
360.99,17.9425,-7.96896,0,1.81063,12.1332,-4.15296,19.7866,65.6402,-17.4085,-11.5344,0.0718506,-0.0455054,6.46341,7.13415,9.84756
361,17.2081,-7.55611,0,-1.1041,9.8076,-0.802332,15.1524,44.2683,-25.2134,-11.0506,0.723296,0.481399,4.96951,8.04878,10.5488
361.01,16.129,-7.05798,0,-2.96982,8.92624,1.07057,14.2378,12.1341,-37.439,-10.768,1.26457,0.953218,0.182927,7.89634,11.5854
361.02,14.7198,-6.42036,0,-4.34936,8.26042,0.929268,16.0976,-15.9451,-54.2073,-10.5165,1.53281,1.67412,-7.7439,6.06707,12.4085
361.03,13.4724,-5.7104,0,-2.22258,8.11912,-0.452659,12.6524,-42.439,-66.0061,-10.095,1.40348,2.04535,-16.8598,5.4878,12.0427
361.04,12.6085,-4.6021,0,0.811912,7.92751,-2.49082,13.811,-50.4878,-72.5915,-9.64474,1.24781,2.4525,-26.4024,1.37195,12.5305
361.05,11.9067,-3.71982,0,2.04535,9.27831,-3.71707,16.0061,-35.0305,-71.25,-9.45554,1.1041,2.52675,-35.6402,-2.62195,12.9878
361.06,11.1748,-3.03718,0,1.79866,11.6135,-4.05716,13.811,-18.9024,-68.3537,-9.62558,0.828677,2.29682,-41.311,-6.09756,13.811
361.07,10.3611,-2.51385,0,0.641865,11.6158,-3.45362,7.71341,-6.12805,-66.6768,-10.1333,0.325723,1.81063,-43.4451,-9.2378,14.1159
361.08,9.50297,-2.16843,0,-0.0766406,10.3153,-2.87881,7.31707,3.84146,-65.5488,-10.6818,-0.395178,1.152,-41.8293,-10.7927,12.9573
361.09,8.60691,-1.97564,0,-0.486189,9.60642,-2.89558,8.59756,2.65244,-66.1281,-10.9165,-1.07057,0.505349,-37.9878,-10,11.128
361.1,7.80816,-1.87072,0,0.122146,9.04838,-3.28357,9.26829,2.89634,-65.5183,-11.1081,-1.83458,0.122146,-31.7378,-8.81098,7.86585
361.11,6.89321,-1.8481,0,-0.907712,8.61489,-2.61297,11.0061,-20.5183,-65.1524,-11.0123,-2.49561,-0.256267,-24.7866,-6.7378,3.96341
361.12,6.00547,-1.85756,0,-0.967588,8.82565,-2.32077,11.8293,-34.7256,-63.75,-10.3968,-2.67524,-0.383203,-18.0793,-5.06098,0.396341
361.13,5.14659,-1.83479,0,-0.914897,9.21364,-2.19144,10.8537,-48.5061,-63.811,-9.81719,-2.3567,-0.225132,-13.3841,-4.63415,-1.64634
361.14,4.26056,-1.76643,0,-1.2023,9.59684,-1.75555,8.65854,-60.8232,-65.3354,-9.52499,-1.89686,-0.0263452,-10.1524,-5,-2.92683
361.15,3.42009,-1.67952,0,-0.910107,9.89383,-1.94236,5.54878,-66.9512,-66.3415,-9.4747,-1.26697,0.0622705,-9.45122,-5.39634,-2.71341
361.16,2.67528,-1.64246,0,-0.256267,10.1429,-2.10043,2.22561,-73.6281,-66.0671,-9.65193,-0.749641,-0.131726,-10,-5.06098,-2.89634
361.17,2.05522,-1.64766,0,0.514929,10.0782,-2.29203,-0.121951,-78.0183,-63.7805,-9.81,-0.301772,-0.306563,-10.9756,-4.11585,-2.95732
361.18,1.57309,-1.67819,0,1.41306,9.62798,-2.52914,-1.70732,-75,-62.0427,-9.76449,-0.0838257,-0.409548,-12.4695,-3.75,-2.71341
361.19,1.12233,-1.70749,0,1.45138,9.12981,-2.31598,-1.61585,-71.6768,-61.2195,-9.48428,0.0502954,-0.399968,-13.7805,-4.35976,-2.28659
361.2,0.691911,-1.74539,0,1.54,8.75859,-2.3567,-0.0609756,-61.2805,-61.9817,-9.13939,0.0814307,-0.426313,-15.4573,-5.21341,-1.25
361.21,0.245573,-1.79693,0,1.41785,8.49274,-2.50519,1.46341,-48.6585,-63.4756,-8.84002,-0.112566,-0.469424,-16.5854,-5.27439,-0.426829
361.22,-0.207087,-1.82152,0,1.33882,8.31311,-2.43573,2.68293,-40,-64.3598,-8.63644,-0.366438,-0.368833,-17.1341,-6.61585,0.182927
361.23,-0.66109,-1.8593,0,1.28373,8.32748,-2.52675,4.29878,-33.1402,-64.6341,-8.57177,-0.656235,-0.421523,-17.2256,-8.32317,0.0304878
361.24,-1.12934,-1.91533,0,1.1041,8.60291,-2.52914,4.96951,-25.6402,-64.0549,-8.42328,-0.881367,-0.488584,-16.6768,-9.39024,-0.518293
361.25,-1.63201,-2.00219,0,0.747246,8.79691,-2.39741,5.85366,-21.2195,-63.5061,-8.33467,-1.08494,-0.60594,-15,-10.0915,-1.0061
361.26,-2.13145,-2.13877,0,0.651445,8.90229,-2.11959,6.52439,-22.1951,-62.8354,-8.25803,-1.29331,-0.795146,-12.622,-10.0915,-1.40244
361.27,-2.61045,-2.31892,0,0.66821,8.97174,-1.97589,6.52439,-21.1585,-61.9207,-8.23647,-1.50647,-0.972378,-9.7561,-9.60366,-1.70732
361.28,-3.05542,-2.52728,0,0.778381,8.943,-1.84896,6.79878,-23.6585,-60.8841,-8.2724,-1.62861,-1.1065,-6.58537,-8.81098,-1.12805
361.29,-3.47946,-2.72738,0,0.790356,9.01964,-1.70525,7.53049,-27.5,-59.7256,-8.27719,-1.62622,-1.1065,-3.23171,-8.44512,0.670732
361.3,-3.86421,-2.9096,0,0.929268,9.00527,-1.84656,7.62195,-28.2927,-58.3841,-8.29156,-1.60466,-1.07057,-0.335366,-7.9878,3.38415
361.31,-4.23652,-3.10104,0,0.910107,8.91426,-1.99026,6.95122,-28.0488,-57.7744,-8.25324,-1.56395,-1.12566,2.07317,-7.7439,5.97561
361.32,-4.58156,-3.25789,0,0.993933,8.87834,-2.15552,5.42683,-23.4146,-56.8902,-8.29395,-1.39869,-1.02986,3.38415,-7.31707,8.81098
361.33,-4.91779,-3.41673,0,0.953218,8.9933,-2.02379,4.14634,-19.9085,-56.0061,-8.39933,-1.24302,-1.07057,4.35976,-6.58537,10.8841
361.34,-5.23011,-3.54742,0,0.991538,9.13939,-1.98787,3.10976,-19.1768,-54.5427,-8.53106,-0.993933,-1.00591,4.32927,-6.70732,12.5
361.35,-5.50735,-3.75103,0,1.16637,9.46991,-2.28964,3.93293,-15.3354,-53.2927,-8.52627,-0.732876,-1.28852,4.08537,-5.54878,13.75
361.36,-5.79188,-4.12203,0,1.03704,9.78366,-2.4046,4.66463,-12.9573,-52.622,-8.57177,-0.732876,-1.62622,4.08537,-2.80488,14.1463
361.37,-6.09799,-5.22566,0,0.809517,9.77886,-2.4046,3.5061,-10.6098,-52.7134,-8.54303,-0.847837,-2.17947,5.2439,1.06707,13.5061
361.38,-6.4145,-5.67206,0,0.704136,9.68067,-2.28964,2.34756,-6.61585,-53.2317,-8.55022,-1.11608,-2.5028,6.85976,5.79268,12.378
361.39,-6.7343,-6.05994,0,0.474214,9.65193,-2.23934,0.487805,-6.18902,-51.4634,-8.7538,-1.45378,-2.41418,9.2378,9.05488,11.5549
361.4,-6.97784,-6.35053,0,0.948428,9.9058,-2.22258,-1.4939,-11.9207,-49.7561,-9.14658,-1.79147,-2.16989,11.8293,10.4268,10.3354
361.41,-7.16675,-6.58385,0,1.23583,9.9561,-2.54112,-3.23171,-14.0549,-47.9573,-9.53936,-1.85375,-2.05972,13.5671,11.7378,9.87805
361.42,-7.29504,-6.65775,0,1.46815,9.89622,-2.77583,-4.26829,-18.6585,-44.939,-10.1094,-1.54,-1.4921,14.0854,10.9451,10.122
361.43,-7.34816,-6.74767,0,1.79626,9.74773,-2.89797,-5.12195,-22.3476,-41.6159,-10.5333,-1.12087,-1.64538,13.5061,10.0915,11.3415
361.44,-7.30835,-6.76872,0,2.11959,9.35734,-3.20693,-7.53049,-23.2622,-36.9817,-10.9069,-0.840652,-1.38432,11.9207,9.29878,12.5
361.45,-7.18523,-6.70794,0,2.23216,9.12742,-3.21412,-8.65854,-20.2134,-30.3963,-11.0099,-0.768801,-1.00112,8.53659,7.77439,12.0122
361.46,-6.98117,-6.70399,0,2.47406,9.31184,-3.67396,-10.3354,-18.2622,-24.2073,-10.847,-0.826282,-1.2502,5.27439,6.76829,10.9451
361.47,-6.70683,-6.88504,0,2.59141,9.14658,-3.86796,-12.8354,-9.11585,-18.5366,-10.2962,-0.819097,-2.04535,3.71951,7.80488,10.3659
361.48,-6.41371,-7.22968,0,2.33514,9.19209,-3.42727,-12.6829,-1.76829,-12.8659,-9.74533,-0.701741,-2.70877,4.5122,10.9756,10.9451
361.49,-6.13167,-7.54481,0,1.86093,9.59445,-2.84528,-11.0061,2.65244,-6.76829,-9.73815,-0.878972,-2.63213,7.28659,12.622,11.8902
361.5,-5.82593,-7.80442,0,1.62143,10.2291,-2.5028,-10.6402,1.95122,-2.31707,-10.2794,-1.21667,-2.56986,10.8232,12.9878,12.1646
361.51,-5.49554,-7.92198,0,1.71483,10.9021,-2.61297,-11.3415,-2.89634,2.7439,-10.9788,-1.55676,-2.07648,13.3537,12.7134,10.8537
361.52,-5.08792,-8.04569,0,2.17228,11.2853,-2.80936,-15.061,-5.54878,8.14024,-11.6805,-1.70765,-2.26569,15.1829,13.872,7.53049
361.53,-4.59176,-8.23347,0,2.63452,11.5512,-2.7902,-20.5488,-7.10366,14.0244,-11.92,-1.60466,-2.68482,16.4939,19.0244,3.56707
361.54,-3.9801,-8.34655,0,3.14466,11.3476,-2.42855,-26.2195,-9.78659,21.4329,-12.023,-1.3963,-2.33035,17.8049,24.1768,-0.335366
361.55,-3.23373,-8.24403,0,3.59013,10.8494,-1.72681,-32.7134,-12.561,30.6707,-12.1906,-1.04902,-1.2023,18.3841,25.2744,-3.10976
361.56,-2.34364,-7.91262,0,4.06914,10.8542,-1.14242,-39.1768,-10,42.2866,-12.526,-0.397573,0.0502954,16.6463,21.25,-3.93293
361.57,-1.37444,-7.44913,0,3.88951,11.3524,-0.64426,-49.0244,-9.08537,55.5183,-12.8948,0.380808,0.871787,13.3841,15.3963,-1.70732
361.58,-0.406968,-6.93428,0,2.87642,11.9895,-0.749641,-66.6768,-1.06707,68.3841,-13.1966,1.1065,1.29571,8.20122,11.2195,0.701219
361.59,0.554898,-6.44277,0,1.66693,11.4793,0.256267,-79.9085,4.90854,80.4573,-13.551,1.46575,1.31008,3.65854,8.96341,1.67683
361.6,1.59727,-5.98001,0,1.17116,10.6291,2.50519,-78.4146,1.31098,94.6646,-13.3067,1.18553,1.22864,2.65244,6.67683,0.640244
