time,angle1,angle2,intgangle,accX1,accY1,accZ1,gyroX1,gyroY1,gyroZ1,accX2,accY2,accZ2,gyroX2,gyroY2,gyroZ2
147.866,66.3728,7.39136,0,8.62686,3.48715,3.54463,-0.27439,-0.457317,-1.4939,-9.79803,0.589175,1.2502,0.0304878,0.213415,5.97561
147.876,66.3315,7.38002,0,8.47358,3.87993,3.51828,0.0609756,-1.15854,-1.18902,-9.81,0.57241,1.2526,0.0304878,0.182927,5.7622
147.886,66.347,7.33843,0,8.64842,3.61648,3.47038,-0.0609756,-1.25,-1.31098,-9.77168,0.589175,1.19032,-0.0609756,0.27439,5.82317
147.896,66.3511,7.34029,0,8.72027,3.71468,3.4632,0.121951,-0.823171,-1.28049,-9.79323,0.5772,1.26457,0.152439,0.152439,5.57927
147.906,66.357,7.3362,0,8.66997,3.61887,3.44164,-0.182927,-0.365854,-1.92073,-9.78366,0.55804,1.2526,0.0914634,0.396341,5.51829
147.916,66.355,7.35502,0,8.6077,3.71228,3.37458,-0.304878,0.243902,-1.18902,-9.78605,0.5772,1.30529,-0.0304878,0.762195,5.91463
147.926,66.3584,7.33912,0,8.59333,3.64761,3.48236,-1.0061,-0.304878,-1.4939,-9.76689,0.55804,1.22864,-0.0914634,0.487805,5.79268
147.936,66.3611,7.35857,0,8.63165,3.67157,3.48715,-0.304878,-0.0609756,-1.43293,-9.80281,0.555645,1.3005,-0.0304878,0.335366,5.57927
147.946,66.3633,7.35051,0,8.63165,3.68594,3.40811,-0.152439,-0.121951,-1.31098,-9.83874,0.560435,1.25499,-0.0304878,0.335366,5.82317
147.956,66.3636,7.34987,0,8.7059,3.71947,3.38416,0.0609756,0.762195,-1.40244,-9.82916,0.560435,1.26697,-0.0304878,0.304878,5.97561
147.966,66.3674,7.34105,0,8.66758,3.69312,3.38656,0.0914634,0.640244,-1.28049,-9.81479,0.541274,1.2502,-0.0914634,0.213415,5.82317
147.976,66.3652,7.33813,0,8.67476,3.71707,3.40572,0.0914634,0.579268,-1.46341,-9.81958,0.589175,1.25978,-0.152439,0.27439,5.79268
147.986,66.3657,7.3812,0,8.65081,3.69791,3.44164,-0.213415,0.97561,-1.37195,-9.80521,0.555645,1.33403,-0.579268,-0.0609756,6.34146
147.996,66.3694,7.40386,0,8.65321,3.69791,3.45362,0.0609756,1.06707,-1.15854,-9.78605,0.584385,1.30768,-0.640244,0.182927,6.15854
148.006,66.3712,7.42148,0,8.67237,3.7051,3.46799,-0.182927,1.0061,-1.28049,-9.80281,0.57241,1.30529,-0.609756,0.182927,6.03659
148.016,66.3734,7.43782,0,8.61728,3.68833,3.50391,0.152439,1.21951,-1.18902,-9.76928,0.574805,1.3005,-0.701219,0.152439,6.03659
148.026,66.3702,7.42627,0,8.63405,3.71707,3.5111,0.0304878,1.21951,-1.31098,-9.82916,0.531694,1.26457,-0.945122,0,6.18902
148.036,66.3677,7.43276,0,8.60291,3.70749,3.5566,0.0914634,1.12805,-1.21951,-9.76928,0.536484,1.28373,-0.396341,-0.0609756,5.91463
148.046,66.3665,7.46224,0,8.6101,3.68354,3.51828,0.152439,1.09756,-1.46341,-9.75491,0.548459,1.32445,-0.396341,0.213415,6.28049
148.056,66.3571,7.44213,0,8.53585,3.7027,3.50391,0.0914634,1.15854,-1.4939,-9.76928,0.550855,1.24541,-0.0914634,-0.152439,6.21951
148.066,66.3576,7.42486,0,8.56459,3.66677,3.51589,0.365854,1.12805,-1.34146,-9.75731,0.543669,1.24541,-0.182927,-0.152439,6.31098
148.076,66.3539,7.41198,0,8.58136,3.68594,3.58295,0.0304878,0.792683,-1.4939,-9.74773,0.59636,1.24781,0.0609756,-0.213415,6.09756
148.086,66.3492,7.42425,0,8.58615,3.69073,3.54223,0.243902,0.640244,-1.55488,-9.7597,0.5772,1.29092,0.0304878,0.182927,6.21951
148.096,66.3415,7.3993,0,8.54303,3.68354,3.56858,0,0.548781,-1.67683,-9.80521,0.574805,1.23823,-0.182927,0,6.06707
148.106,66.3347,7.39316,0,8.57177,3.7027,3.57337,0.121951,0.945122,-1.52439,-9.81,0.56762,1.26218,-0.457317,0.365854,6.12805
148.116,66.3262,7.39459,0,8.56938,3.71468,3.44404,-0.0609756,0.640244,-1.52439,-9.78126,0.59157,1.27176,-0.213415,0.152439,6.12805
148.126,66.3205,7.3812,0,8.58136,3.70749,3.50631,-0.0304878,0.579268,-1.46341,-9.78844,0.5772,1.24302,-0.27439,0.487805,6.43293
148.136,66.3164,7.39121,0,8.58615,3.71707,3.53984,-0.27439,0.365854,-1.25,-9.79323,0.55325,1.28852,-0.0609756,0.365854,6.34146
148.146,66.3217,7.38678,0,8.53345,3.66917,3.56379,-0.213415,0.396341,-0.914634,-9.82437,0.5772,1.26697,-0.0609756,0.0914634,6.25
148.156,66.3199,7.39124,0,8.58136,3.70989,3.58295,-0.27439,0.121951,-1.12805,-9.82437,0.57241,1.28373,-0.27439,0.518293,5.94512
148.166,66.3203,7.39507,0,8.60052,3.71468,3.58295,-0.0304878,-0.121951,-1.0061,-9.83874,0.61552,1.28373,0.121951,0.243902,6.12805
148.176,66.3305,7.42503,0,8.62926,3.68114,3.52786,-0.0914634,-0.0914634,-0.914634,-9.79563,0.61073,1.33163,-0.0609756,0.396341,6.28049
148.186,66.3369,7.42361,0,8.6101,3.73384,3.55181,-0.243902,0.27439,-0.335366,-9.77647,0.58678,1.27176,-0.213415,0.213415,6.15854
148.196,66.3487,7.38928,0,8.63165,3.67396,3.49912,-0.27439,0.121951,-0.884146,-9.75731,0.550855,1.21188,-0.121951,0.213415,6.18902
148.206,66.3628,7.37884,0,8.56219,3.64282,3.48715,-0.518293,0.213415,-0.792683,-9.77886,0.565225,1.2502,-0.213415,0.182927,5.97561
148.216,66.3787,7.36887,0,8.60291,3.67157,3.5111,-0.365854,0.121951,-0.518293,-9.77168,0.536484,1.24781,-0.0609756,0.243902,6.12805
148.226,66.3904,7.34769,0,8.61968,3.63564,3.50631,-0.27439,0.609756,-1.15854,-9.81958,0.519719,1.23104,-0.213415,0.243902,6.40244
148.236,66.3959,7.31366,0,8.59093,3.6548,3.53744,-0.213415,0.365854,-1.18902,-9.82437,0.486189,1.20948,0.121951,0.0914634,6.31098
148.246,66.4044,7.29366,0,8.66758,3.65719,3.53026,-0.152439,0.243902,-1.28049,-9.83874,0.502954,1.22625,0.243902,0.213415,6.37195
148.256,66.4028,7.28361,0,8.6556,3.69791,3.50152,-0.27439,-0.0914634,-1.46341,-9.81,0.522114,1.23823,0.365854,0.152439,6.40244
148.266,66.4036,7.2883,0,8.62926,3.69552,3.53744,-0.762195,0.0609756,-1.18902,-9.82916,0.543669,1.26457,0.152439,-0.182927,6.15854
148.276,66.3984,7.27712,0,8.60052,3.67396,3.48236,-0.945122,0,-1.76829,-9.81958,0.59636,1.23344,0.0609756,-0.365854,6.03659
148.286,66.4018,7.2835,0,8.6077,3.66677,3.50391,-0.792683,0.548781,-1.25,-9.79323,0.6251,1.26218,-0.0304878,-0.27439,5.97561
148.296,66.4029,7.26871,0,8.56699,3.68833,3.47038,-0.762195,0.0914634,-0.945122,-9.82437,0.63947,1.23104,-0.152439,0.0609756,6.06707
148.306,66.4165,7.28174,0,8.63884,3.6524,3.51589,-0.304878,0.182927,-0.914634,-9.80521,0.613125,1.27176,-0.213415,0.0304878,5.94512
148.316,66.4422,7.2874,0,8.66758,3.57337,3.53744,-0.0609756,0.548781,-1.09756,-9.78605,0.60594,1.26218,-0.182927,0.426829,6.18902
148.326,66.4524,7.28629,0,8.6077,3.62845,3.50391,0.152439,0.182927,-1.15854,-9.79084,0.5772,1.2502,-0.0914634,0.396341,6.12805
148.336,66.4602,7.29807,0,8.63405,3.62366,3.52307,-0.243902,0.121951,-1.43293,-9.76449,0.57241,1.27176,-0.304878,0.396341,6.09756
148.346,66.4664,7.29553,0,8.62207,3.63085,3.49912,-0.0914634,-0.243902,-1.40244,-9.74294,0.55804,1.24302,-0.518293,0.518293,6.12805
148.356,66.4705,7.32,0,8.60291,3.63564,3.49194,0.213415,-0.518293,-1.40244,-9.74294,0.58678,1.2981,-0.792683,0.518293,6.06707
148.366,66.4651,7.31095,0,8.57896,3.66677,3.56139,0.426829,-0.121951,-1.61585,-9.73575,0.598755,1.23344,-0.762195,0.426829,6.03659
148.376,66.4657,7.31359,0,8.57656,3.66198,3.54223,0.304878,-0.335366,-1.21951,-9.71659,0.579595,1.2526,-1.03659,0.579268,6.28049
148.386,66.4612,7.34128,0,8.55501,3.67157,3.52786,0.579268,-0.182927,-1.37195,-9.72378,0.603545,1.30289,-0.792683,0.457317,5.97561
148.396,66.4486,7.388,0,8.57656,3.73144,3.50391,0.396341,-0.121951,-1.37195,-9.73815,0.555645,1.33882,-1.15854,0.27439,5.97561
148.406,66.4404,7.41485,0,8.59093,3.73623,3.52068,0.426829,-0.0914634,-1.0061,-9.73336,0.579595,1.32205,-1.03659,0.670732,6.12805
148.416,66.4321,7.42981,0,8.57896,3.7051,3.49194,0.213415,-0.121951,-1.43293,-9.78366,0.593965,1.30529,-1.28049,0.518293,5.88415
148.426,66.4222,7.43013,0,8.62926,3.73144,3.52307,0.152439,0.243902,-1.52439,-9.78126,0.538879,1.27655,-1.31098,0.426829,6.06707
148.436,66.417,7.43519,0,8.62446,3.70031,3.50631,-0.243902,-0.152439,-1.52439,-9.78366,0.512534,1.28852,-1.31098,0.762195,5.79268
148.446,66.3903,7.43195,0,8.52866,3.81527,3.54223,0.182927,-0.0914634,-1.09756,-9.79803,0.488584,1.27176,-1.18902,0.701219,5.79268
148.456,66.3974,7.42717,0,8.68195,3.69552,3.48236,0.213415,0.243902,-1.03659,-9.76928,0.534089,1.26457,-0.823171,0.579268,6.03659
148.466,66.3963,7.43303,0,8.62926,3.69312,3.44404,-0.152439,0.27439,-1.37195,-9.80521,0.505349,1.29092,-0.884146,0.487805,5.79268
148.476,66.3863,7.43144,0,8.58375,3.72426,3.47996,0.0609756,0.487805,-1.46341,-9.8076,0.500559,1.27655,-0.640244,0.579268,5.82317
148.486,66.3772,7.42388,0,8.58854,3.74581,3.51349,-0.0914634,0.396341,-1.09756,-9.79803,0.450264,1.25978,-0.731707,0.884146,5.70122
148.496,66.3646,7.40535,0,8.58854,3.75539,3.53505,-0.426829,0.426829,-1.31098,-9.81719,0.483794,1.24062,-0.518293,0.487805,5.97561
148.506,66.367,7.37145,0,8.61489,3.67875,3.559,0.0304878,0.304878,-1.28049,-9.79323,0.505349,1.1999,-0.670732,0.579268,6.12805
148.516,66.3682,7.38563,0,8.59093,3.67635,3.50391,0.0914634,0.365854,-1.28049,-9.8076,0.476609,1.3005,-0.457317,0.579268,6.34146
148.526,66.3628,7.37044,0,8.60291,3.73384,3.5087,0.0609756,0.487805,-1.09756,-9.80521,0.479004,1.24062,-0.0609756,0.426829,6.43293
148.536,66.3636,7.33749,0,8.67237,3.76497,3.49433,-0.0609756,0.457317,-0.579268,-9.80281,0.514929,1.1999,-0.243902,0.487805,6.46341
148.546,66.3734,7.31984,0,8.60052,3.66438,3.51589,-0.27439,0.579268,-0.914634,-9.8076,0.531694,1.23344,0.182927,0.0914634,6.4939
148.556,66.3805,7.32491,0,8.61728,3.68114,3.52786,-0.27439,0.27439,-0.945122,-9.78844,0.524509,1.26697,0.121951,0.27439,6.40244
148.566,66.3815,7.30762,0,8.57417,3.69073,3.50152,-0.823171,0.640244,-1.0061,-9.76689,0.522114,1.22386,0,0.304878,6.21951
148.576,66.3902,7.29203,0,8.56938,3.65719,3.54463,-0.731707,-0.152439,-0.884146,-9.81,0.55325,1.22625,-0.0914634,0.457317,6.25
148.586,66.4025,7.27212,0,8.61249,3.64522,3.53026,-0.548781,0.396341,-0.97561,-9.77647,0.534089,1.21188,-0.0914634,0.426829,6.40244
148.596,66.4109,7.25669,0,8.57656,3.67635,3.5087,-0.792683,0.335366,-0.670732,-9.79323,0.543669,1.22146,-0.213415,0.27439,6.31098
148.606,66.4263,7.2472,0,8.62686,3.6548,3.51349,-0.701219,0.213415,-0.731707,-9.78605,0.510139,1.22864,-0.213415,0.304878,6.28049
148.616,66.4365,7.23914,0,8.64123,3.65959,3.45362,-0.731707,0.152439,-1.0061,-9.8124,0.534089,1.23344,-0.121951,0.213415,6.03659
148.626,66.4448,7.24562,0,8.61968,3.68594,3.43206,-1.0061,0.0914634,-0.701219,-9.78605,0.526904,1.25499,-0.0914634,0.243902,6.06707
148.636,66.456,7.23736,0,8.63644,3.68114,3.5566,-0.792683,0.457317,-0.640244,-9.78605,0.548459,1.23104,0.0609756,-0.0304878,6.34146
148.646,66.4667,7.25341,0,8.64123,3.66438,3.55181,-0.701219,0.335366,-0.853659,-9.8076,0.5772,1.27415,-0.152439,0.182927,6.25
148.656,66.4663,7.24774,0,8.6101,3.72186,3.53265,-0.487805,0.97561,-0.640244,-9.78126,0.570015,1.23583,0,0.0609756,6.28049
148.666,66.4805,7.26641,0,8.55262,3.61169,3.51828,-0.609756,0.762195,-0.853659,-9.79563,0.589175,1.28134,0,0.304878,6.28049
148.676,66.4969,7.24463,0,8.6101,3.56618,3.56858,-0.487805,0.579268,-1.34146,-9.77647,0.579595,1.20709,-0.0914634,0.27439,6.28049
148.686,66.5188,7.25474,0,8.658,3.57816,3.50391,0.457317,-0.182927,-1.09756,-9.78605,0.570015,1.26218,-0.365854,0.213415,6.55488
148.696,66.5145,7.23491,0,8.63644,3.71707,3.559,0.27439,0.823171,-1.06707,-9.77886,0.560435,1.20948,-0.426829,0.243902,6.28049
148.706,66.5148,7.24196,0,8.57177,3.66917,3.54463,-0.213415,0.243902,-1.0061,-9.80521,0.560435,1.25739,-0.579268,0.182927,6.28049
148.716,66.5176,7.21402,0,8.58854,3.62606,3.56858,-0.518293,1.03659,-1.43293,-9.82677,0.579595,1.2023,-0.457317,0.0609756,6.21951
148.726,66.5321,7.20955,0,8.61249,3.59253,3.53744,0,0.518293,-1.15854,-9.84353,0.55325,1.23823,-0.487805,-0.0914634,6.28049
148.736,66.5403,7.16441,0,8.67716,3.66677,3.58295,0.27439,0.0609756,-0.97561,-9.84593,0.529299,1.17116,-0.670732,0.0304878,6.37195
148.746,66.5426,7.14532,0,8.60291,3.66438,3.53984,0.304878,0.548781,-1.03659,-9.86509,0.543669,1.2023,-0.640244,-0.304878,6.28049
148.756,66.5398,7.12986,0,8.58615,3.69552,3.52547,0,0.426829,-0.884146,-9.86748,0.546064,1.20469,-0.640244,-0.396341,6.34146
148.766,66.5398,7.10179,0,8.58854,3.67157,3.51589,-0.0304878,0.243902,-1.03659,-9.83874,0.560435,1.16877,-0.243902,-0.548781,6.46341
148.776,66.5403,7.07857,0,8.57896,3.67157,3.53505,-0.0304878,0.213415,-0.945122,-9.82916,0.574805,1.17116,-0.365854,-0.640244,6.55488
148.786,66.5448,7.0787,0,8.57417,3.64761,3.57576,-0.182927,0.0304878,-0.945122,-9.79803,0.543669,1.21667,-0.457317,-0.304878,6.15854
148.796,66.5592,7.0713,0,8.61489,3.63085,3.59732,0.182927,0.0304878,-0.731707,-9.8076,0.538879,1.20469,-0.396341,-0.182927,6.28049
148.806,66.57,7.07239,0,8.59812,3.62366,3.57337,0.182927,-0.365854,-0.914634,-9.8124,0.536484,1.21906,-0.365854,-0.426829,6.12805
148.816,66.5803,7.0562,0,8.62207,3.61887,3.58055,0.0914634,-0.426829,-1.06707,-9.79803,0.522114,1.18553,-0.426829,-0.27439,6.0061
148.826,66.5779,7.05726,0,8.61728,3.66917,3.51589,-0.0914634,-0.640244,-1.31098,-9.77647,0.483794,1.21188,-0.304878,-0.457317,6.03659
148.836,66.5809,7.03978,0,8.58854,3.61408,3.52307,-0.0609756,-0.640244,-1.43293,-9.79323,0.483794,1.17595,-0.27439,-0.487805,6.58537
148.846,66.5847,7.06283,0,8.57896,3.62127,3.50391,-0.213415,-0.426829,-1.25,-9.75012,0.522114,1.2502,-0.152439,-0.487805,6.28049
148.856,66.5852,7.05754,0,8.59812,3.61887,3.57097,-0.396341,-0.670732,-1.58537,-9.76689,0.55325,1.1999,-0.0609756,-0.335366,6.31098
148.866,66.5884,7.08159,0,8.59093,3.61169,3.55181,-0.27439,-0.670732,-1.43293,-9.78126,0.534089,1.2526,-0.27439,-0.182927,6.21951
148.876,66.5844,7.09624,0,8.62686,3.65719,3.48236,0.0304878,-0.335366,-1.61585,-9.75491,0.538879,1.23583,-0.152439,-0.121951,6.4939
148.886,66.5789,7.08315,0,8.60291,3.66917,3.54942,0.0609756,-0.548781,-1.46341,-9.78366,0.560435,1.19511,-0.548781,-0.182927,6.52439
148.896,66.5799,7.08381,0,8.63884,3.65959,3.49912,0.0609756,-0.731707,-1.28049,-9.76449,0.529299,1.21427,-0.27439,-0.243902,6.40244
148.906,66.578,7.07217,0,8.65081,3.66438,3.48715,-0.0609756,-0.640244,-1.4939,-9.79084,0.512534,1.19511,-0.335366,-0.27439,6.31098
148.916,66.5722,7.06437,0,8.62446,3.66917,3.53265,0,-0.426829,-1.61585,-9.80042,0.548459,1.2023,-0.243902,-0.152439,6.46341
148.926,66.5701,7.07865,0,8.6101,3.64761,3.54942,0,-0.609756,-1.52439,-9.78366,0.500559,1.23583,-0.243902,-0.0914634,6.52439
148.936,66.5641,7.07105,0,8.62207,3.68354,3.47996,0.213415,-0.792683,-1.46341,-9.82437,0.486189,1.20709,-0.396341,-0.0914634,6.34146
148.946,66.5578,7.05859,0,8.61249,3.69552,3.51349,-0.121951,-0.914634,-1.28049,-9.84353,0.55804,1.19751,-0.0304878,-0.243902,6.4939
148.956,66.5621,7.10299,0,8.63165,3.59732,3.48715,0.0304878,-0.487805,-1.7378,-9.85311,0.546064,1.29571,-0.335366,-0.0609756,6.76829
148.966,66.5581,7.10707,0,8.61728,3.65959,3.52547,0.152439,-1.21951,-1.58537,-9.81958,0.555645,1.23104,-0.518293,-0.27439,6.61585
148.976,66.555,7.11566,0,8.63165,3.63324,3.56139,0.0304878,-0.792683,-1.89024,-9.81479,0.570015,1.24062,-0.792683,-0.396341,6.7378
148.986,66.5495,7.11727,0,8.61249,3.69073,3.43206,-0.121951,-0.152439,-1.31098,-9.79803,0.517324,1.22625,-0.457317,-0.701219,6.70732
148.996,66.5471,7.15023,0,8.61728,3.66438,3.49912,-0.335366,-0.609756,-1.43293,-9.76928,0.479004,1.29331,-0.27439,-0.670732,6.79878
149.006,66.5515,7.1434,0,8.63165,3.63085,3.47517,-0.0914634,0.579268,-1.40244,-9.7597,0.488584,1.20709,-0.0914634,-0.853659,6.55488
149.016,66.5472,7.15287,0,8.57896,3.67875,3.53744,-0.152439,-0.365854,-1.18902,-9.7621,0.467029,1.24541,0.304878,-0.823171,6.79878
149.026,66.5503,7.15956,0,8.67237,3.6548,3.52068,0,0.0914634,-1.40244,-9.78605,0.433499,1.24302,0.365854,-0.731707,7.13415
149.036,66.5481,7.15428,0,8.58615,3.65719,3.53505,-0.0304878,0,-1.34146,-9.77168,0.462239,1.21667,0.518293,-0.426829,7.28659
149.046,66.5455,7.12488,0,8.61249,3.64282,3.559,-0.121951,-0.27439,-1.67683,-9.84593,0.479004,1.18074,0.487805,-0.243902,7.22561
149.056,66.5425,7.14363,0,8.65321,3.6548,3.46799,-0.152439,-0.457317,-1.76829,-9.79803,0.495769,1.26218,0.396341,-0.426829,7.2561
149.066,66.5423,7.13926,0,8.66279,3.65959,3.49433,-0.548781,-0.670732,-1.55488,-9.81,0.55804,1.21906,0.579268,-0.640244,7.2561
149.076,66.541,7.14157,0,8.64842,3.65001,3.52068,-0.853659,-0.182927,-1.67683,-9.79084,0.560435,1.23104,0.487805,-0.701219,7.07317
149.086,66.5353,7.11201,0,8.58615,3.6548,3.4608,-0.670732,-0.121951,-1.67683,-9.81,0.603545,1.16398,0.182927,-0.579268,6.95122
149.096,66.5291,7.10194,0,8.62926,3.67635,3.50391,-0.304878,0.335366,-1.67683,-9.8124,0.550855,1.1999,0.182927,-0.731707,6.64634
149.106,66.5352,7.11237,0,8.62926,3.62845,3.45362,-0.792683,0.335366,-1.34146,-9.79084,0.524509,1.23823,0.335366,-0.213415,6.7378
149.116,66.5386,7.12213,0,8.62207,3.59732,3.54463,-0.701219,0.0914634,-1.79878,-9.78126,0.526904,1.23823,0.365854,0.243902,6.92073
149.126,66.5381,7.14448,0,8.62446,3.63803,3.51349,-0.762195,0.243902,-1.64634,-9.80042,0.522114,1.25978,0.0914634,0,6.76829
149.136,66.5419,7.17105,0,8.63644,3.63803,3.50152,-0.823171,0.0914634,-1.40244,-9.75252,0.548459,1.26457,0.27439,0.0609756,6.92073
149.146,66.5338,7.17838,0,8.61968,3.66917,3.54463,-0.487805,-0.243902,-1.85976,-9.75012,0.534089,1.23823,0.396341,-0.0609756,7.0122
149.156,66.5334,7.22135,0,8.60291,3.62366,3.57097,-0.426829,-0.213415,-1.70732,-9.77647,0.536484,1.30768,0.152439,0.213415,7.10366
149.166,66.5255,7.21608,0,8.61249,3.67635,3.51349,-0.548781,0.182927,-1.7378,-9.76928,0.58199,1.22864,0.396341,0.243902,7.19512
149.176,66.5188,7.22967,0,8.58136,3.66198,3.48954,-0.335366,-0.182927,-1.67683,-9.8076,0.560435,1.26697,0.457317,0.243902,7.19512
149.186,66.5076,7.22823,0,8.59333,3.70749,3.5087,-0.304878,-0.365854,-1.55488,-9.79803,0.603545,1.24062,0.213415,0.0914634,7.31707
149.196,66.5054,7.22912,0,8.61968,3.65001,3.54223,-0.335366,-0.609756,-1.67683,-9.8076,0.579595,1.24541,0.213415,0.0609756,7.10366
149.206,66.5043,7.25485,0,8.59812,3.64043,3.52547,-0.365854,-0.396341,-1.61585,-9.77886,0.56283,1.28373,0.0609756,0.121951,7.22561
149.216,66.4976,7.27207,0,8.60052,3.68833,3.49912,-0.365854,-0.609756,-1.4939,-9.78605,0.526904,1.27894,0.0914634,0.335366,7.10366
149.226,66.4896,7.28202,0,8.61489,3.71468,3.49433,-0.548781,-0.487805,-1.34146,-9.79803,0.55325,1.26936,0.0609756,0.304878,7.16463
149.236,66.4857,7.29397,0,8.62686,3.69312,3.52786,-0.182927,-0.396341,-1.37195,-9.79563,0.548459,1.27415,-0.0914634,0.27439,7.16463
149.246,66.4841,7.30224,0,8.64123,3.7027,3.46799,-0.548781,-0.27439,-1.15854,-9.75252,0.548459,1.26457,-0.0609756,0.396341,7.19512
149.256,66.4848,7.33497,0,8.64123,3.66917,3.48236,-0.396341,0.0914634,-1.40244,-9.79084,0.5772,1.31247,-0.182927,0.182927,6.85976
149.266,66.4912,7.38158,0,8.6556,3.63324,3.42967,-0.304878,0.243902,-1.46341,-9.79803,0.589175,1.34121,-0.121951,0.121951,7.28659
149.276,66.4912,7.41159,0,8.62926,3.64761,3.51349,-0.426829,0.396341,-1.61585,-9.79084,0.6251,1.31966,-0.0304878,0.121951,7.28659
149.286,66.4939,7.39292,0,8.63644,3.63324,3.5111,-0.243902,0.396341,-1.61585,-9.81479,0.6251,1.24302,-0.487805,0.213415,7.19512
149.296,66.4978,7.41172,0,8.67716,3.61648,3.45841,-0.152439,0.0914634,-1.85976,-9.77407,0.622705,1.31008,-0.670732,0.609756,6.98171
149.306,66.4958,7.39371,0,8.66279,3.63803,3.47278,-0.243902,0.213415,-2.0122,-9.77407,0.598755,1.23823,-0.640244,0.304878,6.98171
149.316,66.4892,7.37463,0,8.65321,3.66677,3.49433,0,0.792683,-2.0122,-9.79084,0.59157,1.24062,-0.518293,0,6.92073
149.326,66.4843,7.34916,0,8.64602,3.66198,3.48236,-0.0609756,0.670732,-1.92073,-9.81,0.5772,1.21427,-0.457317,0.579268,7.07317
149.336,66.4838,7.32827,0,8.60291,3.64522,3.45122,0.243902,0.884146,-1.58537,-9.79803,0.579595,1.21667,-0.609756,0.670732,7.13415
149.346,66.4868,7.29496,0,8.59812,3.64522,3.5087,0.304878,0.853659,-1.31098,-9.78366,0.59157,1.18793,-0.640244,0.548781,6.82927
149.356,66.4861,7.26838,0,8.6101,3.66198,3.52068,0.335366,0.945122,-1.43293,-9.76928,0.565225,1.19511,-0.426829,0.548781,7.04268
149.366,66.4905,7.2627,0,8.6053,3.61648,3.51828,0.457317,0.945122,-1.55488,-9.78605,0.584385,1.23583,-0.548781,0.670732,6.76829
149.376,66.4883,7.25543,0,8.63165,3.67396,3.53505,0.335366,1.12805,-1.4939,-9.76689,0.56283,1.22625,-0.396341,1.06707,6.79878
149.386,66.4937,7.26169,0,8.57417,3.60929,3.53265,0.365854,0.823171,-1.43293,-9.75252,0.584385,1.25978,0.0304878,1.15854,6.92073
149.396,66.4958,7.25617,0,8.60291,3.63803,3.48954,0.0914634,0.914634,-1.46341,-9.77407,0.565225,1.23104,-0.548781,1.18902,6.85976
149.406,66.4946,7.25021,0,8.59573,3.63564,3.58295,0.27439,0.945122,-1.67683,-9.75252,0.574805,1.22625,-0.335366,1.18902,6.89024
149.416,66.4918,7.23934,0,8.6053,3.64761,3.56618,0.182927,1.03659,-1.70732,-9.78605,0.589175,1.21427,-0.0609756,1.31098,6.92073
149.426,66.4858,7.22802,0,8.59093,3.66198,3.58534,0.335366,0.884146,-1.7378,-9.79084,0.608335,1.21188,-0.0304878,1.28049,6.61585
149.436,66.4758,7.21434,0,8.6053,3.68594,3.57816,0.243902,0.640244,-1.85976,-9.83395,0.5772,1.20709,0.182927,1.34146,6.70732
149.446,66.4712,7.19474,0,8.59812,3.62845,3.53265,0.0609756,0.27439,-2.07317,-9.78126,0.5772,1.17595,0.335366,1.67683,6.55488
149.456,66.4606,7.18966,0,8.62207,3.66677,3.56858,-0.121951,0.518293,-2.2561,-9.77886,0.529299,1.21906,0.396341,1.76829,6.55488
149.466,66.4463,7.17284,0,8.6053,3.71947,3.54702,-0.365854,0.335366,-1.89024,-9.80042,0.55325,1.18314,0.243902,1.64634,6.55488
149.476,66.4389,7.15982,0,8.58375,3.67157,3.52786,-0.365854,0.304878,-1.79878,-9.77647,0.555645,1.18553,0.335366,2.13415,6.82927
149.486,66.4341,7.14721,0,8.56938,3.66677,3.53505,-0.27439,0.0609756,-1.58537,-9.80042,0.57241,1.18793,0.243902,2.07317,6.85976
149.497,66.4353,7.15758,0,8.6101,3.65001,3.59253,-0.152439,0,-1.52439,-9.77886,0.555645,1.26457,0.518293,2.04268,6.7378
149.506,66.4324,7.17087,0,8.57656,3.62845,3.57576,-0.304878,0,-1.92073,-9.77886,0.555645,1.27415,0.457317,1.79878,6.79878
149.516,66.4217,7.17015,0,8.56459,3.69073,3.57097,-0.335366,-0.0304878,-1.76829,-9.79084,0.579595,1.23104,0.884146,2.10366,6.95122
149.526,66.4123,7.1662,0,8.56938,3.67635,3.50631,-0.0914634,-0.182927,-1.89024,-9.76928,0.61552,1.21667,0.792683,2.13415,6.64634
149.536,66.4081,7.17415,0,8.59333,3.68594,3.50631,-0.457317,-0.335366,-1.4939,-9.75252,0.589175,1.25499,0.518293,1.92073,6.76829
149.546,66.4002,7.16503,0,8.57656,3.69791,3.53744,-0.304878,0,-1.55488,-9.73575,0.59636,1.19511,0.823171,2.10366,6.64634
149.556,66.3918,7.1571,0,8.57656,3.7027,3.53505,-0.121951,0.213415,-1.55488,-9.78366,0.574805,1.20469,0.853659,1.82927,6.76829
149.566,66.3911,7.15248,0,8.58615,3.67635,3.56139,-0.27439,-0.152439,-1.34146,-9.78126,0.589175,1.21427,0.792683,1.79878,6.82927
149.576,66.383,7.14541,0,8.58136,3.72186,3.57576,-0.152439,-0.27439,-1.31098,-9.79803,0.613125,1.20709,0.945122,1.82927,6.61585
149.586,66.3778,7.1367,0,8.60291,3.70989,3.57337,0.0304878,-0.27439,-1.37195,-9.80042,0.63947,1.1999,0.487805,1.95122,6.98171
149.596,66.3727,7.12227,0,8.56219,3.71947,3.52068,-0.182927,-0.304878,-1.0061,-9.82916,0.61073,1.18314,0.670732,1.79878,6.85976
149.606,66.3724,7.12894,0,8.6077,3.68833,3.53984,-0.182927,0.0609756,-1.31098,-9.79803,0.651445,1.24781,0.670732,1.70732,6.55488
149.616,66.369,7.13611,0,8.56219,3.68833,3.57097,-0.213415,-0.243902,-1.31098,-9.81479,0.66821,1.2502,0.731707,1.34146,6.58537
149.626,66.3685,7.10803,0,8.57177,3.69073,3.57097,-0.457317,-0.335366,-1.12805,-9.79563,0.64905,1.13763,0.457317,1.61585,6.34146
149.636,66.3704,7.09122,0,8.58615,3.70989,3.58055,-0.457317,-0.304878,-0.762195,-9.81719,0.651445,1.16877,0.0304878,1.79878,6.37195
149.646,66.3771,7.07148,0,8.5598,3.65001,3.54702,-0.518293,-0.304878,-1.06707,-9.81719,0.673001,1.15919,0.27439,1.58537,6.52439
149.656,66.3814,7.05308,0,8.59333,3.69791,3.50391,0.0914634,-0.27439,-0.792683,-9.84114,0.632285,1.15919,0.0304878,1.82927,6.70732
149.666,66.4012,7.02883,0,8.63405,3.63085,3.56618,-0.213415,-0.121951,-0.823171,-9.80521,0.63947,1.13524,-0.0609756,1.67683,6.43293
149.676,66.4234,7.02099,0,8.62686,3.6548,3.54463,-0.0304878,0.0914634,-0.426829,-9.81958,0.617915,1.18553,-0.0304878,1.82927,6.52439
149.686,66.4363,7.00925,0,8.6077,3.67635,3.5111,0.182927,-0.335366,-0.518293,-9.85311,0.622705,1.17835,0.426829,1.40244,6.61585
149.696,66.4348,7.00003,0,8.59812,3.73384,3.56139,0.0914634,-0.487805,-0.518293,-9.8076,0.617915,1.17835,0.335366,1.4939,6.79878
149.706,66.3514,6.9941,0,8.32269,4.20805,3.53984,0.243902,-1.25,1.28049,-9.76928,0.593965,1.18314,0.335366,1.37195,6.92073
149.716,66.4379,6.99063,0,8.72985,3.44404,3.5111,-0.426829,0.853659,0.579268,-9.75252,0.613125,1.18793,0.213415,1.15854,6.61585
149.726,66.5123,6.97966,0,8.60052,3.48475,3.64282,0,-1.58537,-0.121951,-9.77168,0.687371,1.17116,-0.0304878,0.945122,6.79878
149.736,66.5033,6.97266,0,8.45681,3.72905,3.51349,0.121951,-1.18902,0.457317,-9.77168,0.66342,1.18074,0.182927,0.731707,6.55488
149.746,66.4493,6.95089,0,8.32509,3.92783,3.45122,0.121951,-0.243902,0.914634,-9.76689,0.627495,1.14242,-0.121951,0.853659,6.40244
149.756,66.4541,6.90547,0,8.56219,3.86077,3.56139,-0.335366,-2.07317,2.22561,-9.79084,0.56762,1.09213,-0.304878,0.670732,6.34146
149.766,66.4968,6.87906,0,8.62926,3.57816,3.70031,-0.396341,-1.40244,1.61585,-9.83395,0.560435,1.12805,-0.182927,0.762195,6.34146
149.776,66.5274,6.85906,0,8.67237,3.6548,3.60211,0.121951,-0.670732,1.18902,-9.88185,0.536484,1.14721,-0.0304878,0.579268,6.12805
149.786,66.5254,6.82298,0,8.51429,3.8009,3.56858,-0.579268,-2.07317,1.46341,-9.91059,0.56283,1.12566,0.579268,0.152439,6.4939
149.796,66.5394,6.8263,0,8.62446,3.72905,3.53505,-1.67683,-1.37195,1.15854,-9.90101,0.61552,1.19032,0.487805,-0.0304878,6.67683
149.806,66.568,6.83314,0,8.61249,3.63803,3.55421,-1.76829,-1.37195,1.25,-9.84593,0.646655,1.19032,0.0914634,-0.0914634,6.64634
149.816,66.6046,6.8593,0,8.58375,3.57337,3.63085,-1.76829,-1.52439,0.97561,-9.83395,0.651445,1.22625,0,-0.213415,6.55488
149.826,66.6394,6.86906,0,8.55262,3.56618,3.6045,-1.4939,-1.4939,0.853659,-9.78605,0.696951,1.1999,-0.487805,-0.792683,6.89024
149.836,66.6664,6.87379,0,8.55262,3.59971,3.58055,-1.92073,-2.0122,0.884146,-9.78605,0.708926,1.19032,-0.487805,-0.97561,6.82927
149.846,66.7052,6.85889,0,8.63165,3.56858,3.50391,-1.64634,-1.98171,0.701219,-9.74773,0.740061,1.14003,-0.792683,-0.762195,7.28659
149.856,66.7491,6.84295,0,8.63165,3.54223,3.48715,-1.34146,-1.64634,0.609756,-9.82677,0.682581,1.14242,-1.31098,-0.792683,7.19512
149.866,66.7917,6.82032,0,8.69392,3.559,3.49912,-1.21951,-1.4939,0.670732,-9.88664,0.641865,1.12805,-1.76829,-0.823171,7.68293
149.876,66.8291,6.8101,0,8.69153,3.57337,3.4632,-0.97561,-1.92073,0.823171,-9.9058,0.62031,1.15919,-1.98171,-0.701219,7.71341
149.886,66.8733,6.81345,0,8.7514,3.5566,3.43925,-1.37195,-1.98171,0.701219,-9.92736,0.622705,1.19511,-1.89024,-1.46341,7.71341
149.896,66.9257,6.80375,0,8.77775,3.53984,3.35782,-2.13415,-1.89024,0.365854,-9.92257,0.61552,1.14721,-2.22561,-2.19512,8.04878
149.906,66.9719,6.79248,0,8.74422,3.55421,3.24046,-3.10976,-0.304878,0.27439,-9.86269,0.62031,1.12805,-2.07317,-3.07927,7.80488
149.916,67.0293,6.78976,0,8.76577,3.52786,3.25723,-3.81098,0.457317,-0.0304878,-9.8579,0.529299,1.15919,-2.13415,-3.93293,7.95732
149.926,67.0941,6.78609,0,8.7993,3.48236,3.30752,-3.44512,-0.579268,0.243902,-9.9058,0.486189,1.15919,-1.79878,-4.81707,8.07927
149.936,67.1788,6.79752,0,8.86636,3.42009,3.39374,-2.10366,-1.58537,0.152439,-9.92257,0.459844,1.22625,-1.61585,-5.67073,8.23171
149.946,67.2417,6.80665,0,8.84481,3.46799,3.55421,-0.609756,-1.79878,-0.121951,-9.99202,0.431104,1.22625,-1.15854,-6.25,8.62805
149.956,67.2882,6.813,0,8.89031,3.47278,3.58534,0.0914634,-0.853659,-0.518293,-9.94652,0.416733,1.20948,-0.914634,-6.79878,8.59756
149.966,67.2985,6.83244,0,8.78972,3.57816,3.58774,-0.457317,-0.609756,-0.823171,-9.90101,0.407153,1.26218,-0.213415,-7.80488,8.96341
149.976,67.3003,6.88173,0,8.78733,3.58774,3.51828,-1.37195,-0.518293,-1.25,-9.88904,0.498164,1.3963,-0.152439,-8.01829,8.68902
149.986,67.3026,6.97126,0,8.74901,3.56379,3.559,-1.89024,-0.823171,-1.31098,-9.76689,0.490979,1.56395,-0.0914634,-9.02439,8.47561
149.996,67.3109,7.09514,0,8.76098,3.49194,3.4632,-2.37805,-0.213415,-1.70732,-9.66151,0.555645,1.71244,-0.335366,-9.7561,7.89634
150.006,67.3312,7.24647,0,8.72266,3.30034,3.5111,-3.20122,0.27439,-2.5,-9.63277,0.598755,1.84896,-0.792683,-10.2744,7.68293
150.016,67.3327,7.32538,0,8.68434,3.41769,3.5087,-2.95732,1.98171,-2.59146,-9.60642,0.637075,1.55437,-1.12805,-9.69512,7.65244
150.026,67.2682,7.33739,0,8.34664,3.78174,3.49433,-4.2378,3.35366,-2.56098,-9.45793,0.766406,1.25978,-1.7378,-8.35366,7.89634
150.036,67.3097,7.40322,0,8.43765,2.61536,3.30513,-6.12805,3.38415,-7.04268,-9.43877,0.821492,1.48731,-2.7439,-8.9939,8.38415
150.046,67.3291,7.49257,0,8.14307,2.38304,3.88472,-0.182927,1.09756,-11.0366,-9.62558,0.811912,1.62861,-4.29878,-11.372,8.84146
150.056,67.2275,7.52847,0,8.57896,3.93262,3.76258,6.98171,-2.0122,-6.37195,-9.87227,0.874182,1.44659,-5.79268,-12.6829,9.17683
150.066,67.1727,7.51619,0,9.04599,4.10027,3.46559,11.1585,-8.62805,-1.7378,-10.1118,0.981958,1.26936,-7.2561,-12.7744,9.39024
150.076,67.1194,7.40295,0,9.53457,4.24876,3.54702,4.90854,-5.30488,-2.92683,-10.277,1.07536,0.826282,-8.35366,-12.1341,9.11585
150.086,67.057,7.29833,0,8.58136,3.8009,3.4632,0.457317,-1.03659,-4.26829,-10.2674,1.11368,0.845442,-8.59756,-10.8537,8.53659
150.096,66.9925,7.2574,0,8.09038,3.52068,3.25723,-0.792683,1.28049,-5.39634,-10.2842,1.07057,1.11847,-8.84146,-11.6768,7.31707
150.106,66.9614,7.23864,0,8.21252,3.37458,3.64282,-1.0061,2.34756,-4.57317,-10.3632,1.03704,1.22146,-8.62805,-12.4695,6.82927
150.116,66.945,7.23122,0,8.39215,3.34105,3.79132,2.5,0.823171,-4.45122,-10.3752,0.948428,1.27176,-7.7439,-12.7439,6.4939
150.126,66.9107,7.21181,0,8.62207,3.63085,3.86796,4.26829,-1.06707,-3.96341,-10.3297,0.775986,1.20948,-6.31098,-12.6524,6.95122
150.136,66.8593,7.19646,0,8.73464,3.88712,3.72426,3.9939,-1.98171,-3.32317,-10.1381,0.608335,1.2023,-4.57317,-12.3476,7.71341
150.146,66.7942,7.14006,0,8.71787,4.04758,3.47757,2.71341,-1.31098,-2.7439,-9.8603,0.481399,0.986748,-2.92683,-11.5854,8.20122
150.156,66.7299,7.0945,0,8.51908,3.98292,3.54223,0.884146,-2.46951,-1.67683,-9.65193,0.373623,1.00351,-1.64634,-10.8841,8.38415
150.166,66.6851,7.0801,0,8.34904,3.76258,3.77934,1.34146,-3.01829,-0.640244,-9.55852,0.232317,1.11847,-0.701219,-11.4939,8.17073
150.176,66.6502,7.00711,0,8.25324,3.65959,3.84401,2.16463,-4.84756,0.0304878,-9.64474,0.153281,0.874182,-0.0304878,-11.7073,7.89634
150.186,66.6434,6.96383,0,8.29395,3.65001,3.72186,2.92683,-6.58537,0.853659,-9.73815,0.270637,0.998723,0.579268,-11.8293,7.9878
150.196,66.6634,6.96719,0,8.46639,3.62127,3.45362,3.62805,-7.71341,1.46341,-9.91538,0.469424,1.21427,0.853659,-13.4756,8.41463
150.206,66.7047,6.99761,0,8.61728,3.55181,3.28597,4.08537,-7.86585,0.97561,-10.0447,0.63947,1.35079,1.58537,-15.4268,8.84146
150.216,66.762,7.05819,0,8.67237,3.54702,3.25004,2.77439,-6.82927,-0.0304878,-10.0663,0.773591,1.49449,1.85976,-16.7378,9.08537
150.226,66.7917,7.13982,0,8.73943,3.5087,3.32908,1.34146,-6.43293,-1.18902,-10.0232,0.866997,1.59269,1.55488,-18.2927,9.05488
150.236,66.8077,7.23346,0,8.76577,3.49912,3.37698,0.548781,-5.97561,-1.98171,-9.89862,0.878972,1.64059,0.97561,-18.9634,8.47561
150.246,66.8213,7.35028,0,8.79691,3.45841,3.27878,-0.487805,-5.2439,-2.59146,-9.71659,0.859812,1.7292,0.518293,-18.7195,8.53659
150.256,66.8327,7.45606,0,8.78972,3.46559,3.34824,-0.701219,-5.36585,-2.62195,-9.64235,0.778381,1.68849,-0.152439,-17.9878,7.95732
150.266,66.8386,7.5706,0,8.74901,3.47996,3.34584,-0.487805,-5.45732,-2.7439,-9.48188,0.682581,1.71723,-0.457317,-16.7988,7.71341
150.276,66.8409,7.67414,0,8.66279,3.49912,3.37937,0.0914634,-5.51829,-2.5,-9.41722,0.61073,1.67891,-0.670732,-15.4878,7.37805
150.286,66.8392,7.77064,0,8.66039,3.53744,3.32189,0.243902,-6.12805,-2.40854,-9.42919,0.56283,1.66933,-0.396341,-14.4512,7.40854
150.296,66.8433,7.88697,0,8.73224,3.5566,3.20454,0.701219,-6.46341,-2.07317,-9.51302,0.538879,1.78668,0.0304878,-14.3598,7.31707
150.306,66.8534,8.00592,0,8.78493,3.57097,3.25483,1.85976,-6.34146,-1.70732,-9.64953,0.56762,1.84417,0.518293,-14.3902,7.28659
150.316,66.8536,8.12505,0,8.83762,3.62606,3.16861,2.34756,-5.57927,-2.04268,-9.75012,0.61073,1.88488,0.762195,-14.7256,6.92073
150.326,66.8483,8.25658,0,8.82565,3.62845,3.18298,1.79878,-4.78659,-2.40854,-9.77647,0.63468,1.96631,1.03659,-15.061,6.98171
150.336,66.8421,8.40875,0,8.8472,3.56858,3.2213,1.40244,-4.02439,-3.20122,-9.81958,0.675395,2.09085,0.853659,-15.9451,7.13415
150.346,66.8313,8.56526,0,8.86397,3.5566,3.17819,1.37195,-2.28659,-3.84146,-9.82677,0.740061,2.13875,0.701219,-16.6159,7.53049
150.356,66.8109,8.71334,0,8.80409,3.53984,3.26202,0.762195,-1.64634,-4.69512,-9.83156,0.740061,2.12917,0.335366,-17.2256,7.53049
150.366,66.7831,8.86266,0,8.79451,3.54942,3.21412,1.25,-1.7378,-5.33537,-9.77168,0.807122,2.14833,-0.27439,-17.1037,7.92683
150.376,66.7388,9.01948,0,8.74182,3.66438,3.22609,0.914634,-1.76829,-5.4878,-9.7597,0.816702,2.20581,-0.609756,-17.5915,8.44512
150.386,66.6909,9.17217,0,8.76098,3.71947,3.1734,0.518293,-1.0061,-5.42683,-9.78366,0.840652,2.22018,-1.0061,-18.1402,8.35366
150.396,66.644,9.31626,0,8.80649,3.7506,3.16143,0.609756,-0.640244,-5.27439,-9.78366,0.859812,2.20821,-1.28049,-18.628,8.23171
150.406,66.6011,9.47455,0,8.82565,3.72665,3.0776,0.762195,-0.579268,-5.33537,-9.70701,0.811912,2.28006,-1.55488,-19.1768,8.20122
150.416,66.5682,9.62591,0,8.85918,3.66677,3.06083,0.853659,0.0304878,-5.2439,-9.69983,0.814307,2.27527,-1.89024,-19.3598,8.17073
150.426,66.5385,9.76814,0,8.87834,3.58295,3.04167,1.03659,1.0061,-6.0061,-9.616,0.795146,2.24174,-2.31707,-19.1463,7.80488
150.436,66.5108,9.92391,0,8.85678,3.53265,3.20214,1.52439,1.06707,-6.34146,-9.54894,0.840652,2.31119,-2.28659,-19.3293,7.83537
150.446,66.4785,10.056,0,8.84002,3.56618,3.29555,2.22561,1.85976,-6.40244,-9.60642,0.795146,2.24653,-2.40854,-19.4817,7.40854
150.456,66.4356,10.2183,0,8.82565,3.64522,3.33387,2.59146,2.28659,-6.58537,-9.55373,0.795146,2.39262,-2.2561,-19.1159,7.13415
150.466,66.3936,10.374,0,8.75619,3.68354,3.30752,2.89634,1.28049,-5.82317,-9.53936,0.759221,2.38783,-2.40854,-19.5122,7.07317
150.476,66.3468,10.537,0,8.77296,3.76018,3.22849,2.9878,1.70732,-5.60976,-9.51541,0.684976,2.44292,-2.34756,-18.628,6.95122
150.486,66.2956,10.6908,0,8.68195,3.78174,3.2213,2.07317,1.03659,-5.45732,-9.49386,0.62031,2.42615,-2.04268,-17.5305,6.82927
150.496,66.2433,10.8236,0,8.59573,3.77216,3.11832,1.89024,2.89634,-5.36585,-9.42919,0.546064,2.34472,-2.0122,-16.0671,6.55488
150.506,66.1908,10.9531,0,8.46879,3.76018,3.21891,1.92073,2.31707,-4.96951,-9.27591,0.550855,2.31598,-1.67683,-15.2134,6.79878
150.516,66.1295,11.0791,0,8.37059,3.85598,3.39374,2.56098,1.98171,-4.32927,-9.28789,0.593965,2.32556,-1.31098,-15.4268,7.10366
150.526,66.0705,11.2081,0,8.44005,3.94939,3.39135,2.37805,1.85976,-3.41463,-9.3789,0.603545,2.38304,-1.03659,-16.2805,7.31707
150.536,66.0142,11.3691,0,8.45202,3.97813,3.43206,2.04268,-0.457317,-2.89634,-9.41482,0.64426,2.55549,-0.97561,-17.9878,7.10366
150.546,65.9708,11.5446,0,8.50471,3.8943,3.37698,1.4939,0.396341,-3.07927,-9.48188,0.696951,2.66566,-1.15854,-19.6951,7.0122
150.556,65.941,11.7164,0,8.52866,3.7506,3.4632,1.18902,0.335366,-3.65854,-9.6184,0.732876,2.71835,-0.884146,-20.7622,6.64634
150.566,65.913,11.9047,0,8.52387,3.68114,3.52786,1.18902,-0.396341,-4.32927,-9.55852,0.766406,2.80696,-1.31098,-21.2805,6.52439
150.576,65.8788,12.0831,0,8.60052,3.74581,3.5111,1.15854,-1.0061,-4.63415,-9.5226,0.785566,2.78541,-1.06707,-21.4634,6.7378
150.586,65.8406,12.2803,0,8.66279,3.70989,3.37219,0.853659,-1.76829,-5.82317,-9.45793,0.795146,2.8836,-1.25,-21.372,7.04268
150.596,65.7869,12.4768,0,8.56459,3.82245,3.26441,0.182927,-2.0122,-5.70122,-9.44356,0.787961,2.91234,-0.914634,-20.8537,7.19512
150.606,65.7281,12.6787,0,8.58375,3.87275,3.31231,-0.0914634,-2.19512,-5.85366,-9.35734,0.802332,2.94587,-1.0061,-20.3049,6.98171
150.616,65.6743,12.8852,0,8.62446,3.91107,3.34824,-0.213415,-2.92683,-5.2439,-9.20646,0.804727,2.95545,-1.40244,-19.4817,7.2561
150.626,65.6143,13.0738,0,8.55262,3.98771,3.32668,0.121951,-3.2622,-4.72561,-9.2352,0.833467,2.92192,-1.34146,-18.1098,7.22561
150.636,65.5657,13.3028,0,8.55262,4.03082,3.40332,0.27439,-2.89634,-3.10976,-9.09628,0.790356,3.09197,-0.97561,-17.0732,7.43902
150.646,65.5245,13.5007,0,8.49513,4.00447,3.30752,0.762195,-3.35366,-2.28659,-8.96456,0.816702,2.95066,-1.21951,-16.2805,7.7439
150.656,65.488,13.6741,0,8.46879,3.99489,3.27639,0.823171,-3.17073,-1.52439,-9.10826,0.780776,2.92432,-0.884146,-15.9756,7.40854
150.666,65.4599,13.8633,0,8.44244,3.93981,3.21891,0.0914634,-2.83537,-1.34146,-9.17292,0.737666,3.04646,-0.97561,-16.0671,7.62195
150.676,65.4446,14.0414,0,8.44244,3.87993,3.30273,0.762195,-2.40854,-1.09756,-9.03162,0.819097,2.98419,-1.15854,-15.6098,8.75
150.686,65.4646,14.2588,0,8.49513,3.69073,3.30992,1.15854,-2.16463,-1.31098,-9.17053,0.735271,3.23807,-1.18902,-16.8293,9.20732
150.697,65.4777,14.5621,0,8.52627,3.7051,3.33626,2.07317,-2.80488,-1.61585,-9.35974,0.857417,3.74342,-0.579268,-24.1768,9.60366
150.706,65.4743,14.6763,0,8.61968,3.81527,3.3171,2.59146,-2.86585,-1.98171,-9.46991,0.689766,2.95785,-2.13415,-20.1524,8.71951
150.716,65.4528,14.8378,0,8.66279,3.97094,3.30992,2.56098,-2.95732,-1.95122,-9.62079,0.689766,3.24525,-1.79878,-23.0488,9.2378
150.726,65.4223,14.9792,0,8.63165,4.04279,3.24046,2.56098,-2.59146,-1.67683,-9.4723,0.694556,3.13269,-1.61585,-21.6768,10.7012
150.736,65.3856,15.1134,0,8.56699,4.06435,3.19256,2.2561,-2.16463,-1.52439,-9.40764,0.637075,3.10395,-1.12805,-22.2866,10.9146
150.746,65.3517,15.2284,0,8.54782,4.04758,3.23807,2.40854,-2.0122,-1.37195,-9.30465,0.66342,3.00575,-0.548781,-23.2317,10.8232
150.756,65.3173,15.309,0,8.45202,4.01166,3.27399,2.59146,-1.82927,-0.914634,-9.22322,0.699346,2.84528,-0.487805,-23.8415,11.1585
150.766,65.2793,15.3609,0,8.43765,4.02363,3.23567,2.80488,-2.56098,-0.670732,-9.32621,0.682581,2.76146,-0.0914634,-25.3659,10.5183
150.776,65.2594,15.4248,0,8.45681,3.95657,3.25244,2.92683,-3.44512,-0.0609756,-9.52739,0.701741,2.8836,-0.27439,-27.378,9.93902
150.786,65.2448,15.4796,0,8.40652,3.91346,3.24046,2.86585,-4.32927,-0.518293,-9.69025,0.704136,2.90037,-1.06707,-29.4817,9.39024
150.796,65.2546,15.5543,0,8.49034,3.83682,3.16382,2.77439,-4.05488,-0.731707,-9.89143,0.819097,3.06323,-2.07317,-32.0732,8.38415
150.806,65.2645,15.6436,0,8.68913,3.87993,3.14227,2.7439,-4.11585,-1.12805,-9.98963,0.866997,3.1758,-2.83537,-35.122,7.68293
150.816,65.2734,15.7495,0,8.71787,3.79611,3.11353,2.40854,-4.42073,-2.07317,-10.0136,0.898132,3.27878,-3.75,-38.1402,7.46951
150.826,65.273,15.8218,0,8.83044,3.87754,3.01054,1.98171,-3.93293,-2.40854,-10.004,0.878972,3.13029,-3.93293,-40.3659,7.68293
150.836,65.2852,15.9025,0,8.92863,3.86317,3.03928,2.07317,-4.14634,-1.98171,-10.0256,0.795146,3.19017,-3.44512,-41.7683,7.31707
150.846,65.2974,15.9842,0,8.96935,3.90867,3.0776,2.10366,-4.32927,-1.70732,-9.92736,0.773591,3.17819,-3.29268,-43.5366,7.22561
150.856,65.3375,16.0645,0,9.06036,3.73863,3.03209,2.10366,-2.95732,-1.67683,-9.82437,0.694556,3.15185,-2.71341,-44.9695,7.13415
150.866,65.3743,16.1535,0,8.79451,3.59732,3.1758,2.0122,-4.08537,-2.13415,-9.80521,0.723296,3.20214,-2.56098,-46.0671,6.7378
150.876,65.4322,16.2607,0,8.95737,3.35303,3.04646,2.13415,-2.56098,-3.07927,-9.7142,0.728086,3.27399,-2.07317,-47.1646,6.64634
150.886,65.462,16.3682,0,8.71787,3.37937,3.11113,2.07317,-4.54268,-4.08537,-9.616,0.725691,3.26202,-2.0122,-47.9878,6.55488
150.896,65.5006,16.4687,0,8.81128,3.21891,2.98898,1.76829,-1.76829,-5.27439,-9.46512,0.744851,3.19735,-2.22561,-48.628,7.13415
150.906,65.5204,16.5641,0,8.7059,3.19017,3.05365,2.43902,-4.02439,-6.92073,-9.43638,0.787961,3.18059,-2.34756,-50.6098,7.95732
150.916,65.5257,16.6672,0,8.68434,3.19496,3.21651,3.2622,-3.5061,-8.20122,-9.39566,0.716111,3.21891,-2.34756,-51.8902,7.86585
150.926,65.518,16.7987,0,8.76577,3.17819,3.13269,3.53659,-3.14024,-10.061,-9.3789,0.764011,3.36261,-2.07317,-53.689,7.9878
150.936,65.5124,16.9585,0,8.81846,3.08239,3.03688,3.20122,-4.54268,-11.2195,-9.41961,0.881367,3.53265,-2.16463,-55.8232,7.5
150.946,65.493,17.0975,0,8.89989,3.15903,3.0776,3.65854,-6.15854,-12.0732,-9.41243,1.01309,3.4608,-2.40854,-56.7378,7.59146
150.956,65.4496,17.2762,0,8.90947,3.25004,3.06802,3.32317,-7.40854,-13.5366,-9.27112,1.0586,3.61887,-2.77439,-57.6829,7.37805
150.966,65.3991,17.4862,0,9.20885,3.30513,2.9818,2.43902,-5.88415,-14.9695,-9.17772,0.993933,3.76258,-3.14024,-58.4756,7.95732
150.976,65.3379,17.6915,0,9.14418,3.18777,2.82133,1.89024,-6.37195,-17.2256,-9.21364,0.864602,3.79371,-3.07927,-58.6585,8.41463
150.986,65.265,17.8768,0,9.12502,3.04886,2.60818,1.64634,-8.38415,-20.061,-9.33818,0.692161,3.78892,-3.04878,-57.7744,8.90244
150.996,65.1615,18.0831,0,9.23759,3.16861,2.56986,1.4939,-9.63415,-22.4085,-9.32621,0.589175,3.92065,-1.79878,-57.4695,8.17073
151.006,65.0261,18.3225,0,9.38369,3.37937,2.64889,1.79878,-8.38415,-24.0854,-9.38608,0.502954,4.14817,-1.67683,-57.8354,8.01829
151.016,64.8555,18.538,0,9.35495,3.60211,2.83331,1.76829,-8.71951,-25.3963,-9.47949,0.447869,4.11704,-0.487805,-58.5061,7.86585
151.026,64.6462,18.8163,0,9.32621,3.89909,2.82373,-0.0914634,-9.35976,-26.372,-9.45314,0.529299,4.46192,0.731707,-60.1524,7.13415
151.036,64.4083,19.1293,0,9.0867,3.99729,2.63692,-2.59146,-10.5183,-27.561,-9.41243,0.6251,4.67508,1.37195,-62.1646,7.31707
151.046,64.1692,19.5039,0,9.19448,3.96136,2.86205,-2.80488,-10.4268,-29.0549,-9.34776,0.66342,5.02715,1.4939,-64.0854,7.71341
151.056,63.8988,19.8965,0,8.71787,3.9925,3.33387,-1.31098,-10.7927,-30.0915,-9.31423,0.673001,5.18282,2.22561,-65.5488,8.17073
151.066,63.6318,20.3258,0,8.78254,3.98771,3.20214,0.731707,-9.08537,-30.6707,-9.18969,0.665815,5.39358,3.20122,-66.3415,8.75
151.076,63.3555,20.7917,0,8.98132,4.21523,3.15664,4.48171,-11.7988,-30.7012,-9.04599,0.62031,5.59956,3.84146,-67.1037,8.93293
151.086,63.0586,21.289,0,9.35734,4.51461,2.84289,7.89634,-13.9329,-32.1037,-8.97893,0.61552,5.83427,4.69512,-67.5305,8.93293
151.096,62.7261,21.8231,0,9.12981,4.74214,2.89558,7.53049,-17.6524,-32.8963,-8.85439,0.66342,6.07137,4.87805,-68.5061,8.81098
151.106,62.3906,22.3781,0,9.22322,4.71819,3.18777,7.16463,-14.6341,-34.6037,-8.72745,0.835862,6.22466,4.69512,-69.0549,8.5061
151.116,62.0509,22.9767,0,8.77775,4.63197,3.19017,8.01829,-16.372,-34.2378,-8.59333,1.09692,6.50966,4.17683,-70.3049,8.87195
151.126,61.6929,23.61,0,8.5119,4.69184,3.01054,8.62805,-16.6463,-34.6646,-8.39215,1.35558,6.70366,3.17073,-71.25,8.59756
151.136,61.3596,24.2622,0,8.76098,4.70861,3.08479,8.38415,-16.372,-34.1159,-8.23408,1.4921,6.84257,1.7378,-71.1281,8.47561
151.146,61.0159,24.9309,0,8.85199,4.84752,3.21172,8.01829,-19.4817,-34.939,-7.9347,1.52563,6.84976,0.579268,-69.8171,8.35366
151.156,60.6928,25.6333,0,9.04599,4.81878,2.94108,7.77439,-18.2927,-34.878,-7.58503,1.49928,6.90963,-1.15854,-67.7134,7.62195
151.166,60.3799,26.3775,0,9.13221,4.8068,2.85726,7.40854,-16.5549,-35.0915,-7.29523,1.45617,7.0701,-3.29268,-65.6707,6.85976
151.176,60.0658,27.1415,0,8.81846,4.72058,2.94587,7.71341,-17.1037,-35.0305,-6.99106,1.33642,7.07968,-5.30488,-62.622,6.15854
151.186,59.7557,27.9027,0,8.74661,4.77806,2.80696,8.29268,-15.4268,-34.2683,-6.73719,1.26218,6.99346,-7.22561,-59.5732,4.96951
151.196,59.4323,28.6782,0,8.35143,4.78046,2.77822,9.63415,-15.5183,-33.9329,-6.45458,1.14721,6.9719,-7.59146,-56.6159,4.84756
151.206,59.0831,29.4562,0,8.04487,4.92177,2.85486,11.189,-16.4939,-33.811,-6.24142,1.08494,6.94556,-7.34756,-53.811,4.7561
151.216,58.7495,30.2423,0,8.09996,4.97446,2.69679,12.5,-17.3476,-32.7439,-6.06179,0.948428,6.98627,-6.46341,-51.3415,5.03049
151.226,58.4226,31.0226,0,8.10714,5.0511,2.71356,13.0793,-18.0183,-31.9817,-5.93965,0.799937,7.00543,-5.09146,-48.9634,5.27439
151.236,58.0907,31.8132,0,8.24605,5.29539,2.62494,12.6524,-18.3232,-31.5549,-5.89654,0.694556,7.21859,-3.84146,-46.311,5.09146
151.246,57.7458,32.6153,0,8.23408,5.49657,2.50759,11.311,-16.2805,-31.4939,-5.75523,0.64426,7.32636,-3.04878,-44.6951,5.15244
151.256,57.3807,33.4222,0,7.93949,5.55405,2.46208,10.7927,-15.3659,-31.7073,-5.60914,0.677791,7.38385,-1.98171,-43.0183,4.90854
151.266,57.0042,34.2219,0,7.57066,5.48459,2.39502,10.6402,-12.5,-31.6768,-5.40077,0.732876,7.27607,-1.25,-41.0061,5.21341
151.276,56.6156,35.0558,0,6.91442,5.27144,2.41657,12.2561,-15.2439,-30.8232,-5.1469,0.850232,7.37427,-0.457317,-38.7195,5.91463
151.286,56.2683,35.8979,0,6.83299,5.09421,2.33754,13.5061,-18.9634,-28.6585,-5.01517,0.931663,7.47486,-0.823171,-36.4634,7.28659
151.296,55.9987,36.6768,0,7.89877,5.31455,2.33514,13.5366,-20.8537,-27.1037,-5.07744,0.998723,7.3599,-2.13415,-33.75,7.83537
151.306,55.684,37.3666,0,7.52755,5.51813,2.28724,13.5976,-22.5305,-27.5305,-5.35287,0.948428,7.35271,-3.44512,-30.5793,7.31707
151.316,55.3891,37.9922,0,7.82213,5.61872,1.91362,13.689,-20.7927,-27.2866,-5.5804,1.00112,7.41259,-4.63415,-27.9268,6.7378
151.326,55.097,38.5744,0,7.98739,5.77679,1.99266,11.311,-19.2988,-27.2256,-5.74086,1.05381,7.49881,-5.42683,-26.4024,5.60976
151.336,54.8028,39.1428,0,7.82932,5.72649,2.08606,10.6707,-21.189,-27.4085,-5.70254,1.02267,7.51318,-5.64024,-25.7012,4.87805
151.346,54.4979,39.7019,0,7.86285,5.9636,2.02619,9.81707,-19.3598,-27.0732,-5.60674,0.893342,7.47725,-5.79268,-25.3354,4.29878
151.356,54.2182,40.2669,0,8.08319,5.99473,1.79866,7.53049,-16.128,-26.372,-5.45585,0.699346,7.46767,-5.54878,-24.3598,3.75
151.366,53.9485,40.8319,0,8.15025,6.04024,1.6813,5.64024,-13.0488,-25.9756,-5.28581,0.584385,7.38864,-5.33537,-23.2622,3.53659
151.376,53.6987,41.415,0,8.23408,6.0594,1.76034,3.14024,-7.5,-24.878,-5.17803,0.510139,7.52036,-5.45732,-21.5244,3.29268
151.386,53.4677,41.9841,0,8.13828,5.91091,1.90165,2.92683,-9.54268,-24.2073,-5.13253,0.536484,7.52036,-5.12195,-19.6037,3.29268
151.396,53.2082,42.5337,0,7.54192,5.84864,2.04535,3.68902,-4.42073,-23.9024,-5.17085,0.584385,7.60179,-5.2439,-17.6829,3.62805
151.406,52.9628,43.0843,0,7.46767,5.78876,1.70765,4.45122,-4.29878,-23.0183,-5.19959,0.632285,7.81255,-5.51829,-16.6768,4.17683
151.416,52.6999,43.6108,0,7.22817,5.80553,1.85854,4.5122,-5.67073,-23.2927,-5.23551,0.63468,7.85087,-5.85366,-16.0366,4.78659
151.426,52.4459,44.1116,0,7.2138,5.8175,2.19384,6.52439,-10.8537,-22.6829,-5.25946,0.536484,7.85087,-6.28049,-15.5488,5.7622
151.436,52.1982,44.5958,0,7.57784,6.12406,1.88488,6.25,-10.9451,-22.439,-5.24509,0.419128,7.85327,-6.06707,-15.2439,6.34146
151.446,51.9496,45.0461,0,7.76465,6.39231,1.78908,5.7622,-8.59756,-21.9817,-5.28102,0.347278,7.79818,-5.57927,-14.878,7.13415
151.456,51.6906,45.4682,0,7.75986,6.55038,1.74118,4.26829,-6.82927,-22.1037,-5.31455,0.306563,7.77184,-5.2439,-14.2378,7.86585
151.466,51.4282,45.8564,0,7.67125,6.51924,1.8274,3.75,-6.70732,-22.5915,-5.384,0.268242,7.74789,-4.60366,-13.6585,8.07927
151.476,51.18,46.2362,0,7.65927,6.47134,1.73639,3.75,-5.91463,-22.0122,-5.35526,0.349673,7.75747,-3.90244,-13.4451,8.14024
151.486,50.9423,46.6074,0,7.64011,6.38991,1.5376,4.17683,-4.93902,-22.0427,-5.31455,0.481399,7.74549,-3.93293,-12.8659,8.56707
151.496,50.6972,46.9691,0,7.34552,6.24621,1.46336,4.5122,-2.89634,-22.3171,-5.27144,0.56283,7.72154,-4.14634,-12.9878,8.53659
151.506,50.4408,47.3147,0,7.15153,6.30369,1.6358,3.65854,-1.37195,-21.8902,-5.23791,0.63947,7.65927,-4.54268,-12.561,8.81098
151.516,50.2085,47.6819,0,7.22338,6.21747,1.5879,3.59756,2.07317,-21.3415,-5.18043,0.716111,7.83411,-5.21341,-12.7744,8.93293
151.526,49.9749,48.0278,0,7.07728,6.21029,1.59987,4.11585,1.55488,-20.8232,-5.16845,0.749641,7.76465,-6.18902,-13.1707,9.2378
151.536,49.7413,48.3485,0,6.99106,6.32285,1.80824,5.64024,-1.67683,-19.5427,-5.14929,0.752036,7.65209,-6.67683,-12.7744,9.20732
151.546,49.5417,48.6457,0,7.46049,6.45697,1.46575,7.19512,1.37195,-19.1159,-5.19719,0.66342,7.6449,-6.40244,-12.8659,9.35976
151.556,49.3142,48.8959,0,7.13955,6.60307,1.75555,8.35366,-4.87805,-18.5061,-5.33131,0.512534,7.58503,-5.7622,-13.1402,9.42073
151.566,49.0869,49.1029,0,7.22817,6.72521,1.64538,8.20122,-3.5061,-18.5976,-5.45106,0.397573,7.51797,-4.69512,-13.5976,9.54268
151.576,48.8662,49.3008,0,7.2593,6.76593,1.61664,7.28659,-2.71341,-18.2927,-5.4822,0.263452,7.55389,-3.35366,-14.4207,9.72561
151.586,48.6578,49.5166,0,7.31918,6.74917,1.57832,6.34146,-0.396341,-18.1098,-5.43669,0.263452,7.67125,-2.46951,-15.2134,9.45122
151.596,48.4629,49.7738,0,7.2617,6.6366,1.30529,5.33537,4.45122,-17.6829,-5.32173,0.354463,7.87003,-2.34756,-16.0366,9.60366
151.606,48.2672,50.0573,0,6.98148,6.45218,1.55916,4.60366,5.60976,-17.5,-5.10858,0.433499,7.82213,-2.22561,-16.0976,9.72561
151.616,48.0872,50.3512,0,6.99585,6.43781,1.58311,4.42073,4.14634,-16.5549,-4.93853,0.479004,7.72394,-2.46951,-14.9695,9.17683
151.626,47.9146,50.654,0,6.94077,6.43542,1.71962,3.87195,3.5061,-15.7317,-4.87386,0.479004,7.77902,-2.37805,-13.5366,9.14634
151.636,47.7507,50.9364,0,6.91442,6.36836,1.67172,5.06098,0.670732,-15.5793,-4.93134,0.452659,7.80776,-2.2561,-12.2256,8.5061
151.646,47.5876,51.1627,0,6.95753,6.45937,1.56155,6.46341,-1.70732,-15.3659,-5.13971,0.299377,7.79339,-1.67683,-11.4024,8.10976
151.656,47.4251,51.3456,0,7.13955,6.63899,1.40588,7.83537,-2.9878,-15.5488,-5.36963,0.205972,7.87961,-0.670732,-11.0061,7.68293
151.666,47.2554,51.4918,0,7.28086,6.85215,1.31247,6.76829,-2.80488,-15.9146,-5.51094,0.0886157,7.86524,0.243902,-11.0061,6.79878
151.676,47.084,51.6515,0,7.25451,6.89526,1.31247,6.03659,-1.03659,-15.8537,-5.55405,0.0958008,8.07122,1.06707,-11.5549,6.25
151.686,46.9099,51.8075,0,7.18745,6.94556,1.35798,3.59756,0.0914634,-15.5183,-5.51573,0.102986,8.03529,1.40244,-11.7988,6.31098
151.696,46.7549,51.9913,0,7.26649,6.90724,1.25978,2.16463,0.182927,-14.878,-5.40556,0.177231,8.13349,1.46341,-11.6463,6.21951
151.706,46.5968,52.1961,0,7.04136,6.82341,1.36756,1.58537,1.06707,-14.3902,-5.27144,0.320933,8.15025,1.03659,-11.128,6.12805
151.716,46.4533,52.4127,0,7.10123,6.79467,1.42025,2.31707,-1.12805,-13.9634,-5.21635,0.474214,8.2245,0.0609756,-10.4573,6.21951
151.726,46.3187,52.6032,0,7.05094,6.72521,1.24302,2.53049,-1.52439,-13.5366,-5.31215,0.57241,8.23408,-1.12805,-9.87805,5.94512
151.736,46.1793,52.7667,0,6.96472,6.6845,1.47533,3.17073,-3.2622,-13.9329,-5.40077,0.675395,8.21731,-1.7378,-9.7561,5.70122
151.746,46.0444,52.9019,0,7.08686,6.7348,1.2981,2.7439,-2.28659,-14.3293,-5.51813,0.732876,8.2221,-2.68293,-9.5122,5.45732
151.756,45.9021,53.0206,0,7.01022,6.72521,1.4418,1.7378,-3.62805,-14.8171,-5.59956,0.6251,8.25563,-3.20122,-9.39024,5.30488
151.766,45.7733,53.1104,0,7.27846,6.8282,1.37714,1.61585,-2.86585,-15.0305,-5.72649,0.474214,8.25084,-3.01829,-10.0305,4.60366
151.776,45.6428,53.1912,0,7.39343,6.95993,1.46575,1.67683,-3.65854,-15.2744,-5.72889,0.289797,8.21252,-2.10366,-10.3049,3.93293
151.786,45.515,53.2734,0,7.38864,7.01501,1.50407,1.28049,-5.21341,-14.7561,-5.64267,0.170046,8.12391,-1.18902,-10.0305,3.41463
151.796,45.3922,53.3818,0,7.61616,7.12279,1.52084,0.365854,-2.37805,-15.3963,-5.48459,0.110171,8.11912,0.121951,-9.7561,3.38415
151.806,45.2753,53.5033,0,7.47246,6.90245,1.40588,0,-1.0061,-15.7622,-5.36484,0.143701,8.07601,0.670732,-9.39024,3.44512
151.816,45.1605,53.6271,0,7.22577,6.65576,1.59029,0.0914634,0.182927,-15.9451,-5.25707,0.325723,7.96823,0.701219,-8.93293,4.14634
151.826,45.047,53.776,0,7.09405,6.52643,1.66454,-0.27439,2.13415,-16.128,-5.13013,0.56283,8.00416,0.0914634,-8.62805,4.84756
151.836,44.9369,53.92,0,7.03417,6.52643,1.57832,0.27439,2.07317,-15.5183,-5.08702,0.735271,7.94428,-0.457317,-8.59756,5.79268
151.846,44.835,54.0435,0,7.0677,6.49529,1.57592,0.670732,1.92073,-15.4573,-5.11816,0.807122,7.87961,-1.58537,-8.32317,6.4939
151.856,44.7385,54.1598,0,7.1156,6.55277,1.43222,0.792683,1.34146,-15,-5.1445,0.792751,7.90356,-2.65244,-7.89634,7.10366
151.866,44.6463,54.2572,0,7.12518,6.55038,1.41067,0.762195,1.61585,-14.8476,-5.17803,0.708926,7.84608,-3.10976,-7.77439,7.07317
151.876,44.5578,54.33,0,7.09884,6.60546,1.45378,0.945122,1.61585,-13.9634,-5.21156,0.514929,7.7431,-2.65244,-7.13415,6.61585
151.886,44.4714,54.3996,0,7.04136,6.64378,1.42743,1.28049,2.34756,-13.1098,-5.19001,0.397573,7.70717,-2.07317,-6.18902,6.70732
151.896,44.389,54.476,0,7.12279,6.65336,1.59269,2.0122,3.5061,-13.4756,-5.17085,0.292192,7.7431,-1.25,-5.06098,6.58537
151.906,44.2923,54.5427,0,7.03417,6.74438,1.6358,2.28659,2.68293,-13.5671,-5.18522,0.249082,7.71915,-0.0914634,-5.39634,6.21951
151.916,44.1888,54.5958,0,7.04375,6.82581,1.69567,1.92073,2.7439,-13.8415,-5.21156,0.241897,7.68083,1.09756,-5.82317,6.58537
151.926,44.0684,54.6522,0,6.924,6.92161,1.65975,1.92073,2.86585,-13.9634,-5.22354,0.268242,7.73831,1.37195,-6.25,6.70732
151.936,43.9364,54.7218,0,6.75875,6.90245,1.70765,2.07317,2.31707,-14.1463,-5.28102,0.308958,7.93949,1.89024,-7.56098,7.10366
151.946,43.8161,54.7759,0,6.79946,6.82341,1.50407,3.14024,1.52439,-14.2378,-5.35047,0.419128,7.94667,2.19512,-7.92683,7.7439
151.956,43.6987,54.8346,0,6.93358,6.89766,1.47054,3.53659,2.04268,-14.6951,-5.39598,0.462239,8.06643,2.07317,-7.40854,7.68293
151.966,43.5768,54.9059,0,7.02938,7.00783,1.54958,3.38415,2.13415,-15.2744,-5.37203,0.479004,8.14546,2.71341,-7.65244,7.65244
151.976,43.464,54.9955,0,7.18027,7.07968,1.43222,3.47561,2.59146,-15.2439,-5.33371,0.502954,8.25324,3.17073,-7.89634,7.83537
151.986,43.3394,55.0994,0,7.10602,7.14195,1.26697,2.62195,3.84146,-15.5488,-5.31934,0.529299,8.37538,3.47561,-8.17073,8.32317
151.996,43.2096,55.1979,0,7.00304,7.1156,1.45617,2.28659,5.03049,-15.7012,-5.29299,0.524509,8.32269,2.77439,-8.07927,8.04878
152.006,43.0786,55.3049,0,6.83539,6.95993,1.62622,2.71341,4.7561,-15.9756,-5.24988,0.593965,8.35622,2.46951,-7.56098,8.2622
152.016,42.9358,55.4122,0,6.69887,6.98627,1.4921,2.62195,2.89634,-16.0366,-5.2403,0.646655,8.37778,1.98171,-7.10366,8.47561
152.026,42.7923,55.5095,0,6.66294,6.98867,1.6334,3.01829,0.731707,-16.0671,-5.27862,0.785566,8.39215,0.884146,-6.40244,8.32317
152.036,42.6493,55.587,0,6.75156,7.12518,1.52084,2.83537,0.182927,-15.9451,-5.33371,0.795146,8.34904,0.426829,-5.79268,7.92683
152.046,42.5085,55.6727,0,6.78988,7.2114,1.49928,2.13415,0.0304878,-15.6402,-5.29778,0.809517,8.38257,-0.579268,-5.39634,7.46951
152.056,42.3777,55.7438,0,6.80186,7.24733,1.46575,2.43902,0.97561,-14.7256,-5.2882,0.771196,8.2724,-1.03659,-4.57317,6.7378
152.066,42.2567,55.8327,0,6.96232,7.33834,1.3963,2.62195,1.52439,-14.6341,-5.2427,0.752036,8.3682,-1.85976,-4.7561,6.31098
152.076,42.1293,55.9214,0,6.85934,7.30241,1.31487,1.46341,3.14024,-14.939,-5.20438,0.61552,8.32988,-1.95122,-4.5122,5.7622
152.086,41.9927,56.0078,0,6.74917,7.2617,1.37235,0.97561,3.93293,-15.5183,-5.1469,0.531694,8.2221,-1.95122,-3.53659,5.67073
152.096,41.8602,56.084,0,6.72042,7.19464,1.48012,0.762195,3.84146,-15.6707,-5.10379,0.404758,8.07122,-2.31707,-2.95732,5.73171
152.106,41.733,56.1802,0,6.74438,7.13955,1.41785,2.10366,3.81098,-16.0671,-5.06786,0.356858,8.15983,-1.85976,-2.68293,5.91463
152.116,41.5901,56.2647,0,6.67731,7.27367,1.55676,2.37805,3.87195,-16.25,-5.03433,0.265847,8.02811,-0.97561,-2.5,6.18902
152.126,41.4592,56.3692,0,6.75875,7.35271,1.41546,2.46951,3.56707,-15.3963,-4.96248,0.205972,8.07601,-0.213415,-2.56098,6.31098
152.136,41.329,56.4982,0,6.6821,7.21859,1.46815,2.0122,4.84756,-16.0061,-4.905,0.186812,8.17181,0.335366,-2.46951,6.18902
152.146,41.1896,56.6346,0,6.43781,6.99585,1.48731,2.71341,4.57317,-16.8598,-4.88105,0.153281,8.17181,0.304878,-2.19512,5.97561
152.156,41.0534,56.8296,0,6.27256,6.83299,1.67651,5.33537,2.0122,-16.6768,-4.79722,0.227527,8.1287,0.365854,-1.34146,5.94512
152.166,40.9167,57.1494,0,6.29172,6.90005,1.66454,5.70122,0.152439,-16.6159,-4.69903,0.387993,8.14546,0.487805,-0.640244,5.91463
152.176,40.7976,57.478,0,6.45697,7.00783,1.56395,6.58537,-2.46951,-15.7012,-4.6655,0.603545,8.02571,0.365854,0.426829,6.55488
152.186,40.6806,57.6255,0,6.46895,7.14434,1.41546,6.0061,-2.65244,-14.7256,-4.70861,0.720901,8.05206,-0.0914634,1.4939,6.98171
152.196,40.5603,57.7257,0,6.42823,7.24014,1.30529,3.9939,-1.7378,-14.1463,-4.73735,0.795146,8.06643,-0.609756,2.28659,7.40854
152.206,40.4411,57.8095,0,6.3971,7.26409,1.33882,2.77439,-0.457317,-13.811,-4.81878,0.799937,8.13588,-1.28049,2.19512,7.40854
152.216,40.3278,57.9272,0,6.3947,7.22098,1.45378,2.34756,0.121951,-13.7805,-4.80201,0.687371,8.1742,-1.82927,1.34146,6.95122
152.226,40.2118,58.0318,0,6.34441,7.24254,1.49689,2.95732,-0.0609756,-13.6585,-4.79722,0.56762,8.09996,-1.95122,1.21951,6.55488
152.236,40.0862,58.0969,0,6.25819,7.35271,1.5376,4.42073,-0.731707,-13.2012,-4.78285,0.483794,7.98499,-1.67683,1.70732,6.43293
152.246,39.9597,58.1413,0,6.14562,7.25691,1.43701,4.96951,-1.21951,-13.2622,-4.77088,0.342488,7.93709,-1.25,2.53049,6.0061
152.256,39.8251,58.1706,0,6.0091,7.21619,1.3939,4.72561,-0.823171,-13.3841,-4.77327,0.299377,7.8844,-0.97561,3.2622,5.97561
152.266,39.7021,58.2017,0,6.11928,7.2593,1.56395,5.36585,-1.25,-13.1707,-4.73735,0.337698,7.8365,-0.670732,2.9878,6.18902
152.276,39.5709,58.2363,0,6.11688,7.47725,1.45857,5.42683,-0.731707,-12.5305,-4.75411,0.459844,7.86045,-0.426829,2.19512,6.61585
152.286,39.4319,58.2583,0,6.00192,7.60898,1.38432,3.68902,0.426829,-11.5244,-4.76848,0.57241,7.791,0.0914634,1.40244,7.28659
152.296,39.309,58.2243,0,6.057,7.59461,1.37953,2.37805,2.04268,-10.7927,-4.84752,0.694556,7.75028,-0.457317,0.609756,7.95732
152.306,39.1983,58.1758,0,6.00671,7.48444,1.41067,1.92073,6.12805,-10.1524,-4.89063,0.699346,7.79579,-0.487805,-0.213415,9.05488
152.316,39.0918,58.1225,0,5.98036,7.42935,1.60945,3.81098,3.90244,-10.122,-5.02236,0.706531,7.90117,-0.762195,-0.914634,9.26829
152.326,38.9918,58.1253,0,6.07856,7.52036,1.56155,3.29268,1.43293,-9.90854,-5.04152,0.689766,8.11912,-0.945122,-1.67683,9.08537
152.336,38.889,58.1274,0,6.11209,7.61137,1.59508,2.68293,1.0061,-10.0305,-5.07505,0.692161,8.17181,-1.21951,-2.31707,8.81098
152.346,38.7866,58.1365,0,6.13125,7.75986,1.54,2.07317,0,-9.26829,-5.06786,0.661025,8.21013,-1.09756,-2.77439,8.38415
152.356,38.6808,58.1544,0,6.11448,7.77423,1.43941,0.487805,1.46341,-9.57317,-4.98643,0.613125,8.14067,-0.97561,-2.71341,7.77439
152.366,38.5703,58.1754,0,6.03066,7.75268,1.53521,0.213415,2.13415,-9.63415,-4.90979,0.57241,8.01613,0.152439,-1.89024,7.2561
152.376,38.4656,58.2062,0,5.93246,7.6473,1.50168,-0.365854,2.59146,-9.11585,-4.81638,0.548459,7.90596,0.609756,-1.70732,7.46951
152.386,38.3606,58.2476,0,5.8175,7.47965,1.56155,-0.213415,3.35366,-9.5122,-4.81638,0.404758,8.05445,1.25,-3.20122,7.31707
152.396,38.2514,58.3034,0,5.76002,7.46528,1.54,0.121951,3.29268,-9.69512,-4.75651,0.438289,8.08559,1.79878,-3.59756,7.77439
152.406,38.1416,58.3461,0,5.68099,7.42456,1.69328,0.731707,1.98171,-9.5122,-4.75172,0.457449,7.99937,1.79878,-3.78049,8.62805
152.416,38.0413,58.3864,0,5.79116,7.51797,1.41546,1.58537,-0.243902,-9.14634,-4.83794,0.529299,8.14546,1.40244,-3.96341,9.69512
152.426,37.973,58.3972,0,6.09293,7.62814,1.36756,2.56098,-4.39024,-8.14024,-4.96488,0.61552,8.14307,1.03659,-4.45122,9.7561
152.436,37.9177,58.3991,0,6.28214,7.6952,1.42504,1.52439,-3.81098,-8.20122,-5.10379,0.684976,8.30353,0.731707,-4.5122,9.42073
152.446,37.8603,58.3951,0,6.39231,7.82213,1.41306,0.762195,-2.83537,-8.59756,-5.19719,0.728086,8.40652,0.579268,-4.90854,8.87195
152.456,37.7975,58.3948,0,6.35638,7.86285,1.52802,-0.304878,-1.58537,-8.62805,-5.26186,0.771196,8.54064,0.609756,-4.96951,8.32317
152.466,37.7509,58.3938,0,6.42105,7.76944,1.59029,-0.0304878,-0.457317,-8.38415,-5.27383,0.761616,8.55501,0.182927,-4.66463,7.95732
152.476,37.7011,58.4094,0,6.32764,7.66646,1.48491,-0.0304878,0.762195,-8.71951,-5.1924,0.742456,8.5598,0,-4.57317,7.62195
152.486,37.6425,58.445,0,6.24621,7.69759,1.28134,-1.46341,2.77439,-8.75,-5.15408,0.708926,8.66997,-0.243902,-4.39024,8.10976
152.496,37.5786,58.4962,0,6.12885,7.63293,1.35319,-1.58537,4.48171,-8.81098,-5.05828,0.740061,8.65321,-0.304878,-4.32927,8.23171
152.506,37.4959,58.5345,0,5.97557,7.66406,1.45857,-0.426829,4.35976,-9.17683,-5.13492,0.744851,8.68674,-0.762195,-3.71951,8.87195
152.516,37.3984,58.5651,0,5.91809,7.82453,1.52323,1.09756,1.09756,-9.14634,-5.13253,0.850232,8.62926,-0.914634,-3.5061,9.17683
152.526,37.3086,58.5849,0,6.0091,7.89638,1.56395,2.07317,-1.92073,-8.90244,-5.2882,0.845442,8.80888,-0.884146,-2.9878,9.63415
152.536,37.2276,58.5754,0,6.24142,8.03769,1.54,2.71341,-3.41463,-9.32927,-5.43669,0.764011,8.81846,-0.365854,-2.83537,8.87195
152.546,37.1573,58.5415,0,6.50008,8.09996,1.45617,2.95732,-3.07927,-10.2744,-5.54926,0.632285,8.81128,-0.0609756,-2.19512,7.92683
152.556,37.1011,58.5305,0,6.70126,8.05685,1.3939,2.65244,-1.31098,-11.0366,-5.55645,0.490979,8.9933,0.670732,-1.82927,6.89024
152.566,37.0286,58.5344,0,6.63181,7.99458,1.49449,1.98171,1.61585,-12.6524,-5.53489,0.402363,9.06994,1.55488,-1.61585,5.7622
152.576,36.946,58.589,0,6.66294,7.99697,1.57353,3.59756,1.79878,-14.0854,-5.35766,0.332908,9.07473,2.53049,-0.609756,5.12195
152.586,36.8436,58.6728,0,6.66534,8.17899,1.41067,4.81707,2.65244,-15,-5.22593,0.330513,9.04838,2.89634,0.701219,5.4878
152.596,36.7154,58.7437,0,6.4905,8.23887,1.54958,4.32927,2.80488,-15.9146,-5.15169,0.380808,9.03401,2.65244,2.34756,6.61585
152.606,36.57,58.8166,0,6.38273,8.24366,1.43941,3.96341,3.23171,-16.9512,-5.12055,0.512534,9.05317,2.19512,3.01829,8.2622
152.616,36.4203,58.8541,0,6.2989,8.26282,1.32924,2.2561,3.93293,-16.7988,-5.25946,0.665815,9.01246,1.03659,3.04878,9.5122
152.626,36.2574,58.8439,0,6.13365,8.14786,1.5855,1.98171,3.44512,-17.7439,-5.40556,0.799937,8.86397,0.365854,3.17073,10.061
152.636,36.0905,58.8106,0,6.11688,8.15025,1.4418,1.98171,2.77439,-18.3232,-5.53968,0.924478,8.88073,0.182927,3.56707,10.1829
152.646,35.9102,58.7596,0,6.02826,8.11912,1.54958,2.46951,2.37805,-19.4207,-5.63548,0.941243,8.86876,-0.762195,3.84146,9.63415
152.656,35.7163,58.7066,0,5.95402,8.13349,1.51126,3.68902,1.95122,-20.3963,-5.6762,0.917292,8.89989,-0.548781,3.56707,9.02439
152.666,35.5134,58.6708,0,5.9133,8.21013,1.46336,5.03049,0.853659,-20.7927,-5.63309,0.802332,8.95977,-0.457317,3.65854,8.71951
152.676,35.3093,58.6479,0,6.0091,8.26521,1.38432,4.48171,1.61585,-21.8598,-5.54687,0.742456,8.92145,-0.579268,3.2622,8.47561
152.686,35.1093,58.6383,0,6.05461,8.22689,1.53281,4.39024,1.40244,-22.5305,-5.43669,0.684976,8.8472,-0.518293,4.11585,8.38415
152.696,34.8924,58.6477,0,5.87738,8.18139,1.4897,3.04878,4.20732,-23.3232,-5.33371,0.65863,8.84241,-0.487805,5.18293,8.32317
152.706,34.6885,58.6802,0,5.95641,8.00176,1.51365,2.80488,3.96341,-24.4207,-5.17324,0.632285,8.78254,-0.914634,6.85976,8.07927
152.716,34.4856,58.7319,0,5.85582,7.90356,1.33882,3.47561,1.98171,-24.4817,-5.02236,0.704136,8.70829,-1.43293,8.38415,7.40854
152.726,34.2809,58.8027,0,5.78397,7.9323,1.32924,3.04878,2.43902,-24.1768,-4.89302,0.699346,8.67237,-2.04268,9.78659,7.7439
152.736,34.0721,58.8565,0,5.64506,7.97781,1.3005,4.11585,1.61585,-23.3537,-4.8571,0.735271,8.48795,-2.56098,11.7988,7.7439
152.746,33.8582,58.8933,0,5.56363,8.04248,1.29092,3.35366,0.97561,-23.0488,-4.82836,0.6251,8.31311,-1.92073,13.4146,7.56098
152.756,33.6455,58.9022,0,5.46064,8.03529,1.52323,3.04878,-1.76829,-22.4085,-4.90739,0.474214,8.22929,-1.82927,14.7866,6.98171
152.766,33.437,58.8898,0,5.41753,8.1287,1.51126,2.9878,-3.29268,-21.3415,-4.98643,0.474214,8.19097,-1.67683,15.5793,6.25
152.776,33.2412,58.8581,0,5.48938,8.14307,1.45378,3.10976,-2.5,-21.0976,-5.0032,0.505349,8.05924,-1.18902,16.128,6.31098
152.786,33.0411,58.8276,0,5.36245,8.14786,1.50886,3.93293,-3.68902,-20.6402,-4.99362,0.486189,8.04487,-0.731707,16.9207,6.37195
152.796,32.8148,58.7782,0,5.10379,8.14786,1.55676,4.05488,-3.5061,-21.0976,-5.10379,0.447869,8.06164,-0.213415,16.6768,6.21951
152.806,32.5787,58.7142,0,4.99601,8.11672,1.41306,4.11585,-5.51829,-21.6463,-5.12295,0.457449,7.96344,0.213415,16.9817,6.46341
152.816,32.3447,58.6393,0,4.99122,8.08319,1.33403,5.30488,-8.04878,-22.0732,-5.16606,0.498164,7.92751,0.182927,17.5305,6.95122
152.826,32.1133,58.5622,0,5.15169,8.34664,1.26218,5.12195,-8.44512,-22.2561,-5.17564,0.514929,7.90356,0.518293,17.622,6.79878
152.836,31.8661,58.4947,0,4.93134,8.40412,1.13045,4.32927,-10,-21.7378,-5.19959,0.58678,7.98979,0.335366,18.0183,6.55488
152.846,31.6167,58.4269,0,4.9529,8.58854,1.12326,4.63415,-9.11585,-21.5854,-5.27383,0.661025,8.0808,0.762195,17.561,6.76829
152.856,31.3604,58.2887,0,4.88824,8.79451,1.14961,3.71951,-8.23171,-20.9451,-5.27623,0.684976,7.54192,1.37195,17.4695,6.25
152.866,31.1195,58.0996,0,4.96009,8.66997,1.22146,3.75,-8.41463,-21.3415,-5.21875,0.66342,7.08207,1.37195,20.3354,5.82317
152.876,30.8712,58.0121,0,4.92177,8.73464,1.14961,4.63415,-7.46951,-21.8293,-5.24509,0.63468,7.77423,1.43293,20.6707,5.51829
152.886,30.608,57.9417,0,4.8068,8.76098,1.15679,5.21341,-7.5,-22.5305,-5.40077,0.531694,8.10475,2.40854,17.9573,4.87805
152.896,30.3396,57.8148,0,4.77088,8.75619,1.3005,4.93902,-7.56098,-23.2622,-5.58279,0.397573,7.92033,3.78049,16.6768,4.2378
152.906,30.0785,57.6993,0,4.76848,8.67716,1.33403,3.81098,-8.78049,-23.4756,-5.60914,0.385598,8.00416,4.90854,16.0061,4.05488
152.916,29.8551,57.507,0,5.01038,8.48555,1.25499,2.89634,-9.45122,-23.7805,-5.48699,0.361648,7.26409,5.09146,18.689,4.05488
152.926,29.6357,57.3647,0,4.95051,8.42807,1.16398,2.0122,-9.93902,-23.5671,-5.23072,0.335303,7.20661,4.66463,22.8049,4.57317
152.936,29.4066,57.2607,0,4.74453,8.37299,1.22625,0.762195,-9.63415,-23.1707,-5.09421,0.296982,7.23535,5.85366,22.8354,4.57317
152.946,29.1895,57.1041,0,4.69184,8.43526,1.19272,0.609756,-9.35976,-21.4939,-4.86189,0.344883,6.55517,6.09756,26.2805,4.2378
152.956,28.9843,57.0603,0,4.50743,8.54303,0.986748,0,-12.3476,-18.1402,-4.93134,0.421523,7.34792,5.51829,27.5305,4.14634
152.966,28.7927,57.0608,0,4.44516,8.53345,1.03225,-0.518293,-11.9817,-16.5549,-5.12534,0.550855,7.95146,5.21341,24.7561,3.65854
152.976,28.6155,56.9666,0,4.22242,8.30353,1.12326,-1.09756,-15.6402,-14.3293,-5.34089,0.718506,7.57066,4.63415,23.1707,3.17073
152.986,28.5009,56.7991,0,4.57688,8.2221,0.981958,-1.92073,-16.9207,-12.6829,-5.51573,0.833467,7.28086,3.75,23.7195,2.07317
152.996,28.4387,56.6203,0,4.91698,8.09517,1.00591,-1.92073,-19.9695,-12.0122,-5.56603,0.898132,7.23056,3.35366,25.6402,1.79878
153.006,28.375,56.4476,0,4.80201,8.1766,0.998723,-1.7378,-21.6463,-10.5488,-5.64985,0.819097,7.33355,2.92683,26.189,1.37195
153.016,28.3313,56.2047,0,4.86189,8.13588,0.869392,-1.15854,-22.378,-9.54268,-5.55166,0.65863,6.72282,3.29268,27.7744,0.731707
153.026,28.2776,56.0196,0,4.67508,8.10954,0.864602,-1.25,-22.7744,-8.81098,-5.44627,0.462239,6.89047,3.71951,29.3902,-0.27439
153.036,28.2275,55.8855,0,4.48587,7.98979,0.797541,-0.97561,-21.7378,-7.22561,-5.47022,0.234712,7.19943,4.42073,28.3232,-1.37195
153.046,28.19,55.7861,0,4.45474,7.9826,0.730481,-1.58537,-23.1098,-5.7622,-5.43909,0.129331,7.35271,4.81707,26.8902,-2.10366
153.056,28.1846,55.6895,0,4.67987,7.95146,0.744851,-1.70732,-25.0305,-5.30488,-5.4798,0.177231,7.40061,4.5122,26.9512,-2.13415
153.066,28.2049,55.5714,0,5.02715,8.02811,0.57241,-2.40854,-23.4451,-5.88415,-5.54687,0.347278,7.31918,4.26829,27.6829,-1.34146
153.076,28.2425,55.4254,0,5.40556,8.1742,0.641865,-3.84146,-23.3841,-6.95122,-5.78158,0.57241,7.4054,4.05488,27.4085,-0.243902
153.086,28.246,55.2525,0,5.18522,8.34664,0.759221,-4.78659,-22.4695,-7.0122,-5.93007,0.665815,7.37187,4.54268,25.7012,1.43293
153.096,28.2604,55.0225,0,5.38879,8.38496,0.684976,-4.7561,-16.25,-7.68293,-6.03545,0.665815,7.08447,4.81707,25.2439,2.53049
153.106,28.2613,54.792,0,5.33371,8.52866,0.55804,-4.02439,-14.7866,-7.59146,-6.08814,0.536484,7.08447,5.39634,25,3.2622
153.116,28.2522,54.5708,0,5.26665,8.5119,0.871787,-3.07927,-12.1951,-8.04878,-6.04263,0.548459,7.03178,6.09756,24.5122,3.29268
153.126,28.1992,54.3531,0,4.8092,8.61968,0.761616,-2.68293,-8.44512,-7.2561,-6.04982,0.474214,7.00783,6.43293,24.5732,3.10976
153.136,28.1446,54.1895,0,4.78525,8.68913,0.371228,-1.82927,-5.21341,-6.89024,-6.07856,0.58199,7.33115,6.67683,23.628,2.5
153.146,28.0648,54.0246,0,4.45713,8.5119,0.728086,-1.18902,-5.2439,-7.10366,-6.13125,0.673001,7.34313,6.61585,22.6524,1.92073
153.156,27.9609,53.8493,0,4.28229,8.4616,1.02267,-0.182927,-10.0915,-8.10976,-6.24382,0.764011,7.36469,6.58537,22.622,1.55488
153.166,27.8821,53.6697,0,4.50264,8.37059,0.898132,-0.0304878,-10.5183,-8.68902,-6.33722,0.773591,7.40061,5.85366,22.5,1.34146
153.176,27.8237,53.4639,0,4.8547,8.51669,0.799937,0.243902,-10.4573,-9.63415,-6.42823,0.713716,7.28804,6.03659,22.9573,0.823171
153.186,27.7471,53.232,0,4.86428,8.74901,0.744851,-1.06707,-9.7561,-10.3659,-6.42823,0.589175,7.0701,6.03659,23.2317,1.28049
153.196,27.6511,52.9989,0,4.75651,8.89031,0.775986,-1.92073,-7.80488,-10.6098,-6.42344,0.443079,7.00064,6.67683,23.4146,1.43293
153.206,27.5252,52.8011,0,4.49066,8.95737,0.835862,-2.71341,-6.79878,-10.7622,-6.37075,0.368833,7.10363,7.5,22.4695,1.21951
153.216,27.3841,52.6196,0,4.33738,8.92863,0.912502,-2.53049,-8.41463,-11.0976,-6.37315,0.354463,7.15871,8.07927,20.9451,1.58537
153.226,27.2335,52.4139,0,4.16494,8.67237,1.03944,-1.4939,-8.93293,-11.8293,-6.35878,0.457449,6.94556,8.23171,20.4878,2.04268
153.236,27.1015,52.2515,0,4.17691,8.40412,1.09452,0.365854,-10.061,-11.8293,-6.35638,0.603545,7.1635,7.83537,20.4878,2.04268
153.246,27.0098,52.0849,0,4.41163,8.32269,1.02507,0.0609756,-12.2256,-11.0366,-6.43063,0.783171,7.17787,6.89024,20.0305,2.19512
153.256,26.962,51.8994,0,4.70382,8.20294,0.977168,-0.701219,-13.628,-10.6402,-6.38752,0.950823,6.9719,5.57927,21.128,2.16463
153.266,26.9378,51.7085,0,4.93853,8.26042,0.835862,-0.243902,-15.4878,-10.4573,-6.42105,1.11129,6.93119,5.21341,21.9512,2.22561
153.276,26.9028,51.5093,0,5.0008,8.35622,0.526904,-1.95122,-12.2256,-11.6463,-6.43302,1.24781,6.84736,4.57317,22.3476,2.31707
153.286,26.8418,51.3118,0,4.89542,8.45202,0.64905,-3.71951,-9.63415,-12.7134,-6.47613,1.22146,6.85694,3.90244,22.6829,2.19512
153.296,26.7884,51.1087,0,4.94811,8.54543,0.840652,-2.9878,-9.11585,-12.0427,-6.47374,1.11608,6.77312,3.01829,22.8963,2.37805
153.306,26.741,50.899,0,4.92416,8.44484,0.673001,-2.40854,-5.03049,-11.8902,-6.50487,0.958008,6.72042,2.43902,24.2683,2.68293
153.316,26.6976,50.7069,0,4.93853,8.46879,0.761616,-2.83537,-2.59146,-11.5854,-6.5887,0.838257,6.86413,2.19512,25.0915,2.65244
153.326,26.6748,50.4782,0,5.06786,8.34185,0.819097,-2.10366,-3.9939,-11.6768,-6.66055,0.701741,6.67492,2.2561,26.4939,2.77439
153.336,26.6405,50.2371,0,4.96009,8.3203,0.802332,-1.40244,-5,-11.9207,-6.75635,0.692161,6.64618,2.34756,27.9268,2.80488
153.346,26.5901,49.9834,0,4.91219,8.34904,0.785566,-0.396341,-5.73171,-12.9573,-6.86652,0.713716,6.62462,2.86585,28.8415,2.53049
153.356,26.5211,49.7249,0,4.76848,8.30593,0.838257,0.609756,-5.91463,-13.7195,-6.95035,0.821492,6.61983,3.17073,30.0915,2.53049
153.366,26.4031,49.4584,0,4.41163,8.39215,1.04902,1.31098,-9.05488,-14.5122,-6.99585,0.912502,6.55756,3.38415,30.6402,2.2561
153.376,26.2565,49.2025,0,4.25595,8.67716,0.958008,2.19512,-8.78049,-14.3902,-7.1156,1.04662,6.67013,2.77439,31.128,1.82927
153.386,26.1172,48.9104,0,4.26553,8.84002,0.953218,2.04268,-8.17073,-13.2012,-7.22577,1.06818,6.50248,2.65244,31.9512,1.55488
153.396,25.9934,48.6081,0,4.30864,8.91426,0.852627,1.95122,-10.2439,-11.9817,-7.30002,1.03704,6.445,2.22561,33.1402,1.15854
153.406,25.9194,48.3344,0,4.64873,8.77535,0.780776,1.43293,-11.7988,-11.4634,-7.35271,0.914897,6.5887,1.92073,33.5061,0.487805
153.416,25.83,48.0489,0,4.73256,8.93103,0.780776,1.09756,-11.4939,-13.2012,-7.46049,0.862207,6.55277,2.77439,33.9939,0.457317
153.426,25.7262,47.7609,0,4.70621,8.8951,0.764011,1.52439,-12.6829,-14.7866,-7.51797,0.732876,6.52403,3.04878,35.5488,0.823171
153.436,25.6164,47.4652,0,4.8092,9.05317,0.823887,1.28049,-11.8902,-15.7927,-7.62814,0.637075,6.50966,3.5061,37.1951,1.15854
153.446,25.48,47.1543,0,4.81878,9.0867,0.883762,1.79878,-9.26829,-18.6585,-7.77663,0.565225,6.48092,4.45122,38.7195,1.52439
153.456,25.3075,46.8247,0,4.68226,9.08431,0.936453,1.21951,-7.95732,-21.25,-7.95146,0.517324,6.445,5.42683,39.3293,1.64634
153.466,25.1136,46.4852,0,4.72537,9.13939,0.821492,2.0122,-7.43902,-23.9329,-8.06882,0.574805,6.40668,6.61585,40.2134,1.34146
153.476,24.8681,46.1461,0,4.50743,9.30944,0.479004,0.213415,-5.06098,-26.5244,-8.14546,0.627495,6.39231,7.13415,40.7927,0.701219
153.494,24.5955,45.8089,0,4.35654,9.28789,0.584385,0.945122,-5.54878,-28.3537,-8.18378,0.732876,6.35638,7.80488,41.5549,0.548781
153.5,24.2895,45.4381,0,4.15775,9.48667,0.728086,2.16463,-8.14024,-29.3293,-8.18618,0.792751,6.09293,8.14024,43.2317,0.0609756
153.506,23.9837,45.0795,0,4.0883,9.4723,0.759221,2.89634,-10.3354,-29.2683,-8.21731,0.809517,6.10251,8.29268,43.9634,-0.243902
153.516,23.6925,44.6991,0,4.26553,9.36213,0.754431,4.57317,-12.8963,-30.7622,-8.21731,0.838257,5.90372,8.32317,44.8476,-0.365854
153.526,23.3853,44.3306,0,4.16733,9.26154,0.6251,3.35366,-11.5244,-32.439,-8.21731,0.855022,5.88696,7.92683,45.2744,-0.27439
153.536,23.0773,43.9556,0,4.25834,9.25675,0.680186,3.10976,-10.8232,-34.1159,-8.21013,0.843047,5.76721,7.83537,45.3049,0.152439
153.546,22.7386,43.5786,0,3.98771,9.3286,0.768801,3.56707,-10.8537,-34.6951,-8.20294,0.838257,5.67141,6.85976,45.5793,0.762195
153.556,22.3963,43.1966,0,3.95657,9.36453,0.622705,2.68293,-9.48171,-35.2744,-8.18139,0.802332,5.55166,6.40244,45.8232,1.09756
153.566,22.053,42.8156,0,3.88472,9.25436,0.831072,2.68293,-12.439,-35.7927,-8.14067,0.821492,5.45106,6.31098,46.6159,0.945122
153.576,21.7218,42.4324,0,3.99729,9.31423,0.56762,3.5061,-14.2378,-36.189,-8.16702,0.809517,5.37921,5.70122,47.1037,1.37195
153.586,21.4026,42.0432,0,4.03082,9.25915,0.340093,2.59146,-11.2195,-36.25,-8.14786,0.783171,5.25946,5.57927,48.0488,1.03659
153.596,21.101,41.6504,0,4.21763,9.16574,0.61073,3.59756,-10.7622,-37.5305,-8.11433,0.828677,5.14211,5.15244,48.3232,1.37195
153.606,20.7785,41.281,0,4.01405,9.06275,0.510139,5.67073,-12.5,-38.5976,-8.09277,0.819097,5.16845,5.12195,49.0244,1.31098
153.616,20.4204,40.9107,0,3.71707,9.00527,0.476609,5.70122,-10.4878,-39.9085,-7.95625,0.876577,5.00559,4.87805,49.6341,1.85976
153.626,20.0721,40.523,0,3.71947,8.97174,0.313748,4.63415,-9.35976,-39.8171,-8.03769,0.931663,4.90021,4.26829,50.1829,1.82927
153.636,19.7198,40.1387,0,3.559,8.73224,0.366438,6.15854,-11.8293,-40.2439,-8.11672,1.00591,4.89063,3.5061,50.9146,2.16463
153.646,19.3517,39.7584,0,3.39614,8.97893,0.184417,5.97561,-9.08537,-39.6037,-8.1263,1.03225,4.84273,2.80488,51.6463,2.37805
153.656,19.0012,39.3782,0,3.53265,9.06275,0.364043,6.67683,-7.92683,-39.7256,-8.18378,1.05381,4.80441,1.82927,52.4085,2.37805
153.666,18.6366,38.981,0,3.31471,9.12263,0.361648,7.19512,-10.8537,-39.1768,-8.24366,1.07536,4.68466,1.31098,52.8049,2.71341
153.676,18.2677,38.5606,0,3.29555,9.08431,0.397573,7.0122,-8.71951,-40.3049,-8.27,0.993933,4.51461,0.365854,53.3841,2.62195
153.686,17.8847,38.1298,0,3.16622,9.18011,0.433499,6.40244,-10.4878,-40.6402,-8.21971,0.919688,4.36133,0.152439,54.2378,2.37805
153.696,17.5025,37.7365,0,3.09437,9.10826,0.421523,6.34146,-9.02439,-40.7927,-8.21013,0.821492,4.45234,-0.304878,54.939,2.2561
153.706,17.1416,37.3178,0,3.2716,9.14418,0.462239,7.92683,-7.16463,-41.2805,-8.19336,0.692161,4.25355,-0.121951,55.4268,1.67683
153.716,16.7578,36.9029,0,2.96982,9.2807,0.479004,6.89024,-11.189,-40.3963,-8.18378,0.720901,4.19128,0,56.0671,1.70732
153.726,16.4117,36.5094,0,3.10874,9.2831,0.306563,7.71341,-10.7012,-38.9024,-8.24605,0.783171,4.24637,-0.609756,56.7988,1.4939
153.736,16.0627,36.0879,0,3.04886,9.41003,0.0502954,6.37195,-8.87195,-38.75,-8.36101,0.814307,4.10506,-1.34146,57.2866,1.79878
153.746,15.696,35.6427,0,2.79259,9.17053,0.399968,6.52439,-9.42073,-39.2073,-8.47118,0.922083,3.97334,-2.0122,57.561,1.79878
153.756,15.2978,35.1996,0,2.56986,9.18011,0.170046,8.04878,-8.38415,-40.5183,-8.55501,0.962798,3.9422,-2.7439,57.7744,2.10366
153.766,14.9192,34.7181,0,2.72553,9.1346,0.431104,9.96951,-10.2744,-41.311,-8.66997,0.943638,3.73863,-3.5061,58.0488,2.34756
153.776,14.5196,34.2224,0,2.4549,9.19927,0.483794,12.1341,-9.26829,-40.8232,-8.65321,0.905317,3.58295,-3.62805,58.7805,2.43902
153.786,14.1134,33.7496,0,2.4022,9.46512,0.136516,10.1524,-11.8293,-40.8841,-8.61249,0.869392,3.58055,-4.29878,58.8415,2.62195
153.796,13.7171,33.2626,0,2.42855,9.38369,0.162861,9.20732,-11.25,-41.25,-8.58136,0.821492,3.42248,-4.35976,59.1159,2.28659
153.806,13.3334,32.7687,0,2.33275,9.24478,0.153281,8.75,-13.8415,-40.061,-8.55262,0.766406,3.29794,-4.81707,60.061,2.62195
153.816,12.9798,32.2679,0,2.46687,9.20406,0.0550855,8.90244,-11.7073,-39.4817,-8.658,0.63947,3.2237,-4.54268,60.5183,2.10366
153.826,12.6441,31.775,0,2.5028,9.25436,0.0981958,9.42073,-11.189,-38.6585,-8.72027,0.622705,3.19496,-4.84756,60.7317,1.58537
153.836,12.3224,31.2681,0,2.51477,9.27352,0.246687,9.63415,-10.6402,-37.9878,-8.7993,0.61073,3.0776,-4.7561,61.128,1.7378
153.846,11.9942,30.7512,0,2.4501,9.40524,0.210762,9.42073,-9.26829,-38.1402,-8.80888,0.5772,2.95066,-4.84756,61.372,1.76829
153.856,11.668,30.2312,0,2.25611,9.33579,0.143701,9.72561,-3.10976,-36.5244,-8.79691,0.60115,2.84528,-4.81707,61.5244,1.4939
153.866,11.3564,29.699,0,2.33993,9.43877,0.0119751,9.87805,-1.15854,-36.4024,-8.72985,0.59157,2.68482,-4.66463,61.25,1.67683
153.876,10.9972,29.1714,0,1.78189,9.34058,0.184417,11.25,-4.02439,-35.5183,-8.76098,0.570015,2.62494,-4.42073,61.1585,1.64634
153.886,10.6467,28.5771,0,1.87051,9.49625,0.0814307,11.0976,-2.43902,-36.0671,-8.77056,0.550855,2.26329,-4.69512,61.9207,1.43293
153.896,10.2567,27.9951,0,1.47294,9.47709,0.344883,11.0671,-8.75,-36.0976,-9.02204,0.426313,2.28006,-4.26829,61.3415,0.670732
153.906,9.8388,27.5236,0,1.25978,9.58966,0.126936,10.7927,-7.53049,-36.9817,-8.68434,0.704136,2.55788,-4.96951,65.2134,0.518293
153.916,9.42513,26.9856,0,1.27176,9.65911,0.0119751,8.29268,-11.189,-37.439,-8.6101,0.529299,2.18665,-4.29878,62.9573,1.95122
153.926,9.00453,26.4631,0,1.23583,9.65672,0.0479004,7.5,-13.2927,-38.5671,-9.11544,0.344883,2.29203,-3.9939,65.1524,2.22561
153.936,8.62101,25.9289,0,1.66693,9.67827,-0.0742456,8.71951,-13.7195,-40.7012,-9.17772,0.299377,2.16989,-3.29268,66.5854,2.07317
153.946,8.24365,25.3847,0,1.67891,9.87227,0.0526904,9.17683,-15.3963,-40.6098,-9.31663,0.241897,2.0669,-2.62195,64.9085,1.70732
153.956,7.88647,24.8194,0,1.70765,9.77407,-0.378413,8.07927,-8.2622,-39.8476,-9.39327,0.249082,1.89925,-1.89024,65,2.04268
153.966,7.54635,24.2962,0,1.66454,9.71899,-0.114961,8.2622,-2.83537,-38.4451,-9.45075,0.234712,1.99505,-1.25,63.4756,2.07317
153.976,7.19586,23.7475,0,1.40109,9.6663,0.174836,8.59756,-3.93293,-37.1951,-9.43398,0.287402,1.79147,-0.182927,62.8354,2.71341
153.986,6.84724,23.2118,0,1.23344,9.58487,-0.179626,8.93293,-0.487805,-35.8537,-9.35495,0.316143,1.73878,0.731707,62.439,3.01829
153.996,6.49924,22.6607,0,1.03465,9.58008,-0.0167651,8.84146,-1.82927,-34.1159,-9.35495,0.292192,1.58311,1.21951,62.8049,3.14024
154.006,6.17328,22.1492,0,1.08973,9.49865,-0.416733,8.71951,5.30488,-33.3537,-9.36213,0.306563,1.65975,1.55488,62.5305,3.2622
154.016,5.85018,21.6703,0,1.04423,9.54655,-0.299377,9.11585,5.39634,-33.1098,-9.27831,0.337698,1.69567,1.92073,60.7927,2.80488
154.026,5.51934,21.178,0,0.922083,9.62558,-0.174836,8.78049,4.81707,-32.9878,-9.2831,0.299377,1.55916,2.13415,59.6646,2.7439
154.036,5.19275,20.6845,0,0.864602,9.65911,-0.162861,6.28049,7.28659,-32.5,-9.33818,0.253872,1.48012,2.28659,58.5366,2.77439
154.046,4.87675,20.169,0,0.886157,9.60163,0.00479004,6.64634,8.01829,-32.4085,-9.47949,0.229922,1.32445,2.2561,58.0183,2.59146
154.056,4.51091,19.67,0,0.373623,9.54894,-0.138911,8.41463,8.87195,-31.9512,-9.50583,0.227527,1.31008,2.10366,56.4634,2.34756
154.066,4.14296,19.1817,0,0.239502,9.5226,-0.431104,9.26829,10.4573,-31.2805,-9.62319,0.215552,1.28613,2.89634,55.0915,2.2561
154.076,3.791,18.718,0,0.198787,9.48667,-0.198787,9.96951,10.0305,-29.9085,-9.62558,0.237107,1.30768,2.71341,53.5976,2.22561
154.086,3.41099,18.2693,0,-0.107776,9.8124,-0.280217,8.75,11.5549,-29.7561,-9.67109,0.270637,1.2981,3.44512,52.0732,2.53049
154.096,3.04696,17.8006,0,-0.182021,9.82197,-0.00479004,7.16463,6.55488,-28.0183,-9.7621,0.265847,1.14482,3.93293,51.311,2.77439
154.106,2.73684,17.3446,0,0.222737,9.92975,-0.306563,7.62195,7.37805,-28.0488,-9.89143,0.191602,1.13284,4.48171,50.3049,2.56098
154.116,2.43051,16.8938,0,0.0670605,9.92257,-0.447869,7.13415,7.04268,-26.4634,-9.95849,0.215552,1.08255,4.96951,48.872,2.59146
154.126,2.10649,16.4801,0,-0.172441,9.7597,-0.246687,6.79878,1.92073,-26.0366,-9.98244,0.256267,1.16877,5.21341,46.7988,2.62195
154.136,1.7868,16.0311,0,-0.213157,9.73096,-0.0838257,7.28659,1.0061,-25.7622,-9.99681,0.239502,0.938848,5.2439,45.3354,2.56098
154.146,1.4798,15.5884,0,-0.198787,9.78605,-0.483794,5.45732,6.70732,-25.3049,-10.107,0.196392,0.895737,5.21341,43.0488,2.16463
154.156,1.15677,15.1634,0,-0.488584,9.79803,-0.344883,5.06098,5.12195,-24.1159,-10.1764,0.251477,0.900527,5.94512,40.7012,1.76829
154.166,0.854197,14.7581,0,-0.364043,9.67348,-0.285007,5.39634,4.02439,-24.1159,-10.0279,0.481399,0.898132,5.64024,38.0488,2.37805
154.176,0.596856,14.3279,0,-0.107776,9.58487,-0.529299,7.65244,5.91463,-23.2012,-9.8603,0.519719,0.704136,5.09146,38.4756,4.17683
154.186,0.331427,13.9148,0,-0.299377,9.69264,-0.397573,8.75,8.23171,-22.2561,-9.87467,0.467029,0.706531,4.7561,39.5427,5.57927
154.196,0.0575574,13.4822,0,-0.543669,9.89862,-0.531694,6.15854,4.84756,-20.8537,-10.1405,0.332908,0.56283,4.78659,37.8963,6.09756
154.206,-0.197001,13.085,0,-0.550855,9.94891,-0.483794,4.42073,1.43293,-19.3902,-10.313,0.205972,0.65384,5.27439,35.4268,5.51829
154.216,-0.420284,12.6912,0,-0.423918,9.99921,-0.457449,2.59146,-1.31098,-18.2317,-10.2435,0.234712,0.59157,5.36585,33.3232,4.90854
154.226,-0.615403,12.3208,0,-0.349673,9.84353,-0.308958,3.04878,-2.95732,-16.6159,-10.2363,0.196392,0.6251,5.4878,31.6463,4.48171
154.236,-0.762652,11.9566,0,-0.126936,9.73096,-0.316143,4.20732,-2.16463,-14.7561,-10.2172,0.208367,0.584385,6.09756,30.0915,4.45122
154.246,-0.901741,11.5927,0,-0.126936,9.81958,-0.495769,3.44512,1.82927,-14.2378,-10.1333,0.193997,0.514929,6.40244,28.6585,4.84756
154.256,-1.03247,11.2508,0,-0.203577,9.77168,-0.464634,2.40854,2.40854,-12.7439,-10.0543,0.129331,0.543669,6.55488,27.4085,5.18293
154.266,-1.16738,10.9016,0,-0.340093,9.61121,-0.684976,1.28049,5.21341,-11.7378,-9.95849,0.215552,0.445474,7.13415,26.0976,5.67073
154.276,-1.23672,10.5606,0,0.0119751,9.64714,-0.500559,3.20122,7.19512,-9.60366,-9.84353,0.299377,0.414338,6.7378,24.3598,6.18902
154.286,-1.34396,10.213,0,-0.397573,9.72617,-0.464634,3.29268,3.78049,-8.68902,-9.55373,0.416733,0.316143,6.18902,22.5305,7.40854
154.296,-1.44929,9.9085,0,-0.476609,9.74533,-0.661025,2.65244,2.92683,-7.77439,-9.92257,0.373623,0.455054,5.70122,20.7927,7.5
154.306,-1.55303,9.5834,0,-0.519719,9.75731,-0.845442,1.03659,2.9878,-7.31707,-10.016,0.481399,0.313748,4.20732,19.2073,7.92683
154.316,-1.6604,9.25313,0,-0.61552,9.74294,-0.510139,-0.304878,-1.0061,-6.7378,-10.1046,0.60594,0.234712,2.68293,17.6524,8.17073
154.326,-1.74464,8.92747,0,-0.486189,9.66869,-0.65863,0.121951,-1.40244,-6.09756,-10.2698,0.519719,0.198787,1.79878,16.0671,8.2622
154.336,-1.81104,8.5935,0,-0.462239,9.69025,-0.747246,0.426829,2.10366,-4.72561,-10.2339,0.474214,0.100591,0.792683,14.0244,8.41463
154.346,-1.86389,8.25508,0,-0.378413,9.7621,-0.5772,-0.0304878,3.78049,-4.54268,-10.392,0.419128,0.0191602,0.304878,11.7378,7.89634
154.356,-1.92363,7.90896,0,-0.462239,9.81958,-0.66342,-0.457317,4.72561,-4.35976,-10.3585,0.404758,-0.0790356,0,9.54268,7.86585
154.366,-1.98448,7.55765,0,-0.534089,9.7142,-0.589175,-1.70732,2.86585,-3.56707,-10.4375,0.349673,-0.167651,-0.121951,7.53049,8.07927
154.376,-2.02305,7.22541,0,-0.419128,9.72617,-0.704136,-3.2622,1.98171,-2.83537,-10.3824,0.337698,-0.136516,-0.121951,5.15244,8.14024
154.386,-2.02831,6.87558,0,-0.277822,9.62558,-0.708926,-3.23171,0.853659,-1.64634,-10.3273,0.397573,-0.198787,-1.0061,2.9878,8.68902
154.396,-2.00522,6.47124,0,-0.143701,9.70941,-0.814307,-3.35366,1.40244,-1.37195,-10.3321,0.414338,-0.201182,-2.2561,1.43293,8.84146
154.406,-1.98865,5.85981,0,-0.136516,9.98723,-0.831072,-3.90244,2.83537,-1.61585,-10.4111,0.423918,-0.205972,-3.41463,0.0304878,8.84146
154.416,-1.98263,5.36826,0,-0.136516,10.0232,-0.993933,-3.04878,3.2622,-2.2561,-10.3632,0.407153,-0.354463,-5.39634,-0.640244,8.71951
154.426,-1.97836,4.99904,0,-0.0670605,9.91059,-1.06099,-3.14024,2.71341,-3.07927,-10.3273,0.316143,-0.340093,-7.65244,-1.40244,8.78049
154.436,-1.97528,4.64971,0,-0.00958008,9.82437,-1.03704,-3.23171,4.96951,-3.78049,-10.3225,0.229922,-0.419128,-9.45122,-1.7378,8.93293
154.446,-1.99609,4.32296,0,-0.210762,9.82677,-0.981958,-3.44512,5.54878,-3.71951,-10.1908,0.143701,-0.481399,-10.8537,-2.37805,9.5122
154.456,-2.04177,4.0497,0,-0.368833,9.86509,-1.06339,-4.69512,6.0061,-4.35976,-10.1142,-0.0598755,-0.411943,-11.9512,-3.59756,9.96951
154.466,-2.08991,3.77503,0,-0.380808,9.82197,-1.0586,-5.91463,5.67073,-4.54268,-10.0543,-0.316143,-0.495769,-12.622,-4.78659,10.3049
154.476,-2.13755,3.47783,0,-0.371228,9.79323,-1.08734,-6.95122,6.58537,-4.69512,-10.0974,-0.493374,-0.65384,-12.7134,-5.33537,10.122
154.486,-2.19282,3.17811,0,-0.397573,9.77168,-0.953218,-6.98171,7.80488,-5.2439,-10.1166,-0.59636,-0.720901,-13.2317,-5.51829,9.57317
154.496,-2.2347,2.89403,0,-0.330513,9.95849,-0.931663,-8.47561,5.67073,-4.87805,-10.1453,-0.58678,-0.711321,-13.3537,-6.37195,8.56707
154.506,-2.25246,2.62375,0,-0.158071,10.0136,-0.926873,-9.87805,3.2622,-4.57317,-9.98005,-0.476609,-0.689766,-13.5671,-6.85976,7.9878
154.516,-2.26872,2.37236,0,-0.126936,10.0471,-1.06578,-10.8841,1.76829,-4.81707,-9.96328,-0.356858,-0.65384,-14.0854,-7.40854,8.17073
154.526,-2.27501,2.1395,0,0,10.0758,-1.33882,-11.0061,1.46341,-5.30488,-9.91059,-0.263452,-0.613125,-14.7866,-7.56098,8.68902
154.536,-2.27072,1.92485,0,0.138911,10.0208,-1.26218,-11.1585,0.701219,-5.85366,-9.80281,-0.282612,-0.56762,-15.8232,-7.68293,9.32927
154.546,-2.26432,1.72394,0,0.241897,9.97286,-1.33882,-10.8537,-0.609756,-6.82927,-9.72617,-0.385598,-0.541274,-16.9817,-8.07927,10.3963
154.556,-2.25873,1.51166,0,0.253872,9.9537,-1.24062,-11.9512,-0.670732,-7.04268,-9.62558,-0.534089,-0.617915,-17.439,-8.07927,11.4939
154.566,-2.21498,1.28575,0,0.526904,9.79084,-1.38911,-13.2622,-1.76829,-6.46341,-9.62558,-0.725691,-0.711321,-17.378,-7.80488,11.7073
154.576,-2.14213,1.06318,0,0.682581,9.79323,-1.36516,-14.4207,-2.07317,-5.33537,-9.65432,-0.850232,-0.737666,-16.9512,-7.89634,11.8598
154.586,-2.02747,0.843174,0,0.797541,9.84353,-1.42743,-16.128,-2.04268,-3.14024,-9.73815,-0.996328,-0.771196,-15.7622,-7.95732,11.25
154.596,-1.58988,0.624529,0,1.08973,9.8603,-1.39151,-18.4146,-2.22561,0,-9.81958,-1.04183,-0.809517,-14.0549,-7.80488,10.4878
154.606,-1.35568,0.418428,0,1.33642,9.80281,-1.24062,-19.6341,-4.93902,4.42073,-9.86269,-1.07297,-0.795146,-12.1951,-7.22561,9.66463
154.616,-1.05744,0.199312,0,1.51126,9.82437,-0.955613,-20.3659,-9.11585,9.81707,-9.91059,-1.02986,-0.890947,-9.42073,-6.70732,8.84146
154.626,-0.71507,0.00837603,0,1.44659,9.81719,-0.493374,-19.8476,-9.84756,15.6707,-9.94173,-1.03465,-0.804727,-6.95122,-5.79268,8.29268
154.636,-0.319717,-0.172127,0,1.41067,9.70941,-0.325723,-18.6585,-9.17683,22.0122,-9.92736,-0.969983,-0.787961,-4.08537,-5.27439,8.32317
154.646,0.141846,-0.346396,0,1.46575,9.74773,-0.227527,-17.4085,-8.14024,28.9939,-9.9058,-0.958008,-0.785566,-1.82927,-4.7561,8.5061
154.656,0.666366,-0.492356,0,1.55437,9.75491,-0.627495,-16.1585,-8.62805,35.3354,-9.92257,-0.912502,-0.694556,0.304878,-4.7561,8.96341
154.666,1.24659,-0.659391,0,1.67651,9.99202,-1.08973,-17.561,-6.98171,41.128,-9.9561,-0.833467,-0.799937,1.46341,-3.87195,10.0305
154.676,1.86963,-0.840816,0,1.74597,9.73336,-1.11129,-19.7561,-7.04268,45.3659,-10.0591,-0.919688,-0.855022,4.02439,-2.71341,11.6159
154.686,2.52106,-1.03187,0,1.66214,9.32621,-1.0107,-20.3963,-6.95122,49.6646,-10.1621,-0.948428,-0.883762,6.89024,-2.0122,13.1707
154.696,3.21604,-1.14675,0,1.66933,9.15376,-0.778381,-20.9756,-5.4878,54.9695,-10.2435,-0.874182,-0.627495,9.84756,-1.92073,13.75
154.706,3.98636,-1.22842,0,1.8753,9.19687,-0.60594,-24.3293,-3.04878,61.6463,-10.2339,-0.742456,-0.565225,11.372,-3.62805,13.9939
154.716,4.84421,-1.29997,0,2.28724,9.55613,-0.325723,-28.4146,-2.0122,68.2012,-10.1357,-0.493374,-0.541274,12.9573,-5.85366,13.2012
154.726,5.80023,-1.32603,0,3.03688,10.1597,-0.210762,-32.7134,1.4939,73.4756,-10.0232,-0.0455054,-0.349673,14.5732,-8.14024,11.6463
154.736,6.81838,-1.36286,0,3.72905,10.8015,0.100591,-34.1463,6.12805,76.8598,-9.92736,0.428708,-0.399968,16.189,-10.3049,10.3354
154.746,7.85284,-1.38216,0,3.95418,11.2279,0.0335303,-32.439,12.8963,79.8781,-9.90101,0.819097,-0.330513,17.5305,-12.4695,9.84756
154.756,8.86554,-1.33302,0,3.65959,11.5679,-0.265847,-30.061,20.0915,83.5366,-10.0758,1.11129,-0.0383203,18.3841,-15.5183,9.63415
154.766,9.86758,-1.26361,0,3.15903,12.0901,-0.352068,-28.2927,24.2378,90.4573,-10.5165,1.26936,0.0598755,19.5427,-18.9024,10.8841
154.776,10.9256,-1.24253,0,2.9794,12.0637,0.134121,-23.75,25.9146,99.7866,-10.9668,1.24062,-0.160466,21.2195,-21.5854,12.9878
154.786,12.0557,-1.28096,0,2.78062,11.4099,0.759221,-17.0122,24.9695,109.665,-11.1728,1.19032,-0.452659,22.5915,-21.6463,15.5793
154.796,13.293,-1.36153,0,3.09916,10.7536,1.36277,-8.01829,22.7744,118.049,-11.0243,1.24781,-0.65863,23.1402,-20.9146,18.689
154.806,14.5587,-1.52279,0,2.95306,10.6554,1.89925,2.28659,20.7927,124.665,-10.4111,1.4418,-1.0083,22.7744,-19.7866,21.0366
154.816,15.7798,-1.78182,0,2.04295,10.3489,2.5507,13.9329,12.8354,131.524,-9.77647,1.59508,-1.40109,22.4085,-18.5366,22.439
154.826,16.9662,-2.07734,0,1.36277,9.83156,3.19496,26.4024,-2.37805,137.165,-9.54655,1.6837,-1.56874,22.1951,-17.622,21.5549
154.836,18.0834,-2.36199,0,0.962798,9.87227,2.73751,35.0915,-14.2073,137.256,-9.52739,1.78429,-1.56874,21.9512,-17.1341,19.6951
154.846,19.1892,-2.64602,0,1.89446,10.1669,1.42743,33.3841,-6.95122,128.201,-9.62798,2.05014,-1.63101,20.9451,-16.2195,18.1402
154.856,20.1449,-2.88181,0,2.3064,10.7417,0.100591,18.1098,5.30488,111.951,-9.95131,2.13157,-1.51844,19.7256,-15.2439,17.0427
154.866,20.9204,-3.08441,0,2.68242,10.2794,-0.471819,3.90244,19.7866,90.3963,-10.313,2.17468,-1.46096,18.0793,-13.1402,16.8902
154.876,21.5376,-3.25951,0,2.9794,9.24957,-0.464634,-1.21951,27.8659,69.2378,-10.6267,2.09564,-1.41067,16.372,-11.189,17.5305
154.886,22.0224,-3.42489,0,3.19975,8.87355,0.110171,3.35366,28.0488,52.9573,-10.7944,1.99266,-1.41785,14.9085,-9.60366,19.1768
154.896,22.367,-3.59564,0,2.91953,8.8017,0.443079,8.53659,23.5671,42.6524,-10.6267,1.80105,-1.45138,13.1707,-8.32317,20.5488
154.906,22.594,-3.75131,0,2.39741,8.50232,0.898132,12.1037,13.3537,36.6768,-10.2794,1.59748,-1.36516,12.4085,-7.9878,20.8232
154.916,22.7302,-3.90879,0,1.9735,8.11433,1.03225,17.1951,5.42683,32.1037,-9.97286,1.58071,-1.36037,11.8902,-8.2622,20.1829
154.926,22.7996,-4.05069,0,1.95434,7.90117,0.754431,21.5549,6.64634,25.122,-9.72857,1.72681,-1.28613,11.7378,-8.17073,18.811
154.936,22.8248,-4.16658,0,2.27287,7.8844,0.598755,21.7988,12.622,16.2805,-9.55134,1.88488,-1.17595,11.0366,-8.65854,16.2195
154.946,22.8221,-4.27086,0,2.79259,7.84848,0.450264,19.5732,21.311,6.43293,-9.43877,1.94476,-1.13284,10.061,-9.02439,13.9634
154.956,22.8101,-4.36535,0,3.35303,7.7431,0.349673,16.6463,30.1829,-2.95732,-9.21603,1.98547,-1.08255,9.02439,-8.78049,11.5244
154.966,22.7795,-4.45017,0,3.82724,7.57305,0.507744,13.75,38.4756,-11.2805,-9.06754,1.96631,-1.03944,7.77439,-7.37805,10.6098
154.976,22.7205,-4.5274,0,4.11943,7.42217,0.730481,12.7134,45.7012,-18.7805,-8.98611,1.89686,-1.0107,6.55488,-6.18902,9.45122
154.986,22.6389,-4.59277,0,4.30146,7.3551,1.02507,14.1463,53.75,-23.8415,-8.95258,1.81782,-0.962798,5.06098,-4.54268,9.35976
154.996,22.5014,-4.63848,0,4.06195,7.31918,1.26457,16.6768,58.3841,-27.0732,-8.91666,1.79626,-0.878972,3.5061,-3.38415,9.35976
155.006,22.2746,-4.65635,0,3.62366,7.53473,1.36277,14.5732,57.439,-29.6341,-9.02204,1.85375,-0.787961,1.12805,-2.37805,9.20732
155.016,21.9955,-4.63755,0,3.30273,7.67364,1.51605,12.6829,52.622,-30.5488,-9.24717,2.019,-0.696951,-1.46341,-2.10366,8.93293
155.026,21.6392,-4.58984,0,2.90995,7.77902,1.75076,12.4695,47.8049,-33.3232,-9.49386,2.14833,-0.65384,-3.68902,-1.06707,8.38415
155.036,21.2127,-4.54089,0,2.56746,7.76226,1.91123,15.7317,43.6585,-36.7073,-9.58247,2.24174,-0.65863,-5.54878,-0.762195,7.43902
155.046,20.7029,-4.52383,0,2.05253,7.93709,2.07888,20.1829,33.9329,-38.3232,-9.60882,2.23695,-0.723296,-6.70732,-0.823171,5.97561
155.056,20.2098,-4.50802,0,2.06211,8.09517,2.20102,23.2317,20.5793,-37.2256,-9.58008,2.18665,-0.723296,-7.2561,-0.731707,4.14634
155.066,19.7998,-4.4866,0,2.48843,8.03769,1.98068,28.872,9.08537,-35.7012,-9.53218,1.98787,-0.696951,-7.19512,-1.18902,2.07317
155.076,19.4604,-4.46874,0,2.9818,8.5119,1.43701,31.9817,-0.670732,-33.628,-9.52739,1.66693,-0.692161,-7.53049,-1.92073,0.243902
155.086,19.2304,-4.43983,0,3.70989,8.88552,0.905317,29.4817,-9.57317,-30,-9.5202,1.3939,-0.651445,-7.43902,-2.07317,-1.58537
155.096,19.0939,-4.44832,0,4.26553,9.28549,0.61552,26.0976,-13.4756,-25.0305,-9.49865,1.18793,-0.764011,-6.92073,-1.7378,-3.20122
155.106,19.0417,-4.4336,0,4.64394,9.51541,0.270637,18.2012,-8.93293,-19.4512,-9.48428,1.09452,-0.692161,-6.37195,-2.10366,-3.96341
155.116,19.0782,-4.39882,0,4.90739,9.21603,0.280217,14.5732,-3.04878,-14.6341,-9.51541,1.15679,-0.622705,-5.54878,-2.2561,-4.14634
155.126,19.1607,-4.37018,0,5.03433,9.16574,0.0766406,13.3841,2.04268,-11.372,-9.54655,1.25739,-0.63468,-4.93902,-2.5,-4.17683
155.136,19.2763,-4.35598,0,4.94811,8.79691,0.282612,16.5549,8.2622,-9.02439,-9.53697,1.37953,-0.680186,-4.2378,-2.53049,-3.41463
155.146,19.3866,-4.33849,0,4.80201,8.95977,0.172441,18.4146,10.3659,-6.95122,-9.58726,1.49928,-0.66821,-3.59756,-2.62195,-2.16463
155.156,19.4941,-4.36825,0,4.74693,9.06275,0.337698,18.75,14.7561,-5.94512,-9.58487,1.60706,-0.833467,-3.32317,-2.28659,-1.58537
155.166,19.6016,-4.45185,0,4.63436,9.14179,0.433499,17.5,20.0915,-4.35976,-9.65193,1.62143,-0.979563,-2.89634,-1.37195,-1.61585
155.176,19.6925,-4.56489,0,4.31343,9.14179,0.979563,17.4085,20.9451,-3.04878,-9.73815,1.60706,-1.05381,-2.53049,-0.97561,-1.98171
155.186,19.8114,-4.6932,0,4.30146,9.00048,1.23104,16.7988,17.8659,-2.10366,-9.84593,1.55916,-1.12326,-2.46951,-0.853659,-3.35366
155.196,19.9236,-4.78821,0,4.22002,8.87594,1.05381,15.7622,17.378,-2.2561,-9.84593,1.50168,-1.11608,-1.95122,-1.4939,-3.93293
155.206,19.9991,-4.89956,0,4.14578,8.74422,0.883762,13.1098,13.9329,-3.90244,-9.87946,1.40588,-1.19511,-1.76829,-1.52439,-4.63415
155.216,20.0375,-4.992,0,3.96136,8.54782,0.998723,11.128,9.60366,-6.06707,-9.77168,1.35319,-1.17116,-1.7378,-2.10366,-5
155.226,20.0248,-5.06091,0,3.73144,8.5119,1.0586,9.26829,5.09146,-8.71951,-9.73336,1.39151,-1.10171,-2.37805,-2.22561,-5.21341
155.236,19.9983,-5.11738,0,3.72905,8.46879,1.07776,8.84146,2.16463,-10.3354,-9.7118,1.38672,-1.08255,-3.2622,-2.83537,-4.84756
155.246,19.9742,-5.14864,0,3.87035,8.464,0.893342,8.53659,0.243902,-11.7988,-9.68067,1.46815,-0.998723,-3.78049,-3.71951,-4.7561
155.256,19.9694,-5.19161,0,4.16015,8.44244,0.819097,8.04878,-0.731707,-13.2622,-9.68785,1.64777,-1.0586,-4.81707,-4.57317,-4.81707
155.266,19.9792,-5.23178,0,4.43318,8.50232,0.704136,8.17073,-0.213415,-14.4512,-9.70222,1.73639,-1.0586,-5.2439,-5.57927,-4.42073
155.276,19.9739,-5.26191,0,4.39247,8.5574,0.708926,8.01829,1.4939,-15.2134,-9.79084,1.84417,-1.03225,-5.4878,-5.88415,-4.54268
155.286,19.9388,-5.27933,0,4.22242,8.64602,0.677791,7.9878,1.40244,-15.9451,-9.87706,1.85614,-0.991538,-5.64024,-6.43293,-4.90854
155.296,19.8853,-5.2981,0,4.13141,8.7035,0.64905,7.65244,-0.731707,-16.5854,-9.95131,1.83219,-1.0083,-5.67073,-6.70732,-5.73171
155.306,19.8572,-5.32487,0,4.23679,8.58615,0.869392,9.35976,-2.92683,-15.8841,-9.94412,1.81542,-1.04662,-5.39634,-7.04268,-6.25
155.316,19.8559,-5.3531,0,4.43558,8.50471,1.02507,10.9756,-3.47561,-15.8232,-9.86988,1.77231,-1.04902,-5.21341,-6.31098,-7.10366
155.326,19.8375,-5.33851,0,4.49066,8.77296,1.22146,16.0366,-0.426829,-16.6768,-9.94891,1.69328,-0.874182,-5.30488,-7.37805,-7.13415
155.336,19.7268,-5.25407,0,4.23679,10.2028,1.19272,18.9329,0.792683,-16.8293,-10.2411,1.35798,-0.58199,-4.96951,-9.32927,-7.89634
155.346,19.5059,-5.17271,0,3.49433,11.8482,0.505349,14.8476,6.37195,-15.8232,-10.574,1.09931,-0.60115,-3.93293,-10.9451,-7.89634
155.356,19.2346,-5.07534,0,2.71116,12.2721,0.64426,12.378,4.48171,-13.2927,-10.9285,0.761616,-0.529299,-1.89024,-11.9512,-7.2561
155.366,19.0146,-5.00178,0,2.5962,12.0901,0.725691,9.2378,-13.4756,-7.92683,-11.1752,0.459844,-0.63947,0.731707,-11.5549,-5.06098
155.376,18.9662,-5.00233,0,3.58534,11.3572,0.519719,7.7439,-35.0305,-1.76829,-11.0267,0.105381,-0.977168,3.68902,-9.78659,-2.13415
155.386,19.1281,-5.02025,0,4.86907,10.5381,0.447869,7.16463,-46.5854,4.57317,-10.9907,-0.0479004,-1.0586,7.5,-9.45122,-0.0609756
155.396,19.5035,-5.01132,0,6.3013,9.78605,0.251477,8.07927,-46.128,10.4573,-11.0506,-0.0718506,-0.936453,12.4085,-9.90854,0.731707
155.406,19.9929,-4.93901,0,7.80537,9.63037,0.268242,13.4451,-26.5244,10.0915,-11.2231,0.246687,-0.63468,16.4329,-10.3963,0.0304878
155.416,20.3758,-4.83436,0,7.41498,10.2387,-0.117356,20.7927,8.93293,6.58537,-11.1201,0.775986,-0.455054,17.8963,-9.48171,-1.12805
155.426,20.4846,-4.74837,0,5.10858,11.2398,-1.26457,18.1707,35.8841,2.71341,-10.986,1.28134,-0.517324,17.622,-6.18902,-2.07317
155.436,20.3664,-4.6464,0,3.07521,10.7369,-0.989143,16.7378,36.2195,-2.5,-10.847,1.65017,-0.493374,16.4329,-1.12805,-2.22561
155.446,20.0756,-4.54151,0,1.70286,9.71899,-0.313748,16.9817,20.2744,-8.38415,-10.5956,1.84417,-0.376018,14.0854,3.62805,-1.12805
155.456,19.6817,-4.41714,0,1.19272,8.68434,0.443079,17.8963,-0.701219,-15.1829,-10.3345,2.10522,-0.244292,9.7561,9.48171,0.701219
155.466,19.3073,-4.26084,0,1.64777,7.69041,0.249082,20.7012,-7.16463,-22.7134,-10.1693,2.36628,-0.0694556,2.9878,15.9451,2.92683
155.476,18.9154,-4.09565,0,1.91123,7.42935,0.0479004,23.0488,-1.55488,-30.0305,-10.1669,2.40699,0.00239502,-4.5122,20.7927,4.87805
155.486,18.4024,-3.88792,0,1.48491,7.82692,0.124541,25.6402,3.96341,-35.6707,-10.4255,2.27287,0.229922,-9.63415,22.8659,5.15244
155.496,17.7654,-3.59993,0,0.969983,9.01485,-0.60594,25.3354,-1.76829,-39.9695,-10.8015,1.98787,0.65863,-13.9329,21.189,3.62805
155.507,17.0576,-3.25538,0,0.704136,10.6123,-1.12087,24.0549,-11.0671,-43.7195,-11.1273,1.56634,1.0107,-17.5305,18.0183,0.548781
155.516,16.3833,-2.89385,0,1.02507,11.3955,-1.4921,23.872,-15.3354,-44.4817,-11.2446,1.08734,1.17356,-20.7012,16.9512,-2.65244
155.526,15.758,-2.50643,0,1.32205,11.3548,-1.11368,20.4573,-16.25,-43.9329,-11.1512,0.570015,1.36277,-23.9024,15.7622,-5.60976
155.536,15.147,-2.1024,0,1.18314,10.5333,-0.775986,15.4878,-11.189,-43.2622,-10.847,-0.0694556,1.48012,-26.5549,14.9085,-8.04878
155.546,14.4358,-1.67966,0,0.359253,9.8603,-0.502954,11.6159,-11.9817,-45.9146,-10.2124,-0.514929,1.55197,-29.4817,13.8415,-9.39024
155.556,13.6513,-1.2883,0,-0.0431104,9.43398,-0.974773,9.96951,-19.9085,-50.061,-9.6184,-0.426313,1.3963,-32.8354,11.4939,-8.93293
155.566,12.8503,-0.843696,0,0.138911,9.02204,-1.64298,9.60366,-30.2744,-55.6707,-8.95019,-0.608335,1.57832,-32.561,12.5305,-6.58537
155.576,12.0926,-0.372969,0,0.778381,8.82804,-2.27048,11.6463,-35.5183,-61.372,-8.75619,-0.459844,1.71723,-32.8049,10.8232,-2.83537
155.586,11.3865,0.0603104,0,1.28134,9.0412,-2.98898,13.2317,-28.2012,-63.8415,-8.83283,-0.332908,1.65496,-33.5366,9.54268,1.37195
155.596,10.6848,0.36856,0,1.17116,9.19927,-3.03688,15.5793,-19.6037,-63.1707,-9.05796,-0.407153,1.25499,-33.1707,9.35976,4.20732
155.606,9.97462,0.566877,0,0.847837,9.36213,-3.07042,18.4146,-9.45122,-61.2195,-9.38608,-0.60594,0.890947,-31.4939,9.48171,5.36585
155.616,9.21311,0.720438,0,0.251477,9.36453,-2.58662,19.0854,-5.67073,-60.4878,-9.69743,-0.893342,0.761616,-29.2073,9.42073,3.56707
155.626,8.41266,0.83912,0,-0.129331,9.29507,-2.08606,19.1463,-6.28049,-61.25,-9.68306,-0.924478,0.637075,-27.0122,9.54268,1.21951
155.636,7.63186,0.984035,0,0.0191602,9.36213,-1.79866,17.0732,-10.4268,-62.7439,-9.7597,-1.03465,0.775986,-25.7927,9.66463,-1.34146
155.646,6.87015,1.14591,0,0.110171,9.29268,-1.46336,13.872,-15.4878,-63.5366,-9.92736,-1.0586,0.888552,-25.3659,8.84146,-4.02439
155.656,6.10872,1.27795,0,-0.100591,9.50583,-1.40827,11.7988,-22.5,-62.439,-9.91299,-0.821492,0.783171,-25.5488,7.89634,-5.91463
155.666,5.32979,1.35768,0,-0.469424,9.82437,-1.45138,9.96951,-30.9756,-61.4329,-9.88425,-0.548459,0.574805,-26.0671,7.7439,-6.34146
155.676,4.54644,1.38916,0,-0.711321,9.65432,-1.74597,10.0305,-37.4695,-60.4573,-9.70462,-0.241897,0.371228,-26.4329,7.86585,-5.7622
155.686,3.85022,1.38319,0,-0.146096,9.20646,-1.99266,11.0061,-39.0549,-59.9085,-9.35495,0.0479004,0.208367,-26.4939,7.53049,-3.84146
155.696,3.16965,1.36388,0,-0.148491,8.88552,-1.84417,12.8354,-41.5244,-59.6341,-8.97174,0.119751,0.146096,-26.8293,7.16463,-1.34146
155.706,2.58625,1.32175,0,0.445474,9.15137,-1.85135,16.0061,-32.7134,-58.75,-8.89271,-0.0119751,0.0526904,-26.7073,7.13415,0.426829
155.716,1.99785,1.22979,0,0.225132,9.72138,-1.86333,17.5305,-26.7073,-57.4695,-9.0388,-0.371228,-0.150886,-25.8841,6.85976,1.40244
155.726,1.42472,1.10308,0,0.203577,9.94652,-1.74118,17.1951,-21.8902,-56.7988,-9.34297,-0.852627,-0.313748,-24.3598,6.4939,0.670732
155.736,0.855102,0.937678,0,0.136516,9.7142,-1.8274,15.9756,-21.1585,-56.8598,-9.56331,-1.18553,-0.505349,-22.4695,6.31098,-0.579268
155.746,0.329113,0.76863,0,0.514929,9.35974,-2.10522,14.7866,-15.8841,-58.3537,-9.55134,-1.35558,-0.546064,-19.6646,5.7622,-2.0122
155.756,-0.213136,0.57843,0,0.373623,9.11305,-1.89207,13.5671,-13.1707,-59.4512,-9.33579,-1.43222,-0.64426,-17.1037,5.39634,-2.2561
155.766,-0.793458,0.39288,0,0.0335303,8.91187,-1.84177,13.4451,-8.29268,-60.0915,-9.0388,-1.40348,-0.622705,-15.061,4.78659,-1.34146
155.776,-1.42306,0.199742,0,-0.368833,8.81607,-1.67891,14.5732,-9.90854,-60.9756,-8.75619,-1.34361,-0.64426,-12.8963,4.5122,0.457317
155.786,-2.09949,-0.00800938,0,-0.795146,8.78493,-1.77231,15,-8.35366,-61.372,-8.60052,-1.31487,-0.665815,-11.189,3.81098,2.37805
155.796,-2.75915,-0.294916,0,-0.883762,9.02443,-1.62622,16.5549,-12.5305,-60.1829,-8.53824,-1.38193,-0.878972,-8.90244,3.2622,4.08537
155.806,-3.34236,-0.651764,0,-0.541274,9.27112,-1.7316,16.9817,-13.9634,-58.3232,-8.6101,-1.40588,-0.881367,-5.64024,2.19512,5.30488
155.816,-3.88821,-1.26469,0,-0.713716,9.36692,-1.85854,15.2134,-18.2622,-53.628,-8.65081,-1.49928,-0.907712,-2.83537,1.0061,6.58537
155.826,-4.31019,-2.09715,0,-0.129331,9.61361,-2.18186,14.1768,-21.5244,-49.4207,-8.67955,-1.57592,-0.869392,0.701219,-0.27439,7.37805
155.836,-4.68923,-2.50415,0,-0.138911,9.48907,-2.13157,12.7744,-25.1829,-45.7622,-8.64363,-1.66214,-0.850232,3.9939,-0.97561,8.32317
155.846,-5.00548,-2.81958,0,0.110171,9.25915,-1.71723,15.2134,-26.5854,-43.2317,-8.58854,-1.70046,-0.840652,7.31707,-1.21951,9.63415
155.856,-5.25468,-3.88557,0,0.486189,9.1825,-1.43941,16.4634,-23.0183,-41.8293,-8.38257,-1.62622,-1.00591,10.0305,-0.0914634,11.2805
155.866,-5.46654,-4.2217,0,0.749641,9.55852,-1.97589,15.8537,-19.878,-41.4939,-8.20534,-1.57832,-1.25739,12.1951,2.31707,12.7744
155.876,-5.63088,-4.5115,0,1.16398,9.76449,-2.12917,12.5,-19.9085,-41.7988,-8.21013,-1.50168,-1.64298,13.9329,5.57927,13.7805
155.886,-5.80774,-4.90203,0,1.0586,9.55613,-2.27766,10.4878,-17.7744,-42.439,-8.25563,-1.36037,-2.10762,15.5488,9.66463,14.2378
155.896,-6.00941,-5.29677,0,0.845442,9.12742,-2.46208,10.6098,-15.3659,-43.2317,-8.54303,-1.16637,-2.2585,17.8049,12.4695,14.8476
155.906,-6.24565,-5.59148,0,0.524509,9.00767,-2.67284,8.44512,-11.5244,-43.1707,-9.06515,-1.07297,-2.03816,19.1159,13.628,15.4878
155.916,-6.53594,-5.79541,0,-0.0790356,9.00527,-2.37586,4.66463,-16.7683,-41.3415,-9.47709,-0.993933,-1.78668,19.2378,13.1098,16.128
155.926,-6.78787,-5.9342,0,-0.124541,9.2352,-2.46208,1.18902,-21.4939,-37.4695,-9.78126,-1.05141,-1.59269,19.7256,10.4573,16.9817
155.936,-6.91586,-6.0744,0,0.462239,9.21364,-2.71595,-0.0609756,-25.5183,-32.7744,-10.0064,-1.00112,-1.66214,20.4268,8.53659,17.3171
155.946,-6.97371,-6.19295,0,0.66342,9.18729,-3.11832,-0.152439,-28.1402,-28.4451,-10.277,-1.0083,-1.6334,21.1585,6.95122,17.1646
155.956,-6.99096,-6.25649,0,0.742456,9.36453,-3.26441,-0.365854,-27.7439,-25.2439,-10.574,-0.931663,-1.4418,21.9207,5.2439,16.0671
155.966,-7.00702,-6.3061,0,0.459844,9.56331,-3.35542,-0.701219,-28.2317,-21.5244,-10.7656,-0.864602,-1.41306,21.4329,4.48171,14.8476
155.976,-7.02271,-6.34298,0,0.193997,9.60642,-3.30513,-1.70732,-28.6585,-18.2622,-10.8183,-0.749641,-1.36756,20.7927,3.71951,13.628
155.986,-7.03222,-6.36744,0,0.0766406,9.76928,-2.95306,-4.42073,-28.9329,-16.2195,-10.847,-0.754431,-1.31726,19.4512,2.80488,12.561
155.996,-6.97566,-6.33632,0,0.471819,9.85072,-2.67763,-8.20122,-29.4817,-14.1768,-10.8039,-0.661025,-1.07536,17.2561,1.43293,11.7073
156.006,-6.86391,-6.36284,0,0.850232,9.82437,-2.5028,-9.69512,-27.2561,-12.9268,-10.7225,-0.397573,-1.28613,14.5427,0.823171,11.5244
156.016,-6.74369,-6.45764,0,0.828677,9.85072,-2.91234,-9.66463,-23.75,-11.5549,-10.689,-0.0958008,-1.58071,12.0122,1.4939,11.7988
156.026,-6.63294,-6.60864,0,0.711321,10.0782,-3.25723,-9.39024,-18.8415,-10.7012,-10.8279,0.0598755,-1.94476,9.7561,3.44512,12.0732
156.036,-6.55452,-6.73384,0,0.479004,10.5836,-3.50631,-9.39024,-13.3232,-10.8232,-11.2925,-0.0143701,-1.93757,7.5,4.69512,11.0976
156.046,-6.47984,-6.76246,0,0.395178,10.8854,-3.6069,-10.5488,-8.9939,-10,-11.9488,-0.246687,-1.55916,5.45732,3.81098,8.90244
156.056,-6.36213,-6.68842,0,0.62031,10.9452,-3.56618,-11.9512,-6.28049,-7.83537,-12.6218,-0.232317,-1.09692,3.65854,0.945122,5.67073
156.066,-6.18048,-6.61144,0,0.924478,11.1416,-3.10634,-13.2927,-3.81098,-4.2378,-12.9595,-0.0838257,-1.08494,1.64634,-1.52439,3.81098
156.076,-5.8995,-6.54465,0,1.25739,11.3452,-2.5507,-16.128,-5.54878,1.61585,-12.969,0.0119751,-1.12566,-0.0914634,-1.55488,2.83537
156.086,-5.49452,-6.46247,0,1.97589,11.4482,-2.3088,-19.9085,-8.5061,9.29878,-12.7846,0.150886,-1.02267,-3.07927,0.579268,2.34756
156.096,-4.93593,-6.37582,0,2.85726,11.738,-2.27527,-24.7866,-8.35366,17.8659,-12.6265,0.110171,-0.938848,-7.04268,4.81707,2.28659
156.106,-4.26428,-6.25592,0,3.28836,12.102,-2.10762,-30.5488,-6.40244,27.439,-12.6481,-0.0215552,-0.730481,-9.7561,8.62805,1.31098
156.116,-3.50638,-6.10801,0,3.30034,12.7535,-1.82021,-36.5244,-3.81098,39.0244,-12.5236,-0.114961,-0.538879,-10.061,11.5244,0.731707
156.126,-2.72348,-6.00439,0,2.56267,13.1055,-1.27176,-44.3293,-3.93293,50.1524,-12.011,-0.172441,-0.718506,-9.84756,13.7195,0.426829
156.136,-1.90113,-5.98921,0,1.93518,12.787,-0.61073,-51.2195,-5.91463,60.7927,-11.2326,-0.617915,-1.08973,-7.5,16.1585,-0.487805
156.146,-1.00133,-6.00274,0,1.44659,11.8649,0.593965,-54.5427,-8.81098,73.75,-10.3752,-1.50168,-1.13524,-0.335366,17.439,-1.55488
156.156,0.0421326,-5.92501,0,1.44659,10.8494,1.09452,-58.4451,-10.6098,88.9329,-9.6663,-2.00703,-0.66821,8.59756,17.2561,-1.7378
156.166,1.23127,-5.67461,0,1.40109,9.83395,1.2981,-64.4512,-13.3841,104.878,-9.34776,-2.22497,0.0766406,19.1159,14.4817,-1.12805
156.176,2.49789,-5.25239,0,0.946033,9.11305,0.797541,-67.3781,-20.1829,119.665,-9.20885,-2.03816,0.809517,29.5732,8.5061,0.152439
156.186,3.80894,-4.60459,0,0.335303,9.2328,0.203577,-65.6098,-28.4756,134.634,-9.26394,-1.51126,1.23583,36.7378,2.31707,1.15854
156.196,5.06556,-4.02088,0,-0.675395,10.174,-0.301772,-59.3902,-34.5427,143.75,-9.46991,-0.555645,1.49928,40.7317,-3.38415,1.4939
156.206,6.2301,-3.47515,0,-1.70046,11.2518,-0.977168,-50.8232,-39.939,146.707,-9.96328,0.58199,1.70525,41.7378,-7.56098,2.7439
156.216,7.31123,-3.02001,0,-2.37346,12.2936,-1.15919,-43.4756,-46.6159,145.335,-10.483,1.80584,1.46815,40.061,-9.08537,5.06098
156.226,8.32415,-2.66337,0,-2.46448,12.8014,-0.866997,-39.2378,-49.5732,140.518,-10.5788,2.70158,1.10171,36.7378,-6.55488,8.96341
156.236,9.3222,-2.27273,0,-1.96631,12.8277,-0.773591,-34.1768,-45.7012,136.616,-10.5429,3.13269,1.27415,30.3354,-2.89634,12.0427
156.246,10.334,-1.77391,0,-1.31008,12.4637,-0.347278,-27.4085,-44.8476,134.512,-10.2243,3.05844,1.23823,22.4695,0.731707,13.9939
156.256,11.4321,-1.39408,0,-0.292192,11.6877,-0.0790356,-20.1524,-38.2317,136.067,-9.56092,2.61057,1.22625,15.4878,3.35366,15.1524
156.266,12.5676,-1.0282,0,0.570015,11.4602,0.126936,-8.78049,-36.0976,133.384,-9.2328,1.88488,1.23104,8.96341,4.48171,14.6037
156.276,13.65,-0.778765,0,0.637075,11.7308,0.241897,-0.701219,-36.4634,129.756,-9.41003,1.18553,0.850232,4.11585,4.81707,13.0793
156.286,14.8223,-0.652901,0,1.93997,11.5655,0.00479004,5.7622,-28.75,128.049,-9.85311,0.742456,0.409548,2.5,4.87805,12.1951
156.296,15.9598,-0.63642,0,2.11001,10.8255,-0.124541,12.7744,-20.1829,123.811,-10.4159,0.320933,-0.0383203,3.01829,5.57927,11.6768
156.306,17.0717,-0.70189,0,2.42855,10.1716,-0.419128,17.378,-1.0061,118.628,-10.6962,0.131726,-0.421523,5.30488,5.27439,12.1646
156.316,18.1035,-0.821667,0,2.44292,10.0088,-0.383203,20.6402,15.8232,112.134,-10.6435,0.0981958,-0.684976,8.59756,4.81707,13.4146
156.326,19.0732,-0.934047,0,2.63692,10.0495,-0.455054,22.2866,39.4207,105.884,-10.4088,0.0790356,-0.6251,11.8293,2.59146,14.5122
156.336,19.9247,-1.14038,0,2.28724,10.0806,-0.440684,21.7378,52.5915,99.7256,-9.98005,0.215552,-0.536484,14.9085,-0.121951,14.7561
156.346,20.7078,-1.19543,0,2.33993,10.0208,0.155676,19.8171,66.9817,93.75,-9.52499,0.397573,-0.395178,17.0732,-2.92683,13.9329
156.356,21.4828,-1.18945,0,2.85247,9.80521,0.136516,18.0183,86.7378,88.2317,-9.07473,0.6251,-0.170046,18.5671,-5.18293,12.9268
156.366,22.0952,-1.14754,0,2.06451,9.54655,0.119751,17.1646,93.7805,81.4329,-8.73703,0.912502,-0.0263452,18.2012,-6.31098,12.0427
156.376,22.428,-1.08619,0,0.423918,9.1849,0.208367,15.8537,102.134,73.6585,-8.44963,1.19032,0.0526904,16.6159,-7.04268,12.1646
156.386,22.9044,-1.01633,0,2.18905,8.7059,-0.313748,12.2561,113.14,65.5793,-8.3203,1.45617,0.0910107,13.7195,-6.58537,12.0122
156.396,23.1714,-0.915782,0,1.28373,8.33946,-0.117356,8.56707,113.201,56.128,-8.19097,1.69567,0.208367,10.4268,-6.43293,12.561
156.406,23.2591,-0.825909,0,0.536484,7.73831,-0.234712,4.87805,118.689,48.1402,-8.13828,1.89925,0.182021,6.61585,-6.09756,13.1707
156.416,23.1243,-0.760205,0,-0.574805,6.89526,0.239502,3.04878,113.018,43.4451,-8.14307,1.99984,0.107776,2.56098,-5.64024,12.8354
156.426,22.7401,-0.719188,0,-1.70286,6.19352,0.431104,8.35366,102.104,39.3598,-8.20773,1.99026,0.0263452,-0.426829,-4.69512,12.8354
156.436,22.172,-0.684146,0,-2.5507,6.11688,0.282612,12.7134,92.5305,34.6341,-8.21013,1.88488,0.00479004,-3.44512,-3.9939,11.5244
156.446,21.4301,-0.632018,0,-3.44883,6.18155,0.687371,14.7561,73.2927,29.0549,-8.27479,1.75794,0.0574805,-5.70122,-3.65854,9.29878
156.456,20.5968,-0.581714,0,-3.73863,6.05461,0.802332,18.3841,50.7317,23.3841,-8.35383,1.61185,0.0646655,-7.56098,-3.81098,7.2561
156.466,19.787,-0.599478,0,-3.27399,6.2031,0.759221,23.2622,22.2256,16.189,-8.35622,1.59508,-0.143701,-9.87805,-3.78049,5.94512
156.476,19.0016,-0.708717,0,-2.42376,6.31806,0.773591,29.6951,-2.43902,6.79878,-8.38496,1.50647,-0.421523,-12.0122,-3.47561,4.42073
156.486,17.5589,-1.07074,0,-1.99745,6.44979,0.641865,35.5793,-22.1341,-3.78049,-8.46879,1.3963,-0.677791,-14.5427,-1.55488,3.38415
156.496,16.9283,-2.10275,0,-0.855022,6.86413,0.627495,35.4573,-33.0793,-14.0244,-8.66518,1.24781,-0.835862,-16.8902,0.0609756,2.92683
156.506,16.4496,-2.44009,0,0.455054,7.02938,0.907712,29.7561,-34.8171,-21.8598,-8.81846,1.15679,-1.09213,-19.6341,1.85976,2.34756
156.516,16.1142,-2.71445,0,1.66214,7.14434,0.778381,22.622,-31.4634,-27.378,-8.93103,1.12087,-1.32684,-22.0427,3.29268,1.79878
156.526,15.7931,-3.00185,0,2.27048,7.72154,0.208367,17.6829,-31.8293,-33.3232,-9.0388,1.10171,-1.51605,-23.1707,4.02439,1.37195
156.536,15.4292,-3.29737,0,2.71835,8.52866,-0.148491,11.6768,-28.5976,-40.9756,-9.07233,1.07776,-1.64298,-24.2073,4.93902,0.792683
156.546,15.0566,-3.59183,0,3.62845,9.29986,-0.275427,1.7378,-20.5793,-50.0305,-9.33339,0.965193,-1.71483,-24.5732,4.11585,-0.0914634
156.556,14.7005,-3.91318,0,4.60083,9.63995,0.0335303,-7.59146,-10.6707,-57.6829,-9.46272,0.816702,-1.83698,-23.1707,3.17073,-0.884146
156.566,14.3821,-4.24691,0,5.12774,9.5705,0.392783,-11.7073,-5.79268,-60,-9.6663,0.692161,-1.94236,-20.9756,2.65244,-1.52439
156.576,14.1327,-4.58897,0,5.63309,9.3765,0.804727,-10.061,-4.63415,-59.3598,-9.80281,0.55325,-2.07169,-17.8963,2.56098,-2.31707
156.586,13.9994,-4.8899,0,6.38512,9.35974,1.27655,-3.01829,-7.13415,-54.7561,-10.0639,0.457449,-2.02379,-15.061,2.34756,-2.95732
156.596,14.0757,-5.19138,0,7.77423,9.41482,1.02746,4.29878,-7.37805,-44.3598,-10.2627,0.397573,-1.825,-11.5549,0.823171,-3.01829
156.606,14.378,-5.50895,0,9.41722,9.46751,0.407153,8.04878,-2.5,-31.9512,-10.3082,0.304167,-1.84417,-8.14024,-0.487805,-2.59146
156.616,14.8056,-5.73265,0,9.89862,9.60163,-0.172441,7.9878,5.79268,-20.6402,-10.2459,0.323328,-1.81782,-5.06098,-1.4939,-2.2561
156.626,15.3132,-5.97688,0,9.71899,9.88425,-0.859812,9.35976,17.0122,-8.84146,-10.107,0.404758,-1.93757,-2.04268,-1.76829,-1.25
156.636,15.8533,-6.21528,0,8.90708,10.2531,-1.65735,10.6402,29.3598,2.56098,-9.97526,0.63947,-1.86333,-0.182927,-1.4939,-0.27439
156.646,16.3838,-6.5717,0,7.56587,10.7752,-1.46096,11.7683,35.122,14.9085,-9.89862,0.888552,-1.79387,0.121951,-0.182927,0.884146
156.656,16.9482,-6.86592,0,6.61504,10.6267,-0.958008,21.0976,35.7927,25.9146,-10.0711,1.13524,-1.80584,-1.37195,-0.121951,1.85976
156.666,17.5064,-7.03599,0,5.87259,10.3776,-0.467029,34.4817,31.9512,31.3415,-10.3465,1.12566,-1.78189,-3.75,0.670732,2.59146
156.676,17.8924,-7.06881,0,4.76369,10.653,-0.143701,42.1037,26.4939,25.9451,-10.962,0.989143,-1.46096,-5.57927,-0.0914634,3.68902
156.686,17.9299,-7.06413,0,3.1758,12.1811,0.0670605,46.2805,23.4146,10.5183,-11.6637,0.500559,-1.42504,-6.18902,-2.43902,5.2439
156.696,17.6357,-7.1718,0,1.19511,13.187,1.01549,48.811,14.3293,-3.96341,-12.217,-0.371228,-2.10043,-3.35366,-2.31707,7.7439
156.706,17.2182,-7.34946,0,0.0814307,12.3775,2.39262,43.9329,-14.4817,-7.37805,-12.7104,-1.12566,-2.5986,2.37805,1.28049,9.5122
156.716,16.9886,-7.43158,0,2.27287,11.7811,2.28245,27.9268,-36.2195,-10.5793,-13.0097,-1.23823,-2.15312,8.23171,5.03049,11.7683
156.726,16.9309,-7.36955,0,4.97446,11.8266,1.65017,6.85976,-19.0549,-17.7744,-13.0026,-0.953218,-1.32684,12.8354,7.80488,14.6951
156.736,17.13,-7.25028,0,7.118,11.1321,1.41785,6.40244,6.46341,-11.6463,-12.8157,-0.613125,-0.965193,15.6098,10.2744,16.9512
156.746,17.5777,-7.03688,0,8.37778,10.1621,-0.131726,25,12.9573,-1.06707,-12.2936,-0.162861,-0.387993,18.628,10.8232,18.2927
156.756,17.6653,-6.72663,0,4.84512,11.2302,-3.0273,25.0305,55.2439,-2.89634,-11.4602,0.622705,0.170046,19.4512,10.6098,19.9695
156.766,17.1792,-6.3293,0,-0.299377,10.5788,-2.85726,9.63415,66.9512,-10.2439,-10.6842,1.52084,0.627495,17.1951,10.9756,21.5549
156.776,16.2991,-5.83023,0,-2.31359,7.7886,-1.04662,12.6829,39.1159,-20.9756,-10.4088,2.08127,1.1544,12.0732,11.1585,21.6159
156.786,14.9425,-5.16952,0,-3.67157,6.02347,-0.538879,22.0122,7.71341,-41.1585,-10.2148,2.47166,1.96631,3.35366,8.84146,20.6402
156.796,13.4381,-4.42793,0,-3.73623,6.31088,-1.08734,22.2256,-15.4268,-60.5183,-10.095,2.49561,2.42855,-7.13415,5.57927,18.7195
156.806,12.309,-3.53879,0,-1.02746,7.24254,-1.72681,21.8293,-22.7439,-71.311,-9.89143,2.28245,2.5028,-18.628,1.61585,17.3171
156.816,11.5188,-2.47898,0,1.13524,8.61728,-3.25723,23.75,-11.4939,-70.8232,-9.73575,1.825,2.31119,-28.75,-0.853659,15.6707
156.826,10.8058,-1.83853,0,1.25978,10.6483,-4.10506,25.4878,-2.43902,-63.0183,-9.92017,1.14721,2.08127,-35.8537,-2.34756,13.872
156.836,10.0916,-1.40875,0,0.792751,11.7667,-4.17931,22.5915,5.12195,-58.689,-10.3824,0.356858,1.55676,-38.9939,-3.07927,12.1037
156.846,9.32278,-1.11592,0,-0.0167651,11.1416,-3.09197,18.5366,9.45122,-57.6829,-11.0434,-0.335303,1.14721,-39.4512,-4.84756,9.66463
156.856,8.48193,-0.975744,0,-0.768801,9.90101,-2.09804,17.5305,8.41463,-57.7134,-11.0267,-1.54479,0.440684,-32.8049,-2.68293,6.52439
156.866,7.61819,-0.892056,0,-0.979563,8.9933,-1.8753,16.2195,0.27439,-58.1402,-10.8135,-2.31359,0.124541,-25.7317,-0.670732,3.75
156.876,6.75661,-0.873844,0,-1.0562,8.6556,-1.93518,16.7683,-13.628,-58.1707,-10.3034,-2.78062,-0.0934058,-18.0183,1.18902,0.97561
156.886,5.92192,-0.802227,0,-0.960403,8.8975,-2.07169,16.8902,-25.2744,-58.811,-9.81719,-2.79738,0.0335303,-10.1829,0.640244,-0.884146
156.896,5.05536,-0.663371,0,-1.32924,9.5226,-1.72202,15.9451,-42.1951,-60.122,-9.50104,-2.36628,0.0862207,-4.11585,-0.182927,-2.13415
156.906,4.2034,-0.64229,0,-1.32924,10.368,-1.62861,13.5976,-57.622,-61.7073,-9.74054,-1.67412,-0.0574805,-0.121951,-1.09756,-2.46951
156.916,3.38669,-0.655903,0,-1.11368,10.7177,-1.66693,10.4878,-70.3354,-62.6524,-10.38,-1.01788,-0.165256,1.85976,-1.25,-2.56098
156.926,2.64891,-0.709347,0,-0.426313,10.4351,-1.94476,8.23171,-76.2805,-63.5976,-10.6435,-0.376018,-0.280217,1.06707,-0.365854,-2.7439
156.936,1.9999,-0.812716,0,0.251477,10.1405,-2.37107,6.28049,-82.2256,-63.7195,-10.4998,0.215552,-0.445474,-0.365854,0.640244,-1.98171
156.946,1.39546,-0.95064,0,0.57241,9.70941,-2.48843,5.64024,-81.4024,-64.4817,-10.0591,0.495769,-0.498164,-3.59756,0.731707,-0.640244
156.956,0.812378,-1.21388,0,0.742456,9.25915,-2.58183,5.91463,-74.939,-66.0061,-9.55373,0.474214,-0.495769,-6.0061,-0.0609756,0.97561
156.966,0.258999,-1.27724,0,0.941243,8.91905,-2.39262,6.03659,-69.6037,-67.1037,-9.11544,0.373623,-0.349673,-7.86585,-1.79878,2.28659
156.976,-0.271001,-1.30101,0,1.13045,8.82804,-2.40699,6.67683,-60.3354,-68.4451,-8.8472,0.0766406,-0.285007,-9.17683,-3.9939,3.17073
156.986,-0.805495,-1.34641,0,1.0586,8.74661,-2.4022,6.92073,-49.0549,-69.1768,-8.75859,-0.222737,-0.373623,-9.7561,-5.30488,3.32317
156.996,-1.35466,-1.41689,0,0.866997,8.81367,-2.45729,8.38415,-40.7927,-69.1463,-8.72506,-0.570015,-0.476609,-8.87195,-5.85366,3.01829
157.006,-1.91797,-1.50032,0,0.603545,8.85678,-2.31598,9.7561,-33.9939,-68.2012,-8.64602,-0.874182,-0.534089,-6.09756,-6.40244,2.34756
157.016,-2.48285,-1.59574,0,0.469424,8.90468,-2.17228,10.4573,-29.2683,-67.7134,-8.54064,-1.13045,-0.584385,-3.38415,-6.34146,1.61585
157.026,-3.04906,-1.71593,0,0.328118,8.81367,-1.93757,11.0061,-24.4512,-67.1951,-8.43526,-1.36995,-0.682581,-0.518293,-6.34146,1.12805
157.036,-3.64759,-1.83101,0,-0.0742456,8.8017,-1.63819,10.7927,-24.1159,-66.311,-8.29635,-1.56395,-0.673001,2.34756,-7.04268,1.46341
157.046,-4.21601,-1.96633,0,-0.0359253,8.83044,-1.54239,10.061,-26.128,-64.9695,-8.16462,-1.61903,-0.754431,5.45732,-8.07927,2.43902
157.056,-4.73948,-2.10614,0,0.146096,8.92863,-1.5855,9.45122,-25.9146,-63.9329,-8.0305,-1.50886,-0.778381,7.71341,-8.90244,4.54268
157.066,-5.235,-2.21778,0,0.277822,9.00767,-1.59508,9.60366,-28.7805,-63.8415,-7.88201,-1.37235,-0.684976,9.54268,-9.11585,7.0122
157.076,-5.72633,-2.31784,0,0.201182,9.06275,-1.60706,8.14024,-31.3415,-63.4146,-7.80537,-1.14482,-0.65384,10.3963,-9.42073,9.81707
157.086,-6.17745,-2.39299,0,0.352068,9.00767,-1.79626,7.77439,-32.561,-62.2866,-7.77663,-0.900527,-0.579595,11.128,-9.7561,12.4085
157.096,-6.57824,-2.50184,0,0.598755,8.91905,-1.83698,8.17073,-33.0488,-61.3415,-7.62814,-0.692161,-0.692161,11.2805,-9.42073,14.7561
157.106,-6.9085,-2.62725,0,1.05141,8.91426,-1.85854,9.2378,-30.8841,-60.8537,-7.59461,-0.543669,-0.759221,11.7073,-9.20732,16.8902
157.116,-7.19524,-2.88351,0,1.19751,8.95498,-1.7292,8.90244,-26.7378,-58.9024,-7.59461,-0.502954,-1.19751,12.4695,-6.40244,18.0793
157.126,-7.46588,-3.51187,0,1.19032,9.05078,-1.78429,7.80488,-23.3841,-57.5915,-7.79339,-0.5772,-1.71962,13.8415,-2.89634,18.2012
157.136,-7.7071,-5.34331,0,1.24302,8.85439,-2.019,4.81707,-22.622,-56.1585,-8.1766,-0.725691,-2.07409,16.5244,0.792683,16.9207
157.146,-7.96675,-5.7513,0,0.816702,9.00048,-2.19384,1.79878,-21.3415,-52.8049,-8.70829,-0.831072,-1.86812,19.5732,2.19512,15.9451
157.156,-8.23968,-5.93702,0,0.452659,9.46751,-2.48364,0,-21.0976,-49.6951,-9.24478,-0.953218,-1.52323,21.189,2.28659,15.2439
157.166,-8.47851,-6.09234,0,0.526904,9.60882,-2.72553,-0.914634,-20.6098,-47.5915,-9.55134,-1.18553,-1.53042,22.1341,2.19512,14.3902
157.176,-8.72543,-6.23313,0,0.383203,9.53697,-2.74469,-1.03659,-24.4207,-47.1951,-9.65432,-1.12087,-1.59029,22.7134,3.10976,14.3902
157.186,-8.92588,-6.34852,0,0.617915,9.4268,-2.80217,-2.40854,-25.8841,-45.9146,-9.79323,-0.723296,-1.56634,22.6829,4.93902,15.0305
157.196,-9.09584,-6.508,0,0.704136,9.63995,-2.82373,-3.01829,-29.0854,-44.0854,-9.91538,-0.220342,-1.80824,22.1646,6.76829,16.5549
157.206,-9.22773,-6.59878,0,0.768801,9.68785,-2.98898,-3.29268,-25.9451,-41.2805,-10.3058,-0.0311353,-1.5879,20.6402,8.20122,17.1646
157.216,-9.35286,-6.607,0,0.507744,10.004,-2.99138,-5.09146,-27.9268,-37.5305,-10.8327,-0.0934058,-1.28613,17.0427,7.13415,16.0671
