time,angle1,angle2,intgangle,accX1,accY1,accZ1,gyroX1,gyroY1,gyroZ1,accX2,accY2,accZ2,gyroX2,gyroY2,gyroZ2
313.265,71.5972,11.7531,0,8.92624,2.89558,3.31231,-0.670732,0.823171,-1.06707,-9.6184,-0.0263452,1.95434,0.0304878,1.61585,5.85366
313.275,71.6027,11.7353,0,8.95019,2.8836,3.30273,-0.640244,0.762195,-1.15854,-9.62798,-0.0574805,1.94476,-0.0304878,1.82927,5.67073
313.286,71.6058,11.7191,0,8.92624,2.89318,3.39135,-0.518293,0.365854,-1.09756,-9.67348,-0.0934058,1.95673,-0.121951,1.7378,5.64024
313.296,71.6102,11.7027,0,8.943,2.86684,3.35303,-0.365854,0.213415,-1.37195,-9.65911,-0.100591,1.94715,-0.0914634,2.0122,6.0061
313.306,71.6147,11.6893,0,8.98132,2.90037,3.38416,-0.121951,0.335366,-1.09756,-9.68306,-0.100591,1.95913,-0.0609756,2.07317,6.06707
313.315,71.6184,11.6704,0,8.95977,2.89079,3.31471,-0.152439,0.396341,-1.18902,-9.70462,-0.112566,1.94476,0.182927,1.79878,6.06707
313.325,71.6241,11.6518,0,8.96216,2.87402,3.34824,-0.0304878,0.548781,-1.25,-9.72617,-0.107776,1.94715,0.0914634,1.7378,6.31098
313.336,71.6292,11.6236,0,8.97893,2.87881,3.27399,0.243902,0.518293,-1.28049,-9.72378,-0.0622705,1.91602,0.304878,1.52439,6.18902
313.346,71.6317,11.6015,0,8.97653,2.87881,3.34584,0.121951,0.640244,-1.43293,-9.69743,-0.0718506,1.92799,0.548781,1.40244,6.18902
313.356,71.6335,11.5859,0,8.95019,2.8836,3.27639,0.121951,0.304878,-1.34146,-9.70222,-0.0766406,1.94715,0.792683,1.25,6.15854
313.365,71.6335,11.5492,0,8.97174,2.90995,3.32429,0.213415,0.27439,-1.21951,-9.72617,-0.0383203,1.89686,0.762195,0.97561,6.64634
313.376,71.6316,11.5304,0,8.92145,2.90276,3.32668,0.365854,0.487805,-1.25,-9.69264,-0.0526904,1.93039,0.579268,1.06707,6.61585
313.386,71.6276,11.5058,0,8.95737,2.92671,3.30513,0.213415,0.365854,-1.25,-9.69504,-0.0574805,1.90644,1.0061,1.28049,6.25
313.396,71.6272,11.4771,0,8.95498,2.91474,3.33866,0.213415,0.304878,-1.12805,-9.66869,-0.0479004,1.89207,0.579268,1.06707,6.31098
313.406,71.6309,11.4586,0,8.95019,2.89318,3.34824,0.243902,0.213415,-1.09756,-9.67109,-0.0981958,1.92081,0.548781,0.731707,6.40244
313.415,71.6407,11.417,0,8.93103,2.85726,3.3195,0,0.0914634,-1.06707,-9.65911,-0.0670605,1.86812,0.457317,0.609756,6.28049
313.426,71.6401,11.3796,0,8.92624,2.886,3.3171,0.152439,0.304878,-1.37195,-9.64953,-0.110171,1.86333,0.27439,0.731707,6.31098
313.435,71.6386,11.3313,0,8.93821,2.89797,3.31471,-0.0304878,0.182927,-1.34146,-9.6639,-0.110171,1.82979,0.670732,0.823171,6.28049
313.446,71.6418,11.2988,0,8.94061,2.85726,3.30034,0.0304878,-0.0914634,-1.4939,-9.66151,-0.134121,1.86572,0.792683,0.609756,6.7378
313.456,71.6414,11.2744,0,8.94061,2.87642,3.33626,0,-0.121951,-1.52439,-9.69983,-0.100591,1.88249,0.731707,0.670732,6.7378
313.465,71.643,11.2567,0,8.96695,2.85726,3.33866,-0.0914634,-0.121951,-1.67683,-9.74294,-0.0598755,1.90404,0.853659,0.518293,6.67683
313.476,71.6348,11.2503,0,8.95977,2.90995,3.31471,-0.0914634,-0.0914634,-1.79878,-9.73336,0.00958008,1.9256,0.701219,0.213415,6.67683
313.486,71.6327,11.2531,0,8.9909,2.89797,3.33387,-0.152439,-0.0914634,-1.58537,-9.75012,-0.00479004,1.94476,0.701219,0.182927,6.4939
313.496,71.6319,11.2397,0,8.99809,2.90516,3.30273,-0.457317,-0.152439,-1.43293,-9.73096,0.0191602,1.90883,0.640244,0.426829,6.28049
313.506,71.6296,11.1944,0,8.9909,2.91953,3.36261,-0.457317,-0.182927,-1.34146,-9.74294,0.00239502,1.83219,0.731707,0.640244,6.0061
313.515,71.6357,11.1849,0,8.95258,2.8836,3.30513,-0.548781,-0.152439,-1.06707,-9.74533,-0.0191602,1.90883,0.670732,0.457317,5.7622
313.525,71.6408,11.1711,0,8.93103,2.8836,3.33866,-0.731707,0.0609756,-1.03659,-9.70462,-0.0191602,1.88728,0.914634,0.701219,5.39634
313.536,71.6537,11.1542,0,8.943,2.85965,3.32908,-0.548781,0.121951,-0.884146,-9.71659,-0.0502954,1.88249,0.823171,0.548781,5.57927
313.546,71.6645,11.1337,0,8.90708,2.85486,3.34345,-0.27439,0.0914634,-0.914634,-9.65911,-0.0455054,1.86572,1.21951,0.365854,5.67073
313.555,71.6734,11.1193,0,8.94779,2.88121,3.38656,-0.0609756,0.213415,-0.823171,-9.68306,-0.0311353,1.8753,0.670732,0.548781,5.82317
313.565,71.6782,11.1347,0,8.89989,2.87402,3.39135,-0.243902,-0.304878,-0.97561,-9.63995,0.00479004,1.9232,0.914634,0.304878,6.0061
313.576,71.6888,11.1419,0,8.90947,2.85726,3.38656,0,-0.335366,-0.853659,-9.66151,-0.00718506,1.91602,0.670732,0.396341,6.06707
313.586,71.6964,11.1312,0,8.90708,2.84049,3.40093,0.182927,-0.701219,-1.18902,-9.62319,-0.0119751,1.87291,0.426829,0.609756,6.28049
313.596,71.7055,11.1382,0,8.92624,2.85007,3.38177,0.0914634,-1.03659,-1.03659,-9.62079,-0.0335303,1.90883,0.335366,0.640244,5.82317
313.606,71.7141,11.1487,0,8.90947,2.8357,3.36979,0.518293,-0.97561,-1.15854,-9.62319,-0.0359253,1.91602,0.609756,0.487805,5.91463
313.615,71.7264,11.1432,0,8.93821,2.84528,3.39374,0.182927,-1.43293,-0.914634,-9.62319,-0.0598755,1.88488,0.213415,0.701219,6.15854
313.625,71.7301,11.1403,0,8.93821,2.86205,3.365,0.335366,-1.28049,-1.21951,-9.63756,-0.0742456,1.89207,0.121951,0.914634,6.09756
313.635,71.7326,11.1353,0,8.92624,2.85486,3.40572,0.182927,-1.64634,-1.34146,-9.68067,-0.0910107,1.89446,0.213415,0.914634,6.28049
313.646,71.7336,11.1079,0,8.95019,2.85965,3.32908,0.426829,-1.67683,-1.46341,-9.66151,-0.124541,1.83219,-0.0609756,0.97561,6.40244
313.655,71.731,11.1258,0,8.95498,2.89318,3.37937,0.396341,-1.61585,-1.34146,-9.68306,-0.136516,1.94955,0.121951,1.0061,6.64634
313.665,71.7337,11.1219,0,8.95019,2.85726,3.36021,0.365854,-1.95122,-1.37195,-9.68546,-0.153281,1.89446,0.27439,1.28049,6.12805
313.676,71.7321,11.1011,0,8.98132,2.89558,3.27399,0.518293,-1.64634,-1.34146,-9.70462,-0.141306,1.84896,0.152439,1.21951,6.25
313.685,71.7331,11.0852,0,9.00767,2.88839,3.24765,0.548781,-1.31098,-1.34146,-9.72857,-0.141306,1.86093,0.579268,1.40244,6.12805
313.696,71.7383,11.0637,0,9.01485,2.86444,3.27878,0.426829,-1.15854,-1.34146,-9.72617,-0.162861,1.83938,0.0914634,1.46341,6.06707
313.705,71.7364,11.0721,0,9.01964,2.88839,3.27399,0.0914634,-1.15854,-1.58537,-9.69025,-0.160466,1.9232,0.365854,1.58537,6.28049
313.715,71.7314,11.085,0,9.00288,2.89558,3.23328,0.335366,-1.09756,-1.67683,-9.67827,-0.162861,1.93757,0.365854,1.64634,5.85366
313.726,71.7308,11.0986,0,9.01725,2.886,3.21172,0.27439,-0.914634,-1.52439,-9.66869,-0.167651,1.93278,0.640244,1.12805,5.91463
313.735,71.7306,11.1063,0,9.01485,2.90037,3.23328,-0.0304878,-0.731707,-1.31098,-9.63037,-0.112566,1.91123,0.853659,1.15854,5.85366
313.746,71.7276,11.1361,0,8.99809,2.90755,3.2237,-0.0304878,-0.762195,-1.37195,-9.63277,-0.0981958,1.9711,0.396341,1.06707,6.09756
313.755,71.7246,11.1466,0,8.97653,2.91474,3.20933,-0.304878,-0.426829,-1.18902,-9.64714,-0.0574805,1.92799,0.487805,1.06707,6.09756
313.765,71.7299,11.1409,0,8.97653,2.87163,3.24525,-0.487805,0.0609756,-1.15854,-9.64235,-0.0311353,1.88488,0.426829,1.21951,5.67073
313.776,71.7269,11.129,0,8.9909,2.91474,3.20933,-0.396341,0,-1.25,-9.6663,-0.00718506,1.87051,0.213415,1.25,5.82317
313.786,71.727,11.1292,0,8.96695,2.91234,3.25004,-0.487805,0.457317,-0.945122,-9.64474,-0.00479004,1.89925,0.0304878,1.37195,5.7622
313.796,71.7361,11.1287,0,8.95737,2.86923,3.25962,-0.457317,0.365854,-0.884146,-9.64474,-0.0455054,1.89686,-0.0304878,1.34146,5.73171
313.806,71.7512,11.1136,0,8.9933,2.84528,3.36021,-0.304878,0.518293,-0.884146,-9.6663,-0.0670605,1.85854,-0.243902,1.31098,5.70122
313.815,71.7685,11.093,0,8.96935,2.84049,3.36021,-0.365854,0.640244,-0.731707,-9.68067,-0.105381,1.84177,-0.121951,1.34146,5.82317
313.825,71.7783,11.084,0,8.96216,2.86684,3.33626,-0.0914634,0.579268,-0.792683,-9.68067,-0.119751,1.87291,-0.0609756,1.28049,6.06707
313.836,71.7927,11.077,0,8.98132,2.84049,3.40811,-0.335366,0.213415,-0.853659,-9.68785,-0.141306,1.8777,-0.152439,1.43293,6.4939
313.846,71.8008,11.0452,0,8.95258,2.85965,3.38416,0.121951,0.0914634,-0.884146,-9.6639,-0.155676,1.79866,-0.0914634,1.37195,6.7378
313.856,71.8059,11.0371,0,8.94061,2.84528,3.37698,0.0609756,-0.365854,-1.18902,-9.67827,-0.0766406,1.86812,0.304878,1.09756,6.67683
313.865,71.8242,11.0157,0,8.93103,2.7878,3.40811,0.213415,-0.487805,-1.0061,-9.66869,-0.100591,1.82979,-0.121951,1.06707,6.7378
313.876,71.8282,11.0159,0,8.95498,2.8381,3.34105,0.609756,-0.701219,-1.34146,-9.67588,-0.0670605,1.88488,0,1.03659,6.98171
313.886,71.831,11.0083,0,8.94779,2.84528,3.37937,0.396341,-0.670732,-1.31098,-9.69504,-0.0814307,1.86812,0.0304878,1.0061,6.95122
313.895,71.8298,10.988,0,8.95737,2.87881,3.25244,0.518293,-0.701219,-1.21951,-9.71899,-0.0766406,1.84177,0,0.792683,7.16463
313.906,71.8288,10.9612,0,8.96935,2.86923,3.28597,0.121951,-0.731707,-1.37195,-9.70701,-0.117356,1.81542,-0.121951,0.97561,7.04268
313.916,71.8309,10.951,0,8.99569,2.87402,3.29555,0.0609756,-0.640244,-1.18902,-9.74294,-0.158071,1.85854,-0.0609756,1.18902,6.70732
313.925,71.8297,10.9275,0,9.00048,2.86923,3.29315,-0.121951,-0.518293,-1.4939,-9.70701,-0.165256,1.81542,0.182927,1.06707,6.61585
313.936,71.8309,10.9224,0,9.02204,2.87402,3.26202,-0.121951,-0.701219,-1.34146,-9.67588,-0.165256,1.85614,0.213415,0.884146,6.95122
313.946,71.8276,10.9073,0,9.00288,2.90755,3.23328,-0.365854,-0.548781,-1.18902,-9.69743,-0.155676,1.83219,0.640244,1.0061,6.70732
313.956,71.8236,10.8861,0,8.97174,2.87881,3.26441,-0.243902,-0.457317,-1.4939,-9.68546,-0.158071,1.81303,0.670732,0.945122,7.04268
313.965,71.825,10.8756,0,8.97174,2.8836,3.29794,-0.365854,-0.487805,-1.03659,-9.68785,-0.182021,1.83698,0.579268,0.945122,7.07317
313.976,71.8281,10.8691,0,8.97653,2.84528,3.27639,-0.213415,-0.335366,-1.40244,-9.69504,-0.134121,1.84656,0.396341,0.97561,7.07317
313.986,71.8321,10.8622,0,9.02922,2.8836,3.22849,-0.213415,-0.182927,-1.06707,-9.70462,-0.167651,1.84656,0.640244,0.914634,7.07317
313.996,71.8388,10.8516,0,9.02443,2.85007,3.29076,-0.182927,-0.365854,-1.25,-9.7142,-0.102986,1.83698,0.518293,0.97561,6.92073
314.006,71.8453,10.8503,0,9.00048,2.82852,3.28836,-0.243902,-0.701219,-1.40244,-9.69504,-0.0934058,1.85614,0.457317,0.609756,7.04268
314.016,71.8415,10.8383,0,8.9933,2.87163,3.25483,-0.243902,-0.304878,-1.61585,-9.68785,-0.0958008,1.8274,0.121951,0.914634,7.10366
314.025,71.8395,10.833,0,9.01485,2.86923,3.28597,-0.548781,-0.243902,-1.58537,-9.67109,-0.0622705,1.83938,0.457317,0.853659,7.40854
314.036,71.8374,10.8419,0,8.9909,2.85007,3.2213,-0.335366,0,-1.7378,-9.69264,-0.0838257,1.87291,0.365854,0.426829,7.37805
314.046,71.836,10.8454,0,8.95977,2.84768,3.26202,-0.365854,0.243902,-1.61585,-9.68306,-0.0502954,1.86333,0.548781,0.701219,7.34756
314.056,71.8395,10.8421,0,9.01246,2.86205,3.25962,-0.396341,0.243902,-1.28049,-9.68785,-0.0886157,1.84896,0.121951,0.701219,6.95122
314.066,71.8393,10.8379,0,8.98611,2.85486,3.2716,-0.152439,0.457317,-1.52439,-9.6663,-0.0622705,1.84177,0.121951,0.823171,7.16463
314.075,71.8438,10.8398,0,9.01964,2.82612,3.30034,-0.0914634,0.579268,-1.61585,-9.67827,-0.0646655,1.85854,-0.121951,0.884146,7.2561
314.086,71.8451,10.8305,0,8.9909,2.8381,3.28836,-0.152439,0.579268,-1.61585,-9.6639,-0.0718506,1.83219,0.182927,0.457317,7.65244
314.096,71.8456,10.8394,0,8.97653,2.8381,3.28597,0.0914634,0.335366,-1.61585,-9.68785,-0.0263452,1.87291,0.121951,0.548781,7.46951
314.106,71.8548,10.8239,0,8.98372,2.81894,3.30034,0.121951,0.792683,-1.28049,-9.71659,-0.0431104,1.8274,-0.213415,0.548781,7.56098
314.116,71.8558,10.8076,0,8.96935,2.84049,3.23567,-0.0609756,0.640244,-1.52439,-9.71899,-0.0407153,1.82021,-0.365854,0.731707,7.34756
314.125,71.8583,10.7949,0,9.02204,2.86205,3.25244,0.0914634,0.853659,-1.34146,-9.70701,-0.0479004,1.82261,-0.152439,0.823171,7.68293
314.135,71.8606,10.7605,0,8.99569,2.83091,3.2213,0.121951,0.762195,-1.61585,-9.68306,-0.0598755,1.7795,-0.304878,0.396341,7.46951
314.146,71.8608,10.747,0,9.02443,2.8381,3.2716,0.0304878,0.853659,-1.76829,-9.69264,-0.0574805,1.81303,-0.396341,0.609756,7.5
314.156,71.8586,10.7056,0,8.99569,2.86684,3.26202,0.304878,0.640244,-1.52439,-9.70222,-0.0934058,1.76034,-0.182927,0.396341,7.56098
314.165,71.8595,10.6997,0,8.97174,2.84289,3.3171,0.213415,1.15854,-1.4939,-9.71899,-0.0814307,1.825,-0.182927,0.579268,7.37805
314.176,71.8555,10.6779,0,8.95977,2.85486,3.33626,0.27439,0.945122,-1.67683,-9.73336,-0.0742456,1.78908,-0.487805,0.670732,7.53049
314.186,71.8542,10.643,0,8.96935,2.84049,3.30752,0.396341,0.853659,-1.67683,-9.69504,-0.0359253,1.75794,-0.396341,0.457317,7.68293
314.196,71.851,10.6023,0,8.97414,2.85247,3.3171,0.304878,0.701219,-1.70732,-9.67348,-0.0886157,1.74357,-0.518293,0.304878,7.53049
314.206,71.8423,10.5884,0,8.96456,2.87642,3.30034,0.0609756,0.640244,-1.82927,-9.65911,-0.0646655,1.78429,-0.487805,0.213415,7.46951
314.215,71.8407,10.6047,0,8.94779,2.8357,3.32908,0.121951,0.823171,-1.70732,-9.64474,-0.0646655,1.8274,-0.0609756,0,7.56098
314.225,71.8375,10.6104,0,8.95019,2.85247,3.31231,0.27439,0.853659,-1.64634,-9.68067,-0.0622705,1.82261,-0.548781,-0.243902,7.46951
314.235,71.8407,10.5654,0,8.97174,2.82373,3.33626,0.304878,1.03659,-1.58537,-9.74294,-0.110171,1.73639,-0.396341,0.365854,7.46951
314.246,71.837,10.5329,0,8.96216,2.86444,3.30034,0.365854,1.03659,-1.58537,-9.76449,-0.0958008,1.75315,-0.487805,0.457317,7.59146
314.256,71.8295,10.5366,0,8.9933,2.86684,3.32908,-0.0609756,0.792683,-1.98171,-9.74773,-0.0838257,1.82021,-0.27439,0.396341,7.83537
314.266,71.8303,10.5336,0,9.00527,2.85247,3.33147,-0.213415,0.823171,-1.55488,-9.73815,-0.0479004,1.80584,-0.579268,0.27439,7.5
314.275,71.83,10.5265,0,9.00048,2.84768,3.30513,-0.121951,0.670732,-1.67683,-9.7621,0,1.80345,-0.518293,0.0304878,7.56098
314.286,71.825,10.472,0,9.00288,2.84528,3.32908,-0.365854,0.609756,-2.07317,-9.75252,-0.0407153,1.71483,-0.335366,0.182927,7.28659
314.296,71.8216,10.4458,0,8.98611,2.8357,3.30992,-0.640244,0.853659,-2.0122,-9.74294,-0.0646655,1.74836,-0.304878,0.396341,7.2561
314.306,71.825,10.4145,0,8.98372,2.80217,3.35782,-0.548781,0.914634,-1.85976,-9.73815,-0.0814307,1.73399,-0.27439,0.365854,7.22561
314.315,71.8235,10.4123,0,8.96935,2.81415,3.3171,-0.304878,0.945122,-2.04268,-9.71899,-0.0910107,1.78189,-0.121951,0.640244,7.28659
314.326,71.8236,10.4297,0,8.96935,2.81175,3.365,-0.182927,0.762195,-1.95122,-9.64474,-0.0574805,1.81063,-0.243902,0.640244,7.34756
314.335,71.8187,10.4272,0,8.96456,2.82612,3.30992,-0.0914634,0.640244,-2.16463,-9.68067,-0.0502954,1.7771,-0.304878,0.548781,7.34756
314.346,71.8137,10.4349,0,8.98611,2.85247,3.37698,0.152439,0.731707,-1.95122,-9.68306,-0.0479004,1.80105,-0.213415,0.823171,7.34756
314.356,71.8088,10.4372,0,8.98132,2.8381,3.33147,-0.121951,0.609756,-2.10366,-9.66869,-0.0287402,1.78668,0.0304878,0.762195,7.53049
314.366,71.7992,10.4383,0,8.98132,2.85726,3.28357,-0.243902,0.579268,-2.28659,-9.66869,0.00239502,1.78429,-0.121951,0.731707,7.46951
314.376,71.7874,10.4306,0,8.98611,2.87402,3.32908,-0.457317,0.792683,-2.31707,-9.64953,-0.00718506,1.76273,-0.121951,0.487805,7.37805
314.385,71.7795,10.4198,0,8.94061,2.86444,3.36021,-0.152439,0.762195,-1.95122,-9.67109,0.00718506,1.75555,-0.152439,0.792683,7.40854
314.396,71.7697,10.4193,0,8.90229,2.85726,3.33626,0.152439,0.640244,-2.07317,-9.69264,-0.0119751,1.78189,-0.213415,0.792683,6.98171
314.406,71.7617,10.4282,0,8.92624,2.86923,3.36261,-0.0304878,0.731707,-1.89024,-9.67827,-0.0574805,1.80105,-0.243902,0.762195,7.0122
314.415,71.7582,10.4648,0,8.9454,2.84528,3.31471,0.0609756,0.426829,-1.89024,-9.69743,0.00479004,1.8777,-0.0609756,0.884146,7.13415
314.425,71.752,10.481,0,8.95977,2.87163,3.32908,-0.121951,0.487805,-1.85976,-9.68306,0.00718506,1.83219,-0.182927,1.03659,6.7378
314.436,71.749,10.4957,0,9.01246,2.85247,3.33387,0.121951,0.27439,-2.0122,-9.67348,0.0263452,1.83219,-0.152439,1.21951,6.7378
314.446,71.7461,10.5143,0,8.99569,2.86684,3.30034,0.152439,0.640244,-1.79878,-9.69743,0.00479004,1.85614,-0.396341,1.4939,6.79878
314.455,71.7473,10.5213,0,9.01246,2.85007,3.29794,-0.0304878,0.762195,-1.7378,-9.67109,-0.00239502,1.82021,-0.152439,1.85976,6.82927
314.465,71.753,10.5182,0,8.99569,2.84768,3.32908,0.396341,0.701219,-1.40244,-9.63037,-0.00479004,1.7795,-0.335366,2.10366,6.37195
314.475,71.7647,10.5206,0,8.98851,2.81415,3.34345,0.0914634,1.18902,-1.34146,-9.63995,-0.0239502,1.80105,-0.396341,2.5,6.40244
314.486,71.7744,10.5256,0,8.93582,2.81894,3.32429,0.27439,1.09756,-1.25,-9.65193,-0.0239502,1.81542,0,3.04878,5.94512
314.495,71.7803,10.5174,0,8.89031,2.82852,3.33387,0.365854,0.579268,-1.21951,-9.63037,-0.0335303,1.75794,0.426829,3.81098,6.21951
314.506,71.7847,10.4981,0,8.90708,2.8381,3.30992,0.335366,1.03659,-1.25,-9.60163,0.00958008,1.70525,0.426829,3.87195,6.34146
314.516,71.7847,10.4779,0,8.89031,2.85007,3.34105,0.548781,0.945122,-1.34146,-9.70222,-0.00958008,1.71483,0.365854,3.9939,6.34146
314.526,71.791,10.4637,0,8.8472,2.81894,3.42488,0.945122,0.914634,-1.12805,-9.72378,-0.00479004,1.74118,0.823171,3.84146,6.34146
314.535,71.791,10.4355,0,8.85918,2.85726,3.50391,1.52439,0.0609756,-1.09756,-9.78126,-0.00479004,1.68849,1.12805,4.02439,6.0061
314.546,71.782,10.4103,0,8.87834,2.91474,3.44643,1.7378,-1.12805,-1.03659,-9.75491,0.0167651,1.69328,1.03659,3.56707,6.34146
314.556,71.7765,10.388,0,8.91187,2.91474,3.37458,2.04268,-1.58537,-0.945122,-9.74054,0.0143701,1.70046,1.21951,3.20122,6.18902
314.566,71.7661,10.3672,0,8.92863,2.95306,3.37698,1.89024,-2.28659,-0.792683,-9.70941,0.0335303,1.70046,1.03659,2.7439,6.37195
314.576,71.7598,10.3387,0,8.91426,2.94348,3.4129,1.67683,-1.67683,-0.487805,-9.7142,0.0263452,1.66933,0.914634,2.56098,6.25
314.586,71.7378,10.323,0,8.90468,3.00814,3.35063,1.25,-1.89024,-0.518293,-9.73336,-0.0239502,1.72202,0.823171,1.95122,6.31098
314.596,71.7198,10.3055,0,8.86397,2.9818,3.39614,0.670732,-1.82927,-0.27439,-9.73815,-0.0694556,1.71723,0.762195,1.70732,6.55488
314.606,71.7179,10.2666,0,8.85439,2.92911,3.40811,0.365854,-1.98171,-0.0609756,-9.75491,-0.0766406,1.66454,1.15854,1.15854,6.82927
314.616,71.7185,10.2115,0,8.86397,2.94108,3.44643,0.0304878,-2.5,0.396341,-9.75491,-0.0886157,1.61424,1.12805,1.12805,7.0122
314.626,71.7291,10.1839,0,8.86397,2.90037,3.42009,0.0304878,-3.29268,0.335366,-9.76928,-0.0622705,1.70046,1.40244,0.518293,7.28659
314.635,71.7406,10.1035,0,8.82086,2.90037,3.35782,-0.457317,-3.17073,0.945122,-9.77168,-0.0790356,1.61664,1.67683,0.121951,6.98171
314.646,71.7477,10.0179,0,8.83044,2.92671,3.27878,-0.914634,-3.62805,1.0061,-9.78605,-0.0790356,1.59748,1.7378,-0.0914634,6.98171
314.656,71.7719,9.99733,0,8.81607,2.85007,3.29555,-0.731707,-4.26829,1.4939,-9.75491,-0.0502954,1.68849,1.95122,0.0914634,6.92073
314.665,71.7989,9.94993,0,8.90947,2.88121,3.28118,-0.396341,-4.57317,1.98171,-9.74054,-0.0407153,1.63819,1.89024,-0.0914634,6.61585
314.675,71.8268,9.91271,0,8.99809,2.9339,3.40332,-0.335366,-5.7622,2.53049,-9.7118,-0.0215552,1.64298,2.07317,-0.0914634,6.52439
314.686,71.8584,9.85365,0,9.01006,2.94108,3.34345,-0.243902,-6.0061,3.01829,-9.73575,-0.00239502,1.60227,2.2561,0.121951,6.21951
314.695,71.8953,9.76515,0,9.0412,2.93629,3.3171,-0.426829,-6.03659,3.44512,-9.74054,0.00958008,1.55437,2.07317,0,6.46341
314.706,71.9372,9.77293,0,9.03401,2.88839,3.29794,-0.304878,-5.39634,3.47561,-9.79323,-0.0215552,1.70046,1.7378,-0.304878,6.67683
314.715,71.9888,9.78659,0,9.07952,2.8381,3.2237,-0.182927,-4.69512,3.78049,-9.81479,-0.0455054,1.72441,1.58537,-0.792683,7.0122
314.726,72.0381,9.8101,0,9.10347,2.81175,3.28836,-0.792683,-4.08537,3.20122,-9.8603,-0.0934058,1.76992,1.4939,-1.15854,7.37805
314.735,72.0819,9.83365,0,9.06994,2.81654,3.26441,-0.640244,-4.35976,2.89634,-9.86988,-0.110171,1.7795,1.70732,-1.31098,7.65244
314.746,72.1231,9.83927,0,9.05317,2.81175,3.24765,-0.335366,-4.29878,2.71341,-9.80521,-0.124541,1.71723,1.58537,-1.70732,8.14024
314.756,72.1618,9.86321,0,9.06754,2.79499,3.19975,-0.884146,-3.59756,2.13415,-9.79803,-0.0814307,1.78668,1.82927,-2.16463,8.32317
314.765,72.1956,9.89021,0,9.00048,2.79499,3.21651,-0.518293,-4.08537,1.98171,-9.78605,-0.0239502,1.80345,1.82927,-2.40854,8.38415
314.776,72.2349,9.9103,0,8.98611,2.74709,3.27878,-0.457317,-3.75,1.98171,-9.77407,0.0287402,1.78429,1.67683,-3.10976,7.9878
314.785,72.2724,9.93146,0,9.02204,2.76146,3.32908,-0.609756,-4.2378,1.95122,-9.76928,0.0431104,1.79387,1.21951,-3.75,7.68293
314.795,72.3137,9.93761,0,9.02443,2.71835,3.34345,-0.518293,-6.03659,1.61585,-9.8124,0.0215552,1.74118,1.21951,-4.05488,7.56098
314.806,72.411,9.93484,0,9.26154,2.41657,3.29555,-0.0609756,-5.94512,-0.731707,-9.82437,-0.0455054,1.70525,0.853659,-4.48171,7.56098
314.815,72.4115,9.94369,0,8.9933,2.84049,3.21891,0.579268,-7.07317,-0.243902,-9.8124,-0.0910107,1.75315,0.731707,-5.33537,7.10366
314.825,72.3758,9.94353,0,8.97893,3.00814,3.06323,0.609756,-7.62195,0.426829,-9.80042,-0.129331,1.71244,0.518293,-5.7622,7.46951
314.835,72.3894,9.95305,0,9.06275,2.84049,3.01054,-0.701219,-5.91463,0.457317,-9.76449,-0.134121,1.74836,0.914634,-6.40244,7.80488
314.846,72.4132,9.97251,0,9.11065,2.81175,2.98419,-0.640244,-5.27439,0.792683,-9.72857,-0.184417,1.78668,1.31098,-7.53049,7.95732
314.856,72.4621,9.99825,0,9.21364,2.69679,3.02012,-0.243902,-4.11585,1.25,-9.74294,-0.174836,1.82021,1.85976,-8.07927,8.2622
314.865,72.5323,10.0281,0,9.20646,2.62015,3.07042,-0.762195,-3.47561,0.457317,-9.75252,-0.105381,1.84417,2.2561,-8.62805,8.62805
314.875,72.618,10.0482,0,9.27112,2.60339,3.02012,-1.09756,-1.52439,-0.0609756,-9.79084,-0.0862207,1.81303,2.13415,-9.35976,8.29268
314.885,72.7074,10.0567,0,9.25196,2.51717,3.08239,-0.884146,-1.64634,-0.304878,-9.85072,-0.00958008,1.77471,2.2561,-10,7.80488
314.896,72.7521,10.0793,0,9.14658,2.47885,3.18538,-0.487805,-2.83537,-1.46341,-9.86748,0.00479004,1.84177,1.95122,-11.189,8.17073
314.906,72.7812,10.1126,0,9.16334,2.49561,3.09197,-0.27439,-2.43902,-2.04268,-9.85072,0.0502954,1.88967,1.55488,-12.439,8.04878
314.915,72.7892,10.1526,0,9.14897,2.57465,3.10634,-0.701219,-2.71341,-2.62195,-9.81958,0.0455054,1.91841,0.914634,-13.3232,8.2622
314.926,72.7878,10.2065,0,9.11305,2.61536,3.14227,-0.731707,-3.35366,-2.83537,-9.7142,0.0263452,1.96631,0.457317,-14.4512,8.44512
314.935,72.777,10.2461,0,9.10107,2.65847,3.09676,-0.853659,-3.75,-3.14024,-9.72617,0.0862207,1.91362,0.304878,-15.4878,8.14024
314.945,72.765,10.2664,0,9.10826,2.66326,3.20214,-0.640244,-4.11585,-3.23171,-9.69025,0.134121,1.8274,-0.182927,-15.9451,8.5061
314.956,72.743,10.2993,0,9.09628,2.77104,3.26202,-0.335366,-4.78659,-2.89634,-9.75731,0.124541,1.89925,-0.396341,-16.6768,8.68902
314.966,72.7049,10.3545,0,9.01725,2.90755,3.26681,-0.518293,-5.4878,-2.46951,-9.83395,0.110171,2.019,-0.792683,-18.1402,8.47561
314.976,72.671,10.4209,0,8.92863,2.86444,3.25483,-0.0609756,-6.82927,-2.28659,-9.91538,0.141306,2.09564,-1.18902,-19.6341,7.9878
314.986,72.6381,10.4773,0,8.86397,2.81175,3.21651,0.152439,-7.83537,-2.7439,-10.0112,0.229922,2.08127,-0.914634,-20.8232,7.62195
314.995,72.6105,10.5638,0,8.79691,2.7399,3.06083,0.335366,-7.86585,-2.95732,-10.016,0.265847,2.22976,-1.28049,-22.3171,7.37805
315.006,72.5895,10.6767,0,8.79691,2.66087,3.07281,0.304878,-7.43902,-3.38415,-10.0639,0.232317,2.37825,-1.76829,-23.6585,7.68293
315.015,72.5733,10.8175,0,8.92624,2.65847,3.03449,-0.182927,-6.70732,-3.44512,-9.98484,0.268242,2.50998,-2.71341,-24.878,7.95732
315.025,72.555,10.9544,0,9.0867,2.72314,3.04646,-0.792683,-5.33537,-3.47561,-10.0256,0.232317,2.52675,-3.10976,-25.9756,8.32317
315.036,72.5328,11.0552,0,9.17053,2.78301,3.03928,-1.61585,-5.09146,-3.47561,-9.9561,0.213157,2.36628,-3.10976,-26.2195,8.59756
315.046,72.5109,11.1296,0,9.21843,2.76385,3.03688,-1.64634,-5.27439,-3.87195,-9.8579,0.241897,2.24174,-3.04878,-24.9695,9.26829
315.056,72.4908,11.2223,0,9.26633,2.76146,2.90037,-1.58537,-5.2439,-3.93293,-9.79323,0.102986,2.32317,-2.89634,-25.2134,9.48171
315.065,72.4718,11.3404,0,9.26633,2.74709,2.86444,-1.31098,-4.57317,-4.02439,-9.86269,0.0407153,2.47166,-2.77439,-27.2866,9.54268
315.076,72.451,11.4346,0,9.24238,2.73272,2.86444,-0.762195,-3.38415,-4.32927,-9.93694,-0.0263452,2.39981,-2.22561,-28.628,9.87805
315.085,72.4356,11.5294,0,9.20646,2.63931,2.85486,0.487805,-2.22561,-4.78659,-9.89622,-0.0407153,2.40939,-2.10366,-29.4207,10.1524
315.096,72.4087,11.6079,0,9.10347,2.66326,2.96503,1.7378,-2.19512,-5.33537,-9.86988,-0.0574805,2.34472,-1.98171,-30,9.87805
315.105,72.3739,11.71,0,9.09149,2.77343,3.07042,2.10366,-2.59146,-4.84756,-9.7621,0.0287402,2.44052,-1.40244,-30.1829,10.0305
315.116,72.3364,11.8511,0,9.14418,2.81894,2.94348,2.37805,-3.62805,-4.84756,-9.76928,0.0958008,2.63931,-1.55488,-31.2195,10.0305
315.126,72.2958,11.9833,0,9.1849,2.86684,2.92671,2.65244,-3.04878,-4.81707,-9.79323,0.167651,2.62973,-1.43293,-32.1341,9.72561
315.135,72.2552,12.113,0,9.15376,2.88121,2.90276,1.79878,-3.62805,-4.63415,-9.8076,0.251477,2.6465,-1.52439,-31.9512,9.57317
315.146,72.2176,12.2453,0,9.13221,2.85247,2.82852,1.61585,-3.75,-4.66463,-9.79084,0.344883,2.67763,-2.07317,-31.7988,9.02439
315.155,72.1875,12.3931,0,9.137,2.84528,2.76625,1.7378,-2.40854,-4.08537,-9.8124,0.411943,2.78062,-2.5,-31.9207,8.59756
315.166,72.1676,12.5331,0,9.15616,2.8381,2.73511,2.59146,-0.97561,-3.32317,-9.78844,0.335303,2.76385,-2.37805,-32.439,8.14024
315.176,72.1462,12.6589,0,9.22083,2.8836,2.7423,2.95732,-0.0609756,-3.20122,-9.78126,0.222737,2.72074,-1.37195,-33.2012,7.92683
315.185,72.1446,12.7608,0,9.3286,2.79259,2.75188,4.05488,0.97561,-2.80488,-9.7597,0.0718506,2.62734,-0.945122,-33.2622,7.34756
315.195,72.153,12.8967,0,9.40764,2.7423,2.84768,5.03049,1.40244,-2.71341,-9.69743,-0.0407153,2.78541,-0.487805,-33.9634,8.04878
315.206,72.1607,13.0361,0,9.40764,2.72793,2.78062,5.27439,2.07317,-2.89634,-9.64953,-0.165256,2.81175,-0.731707,-34.7561,8.9939
315.216,72.1639,13.1487,0,9.30944,2.70398,2.886,5.2439,2.22561,-3.23171,-9.62798,-0.189207,2.70637,-0.548781,-36.189,10
315.226,72.1575,13.2793,0,9.21125,2.68961,2.84289,4.63415,3.32317,-3.93293,-9.55134,-0.213157,2.78541,-0.548781,-38.2317,10.9146
315.235,72.1403,13.3995,0,9.05796,2.66326,2.85965,5.06098,4.2378,-4.78659,-9.55134,-0.110171,2.75906,-0.701219,-40.4268,11.8598
315.246,72.1002,13.5288,0,8.88073,2.73272,2.87402,4.35976,5.33537,-5.64024,-9.60882,-0.0119751,2.8381,0.0304878,-42.6524,12.378
315.255,72.0448,13.6584,0,8.76817,2.83091,2.95306,4.11585,6.61585,-5.67073,-9.67588,0.0910107,2.88121,0.640244,-44.0854,12.1037
315.266,71.976,13.8075,0,8.6556,2.90516,2.99856,3.35366,6.70732,-5.79268,-9.67827,0.174836,2.99617,1.76829,-45.061,11.8598
315.275,71.9071,13.975,0,8.73703,2.96743,3.08,2.10366,5.2439,-5.51829,-9.66151,0.193997,3.10395,2.04268,-45.8841,11.128
315.286,71.8584,14.1444,0,8.88552,2.85726,3.08958,1.92073,4.32927,-5.51829,-9.50104,0.114961,3.09197,2.89634,-45.5183,10.5183
315.295,71.8137,14.3333,0,8.99569,2.80217,3.10395,1.55488,2.89634,-6.28049,-9.30944,0.0838257,3.14945,2.83537,-45.2744,10.2744
315.305,71.7591,14.5198,0,9.08191,2.82133,3.04646,1.18902,-0.640244,-7.46951,-9.16334,0.0431104,3.12311,3.56707,-44.6646,10.061
315.316,71.6986,14.7178,0,9.10586,2.84768,3.06083,-0.304878,-1.34146,-7.95732,-9.06754,0.0239502,3.1758,3.84146,-44.1768,10.1829
315.325,71.6275,14.9265,0,9.04838,2.89079,3.07281,-2.13415,-0.457317,-8.44512,-9.0412,-0.0239502,3.25004,4.11585,-43.75,10.2439
315.335,71.5661,15.1484,0,9.01246,2.82133,3.16143,-2.53049,-1.28049,-8.29268,-9.12263,-0.0598755,3.37698,4.26829,-43.8415,10.1829
315.346,71.4997,15.3725,0,9.01485,2.92192,3.19256,-1.55488,-3.2622,-7.7439,-9.17292,0.00239502,3.44643,4.08537,-43.3841,9.90854
315.355,71.4359,15.612,0,9.00048,2.98659,3.08718,-1.31098,-3.68902,-6.79878,-9.10586,0.0790356,3.53265,4.08537,-43.7195,9.7561
315.366,71.3822,15.8777,0,8.93582,3.00814,3.21412,-1.85976,-4.57317,-5.39634,-9.10586,0.134121,3.69791,3.59756,-44.3293,9.42073
315.375,71.341,16.154,0,8.88313,2.96982,3.29076,-2.56098,-6.61585,-4.48171,-9.05796,0.258662,3.77695,3.01829,-44.6037,9.17683
315.386,71.3172,16.4337,0,8.9933,2.82373,3.16382,-3.10976,-8.9939,-4.96951,-9.00767,0.376018,3.82245,2.68293,-45.061,9.20732
315.396,71.295,16.7161,0,9.03162,2.74709,3.07281,-2.86585,-10,-5.88415,-9.10347,0.359253,3.92783,2.10366,-45.3963,9.32927
315.406,71.2479,17.0039,0,8.93342,2.84049,3.13029,-2.28659,-9.60366,-6.98171,-9.21125,0.407153,4.05477,1.55488,-45.8537,8.62805
315.416,71.187,17.3102,0,8.82804,2.86684,3.14466,-1.98171,-11.4329,-7.77439,-9.19927,0.421523,4.19368,0.914634,-46.5244,8.65854
315.426,71.1236,17.623,0,8.84002,2.87163,3.06083,-1.55488,-12.2256,-8.14024,-9.12742,0.416733,4.25116,0.609756,-47.5,8.84146
315.436,71.0476,17.9624,0,8.81846,2.96982,3.0273,-2.07317,-11.5549,-8.29268,-8.97174,0.426313,4.36612,0.121951,-49.1159,9.02439
315.446,70.9641,18.3117,0,8.81846,3.03209,2.93629,-3.14024,-11.0366,-8.47561,-8.87355,0.419128,4.43079,-0.121951,-50.5488,9.39024
315.456,70.8992,18.6726,0,8.98851,3.01772,2.90037,-3.56707,-11.2805,-7.59146,-8.72745,0.383203,4.47869,-0.579268,-52.1951,9.90854
315.465,70.8528,19.0406,0,9.19687,2.96743,2.93629,-3.71951,-14.4207,-7.22561,-8.69871,0.340093,4.5673,-0.823171,-53.3232,9.93902
315.475,70.8132,19.4219,0,9.42919,2.98898,2.82373,-2.9878,-15.7622,-7.22561,-8.6053,0.320933,4.65352,-1.12805,-53.9634,9.78659
315.486,70.7644,19.7947,0,9.45075,3.08958,2.67524,-3.14024,-15.5488,-7.19512,-8.55501,0.368833,4.65831,-1.09756,-54.1768,9.32927
315.496,70.6985,20.1567,0,9.27352,3.16143,2.52675,-4.14634,-13.628,-7.56098,-8.52866,0.392783,4.6631,-1.03659,-53.9329,8.78049
315.506,70.642,20.5507,0,9.05557,3.00335,2.65847,-4.93902,-12.0427,-7.71341,-8.39215,0.380808,4.81399,-0.670732,-53.75,9.02439
315.516,70.5967,20.9554,0,8.9933,2.9339,2.75427,-4.05488,-11.4939,-7.2561,-8.35383,0.313748,4.92177,-0.457317,-53.9024,8.90244
315.525,70.5641,21.3664,0,8.9933,2.87163,2.84768,-2.86585,-12.1646,-6.79878,-8.37299,0.217947,5.04391,0.243902,-54.1159,8.17073
315.536,70.5443,21.7801,0,9.15616,2.81894,2.75906,-0.365854,-13.872,-6.76829,-8.40412,0.174836,5.15887,0.579268,-54.6951,7.31707
315.546,70.5253,22.1689,0,9.41003,2.77583,2.58423,0.640244,-13.9024,-8.10976,-8.42089,0.186812,5.12534,0.762195,-54.5732,7.43902
315.555,70.4973,22.5786,0,9.58008,2.80457,2.48603,1.21951,-13.1707,-9.29878,-8.20294,0.261057,5.17564,1.09756,-53.9939,7.71341
315.566,70.4536,23.0008,0,9.59445,2.82612,2.43334,0.884146,-12.8354,-10.7622,-8.13349,0.294587,5.27623,1.34146,-54.2378,8.38415
315.576,70.3931,23.4745,0,9.41003,2.82852,2.4046,1.18902,-11.9207,-11.9207,-7.96823,0.318538,5.51573,2.07317,-54.6037,8.71951
315.585,70.3188,23.9437,0,9.22322,2.8836,2.37586,2.22561,-11.372,-12.1646,-7.85327,0.337698,5.50854,2.16463,-55.5183,9.32927
315.595,70.2419,24.4088,0,9.25675,2.91234,2.39981,2.92683,-11.0061,-12.378,-7.80058,0.385598,5.54687,2.16463,-55.2744,9.39024
315.605,70.1732,24.8906,0,9.28789,2.86444,2.54112,3.62805,-9.87805,-12.3476,-7.70957,0.423918,5.66422,1.89024,-54.939,9.93902
315.616,70.0858,25.372,0,9.06994,2.93629,2.63452,3.78049,-10.4573,-12.7744,-7.67125,0.455054,5.73368,1.76829,-54.5732,10.122
315.625,69.995,25.8744,0,9.10107,2.96982,2.65129,3.93293,-10.1524,-13.0183,-7.48683,0.498164,5.80553,1.18902,-54.3293,10.3049
315.636,69.9008,26.3624,0,9.14179,3.0297,2.7423,4.29878,-11.1585,-13.0183,-7.4557,0.390388,5.81032,1.43293,-53.8415,10.1829
315.646,69.8115,26.848,0,9.11544,2.95545,2.55549,4.17683,-11.5549,-13.4756,-7.40061,0.330513,5.85822,0.945122,-52.9878,9.7561
315.655,69.6994,27.366,0,9.12981,3.11592,2.58662,4.26829,-12.7744,-14.1768,-7.33355,0.294587,6.08095,1.12805,-52.8354,9.29878
315.666,69.5759,27.8754,0,9.20646,3.23088,2.43334,4.02439,-11.4024,-14.5732,-7.30002,0.328118,6.11928,1.43293,-52.5,8.68902
315.675,69.4437,28.3837,0,9.05557,3.24765,2.43813,4.2378,-11.7378,-14.9085,-7.24972,0.270637,6.18155,2.22561,-52.2561,7.77439
315.686,69.2994,28.9209,0,8.95977,3.36979,2.52675,4.29878,-11.4939,-14.6037,-7.18506,0.256267,6.39949,2.83537,-52.3171,7.46951
315.695,69.1462,29.4624,0,8.90708,3.45841,2.46208,3.59756,-11.4024,-14.5732,-7.1156,0.275427,6.48332,3.04878,-51.7378,6.79878
315.706,69.0059,30.0382,0,8.92384,3.37458,2.48843,2.22561,-12.7744,-14.6037,-6.98627,0.344883,6.68689,3.23171,-52.1951,7.22561
315.716,68.8819,30.6032,0,8.96935,3.25004,2.3543,1.70732,-13.8415,-14.8476,-6.90005,0.296982,6.67492,3.65854,-51.6159,8.04878
315.726,68.7665,31.1832,0,9.08431,3.19735,2.33754,1.28049,-13.872,-15.3049,-6.81862,0.253872,6.81862,3.68902,-50.5183,7.9878
315.735,68.647,31.7778,0,9.32381,3.27399,2.28724,0.518293,-12.1341,-16.0366,-6.65097,0.296982,6.8761,3.20122,-49.1463,8.04878
315.746,68.5127,32.3823,0,9.30705,3.43446,2.39981,0.182927,-12.7134,-15.9451,-6.50727,0.332908,6.93119,2.89634,-47.7744,8.14024
315.756,68.372,33.0178,0,9.34537,3.61408,2.19144,-0.945122,-10.6402,-15.061,-6.3492,0.385598,7.10123,3.23171,-46.5549,7.31707
315.766,68.2111,33.652,0,9.02683,3.7506,2.09564,-0.884146,-10.7317,-14.5122,-6.15999,0.495769,7.03896,2.68293,-44.8476,6.98171
315.776,68.034,34.3031,0,8.70111,3.80569,2.04295,-1.89024,-10.0915,-14.3293,-6.04263,0.593965,7.17069,2.28659,-43.4451,6.52439
315.786,67.878,34.9652,0,8.66039,3.68114,2.04295,-1.70732,-9.26829,-13.75,-5.9133,0.613125,7.25451,1.67683,-42.0122,6.25
315.796,67.7402,35.6187,0,8.68674,3.58774,2.16749,-0.396341,-11.0366,-13.4146,-5.8654,0.589175,7.31199,0.701219,-40.9756,6.09756
315.805,67.6232,36.2801,0,8.90229,3.53744,2.17228,0.365854,-13.2927,-13.1402,-5.85343,0.467029,7.52515,0.0609756,-40.1524,5.91463
315.816,67.5063,36.9032,0,9.10586,3.67396,2.27766,0.0914634,-13.811,-12.7439,-5.88935,0.352068,7.48923,-0.670732,-39.1463,5.33537
315.825,67.3803,37.4971,0,9.26633,3.95897,2.17707,-0.548781,-12.8354,-11.5549,-5.80792,0.258662,7.3575,-0.457317,-38.1707,5.2439
315.836,67.2466,38.0968,0,9.14179,4.06435,2.04774,-1.12805,-12.0427,-10.8841,-5.70015,0.217947,7.41738,0.0914634,-36.7378,5.33537
315.846,67.114,38.7025,0,9.00048,3.99729,1.87291,-2.83537,-10.2439,-11.0976,-5.59477,0.193997,7.48204,0.97561,-36.311,5.4878
315.855,66.9824,39.322,0,8.7514,3.85838,2.09325,-2.34756,-9.45122,-11.5854,-5.49178,0.150886,7.60658,1.43293,-35.5793,6.25
315.866,66.8662,39.9521,0,8.49274,3.59971,2.19863,-2.83537,-11.4939,-11.9512,-5.36245,0.213157,7.67604,1.85976,-34.7866,7.07317
315.875,66.7878,40.6016,0,8.81846,3.47517,2.10043,-2.2561,-9.26829,-11.311,-5.21635,0.213157,7.7886,1.70732,-33.4451,7.83537
315.885,66.6949,41.2519,0,8.943,3.71228,2.00224,-1.76829,-11.5549,-10.8537,-5.10139,0.268242,7.81495,1.12805,-31.8902,8.65854
315.896,66.5717,41.8919,0,8.92145,4.0859,1.90165,-1.92073,-10.7012,-9.90854,-4.99841,0.371228,7.77663,0.27439,-29.2378,8.75
315.906,66.4537,42.5194,0,8.77296,4.11225,1.67172,-3.62805,-7.53049,-8.59756,-4.9553,0.452659,7.81016,-0.457317,-26.4329,8.78049
315.916,66.3564,43.1207,0,8.90229,4.04519,1.65496,-3.5061,-6.15854,-8.10976,-4.91698,0.423918,7.7431,-1.31098,-24.2683,8.07927
315.926,66.2341,43.6795,0,8.50232,4.18649,1.80824,-3.20122,-7.34756,-7.22561,-4.99601,0.354463,7.72873,-1.31098,-22.5915,6.76829
315.936,66.1335,44.2017,0,8.62926,4.11704,1.72202,-2.31707,-4.48171,-6.70732,-5.05589,0.294587,7.71436,-0.579268,-21.4939,5.94512
315.945,66.0562,44.6812,0,8.63884,4.00687,1.90644,-1.37195,-5.18293,-5.79268,-5.19001,0.232317,7.75507,0.304878,-20.5793,5.06098
315.956,65.9865,45.1331,0,8.73943,4.00447,1.99266,-1.55488,-6.15854,-5.73171,-5.27862,0.196392,7.82453,0.335366,-19.939,3.84146
315.965,65.9313,45.5665,0,8.90947,3.94939,2.03098,-1.92073,-5.91463,-5.85366,-5.32652,0.131726,7.89159,0.304878,-19.3293,3.78049
315.976,65.8861,46.0106,0,8.92624,3.93262,1.98547,-2.89634,-5.82317,-5.21341,-5.27144,0.182021,8.02092,-0.182927,-18.9024,4.08537
315.985,65.837,46.4399,0,8.95977,3.99489,2.01182,-3.65854,-5.39634,-5.18293,-5.20917,0.265847,7.94907,-0.27439,-18.0488,4.63415
315.995,65.7735,46.8437,0,8.87355,4.10746,1.90404,-4.81707,-4.08537,-5.09146,-5.15408,0.313748,7.80297,-0.731707,-16.8598,5.36585
316.006,65.7167,47.2201,0,8.7514,3.95418,2.04535,-5.30488,-4.72561,-5.60976,-5.17324,0.313748,7.74789,-0.304878,-15.7622,6.25
316.016,65.6715,47.5606,0,8.7538,3.77934,1.99026,-5.33537,-4.45122,-6.52439,-5.28102,0.265847,7.75507,0.426829,-14.8171,6.0061
316.025,65.6231,47.8689,0,8.76577,3.81527,2.07169,-5.97561,-5.91463,-6.58537,-5.40316,0.277822,7.79579,1.61585,-14.2073,5.42683
316.036,65.5739,48.1747,0,8.7059,3.9422,2.05014,-6.03659,-7.04268,-5.06098,-5.44148,0.361648,7.92512,2.2561,-13.0488,4.96951
316.046,65.5376,48.4761,0,8.82804,4.06674,1.91602,-7.13415,-7.40854,-3.01829,-5.46543,0.467029,8.02092,2.56098,-11.7073,4.48171
316.056,65.4901,48.7759,0,8.87115,4.10985,1.76752,-9.72561,-7.56098,-4.02439,-5.44867,0.627495,8.07601,2.28659,-10.3963,4.2378
316.066,65.454,49.0749,0,8.87115,4.00926,1.92081,-10.6098,-9.17683,-4.08537,-5.44148,0.699346,8.15265,1.37195,-9.66463,3.32317
316.075,65.4173,49.3741,0,8.62446,3.92304,2.03816,-11.9817,-9.90854,-3.93293,-5.42472,0.764011,8.2221,0.213415,-9.02439,3.32317
316.085,65.3989,49.6621,0,8.8017,3.80808,1.93757,-12.1646,-10.6098,-4.35976,-5.37203,0.766406,8.14786,-0.396341,-8.2622,2.56098
316.096,65.382,49.9245,0,8.83762,3.70989,2.10043,-12.1951,-14.8171,-5.4878,-5.37921,0.701741,8.04727,-1.37195,-7.07317,1.76829
316.105,65.3531,50.1661,0,8.86636,3.8009,2.09085,-13.1098,-16.8293,-5.85366,-5.34568,0.608335,7.91075,-1.34146,-5.79268,1.18902
316.116,65.3216,50.3899,0,9.06994,3.92544,1.86093,-14.1463,-16.0976,-5.7622,-5.40795,0.524509,7.91314,-1.4939,-4.54268,0.823171
316.126,65.2846,50.6041,0,8.91187,3.9422,1.96152,-16.0671,-16.5244,-5.45732,-5.42232,0.507744,7.89877,-1.28049,-3.93293,0.304878
316.135,65.2501,50.8102,0,9.01485,3.95418,1.9256,-17.3476,-13.9939,-5.64024,-5.4343,0.490979,7.81016,-1.03659,-2.95732,-0.0609756
316.145,65.2155,51.0017,0,8.93103,3.93262,1.99266,-18.0488,-15.122,-5.54878,-5.48938,0.488584,7.85087,-0.670732,-2.86585,0
316.155,65.1869,51.16,0,8.95977,3.91346,1.97589,-19.5122,-14.2073,-5.36585,-5.52771,0.474214,7.77423,-0.396341,-3.14024,0.487805
316.166,65.1627,51.2929,0,8.84002,3.82964,2.20821,-21.5244,-18.0793,-5.33537,-5.54208,0.548459,7.70717,-0.121951,-3.65854,0.853659
316.176,65.119,51.4085,0,8.6101,3.87035,2.28245,-21.8293,-21.3415,-5.7622,-5.53968,0.534089,7.66406,0.335366,-5.15244,0.823171
316.186,65.0889,51.5403,0,9.04838,3.8967,1.89686,-23.4146,-17.439,-6.31098,-5.47501,0.483794,7.72873,0.945122,-6.06707,0.609756
316.195,65.0142,51.6816,0,8.42568,4.05477,2.18426,-25.7927,-26.7378,-6.0061,-5.41514,0.344883,7.75268,1.40244,-7.34756,0.609756
316.206,64.9366,51.8108,0,8.52866,4.09548,1.86093,-26.4329,-28.75,-6.55488,-5.41993,0.296982,7.71196,2.07317,-8.01829,0.792683
316.216,64.8785,51.9272,0,8.82086,4.06195,1.85614,-26.4634,-30.0915,-6.61585,-5.53729,0.275427,7.82213,2.34756,-8.62805,1.67683
316.226,64.8371,52.0081,0,8.95019,4.00447,1.61664,-26.0366,-31.189,-6.31098,-5.76721,0.282612,7.91554,1.64634,-9.39024,2.77439
316.235,64.7969,52.0529,0,8.82086,3.8488,1.5879,-24.1159,-33.872,-7.34756,-6.04982,0.308958,8.05445,0.457317,-10.2744,3.84146
316.246,64.7774,52.0734,0,9.2328,3.78892,1.18074,-22.622,-29.5732,-7.89634,-6.25579,0.337698,8.15504,-0.213415,-12.5305,4.93902
316.255,64.7821,52.0812,0,9.37411,3.5566,1.2023,-19.2073,-32.6524,-8.59756,-6.27256,0.328118,8.08559,-0.243902,-14.9695,5.51829
316.266,64.7964,52.0862,0,9.72617,3.63085,0.859812,-15.9756,-26.2805,-8.23171,-6.251,0.282612,8.03529,-0.27439,-17.6524,5.39634
316.275,64.8044,52.0997,0,9.50823,3.64043,0.811912,-13.0488,-25.6402,-7.86585,-6.16239,0.289797,7.9826,0.121951,-19.2378,4.57317
316.286,64.8047,52.1355,0,9.50583,3.81287,0.637075,-11.0061,-18.9939,-6.79878,-5.98755,0.320933,7.91793,-0.0304878,-20.1829,3.07927
316.296,64.8195,52.2099,0,9.4244,3.68833,0.512534,-8.35366,-12.8963,-6.31098,-5.79355,0.402363,7.94907,-0.487805,-20.3354,1.64634
316.306,64.8426,52.2932,0,9.46272,3.62127,0.641865,-4.54268,-7.77439,-6.31098,-5.65943,0.416733,7.85087,-1.37195,-20.4573,0.762195
316.316,64.8614,52.3811,0,9.40045,3.62845,0.603545,-0.762195,-3.44512,-6.37195,-5.56603,0.404758,7.77902,-1.09756,-19.3902,0.0914634
316.325,64.8763,52.4668,0,9.33579,3.63085,0.699346,2.62195,0.579268,-6.43293,-5.59237,0.340093,7.82692,-0.97561,-18.5976,-0.0304878
316.335,64.8875,52.5405,0,9.22083,3.63803,0.958008,4.42073,4.35976,-6.21951,-5.66901,0.191602,7.87003,-0.27439,-18.9634,-0.396341
316.346,64.8818,52.5898,0,9.0867,3.65959,1.12566,5.7622,5.60976,-7.07317,-5.68338,0.184417,7.73591,0.426829,-18.1707,-1.06707
316.355,64.8611,52.6467,0,9.06515,3.69312,1.27415,5.94512,6.61585,-8.14024,-5.69057,0.0862207,7.81255,1.37195,-19.0549,-1.40244
316.366,64.8273,52.6912,0,9.06515,3.78174,1.26936,5.79268,8.14024,-8.53659,-5.77439,0.0598755,7.85087,2.28659,-21.1585,-2.04268
316.376,64.7705,52.7397,0,8.91666,3.87754,1.62143,4.72561,7.9878,-9.20732,-5.70733,0.0814307,7.80058,3.32317,-21.7073,-2.5
316.386,64.7209,52.7998,0,8.76098,3.74102,1.90165,3.75,4.54268,-9.35976,-5.64506,0.0814307,7.81255,3.68902,-22.1037,-2.34756
316.396,64.6428,52.8806,0,8.49992,4.04519,2.22258,2.37805,-4.29878,-7.62195,-5.57561,0.0670605,7.88201,4.35976,-23.0488,-2.07317
316.405,64.5827,52.9587,0,8.71787,3.91107,1.78189,-0.792683,-3.35366,-8.56707,-5.56124,-0.0119751,7.86524,5.54878,-23.4756,-1.55488
316.416,64.512,53.046,0,8.76817,3.93023,1.57113,-1.76829,-5.88415,-9.81707,-5.58758,-0.0981958,7.99218,7.04268,-24.5122,-1.12805
316.426,64.3695,53.1428,0,8.86397,4.48348,1.52323,-3.01829,-5.45732,-11.7988,-5.63548,-0.134121,8.15744,8.38415,-26.0366,-0.640244
316.435,64.2662,53.2523,0,9.06754,4.20805,1.68609,-7.80488,-6.28049,-12.0427,-5.65225,-0.172441,8.30832,9.5122,-27.2561,0.0914634
316.445,64.1591,53.3821,0,9.137,4.35894,1.5879,-9.57317,-10.2134,-11.4024,-5.65704,-0.0886157,8.5119,10.3354,-28.3537,0.426829
316.456,64.1088,53.5391,0,9.18729,3.92065,1.59269,-11.7988,-10.8537,-10.7012,-5.55405,0.0574805,8.61968,10.0915,-28.7805,1.67683
316.466,64.0642,53.7329,0,9.2328,3.9901,1.55437,-12.2256,-11.4939,-9.69512,-5.32413,0.323328,8.61728,9.11585,-28.6585,2.83537
316.475,63.9835,53.9602,0,9.05317,4.35894,1.28613,-12.3171,-11.372,-8.68902,-5.06547,0.490979,8.54303,8.59756,-27.6524,4.08537
316.486,63.9456,54.2083,0,9.15376,4.03321,1.1544,-12.8659,-11.6463,-8.44512,-4.93614,0.538879,8.58136,7.83537,-27.1646,5
316.496,63.9329,54.4693,0,9.01485,3.74102,1.26936,-12.1037,-9.78659,-8.47561,-4.92177,0.373623,8.75859,6.7378,-26.9512,5.06098
316.506,63.9064,54.697,0,9.38608,3.86317,0.847837,-10.2744,-1.34146,-10.2439,-4.98643,0.215552,8.66758,6.03659,-26.1585,3.44512
316.516,63.8944,54.9302,0,9.18969,3.56379,1.32684,-8.38415,-10.8232,-11.2195,-4.96727,0.129331,8.76577,5.97561,-25.2439,1.34146
316.525,63.8778,55.1738,0,9.77886,3.67875,0.63947,-5.91463,-4.05488,-12.8963,-4.92177,0.177231,8.86636,6.4939,-23.5366,0.243902
316.536,63.8971,55.4681,0,10.0806,3.43925,0.490979,-1.79878,-6.21951,-12.8963,-4.79722,0.244292,9.21125,5.82317,-23.2927,-1.0061
316.546,63.8078,55.7758,0,9.44356,4.19128,0.819097,0.97561,0.823171,-13.5366,-4.69903,0.285007,9.27352,5.2439,-22.5915,-1.06707
316.556,63.7211,56.1095,0,9.55613,4.19847,0.838257,4.32927,9.11585,-13.9024,-4.43797,0.373623,9.13939,4.45122,-20.6402,-0.426829
316.565,63.6143,56.4741,0,9.25915,4.33259,1.19751,8.90244,2.04268,-13.3537,-4.16973,0.56762,9.03401,3.81098,-18.9329,1.06707
316.576,63.5111,56.8771,0,9.41243,4.47629,0.831072,12.561,11.0976,-12.4695,-3.85598,0.455054,8.89271,3.20122,-18.5366,2.13415
316.586,63.3701,57.2734,0,8.67237,4.45234,1.25739,14.2073,4.7561,-12.9878,-3.72186,0.306563,8.68434,3.23171,-16.8293,2.37805
316.596,63.2574,57.6585,0,8.92145,4.24876,1.31966,16.0061,9.5122,-13.872,-3.67396,0.0718506,8.62207,3.93293,-15.7622,0.945122
316.606,63.1035,58.013,0,8.69392,4.39486,1.73639,18.5366,4.05488,-15.5488,-3.62127,-0.0862207,8.34664,5.09146,-12.9268,-1.43293
316.616,62.817,58.2581,0,7.95146,5.28102,1.24062,9.81707,-5.06098,-15.5793,-4.02363,-0.265847,8.30593,6.43293,-10,-3.96341
316.626,62.6073,58.6326,0,8.72745,5.11576,1.60706,1.76829,-5.64024,-14.878,-3.49673,-0.203577,8.5095,7.62195,-10.3354,-3.71951
316.636,62.4091,58.9739,0,8.49992,4.99601,1.67891,-5.57927,-5.54878,-13.9939,-3.4632,-0.335303,8.23887,8.96341,-10.4573,-2.89634
316.646,62.2484,59.2942,0,8.45202,4.74453,1.76273,-8.32317,-2.89634,-12.8963,-3.4632,-0.275427,8.16223,10.2744,-10.122,-1.06707
316.656,62.0997,59.6149,0,8.23647,4.59365,1.74118,-10.2439,-3.44512,-12.3171,-3.37698,-0.155676,8.09038,11.5244,-9.17683,1.28049
316.665,61.9829,59.916,0,8.27719,4.34696,1.66693,-12.0427,-2.40854,-12.3171,-3.37219,-0.0838257,8.00895,12.622,-8.44512,3.20122
316.676,61.834,60.189,0,7.96104,4.51222,1.58311,-12.1951,-4.39024,-12.0732,-3.4153,0.0694556,7.95146,13.4756,-8.04878,4.90854
316.686,61.707,60.4348,0,8.0329,4.48108,1.43222,-12.8354,-4.20732,-10.9451,-3.47996,0.227527,7.94188,14.0854,-7.53049,5.39634
316.695,61.594,60.6477,0,8.0329,4.58407,1.48012,-12.622,-5.64024,-8.62805,-3.52307,0.421523,7.82453,14.2378,-7.95732,5.82317
316.706,61.5313,60.8201,0,8.0784,4.40444,1.29331,-12.8963,-4.02439,-6.0061,-3.56618,0.584385,7.63053,14.0549,-8.01829,5.2439
316.716,61.4994,61.0154,0,7.98499,4.3278,1.2502,-12.7134,-3.9939,-3.29268,-3.49912,0.589175,7.75028,13.0793,-8.35366,5.09146
316.726,61.5064,61.2077,0,7.98499,4.26313,1.11847,-12.9573,-3.62805,-1.15854,-3.53744,0.58199,7.87961,11.2195,-9.2378,4.14634
316.735,61.5544,61.3884,0,8.28198,4.35175,1.02267,-13.0488,-2.16463,-0.27439,-3.55421,0.55325,7.87961,9.2378,-9.84756,3.07927
316.745,61.7298,61.5628,0,8.55022,4.15296,1.13284,-14.2378,3.81098,-0.0304878,-3.55181,0.589175,7.88201,6.09756,-9.69512,2.80488
316.756,61.9128,61.7611,0,8.58375,4.038,1.03225,-16.1585,5.82317,0.304878,-3.53026,0.517324,8.1263,3.59756,-10.2134,3.32317
316.766,62.1388,61.9476,0,8.77296,3.98292,0.866997,-16.372,8.93293,-0.0914634,-3.61169,0.462239,8.2724,1.61585,-11.0366,4.39024
316.776,62.3006,62.0519,0,9.03641,3.80329,0.953218,-15.6402,11.311,-1.0061,-3.98771,0.186812,8.37059,0.731707,-11.1585,5.21341
316.786,62.3763,62.1611,0,9.04359,3.95657,0.790356,-13.2317,11.9817,-2.22561,-4.07632,0.105381,8.64363,0.762195,-11.6768,5.85366
316.795,62.4187,62.2486,0,9.19448,4.14099,0.740061,-11.0671,14.2683,-3.04878,-4.19128,0.148491,8.71308,1.67683,-12.1341,5.57927
316.806,62.4224,62.3282,0,9.12502,4.48827,1.08734,-8.62805,16.9512,-2.71341,-4.25355,0.205972,8.79691,3.01829,-12.7439,4.57317
316.816,62.4101,62.4039,0,9.20166,4.83075,1.20709,-5.42683,15.8841,-0.914634,-4.33499,0.416733,8.95737,3.78049,-13.2927,4.2378
316.825,62.424,62.4864,0,9.41722,4.74693,1.21667,-2.07317,13.872,-0.914634,-4.44276,0.64905,9.27831,4.35976,-14.6341,3.53659
316.836,62.4328,62.5498,0,9.16334,4.43079,1.37953,-1.34146,14.4512,-2.95732,-4.55293,0.845442,9.34058,4.87805,-15.2744,3.62805
316.846,62.4461,62.6002,0,9.22562,4.2775,1.40588,-1.43293,12.0427,-4.2378,-4.68466,0.900527,9.49625,5.73171,-16.1585,3.35366
316.855,62.4275,62.6455,0,9.22562,4.38528,1.78429,-0.823171,12.2256,-6.25,-4.7613,0.900527,9.616,6.09756,-17.0732,3.65854
316.865,62.3346,62.697,0,9.137,5.0008,2.06451,-0.0914634,11.4329,-7.19512,-4.69903,0.984353,9.57289,6.12805,-18.5671,4.26829
316.876,62.2296,62.7583,0,9.18011,5.16127,2.09804,0.121951,8.04878,-7.28659,-4.61999,0.955613,9.53457,4.90854,-19.8171,4.93902
316.886,62.1415,62.8125,0,9.15137,4.99362,2.08367,-2.43902,10.3354,-7.2561,-4.70382,1.02507,9.65193,4.17683,-21.9817,6.67683
316.895,62.0649,62.8615,0,9.03401,4.77567,2.17468,-3.35366,8.65854,-7.80488,-4.63436,1.11129,9.4723,4.02439,-24.3293,8.38415
316.905,61.9779,62.8823,0,8.96456,4.68226,2.22018,-3.04878,5.33537,-9.60366,-4.73256,0.965193,9.39327,3.90244,-25.7317,9.93902
316.916,61.8612,62.9138,0,8.40412,4.56491,2.52435,-3.87195,0.396341,-10.9146,-4.71579,0.900527,9.4747,4.11585,-27.6829,10.7622
316.926,61.7633,62.9697,0,8.80409,4.55533,2.09325,-2.80488,-2.71341,-11.5854,-4.58886,1.02986,9.48428,4.11585,-29.6341,12.1341
316.936,61.6862,63.0615,0,9.02922,4.41163,1.93997,-2.43902,-3.81098,-12.3476,-4.50264,1.05381,9.7142,3.17073,-31.5854,12.9878
316.946,61.6269,63.203,0,9.1825,4.14099,1.81063,-2.31707,-4.35976,-14.2988,-4.33978,1.20948,9.96568,1.28049,-33.5976,13.0183
316.955,61.5984,63.3636,0,9.17053,3.79132,1.55437,-2.13415,-5.45732,-14.9695,-4.15057,1.28613,9.82437,-1.15854,-32.622,12.1951
316.965,61.549,63.5836,0,8.92384,3.79611,1.38911,-0.945122,-5.97561,-15.9756,-3.81766,1.51844,9.82677,-2.86585,-30,11.2195
316.976,61.5237,63.8368,0,9.36213,3.69312,1.27655,1.12805,-3.41463,-16.7073,-3.6069,1.61664,9.82677,-3.56707,-27.2866,10
316.986,61.4544,64.0866,0,9.41003,4.22721,1.00112,2.9878,-3.01829,-15.8232,-3.50631,1.62861,9.64714,-3.62805,-23.7805,9.78659
316.996,61.3709,64.386,0,9.40285,4.45234,0.924478,5.97561,-0.701219,-15.061,-3.27878,1.38193,9.82437,-3.68902,-20.7317,8.9939
317.006,61.3036,64.6861,0,9.23999,4.23918,1.38193,9.26829,-3.35366,-15,-3.26681,1.17595,9.97526,-4.54268,-20,8.38415
317.015,61.2483,64.9908,0,9.35016,4.19368,1.47533,11.7683,-2.89634,-14.9085,-3.20214,1.06099,10.0256,-5.91463,-18.9634,7.89634
317.026,61.2057,65.2699,0,8.99569,4.03561,1.64777,12.439,-5.57927,-13.7195,-3.24046,1.03225,9.94891,-7.46951,-16.1585,8.75
317.035,61.1716,65.5439,0,9.40764,4.05956,1.36037,13.1402,-4.42073,-14.6037,-3.23807,0.965193,10.0375,-7.65244,-13.872,9.20732
317.046,61.0812,65.8683,0,9.28789,4.26313,1.4897,11.4329,-6.09756,-17.7439,-2.94587,0.898132,10.0543,-7.71341,-13.0183,9.72561
317.056,61.002,66.1056,0,9.66869,4.13141,1.4418,11.4634,-3.87195,-19.878,-3.22609,0.823887,9.81958,-6.82927,-9.90854,9.32927
317.066,60.8754,66.3344,0,8.8975,4.1841,1.62143,13.9329,-10.4878,-20.7012,-3.31471,0.728086,10.107,-6.18902,-7.16463,8.75
317.075,60.709,66.567,0,9.0388,4.57928,1.26697,14.939,-7.31707,-21.5854,-3.24765,0.706531,10.0878,-5.79268,-5.18293,8.5061
317.086,60.507,66.8158,0,8.85199,4.88105,1.64059,15.6098,-11.5854,-21.4634,-3.14227,0.711321,10.083,-5.60976,-3.68902,8.93293
317.095,60.2982,67.0654,0,9.04359,5.13013,1.49689,15.9756,-11.0061,-21.1585,-3.10155,0.778381,10.107,-6.34146,-3.53659,10.061
317.106,60.0771,67.2937,0,9.09389,5.27623,1.64298,15.9451,-8.90244,-21.7073,-3.15903,0.749641,10.107,-6.67683,-3.35366,10.9756
317.115,59.8112,67.5601,0,8.78014,5.41035,1.96152,15,-10.7622,-23.628,-2.95785,0.855022,10.186,-7.13415,-3.35366,12.1951
317.126,59.5216,67.7986,0,8.96456,5.60435,1.88488,14.2988,-8.29268,-25.8232,-3.01293,0.792751,10.0543,-7.37805,-3.10976,12.9573
317.135,59.2084,67.9816,0,9.19448,5.63788,1.93757,12.378,-6.7378,-29.8476,-3.27399,0.65384,9.89383,-7.37805,-1.7378,12.8354
317.146,58.8838,68.1554,0,9.43638,5.55166,2.03098,10.6707,-6.61585,-33.7805,-3.53265,0.56283,9.93215,-7.0122,-0.152439,11.6768
317.156,58.5224,68.3355,0,9.35974,5.67141,1.99505,8.5061,-3.01829,-36.6768,-3.51589,0.486189,9.97286,-6.55488,-0.0304878,10.8232
317.165,58.1345,68.4724,0,9.2807,5.79355,2.03816,6.37195,0.213415,-38.5671,-3.44643,0.459844,9.93215,-6.31098,-0.97561,10.4268
317.176,57.7272,68.5994,0,9.24478,5.98036,1.92081,4.87805,6.06707,-39.4512,-3.34824,0.471819,9.86269,-5.51829,-1.95122,11.4024
317.186,57.2727,68.7487,0,8.7538,6.1552,1.88249,3.62805,8.71951,-40.5793,-3.20454,0.481399,9.93694,-5.30488,-2.77439,12.561
317.196,56.8075,68.9105,0,8.43286,6.09293,1.76034,3.62805,9.84756,-41.0976,-3.05365,0.548459,9.79563,-5.36585,-3.62805,14.4817
317.206,56.3464,69.0642,0,8.02811,5.77679,1.59508,4.60366,8.59756,-41.8598,-2.99617,0.574805,9.52978,-5,-3.2622,15.7927
317.215,55.9098,69.2109,0,7.90356,5.44627,1.38911,5.18293,7.34756,-42.6829,-2.98898,0.58678,9.25675,-4.45122,-2.28659,16.3415
317.226,55.4968,69.3607,0,7.77184,5.06547,1.51126,6.89024,6.52439,-44.1768,-3.04646,0.57241,9.0867,-4.11585,-1.28049,16.4024
317.236,55.0843,69.4476,0,7.90596,4.98883,1.59269,9.45122,3.84146,-46.6768,-3.1255,0.488584,9.06036,-3.23171,-1.92073,15.7317
317.246,54.6658,69.5006,0,8.51429,5.31455,1.4442,12.4085,2.16463,-48.7195,-3.15903,0.493374,9.02204,-2.16463,-3.90244,14.6037
317.255,54.2024,69.5611,0,8.7035,5.91091,1.04183,13.3232,4.69512,-49.6341,-3.11353,0.447869,9.03641,-0.884146,-6.25,14.1463
317.265,53.7053,69.6409,0,8.45681,6.31806,0.63468,13.4146,11.372,-48.75,-3.02251,0.428708,9.05078,-1.18902,-8.35366,14.3902
317.276,53.1792,69.7477,0,7.53952,6.2989,0.764011,14.2988,15.4268,-46.372,-2.84528,0.443079,8.91187,-1.98171,-9.2378,15.2744
317.286,52.6738,69.8828,0,6.99346,6.0594,0.823887,16.9207,15.4573,-43.2317,-2.65368,0.459844,8.74182,-2.53049,-8.75,16.25
317.296,52.2205,70.0408,0,6.84257,5.71212,1.03704,18.2927,14.8171,-41.0976,-2.49561,0.512534,8.6053,-2.95732,-8.29268,16.7683
317.306,51.8485,70.1957,0,7.31199,5.44867,1.23344,20.7012,11.4329,-40.1829,-2.46687,0.531694,8.55022,-2.28659,-8.07927,16.7378
317.315,51.4837,70.3363,0,7.7431,5.66183,1.21427,20.5793,10.4878,-41.25,-2.54351,0.536484,8.69871,-1.79878,-8.68902,16.6463
317.326,51.0588,70.4637,0,7.26888,5.94204,1.14482,20.3963,9.93902,-41.8293,-2.56746,0.455054,8.66997,-2.07317,-9.7561,15.7012
317.336,50.591,70.5865,0,6.83299,6.1073,1.30768,19.2683,10.3659,-41.9207,-2.58902,0.390388,8.74901,-3.5061,-9.60366,14.2683
317.346,50.1027,70.7144,0,6.55996,6.31567,1.25499,19.3598,9.32927,-40.6402,-2.5483,0.414338,8.7538,-5.2439,-9.32927,13.3232
317.355,49.6008,70.8665,0,6.36117,6.55038,1.15679,18.5976,7.16463,-39.0854,-2.43813,0.543669,8.79691,-7.46951,-8.5061,13.0793
317.365,49.1278,71.0222,0,6.54559,6.76114,1.21188,16.7988,7.19512,-36.9817,-2.4022,0.598755,8.81367,-8.75,-8.23171,13.2012
317.375,48.694,71.1536,0,6.79228,6.95993,1.3005,15.9451,5.91463,-34.4207,-2.45729,0.62989,8.73943,-8.81098,-7.40854,13.1098
317.386,48.2896,71.2379,0,7.04136,7.12997,1.40827,15.0915,5.70122,-32.9878,-2.57225,0.450264,8.54064,-8.32317,-7.16463,12.1951
317.395,47.8975,71.2857,0,7.01022,7.08447,1.45138,14.0854,7.56098,-32.6829,-2.69919,0.182021,8.5119,-5.54878,-6.76829,10.8841
317.405,47.5052,71.305,0,6.87131,6.92161,1.43222,13.5366,7.59146,-33.689,-2.84049,-0.162861,8.6077,-2.56098,-7.04268,9.11585
317.416,47.0814,71.3074,0,6.55756,6.83299,1.43462,11.7378,4.66463,-35.7317,-2.9339,-0.474214,8.68195,0.182927,-7.16463,7.53049
317.425,46.7507,71.325,0,7.42217,6.45218,0.862207,12.561,14.6646,-37.6524,-2.93629,-0.670605,8.88792,1.34146,-6.89024,6.76829
317.436,46.334,71.3699,0,6.5887,6.69887,1.56634,11.4024,-7.07317,-37.9878,-2.80696,-0.680186,8.85918,2.80488,-7.22561,6.31098
317.446,45.9352,71.4852,0,6.90724,6.91203,1.13524,10.2439,3.04878,-37.9268,-2.52196,-0.426313,8.93582,3.5061,-7.40854,6.89024
317.455,45.5687,71.6432,0,7.12039,6.97669,1.06099,9.66463,4.39024,-36.6768,-2.31359,-0.105381,8.89989,4.60366,-7.37805,8.44512
317.466,45.203,71.8088,0,6.8785,6.8785,1.03225,8.90244,2.92683,-36.1585,-2.23934,0.155676,8.83044,5.91463,-6.52439,9.87805
317.476,44.8357,71.9779,0,6.65576,6.90245,1.27415,8.93293,3.81098,-34.939,-2.23216,0.337698,8.92624,6.92073,-5.09146,10.7622
317.486,44.4704,72.136,0,6.56235,7.01022,1.13524,8.96341,0.640244,-33.75,-2.31838,0.440684,9.12742,7.2561,-3.9939,10.8841
317.496,44.1504,72.2721,0,6.74917,7.03178,1.17116,7.92683,0.884146,-31.3415,-2.41657,0.459844,9.21603,6.70732,-3.5061,10.1524
317.506,43.8581,72.385,0,6.86173,6.99585,0.972378,7.19512,1.58537,-30.4268,-2.53872,0.455054,9.35974,5.60976,-2.9878,8.96341
317.516,43.5606,72.5049,0,6.74198,6.96472,0.756826,5.88415,5.15244,-30.7927,-2.55309,0.505349,9.48188,3.9939,-2.34756,7.83537
317.525,43.2628,72.6058,0,6.55038,6.84736,0.912502,5.79268,5.94512,-30.7317,-2.60099,0.627495,9.43877,2.0122,-2.22561,7.37805
317.535,42.9537,72.72,0,6.46895,6.84257,1.02267,6.92073,3.56707,-31.7988,-2.59381,0.718506,9.54415,0.670732,-1.7378,7.43902
317.546,42.6444,72.8438,0,6.48332,6.95035,0.910107,7.71341,-0.548781,-31.6768,-2.6441,0.804727,9.59924,-0.182927,-0.914634,7.46951
317.556,42.3394,72.9955,0,6.65815,7.08686,1.1544,7.04268,-3.59756,-32.2866,-2.67524,0.811912,9.67348,-1.12805,-0.182927,7.5
317.565,42.0298,73.0734,0,6.86173,7.5036,0.965193,7.83537,-3.56707,-31.7988,-2.75427,0.735271,9.65432,-1.15854,0.609756,7.34756
317.576,41.7053,73.1182,0,6.72761,7.75986,1.00351,7.46951,-4.96951,-30.8537,-2.7399,0.584385,9.62798,-1.55488,2.77439,6.37195
317.586,41.3909,73.1743,0,6.85694,7.90596,0.950823,7.40854,-5.67073,-30.5183,-2.73751,0.455054,9.80042,-1.85976,2.40854,5.82317
317.595,41.0964,73.2045,0,6.94077,7.67364,0.924478,7.28659,-4.5122,-31.5549,-2.88839,0.308958,9.97526,-1.92073,2.04268,4.48171
317.606,40.7996,73.2523,0,6.95753,7.58982,0.955613,6.95122,-3.04878,-33.1707,-2.81175,0.349673,10.0447,-2.28659,2.95732,4.2378
317.616,40.4847,73.3074,0,6.82102,7.62814,0.826282,5.82317,-0.487805,-34.1768,-2.74709,0.349673,10.004,-2.19512,4.32927,3.93293
317.626,40.1511,73.3588,0,6.62941,7.64251,0.965193,6.52439,1.18902,-34.9695,-2.71835,0.462239,9.89143,-2.28659,6.03659,3.29268
317.635,39.7499,73.4144,0,6.09532,7.70957,0.948428,7.53049,-0.640244,-37.2256,-2.6465,0.60115,9.74054,-1.58537,7.68293,3.56707
317.646,39.3914,73.4838,0,6.22466,7.63293,0.902922,7.59146,2.92683,-35.4573,-2.58662,0.661025,9.79803,-0.731707,9.42073,3.84146
317.656,39.0152,73.5339,0,5.99473,7.75986,1.04183,7.68293,0.457317,-34.9085,-2.6441,0.65863,9.73096,-0.487805,10.122,3.93293
317.665,38.6525,73.5659,0,6.05221,7.7886,1.02028,6.79878,-1.40244,-34.6341,-2.72793,0.574805,9.76689,-0.457317,10.6707,3.56707
317.676,38.3026,73.574,0,6.2055,7.87961,1.33163,6.55488,-4.20732,-34.8171,-2.80936,0.474214,9.68785,-0.396341,11.6768,3.32317
317.686,37.954,73.558,0,6.36836,8.06643,1.11368,6.64634,-5.54878,-35.5488,-2.89797,0.392783,9.6184,-0.243902,12.5305,2.56098
317.695,37.6132,73.5272,0,6.46176,8.13349,1.20469,5.97561,-6.06707,-35.8232,-2.92671,0.258662,9.48188,0.152439,13.5061,1.92073
317.706,37.2626,73.4951,0,6.41626,8.08319,1.03465,5.12195,-3.65854,-37.4695,-2.91474,0.205972,9.41003,0.304878,14.5427,0.97561
317.715,36.8963,73.457,0,6.18155,7.95625,1.08494,4.29878,-1.15854,-38.5671,-2.89558,0.210762,9.24478,1.61585,15.3659,0.823171
317.726,36.5204,73.4312,0,5.95162,7.72873,1.10889,3.93293,0.27439,-39.7866,-2.80457,0.323328,9.10826,2.43902,16.4634,1.82927
317.735,36.1451,73.3934,0,5.81032,7.55389,1.16637,3.90244,0.152439,-40.4268,-2.83091,0.349673,9.01246,3.01829,17.1037,2.65244
317.746,35.7477,73.3658,0,5.63309,7.58742,1.17116,5.06098,-2.43902,-41.4634,-2.7902,0.457449,9.00527,3.41463,17.5915,3.38415
317.756,35.3685,73.3459,0,5.51813,7.55868,1.07776,5.60976,-2.53049,-39.4817,-2.75906,0.555645,8.99809,3.23171,18.0793,4.54268
317.765,35.0094,73.3183,0,5.61393,7.67604,1.00351,5.57927,-5.18293,-38.2927,-2.80217,0.725691,9.01964,2.71341,18.7805,5.45732
317.776,34.6561,73.286,0,5.55405,7.72873,0.929268,4.45122,-5,-37.4695,-2.81175,0.886157,8.97174,1.4939,19.5122,6.25
317.786,34.3193,73.2379,0,5.62111,7.79339,0.826282,2.53049,-4.29878,-36.7073,-2.85486,0.900527,8.87834,-0.0914634,20.9146,6.0061
317.796,34.0054,73.1761,0,5.66662,7.69759,0.914897,3.47561,-6.21951,-36.189,-2.89797,0.979563,8.80649,-1.0061,21.8902,5.30488
317.806,33.6946,73.1118,0,5.60674,7.6449,0.881367,4.14634,-6.03659,-36.311,-2.90276,0.914897,8.75859,-1.34146,22.4085,4.2378
317.816,33.3916,73.0362,0,5.54926,7.60179,0.840652,5.73171,-6.15854,-35.8841,-2.92671,0.886157,8.6556,-2.10366,23.1707,3.75
317.826,33.0902,72.9513,0,5.4822,7.71915,0.56762,6.58537,-5.03049,-34.8171,-2.95545,0.787961,8.58854,-2.0122,24.1768,2.77439
317.836,32.7831,72.8546,0,5.41993,7.83411,0.785566,8.53659,-4.42073,-34.5732,-3.03688,0.60115,8.63884,-1.46341,24.3598,2.13415
317.845,32.4781,72.7635,0,5.35766,7.94428,0.61552,9.72561,-3.53659,-33.5976,-3.05604,0.443079,8.71308,-1.76829,24.1463,2.13415
317.856,32.1709,72.6607,0,5.31694,8.19336,0.498164,7.28659,-1.67683,-32.378,-3.10395,0.308958,8.66279,-1.4939,24.2683,2.0122
317.865,31.8873,72.5591,0,5.59477,8.26042,0.579595,6.52439,-2.13415,-32.8963,-3.14945,0.277822,8.75619,-1.7378,24.5122,2.95732
317.876,31.6168,72.458,0,5.68099,8.17899,0.378413,6.09756,0.884146,-33.5061,-3.20454,0.241897,8.86636,-2.37805,24.6037,3.59756
317.885,31.3957,72.3603,0,6.74917,8.5119,0.258662,2.46951,9.39024,-36.4329,-3.16382,0.450264,8.74661,-3.07927,24.8476,5.03049
317.896,31.1965,72.2522,0,7.22577,8.35383,0.462239,3.75,21.4634,-39.6341,-3.19735,0.622705,8.66997,-2.34756,25.6098,8.10976
317.906,30.8524,72.0997,0,5.08942,8.07122,0.811912,7.22561,8.71951,-37.2256,-3.40811,0.565225,8.66518,-1.70732,25.9756,10.7317
317.915,30.4471,71.9142,0,4.45713,8.37059,1.08973,7.13415,-0.97561,-35.6098,-3.56379,0.337698,8.62207,-1.12805,25.6707,11.25
317.926,30.0906,71.7106,0,4.78525,8.49274,0.835862,6.92073,5.54878,-34.2378,-3.66677,0.299377,8.59573,-0.426829,25.2744,10.0915
317.936,29.7107,71.5116,0,4.50264,8.68434,0.845442,5.73171,1.37195,-33.2927,-3.69552,0.265847,8.62446,-0.121951,24.2378,9.08537
317.946,29.3226,71.3275,0,4.46911,8.85199,0.814307,2.80488,0.701219,-33.628,-3.65959,0.383203,8.61249,-0.579268,23.6585,7.89634
317.956,28.9391,71.1407,0,4.35654,8.57417,1.13284,3.59756,1.76829,-34.2683,-3.68114,0.462239,8.5574,-0.97561,22.9573,7.68293
317.966,28.5253,70.9643,0,3.95657,8.53824,0.938848,4.60366,-2.7439,-33.9024,-3.71468,0.464634,8.66518,-1.55488,22.2256,6.92073
317.975,28.122,70.7949,0,4.09788,8.7035,0.56762,3.20122,-5.33537,-34.3902,-3.76258,0.519719,8.77535,-2.43902,21.0976,6.15854
317.985,27.7321,70.6315,0,4.22481,8.73703,0.886157,2.31707,-9.20732,-35.061,-3.753,0.55804,8.74422,-2.92683,20.8841,5.64024
317.996,27.369,70.4661,0,4.38049,8.66039,0.814307,4.57317,-10.7927,-35.2134,-3.79371,0.737666,8.74901,-3.32317,20.6402,6.21951
318.006,27.0127,70.2779,0,4.44755,8.75619,0.811912,3.87195,-11.372,-35.4573,-3.91107,0.802332,8.71069,-3.47561,21.5549,7.77439
318.016,26.6639,70.0492,0,4.4739,8.8975,0.941243,3.01829,-12.3476,-34.939,-4.08351,0.689766,8.6053,-4.02439,22.3171,8.68902
318.026,26.3551,69.8186,0,4.7589,8.95498,0.843047,1.58537,-10.7927,-34.2073,-4.19128,0.524509,8.72266,-3.59756,22.1951,9.08537
318.036,26.0617,69.5542,0,4.98404,8.86636,0.701741,1.15854,-2.7439,-36.0366,-4.22481,0.510139,8.38496,-3.38415,23.4451,9.29878
318.046,25.735,69.3133,0,4.70142,8.84241,0.64905,0.213415,-3.84146,-37.2866,-4.05956,0.455054,8.18139,-2.86585,28.2317,8.56707
318.056,25.3815,69.1631,0,4.50743,8.90947,0.55325,-2.13415,-3.90244,-38.3232,-3.90628,0.58678,8.63884,-3.84146,30.2134,7.86585
318.066,25.0097,69.0135,0,4.21523,8.82804,0.464634,-2.31707,-3.65854,-38.2317,-3.82964,0.66821,8.4161,-3.81098,29.5427,7.10366
318.076,24.6621,68.7958,0,4.17452,8.67716,0.66821,0.121951,-5.7622,-36.8598,-3.77934,0.701741,7.63772,-2.80488,31.5244,6.85976
318.086,24.3818,68.6301,0,4.50743,8.53345,0.58199,2.28659,-7.5,-35.0915,-3.77455,0.682581,8.01374,-2.95732,33.872,6.7378
318.096,24.1324,68.5244,0,4.56012,8.64602,0.59636,4.08537,-8.35366,-32.439,-3.90388,0.589175,8.81846,-3.14024,32.7744,6.92073
318.105,23.8871,68.3213,0,4.41881,8.63884,0.519719,4.14634,-5.88415,-31.0671,-4.08351,0.479004,8.21013,-1.58537,31.9512,7.04268
318.115,23.6503,67.9529,0,4.43318,8.6556,0.706531,5.39634,-4.20732,-30.7622,-4.01884,0.320933,6.74438,-0.0304878,39.0854,6.03659
318.126,23.3795,67.6966,0,4.16733,8.92863,0.6251,5.91463,-3.81098,-30.4268,-3.93981,0.263452,7.32157,-0.335366,47.3171,6.4939
318.135,23.1248,67.5581,0,4.24876,8.93582,0.229922,7.34756,-5.82317,-30.1829,-4.15775,0.201182,8.68674,0.304878,45.2134,7.2561
318.146,22.9008,67.2619,0,4.39247,8.95258,0.0790356,9.48171,-8.20122,-28.9939,-4.38049,-0.0239502,7.67364,3.29268,40.7317,7.28659
318.155,22.7354,66.9398,0,4.8092,9.12981,-0.177231,7.9878,-5.91463,-26.8293,-4.43797,-0.186812,7.48444,5.06098,41.189,7.34756
318.165,22.6358,66.7067,0,5.15887,8.97653,0.124541,9.08537,-1.70732,-24.7561,-4.59844,-0.285007,8.38017,4.32927,39.0549,7.59146
318.176,22.5443,66.4553,0,4.94572,8.88073,0.502954,12.1951,5.12195,-22.561,-4.61999,-0.177231,8.18139,4.02439,38.1707,8.41463
318.186,22.4073,66.1824,0,4.41642,9.14418,0.368833,9.81707,11.2805,-20.5793,-4.55054,0.0383203,7.80537,5.2439,39.0854,10.0915
318.195,22.2555,65.9292,0,4.00447,9.0891,0.440684,7.77439,15.061,-18.2927,-4.41881,0.359253,7.64969,5.27439,39.939,12.0732
318.206,22.0711,65.6963,0,3.40572,8.89989,0.905317,9.05488,15.2744,-16.128,-4.44995,0.543669,7.78381,5.57927,39.878,13.9024
318.216,21.8839,65.4014,0,3.14945,8.71548,0.706531,9.72561,12.8049,-14.6037,-4.62718,0.632285,7.53473,5.82317,39.2988,14.0854
318.226,21.7097,65.1029,0,3.13029,8.57177,0.5772,11.5244,11.2195,-14.0549,-4.74214,0.613125,7.60658,5.97561,39.6037,13.2927
318.236,21.5403,64.804,0,3.06083,8.49034,0.64426,14.1159,4.78659,-13.4451,-4.82357,0.56283,7.6449,5.2439,39.4207,11.8293
318.245,21.4143,64.522,0,3.38656,8.48076,0.555645,15.7927,3.84146,-13.3232,-4.82357,0.560435,7.68322,4.54268,39.7866,10.1524
318.256,21.2719,64.2589,0,3.34584,8.64602,0.414338,14.8171,2.22561,-13.9939,-4.78285,0.56762,7.67604,3.87195,39.2683,9.63415
318.266,21.1347,63.99,0,3.41769,8.8496,0.335303,11.5854,-1.18902,-13.689,-4.79722,0.574805,7.57784,2.83537,39.878,9.78659
318.275,21.0016,63.7295,0,3.42967,8.87594,0.160466,10.5488,-1.25,-13.5671,-4.89302,0.502954,7.71196,2.7439,39.2988,9.78659
318.285,20.8744,63.4454,0,3.43446,8.85439,0.270637,10.8232,-3.32317,-13.3841,-5.02954,0.500559,7.66885,3.32317,37.439,10.0305
318.296,20.721,63.1205,0,3.30034,8.76577,0.107776,10.7317,-1.52439,-15.1524,-5.08463,0.409548,7.37906,3.59756,38.3232,10.3659
318.306,20.5505,62.8029,0,3.19017,8.49034,0.210762,14.6951,-3.5061,-17.1341,-5.28102,0.270637,7.62335,4.20732,38.1098,11.0061
318.315,20.3473,62.466,0,3.10634,8.50232,-0.0886157,17.6524,-5.15244,-19.7561,-5.45346,0.158071,7.64011,5.03049,37.2866,11.1585
318.326,20.1213,62.1273,0,3.12311,8.49992,-0.114961,18.9329,-4.63415,-22.7134,-5.58519,0.110171,7.71436,6.25,36.8598,11.8293
318.336,19.894,61.7957,0,3.35782,8.71069,-0.311353,19.1159,-3.65854,-25.1524,-5.69296,0.158071,7.81734,7.65244,37.0427,12.1951
318.345,19.6335,61.4482,0,3.43446,9.18011,-0.229922,16.25,-3.23171,-27.8354,-5.7696,0.205972,7.71436,9.48171,37.3476,12.6829
318.356,19.3314,61.1108,0,3.31471,9.75012,-0.198787,11.2805,1.70732,-29.0854,-5.82229,0.318538,7.75986,9.57317,38.5976,12.622
318.366,19.0029,60.7482,0,3.2237,10.0471,0.270637,7.95732,2.46951,-30.3659,-5.98755,0.352068,7.70478,10.8232,39.2683,12.5
318.375,18.6654,60.3936,0,3.0776,10.0902,0.431104,7.89634,2.7439,-30.2744,-6.14802,0.467029,7.86524,10.7927,38.9024,11.189
318.386,18.351,60.0076,0,3.25723,9.7621,0.373623,7.22561,4.87805,-31.6463,-6.2989,0.517324,7.73352,10.3963,38.6585,9.48171
318.396,18.0076,59.6046,0,2.99617,9.36932,0.373623,8.23171,3.62805,-33.7805,-6.34441,0.56283,7.56826,9.32927,39.7561,7.89634
318.405,17.6266,59.2119,0,2.71116,9.35255,0.0239502,7.9878,0.701219,-35.122,-6.41147,0.59157,7.61137,8.9939,40.8232,6.18902
318.415,17.2267,58.8227,0,2.38544,9.57289,-0.186812,6.76829,-2.22561,-33.3841,-6.37075,0.768801,7.48204,8.41463,41.0061,5.67073
318.426,16.8672,58.4393,0,2.63213,9.15616,-0.0359253,7.95732,-8.5061,-34.2683,-6.32046,0.876577,7.3599,7.89634,41.2195,5.51829
318.436,16.5089,58.0607,0,2.91953,9.12981,-0.565225,8.9939,-9.81707,-38.3232,-6.27016,0.910107,7.23535,7.40854,42.3476,6.34146
318.446,16.1303,57.6798,0,2.61536,8.98132,-0.337698,11.4329,-14.2683,-38.0793,-6.38273,0.905317,7.25212,7.53049,41.9817,7.10366
318.456,15.7498,57.2676,0,2.65368,9.17053,-0.661025,11.2195,-11.7378,-38.8415,-6.50008,0.809517,7.08926,7.68293,42.6829,6.95122
318.466,15.3849,56.8626,0,2.7399,9.03641,-0.764011,10.4268,-12.439,-39.5122,-6.43542,0.790356,6.96472,7.2561,44.7866,6.67683
318.475,15.0412,56.4866,0,2.81175,8.95737,-0.510139,9.05488,-15.2439,-39.2378,-6.35878,0.819097,6.96232,5.79268,45.4878,6.37195
318.485,14.7441,56.1022,0,3.13508,8.88313,-0.387993,11.0671,-16.0671,-39.2988,-6.39231,0.809517,6.85694,4.54268,46.372,5.4878
318.496,14.4745,55.7353,0,3.30273,8.78733,-0.493374,13.5366,-16.4329,-39.4512,-6.34441,0.850232,6.82102,3.56707,47.8963,4.54268
318.506,14.2094,55.3837,0,3.52786,9.07233,-0.526904,13.5671,-14.7866,-40.8841,-6.32285,0.919688,6.80425,2.53049,49.2073,3.56707
318.516,13.936,55.0203,0,3.45841,9.2807,-0.366438,13.2927,-9.45122,-40.6098,-6.27016,0.931663,6.59828,2.0122,51.0061,3.56707
318.525,13.6294,54.64,0,3.23328,9.7621,-0.179626,11.7683,-0.121951,-40.2439,-6.32046,0.898132,6.47134,1.79878,52.622,3.59756
318.536,13.3038,54.2662,0,2.9794,10.1046,-0.0239502,9.26829,5,-38.9329,-6.38991,0.835862,6.49529,0.945122,54.2988,3.93293
318.546,12.9823,53.881,0,2.68003,10.0591,-0.110171,4.54268,6.46341,-36.0976,-6.55996,0.783171,6.51685,0.335366,54.9695,4.2378
318.556,12.6952,53.46,0,2.57704,9.58726,0.0143701,5.15244,3.14024,-33.5061,-6.72282,0.775986,6.38512,0.0304878,55.3354,4.45122
318.566,12.4205,53.011,0,2.37586,9.331,0.119751,7.04268,-3.78049,-31.2805,-6.73719,0.785566,6.15281,-0.0304878,56.7988,4.81707
318.576,12.1624,52.5819,0,2.35191,9.25196,-0.0718506,7.62195,-8.44512,-30.0915,-6.82581,0.850232,6.24621,-0.27439,58.1707,5.15244
318.586,11.8748,52.1544,0,2.0214,9.22562,-0.239502,6.70732,-13.7805,-29.7561,-6.90724,0.977168,6.23663,-0.701219,59.0549,5.36585
318.595,11.5795,51.6908,0,1.90165,9.09389,-0.301772,5.73171,-15.5183,-30,-6.98388,1.0586,6.01629,-1.15854,59.939,5.39634
318.606,11.2955,51.2137,0,1.99026,9.03401,-0.193997,4.05488,-18.7805,-30.7012,-7.07249,1.11129,5.92288,-1.76829,60.8537,4.66463
318.616,11.0355,50.7421,0,2.14354,9.05078,0.0431104,4.35976,-22.4085,-30.6707,-7.19703,1.17356,5.95641,-2.80488,61.9512,3.59756
318.626,10.8129,50.2531,0,2.39023,9.13221,-0.0479004,7.0122,-24.1159,-30.122,-7.29523,1.16398,5.84624,-3.68902,63.4756,2.56098
318.636,10.6096,49.7479,0,2.49322,9.36213,-0.158071,8.81098,-21.0061,-29.1159,-7.28804,1.15679,5.65704,-5.30488,65.5488,1.7378
318.645,10.4434,49.2574,0,2.6944,9.51781,-0.869392,9.11585,-15.122,-27.561,-7.34552,1.12566,5.6762,-7.07317,67.3171,1.25
318.655,10.3332,48.7595,0,3.06562,9.62079,-0.941243,8.59756,-18.0793,-26.0061,-7.39343,1.0107,5.57561,-8.47561,67.8354,0.731707
318.666,10.2756,48.2109,0,3.45362,9.65193,-1.13524,6.76829,-14.9085,-24.9695,-7.46288,0.984353,5.27383,-8.5061,69.1768,0.914634
318.675,10.2434,47.638,0,3.72186,9.85311,-1.01788,3.81098,-7.40854,-24.5427,-7.62574,0.950823,5.16127,-8.65854,70.4573,1.06707
318.686,10.1886,47.0713,0,3.40572,9.75491,-0.696951,3.07927,-2.40854,-23.9634,-7.76226,0.898132,5.17324,-9.05488,71.6159,1.70732
318.695,10.1484,46.4758,0,3.4129,9.62079,-0.476609,3.56707,3.59756,-23.1707,-7.86524,0.833467,4.99122,-9.93902,73.5671,1.98171
318.705,10.0824,45.8482,0,3.11113,9.51302,-0.471819,4.39024,10.4268,-22.9878,-7.98739,0.840652,4.79962,-10.5183,75.6707,2.0122
318.716,9.97096,45.2039,0,2.73751,9.54655,-0.287402,4.5122,14.2378,-23.4451,-8.11912,0.852627,4.67987,-11.0061,76.8293,1.95122
318.726,9.82704,44.5581,0,2.5004,9.55373,-0.349673,2.80488,16.189,-24.2683,-8.1742,0.840652,4.58407,-11.189,78.5061,1.95122
318.736,9.64475,43.8671,0,2.17707,9.50344,-0.498164,1.03659,16.6768,-24.878,-8.19815,0.811912,4.26792,-11.4634,79.6037,2.0122
318.746,9.47856,43.1493,0,2.34472,9.53936,-0.534089,0.762195,20.5793,-25.4573,-8.24126,0.754431,4.04519,-11.8902,81.311,2.10366
318.756,9.262,42.4501,0,1.89686,9.60642,-0.481399,0.884146,18.5671,-25.5488,-8.39454,0.761616,4.07632,-12.8049,82.4085,1.92073
318.765,9.03422,41.745,0,1.71244,9.64953,-0.285007,0.792683,13.0793,-24.878,-8.56699,0.677791,4.00447,-13.0488,82.2561,2.10366
318.776,8.85728,40.9987,0,2.10762,9.59205,-0.268242,0.97561,13.2317,-24.9085,-8.53585,0.646655,3.67875,-12.9268,83.9939,2.22561
318.786,8.67109,40.2316,0,2.03337,9.78605,-0.217947,1.46341,11.0061,-24.878,-8.61489,0.617915,3.48954,-12.9878,85.7317,1.95122
318.795,8.45125,39.4677,0,1.67172,9.7597,-0.138911,1.92073,8.2622,-24.5732,-8.58136,0.500559,3.35782,-13.1402,86.4329,2.07317
318.806,8.27245,38.7134,0,1.78189,9.72138,-0.208367,2.40854,10.9756,-22.1951,-8.73464,0.397573,3.32668,-13.0793,87.0122,1.43293
318.815,8.06791,37.9221,0,1.54,9.69504,0.0407153,4.35976,5.60976,-22.4085,-8.71787,0.323328,3.0297,-12.1646,87.561,1.34146
318.826,7.848,37.1287,0,1.28852,9.88664,-0.239502,3.04878,4.17683,-21.128,-8.77775,0.313748,2.90755,-10.8537,88.9024,1.25
318.836,7.59348,36.3876,0,0.938848,9.61121,-0.469424,0.27439,3.32317,-21.3415,-8.94779,0.282612,3.05604,-9.57317,89.5122,1.34146
318.846,7.31871,35.671,0,0.742456,9.51541,-0.352068,0.609756,0.731707,-21.6463,-8.82086,0.486189,2.99138,-8.71951,89.3598,1.61585
318.855,7.08099,34.9412,0,1.02746,9.5681,-0.335303,1.34146,-0.0914634,-21.8293,-8.92384,0.627495,2.84528,-8.68902,89.2988,1.67683
318.865,6.8474,34.2176,0,1.0083,9.58008,-0.471819,2.62195,0.823171,-21.6463,-9.18969,0.711321,2.82852,-9.35976,88.6281,2.07317
318.875,6.63547,33.4816,0,1.17116,9.78126,-0.455054,3.32317,4.81707,-21.5854,-9.32142,0.756826,2.68482,-9.69512,88.0793,1.34146
318.886,6.43584,32.7376,0,1.21427,9.79563,-0.265847,3.9939,3.32317,-21.25,-9.39806,0.773591,2.54112,-10.8841,88.3841,1.12805
318.895,6.24081,32.0208,0,1.18553,9.77168,-0.483794,2.28659,3.41463,-20.8841,-9.53457,0.804727,2.56746,-12.7439,87.7744,0.121951
318.905,6.03713,31.3261,0,1.12566,9.74533,-0.728086,1.37195,5.4878,-21.4939,-9.39087,0.859812,2.5004,-14.7866,87.0732,0.335366
318.916,5.83732,30.6366,0,1.15919,9.61121,-0.402363,2.40854,5.57927,-22.1037,-9.49146,0.816702,2.42615,-15.6402,85.6098,0.27439
318.926,5.60951,29.9385,0,0.862207,9.44117,-0.263452,4.14634,11.7073,-21.9817,-9.44835,0.728086,2.25611,-15.7012,85.6707,0.640244
318.936,5.37072,29.2464,0,0.747246,9.55613,-0.598755,3.87195,18.811,-22.0427,-9.34058,0.598755,2.13636,-15.9146,85.1524,0.823171
318.946,5.11161,28.539,0,0.536484,9.68306,-0.495769,2.71341,19.4817,-21.9512,-9.24957,0.421523,1.93278,-15.2439,84.939,1.09756
318.956,4.82546,27.8505,0,0.172441,9.6639,-0.328118,1.4939,14.5122,-20.8537,-9.1346,0.311353,1.87051,-14.0549,84.4207,0.914634
318.965,4.52814,27.1648,0,-0.0407153,9.70701,-0.411943,1.76829,12.1341,-20,-9.20166,0.167651,1.7795,-13.2927,83.2622,0.640244
318.976,4.25704,26.49,0,0.119751,9.62079,-0.495769,4.90854,12.3171,-19.878,-9.25196,-0.0574805,1.71962,-12.9268,81.8293,0.152439
318.986,3.94958,25.7684,0,-0.263452,9.70462,-0.65384,4.26829,9.66463,-19.5122,-9.3765,-0.210762,1.42983,-11.5244,81.0976,-0.670732
318.996,3.65155,25.0485,0,-0.234712,9.66869,-0.617915,3.90244,15.9451,-19.5122,-9.54894,-0.225132,1.33882,-9.93902,79.5122,-1.52439
319.006,3.38335,24.3599,0,-0.0670605,9.8076,-0.706531,3.38415,13.9024,-19.1159,-9.74294,-0.253872,1.37714,-8.29268,77.8963,-2.04268
319.016,3.03434,23.6872,0,-0.969983,9.76689,-0.0191602,2.92683,8.44512,-17.1341,-9.75491,-0.150886,1.32684,-6.79878,75.3659,-2.59146
319.026,2.72341,22.993,0,-0.773591,9.72138,-0.296982,3.23171,7.92683,-16.25,-9.9082,-0.0886157,1.13284,-5.85366,73.8415,-2.2561
319.035,2.41932,22.2875,0,-0.804727,9.79323,-0.371228,3.56707,1.18902,-15.8841,-10.0543,-0.0550855,0.974773,-5,72.439,-1.85976
319.046,2.09283,21.5917,0,-1.01309,9.75731,-0.356858,3.14024,-0.97561,-16.2805,-10.1836,-0.0766406,0.902922,-4.60366,70.8537,-1.43293
319.055,1.84695,20.9206,0,-0.308958,9.80042,-0.392783,3.65854,-1.70732,-17.1341,-10.198,-0.0910107,0.888552,-3.65854,67.7134,-1.06707
319.065,1.58714,20.256,0,-0.404758,9.7621,-0.304167,4.69512,-3.87195,-17.8963,-10.1956,-0.0167651,0.795146,-2.43902,65.1829,-1.03659
319.075,1.35193,19.5873,0,-0.287402,9.75252,-0.277822,4.84756,-2.80488,-17.3171,-10.0567,0.114961,0.646655,-1.34146,62.1341,-0.27439
319.086,1.14603,18.9065,0,-0.0167651,9.70941,-0.665815,3.90244,2.5,-18.0488,-10.2315,0.0670605,0.481399,-0.304878,60.6098,0.0609756
319.096,0.89256,18.2168,0,-0.435894,9.62079,-0.536484,4.02439,2.59146,-18.2317,-10.3824,-0.0407153,0.323328,0.701219,59.1159,0.0914634
319.106,0.631744,17.5842,0,-0.550855,9.8076,-0.443079,4.05488,1.0061,-18.2317,-10.5333,-0.208367,0.464634,2.31707,57.439,-0.731707
319.115,0.37922,16.9943,0,-0.546064,9.96807,-0.426313,4.29878,0.97561,-18.0793,-10.4734,-0.203577,0.541274,4.54268,54.5122,-0.945122
319.125,0.144163,16.4602,0,-0.452659,10.0088,-0.560435,4.66463,-1.58537,-17.9268,-10.4878,-0.213157,0.689766,6.18902,51.7988,-0.487805
319.135,-0.0755764,15.9395,0,-0.404758,10.0878,-0.5772,3.78049,-0.884146,-17.439,-10.3992,-0.155676,0.646655,7.56098,49.9695,-0.304878
319.145,-0.285205,15.4486,0,-0.421523,9.93215,-0.376018,3.87195,-1.7378,-16.5854,-10.5501,-0.251477,0.696951,8.44512,47.6829,0.731707
319.156,-0.525448,14.9717,0,-0.869392,9.71899,-0.548459,3.93293,0.487805,-14.6646,-10.4231,-0.205972,0.661025,8.71951,45.1524,1.37195
319.165,-0.693236,14.4706,0,-0.349673,9.80281,-0.423918,4.42073,-3.23171,-14.0244,-10.2483,-0.129331,0.452659,8.53659,42.9878,2.07317
319.176,-0.884938,13.9929,0,-0.752036,9.79084,-0.526904,3.59756,-6.82927,-12.0122,-10.198,0.0335303,0.464634,8.07927,40.6707,3.01829
319.185,-1.04121,13.5269,0,-0.61552,9.73096,-0.65384,2.9878,-6.15854,-10.3659,-10.2651,0.136516,0.433499,7.19512,38.7195,3.81098
319.195,-1.15033,13.0792,0,-0.392783,9.72138,-0.541274,2.2561,-4.7561,-8.53659,-10.2148,0.182021,0.428708,6.89024,36.6159,4.48171
319.206,-1.2404,12.6336,0,-0.390388,9.7621,-0.778381,2.89634,-4.32927,-6.85976,-10.2339,0.332908,0.356858,6.25,34.7561,5.33537
319.216,-1.33286,12.1522,0,-0.565225,9.87706,-0.742456,2.5,-3.01829,-5.2439,-10.289,0.294587,0.114961,6.06707,32.8659,5.33537
319.226,-1.38617,11.6822,0,-0.277822,9.91538,-0.696951,2.65244,-3.59756,-4.87805,-10.2363,0.227527,0.0790356,6.37195,32.1646,5.36585
319.236,-1.47766,11.1798,0,-0.55804,9.93215,-0.682581,2.59146,-5.06098,-5.57927,-10.198,0.114961,-0.150886,6.43293,31.7683,4.93902
319.246,-1.58549,10.7158,0,-0.737666,9.87227,-0.471819,2.40854,-7.22561,-5.2439,-10.1118,-0.0263452,-0.0670605,6.70732,31.4939,4.78659
319.256,-1.67679,10.2243,0,-0.665815,9.88185,-0.512534,2.2561,-7.56098,-4.60366,-10.107,-0.198787,-0.273032,7.04268,30.0915,4.29878
319.265,-1.76576,9.72734,0,-0.699346,10.0375,-0.684976,1.55488,-7.34756,-4.26829,-10.1812,-0.292192,-0.387993,7.34756,28.872,3.68902
319.276,-1.84757,9.22234,0,-0.687371,10.0112,-0.589175,0.853659,-9.42073,-3.78049,-10.0591,-0.296982,-0.507744,8.20122,27.4085,3.53659
319.286,-1.89028,8.73146,0,-0.407153,9.95849,-0.754431,0.823171,-9.96951,-3.29268,-10.2148,-0.304167,-0.543669,8.78049,25.6707,3.96341
319.295,-1.92224,8.25865,0,-0.361648,9.88664,-0.747246,0.396341,-8.68902,-2.80488,-10.4207,-0.328118,-0.56283,9.08537,23.5366,4.54268
319.306,-1.95688,7.77746,0,-0.409548,9.82677,-0.783171,0.97561,-8.62805,-2.43902,-10.4638,-0.225132,-0.692161,9.48171,21.8598,5.4878
319.316,-1.99676,7.30871,0,-0.462239,9.70462,-0.888552,2.37805,-7.86585,-2.10366,-10.4183,-0.155676,-0.720901,9.54268,20.4573,6.52439
319.325,-2.05465,6.86289,0,-0.593965,9.7621,-0.845442,2.16463,-8.56707,-2.2561,-10.3656,-0.0407153,-0.699346,8.93293,18.1098,7.31707
319.335,-2.11794,6.41876,0,-0.62989,9.73815,-0.768801,1.15854,-8.62805,-2.59146,-10.2603,-0.00479004,-0.766406,8.23171,16.311,8.17073
319.345,-2.16959,5.99608,0,-0.529299,9.65672,-0.814307,0.914634,-9.32927,-2.95732,-10.2243,0.0910107,-0.747246,8.01829,15.122,8.04878
319.356,-2.2292,5.58202,0,-0.593965,9.72378,-0.802332,0.701219,-9.54268,-3.14024,-10.198,0.141306,-0.783171,6.98171,13.872,8.38415
319.365,-2.28419,5.18587,0,-0.57241,9.83874,-0.811912,0,-8.90244,-3.20122,-10.2148,0.158071,-0.778381,5.85366,12.9268,7.7439
319.375,-2.32752,4.81086,0,-0.512534,9.8555,-0.759221,-0.121951,-10.2439,-2.86585,-10.1501,0.148491,-0.749641,5.09146,12.1646,7.37805
319.386,-2.34008,4.45678,0,-0.304167,9.86509,-0.795146,-0.884146,-10.8537,-2.59146,-10.1525,0.153281,-0.723296,4.26829,11.1585,7.31707
319.396,-2.32008,4.11573,0,-0.100591,9.84353,-0.708926,-0.487805,-9.26829,-2.2561,-10.1142,0.0886157,-0.725691,3.35366,10.3659,6.43293
319.405,-2.25899,3.78627,0,0.0526904,9.80521,-0.752036,0.457317,-7.92683,-1.4939,-10.0184,0.0550855,-0.728086,2.95732,9.29878,6.37195
319.415,-2.2073,3.47476,0,0.00239502,9.8076,-0.785566,0.884146,-6.46341,-1.46341,-10.0471,0,-0.708926,2.34756,8.32317,6.06707
319.426,-2.14695,3.15317,0,0.00958008,9.73815,-0.699346,1.09756,-6.70732,-1.25,-10.0567,-0.0167651,-0.809517,2.0122,7.43902,6.03659
319.436,-2.09099,2.84658,0,-0.00958008,9.72617,-0.821492,0.579268,-5.73171,-1.21951,-10.0088,-0.0407153,-0.795146,1.89024,6.85976,5.91463
319.446,-2.05607,2.5261,0,-0.0838257,9.7142,-0.893342,0.945122,-3.62805,-1.40244,-9.98005,-0.0838257,-0.905317,1.43293,5.94512,5.91463
319.456,-2.02842,2.22079,0,-0.162861,9.7597,-0.946033,0.518293,-2.65244,-1.03659,-9.97526,0.00718506,-0.890947,0.853659,5.45732,6.25
319.465,-2.01595,1.92909,0,-0.232317,9.70701,-0.862207,1.18902,-2.92683,-1.06707,-9.96328,0.0550855,-0.871787,0.27439,4.57317,6.43293
319.476,-2.03031,1.60946,0,-0.344883,9.82437,-0.929268,0.731707,-1.31098,-1.4939,-9.98005,0.0886157,-1.03465,0.182927,4.11585,6.61585
319.486,-2.04973,1.29606,0,-0.373623,9.80042,-0.775986,0.365854,-1.89024,-1.55488,-9.96807,0.0574805,-1.04902,-1.09756,3.78049,6.52439
319.496,-2.055,0.992535,0,-0.299377,9.74294,-0.821492,0.335366,-2.28659,-1.43293,-9.99442,0.0574805,-1.04662,-1.79878,3.41463,6.21951
319.505,-2.04324,0.677605,0,-0.191602,9.69264,-0.878972,0.670732,-1.03659,-1.55488,-9.99202,0.0167651,-1.08973,-2.34756,2.7439,6.34146
319.516,-2.0199,0.375256,0,-0.0934058,9.6663,-0.764011,0.518293,0.426829,-1.79878,-10.0375,0.0311353,-1.02986,-3.29268,2.19512,5.4878
319.526,-1.98903,0.0320559,0,-0.0958008,9.7597,-0.814307,0.548781,1.18902,-1.37195,-9.99921,0.0407153,-1.01309,-3.62805,1.34146,5.85366
319.536,-1.94999,-0.444644,0,-0.0479004,9.82437,-0.819097,0.121951,0.670732,-1.31098,-10.016,0.0646655,-1.0586,-4.39024,0.426829,5.73171
319.545,-1.90678,-0.954934,0,0,9.84832,-0.833467,-0.304878,1.31098,-1.40244,-10.004,0.0718506,-1.07536,-5.03049,-0.182927,5.64024
319.556,-1.86433,-1.36068,0,0.00958008,9.87467,-0.708926,-1.0061,2.56098,-1.43293,-9.99202,0.0622705,-1.11847,-5.82317,-0.548781,5.94512
319.565,-1.82506,-1.73012,0,0.0574805,9.84832,-0.838257,-0.731707,4.35976,-1.82927,-10.0902,-0.0119751,-1.15679,-6.18902,-0.548781,5.54878
319.576,-1.79514,-2.00233,0,0.0431104,9.78126,-0.814307,-0.579268,5.60976,-2.16463,-10.0878,0.0622705,-1.13524,-7.07317,-1.09756,5.18293
319.586,-1.77508,-2.28348,0,0.0215552,9.74054,-0.828677,0.304878,6.98171,-2.53049,-10.0375,0.0215552,-1.23583,-7.34756,-1.25,5.36585
319.596,-1.7686,-2.511,0,-0.0526904,9.70701,-0.883762,0.426829,7.37805,-2.7439,-10.0327,0.0407153,-1.21667,-7.80488,-1.79878,5.45732
319.605,-1.76752,-2.72123,0,-0.0742456,9.69025,-0.792751,0.701219,7.56098,-2.92683,-9.98723,-0.0502954,-1.2502,-8.10976,-2.31707,5.64024
319.615,-1.7703,-2.9197,0,-0.0742456,9.70222,-0.871787,0.762195,8.53659,-3.23171,-9.98244,-0.100591,-1.2526,-8.10976,-2.43902,5.51829
319.625,-1.77643,-3.09981,0,-0.117356,9.78126,-0.883762,0.396341,11.1585,-3.04878,-9.93215,-0.210762,-1.20469,-8.2622,-2.43902,5.85366
319.635,-1.78499,-3.28522,0,-0.165256,9.81,-0.665815,0.396341,11.25,-2.7439,-9.84593,-0.222737,-1.2526,-7.95732,-2.59146,5.67073
319.646,-1.79638,-3.45464,0,-0.191602,9.91299,-0.62031,0.518293,9.45122,-2.71341,-9.86988,-0.191602,-1.23823,-7.37805,-2.7439,5.94512
319.655,-1.80175,-3.61919,0,-0.208367,9.93454,-0.673001,0.152439,8.5061,-2.04268,-9.78844,-0.249082,-1.22386,-6.76829,-2.62195,6.21951
319.665,-1.81483,-3.77941,0,-0.277822,9.92975,-0.699346,0.365854,6.64634,-1.85976,-9.77647,-0.227527,-1.23104,-6.18902,-2.59146,6.40244
319.675,-1.83358,-3.92948,0,-0.330513,9.87946,-0.718506,0.152439,5.94512,-1.64634,-9.81958,-0.232317,-1.21188,-5.91463,-2.37805,6.34146
319.685,-1.85433,-4.08789,0,-0.347278,9.78605,-0.680186,0.121951,3.9939,-1.55488,-9.81719,-0.184417,-1.22625,-5.36585,-1.95122,6.55488
319.695,-1.87775,-4.21699,0,-0.368833,9.74773,-0.754431,-0.396341,2.22561,-1.46341,-9.87467,-0.129331,-1.17595,-5.09146,-2.10366,6.61585
319.705,-1.8856,-4.3318,0,-0.299377,9.70222,-0.778381,-0.365854,1.58537,-1.18902,-9.84353,-0.0742456,-1.15919,-4.96951,-2.37805,6.82927
319.715,-1.88149,-4.43338,0,-0.253872,9.69025,-0.816702,-0.487805,1.64634,-1.0061,-9.87706,-0.0479004,-1.14961,-4.54268,-2.68293,6.98171
319.726,-1.86559,-4.51572,0,-0.244292,9.80042,-0.785566,-0.670732,1.95122,-0.457317,-9.92975,-0.0502954,-1.09452,-4.45122,-2.56098,7.22561
319.735,-1.83236,-4.60032,0,-0.193997,9.89622,-0.759221,-0.762195,1.89024,-0.243902,-9.94891,-0.0502954,-1.11847,-4.35976,-2.5,7.22561
319.745,-1.79461,-4.66533,0,-0.193997,9.87467,-0.754431,-0.792683,2.13415,-0.0609756,-9.98963,-0.0383203,-1.06099,-4.35976,-2.46951,6.98171
319.755,-1.7768,-4.74799,0,-0.246687,9.86748,-0.771196,0.182927,2.04268,-0.121951,-9.94173,-0.105381,-1.14482,-4.35976,-2.7439,6.76829
319.765,-1.76447,-4.83134,0,-0.256267,9.84114,-0.744851,-0.27439,1.15854,-0.213415,-9.94412,-0.129331,-1.16158,-4.11585,-2.71341,6.98171
319.776,-1.75733,-4.9159,0,-0.268242,9.78844,-0.778381,-0.487805,0.823171,-0.27439,-9.93454,-0.138911,-1.18553,-3.90244,-2.89634,6.98171
319.786,-1.74466,-4.99909,0,-0.253872,9.76449,-0.761616,-1.28049,0.792683,-0.182927,-9.92017,-0.193997,-1.19272,-3.71951,-2.89634,7.10366
319.796,-1.7522,-5.0804,0,-0.316143,9.75731,-0.787961,-1.37195,0.243902,-0.152439,-9.94652,-0.177231,-1.21427,-3.35366,-3.35366,7.31707
319.806,-1.76485,-5.16225,0,-0.330513,9.77886,-0.823887,-1.70732,0.335366,-0.457317,-9.94891,-0.225132,-1.24062,-2.83537,-3.9939,7.7439
319.816,-1.7814,-5.23356,0,-0.347278,9.76928,-0.855022,-2.43902,1.28049,-0.426829,-9.92017,-0.249082,-1.20948,-2.46951,-4.45122,7.83537
319.826,-1.7908,-5.32167,0,-0.337698,9.76928,-0.708926,-2.86585,0.304878,0.152439,-9.92496,-0.249082,-1.2981,-2.53049,-4.7561,7.95732
319.836,-1.77278,-5.39397,0,-0.253872,9.72857,-0.720901,-2.9878,-2.07317,0.335366,-9.9561,-0.265847,-1.2502,-1.98171,-5.18293,7.77439
319.845,-1.7576,-5.46095,0,-0.270637,9.79563,-0.859812,-2.9878,-3.10976,0.853659,-9.9537,-0.282612,-1.24062,-1.70732,-5.70122,8.01829
319.856,-1.73812,-5.53216,0,-0.253872,9.83395,-0.895737,-2.95732,-3.10976,1.06707,-9.9561,-0.296982,-1.27176,-1.21951,-5.79268,8.04878
319.865,-1.72505,-5.5983,0,-0.275427,9.78366,-0.907712,-2.40854,-4.42073,0.884146,-9.96807,-0.273032,-1.26457,-0.884146,-6.43293,8.14024
319.876,-1.66564,-5.66483,0,-0.0958008,9.72138,-0.991538,-2.83537,-3.78049,0.396341,-9.97526,-0.296982,-1.27894,-0.396341,-6.46341,8.32317
319.885,-1.57664,-5.74702,0,-0.00239502,9.67588,-0.965193,-2.68293,-2.86585,0.304878,-9.98723,-0.344883,-1.36277,0.0609756,-6.7378,8.17073
319.896,-1.45998,-5.82285,0,0.0574805,9.64714,-0.878972,-2.56098,-2.22561,-0.0914634,-10.0279,-0.409548,-1.35319,0.640244,-6.03659,7.89634
319.906,-1.38632,-5.90645,0,-0.00718506,9.68785,-0.845442,-3.35366,-0.609756,0.396341,-9.98723,-0.512534,-1.3963,1.79878,-6.25,7.62195
319.915,-1.37457,-5.98587,0,-0.205972,9.81,-0.893342,-3.68902,0.579268,0.304878,-9.94173,-0.56762,-1.38672,2.77439,-6.61585,7.53049
319.925,-1.38342,-6.0501,0,-0.308958,9.88664,-0.888552,-4.54268,-0.548781,0.701219,-9.89383,-0.61552,-1.32684,3.87195,-6.76829,7.22561
319.936,-1.37935,-6.10771,0,-0.249082,9.82437,-0.924478,-3.84146,-1.89024,0.701219,-9.92017,-0.622705,-1.31247,4.87805,-6.89024,7.31707
319.945,-1.35353,-6.15939,0,-0.153281,9.77407,-0.929268,-4.05488,-3.20122,0.731707,-9.87946,-0.637075,-1.29092,5.82317,-6.85976,6.89024
319.956,-1.34748,-6.21126,0,-0.234712,9.8579,-1.06339,-5.18293,-3.41463,0.670732,-9.87946,-0.651445,-1.3005,7.34756,-6.61585,7.16463
319.966,-1.36959,-6.26885,0,-0.337698,9.75731,-0.958008,-6.21951,-5.12195,0.548781,-9.9082,-0.63947,-1.33882,8.20122,-6.61585,7.0122
319.975,-1.39702,-6.31365,0,-0.387993,9.76928,-0.950823,-6.64634,-6.89024,0.762195,-9.91778,-0.60594,-1.29331,9.14634,-6.52439,6.67683
319.985,-1.42929,-6.34605,0,-0.399968,9.77886,-0.934058,-7.13415,-8.62805,0.640244,-9.9082,-0.598755,-1.24541,9.72561,-6.82927,6.7378
319.996,-1.45543,-6.38753,0,-0.325723,9.72857,-1.1041,-7.19512,-9.90854,0.121951,-9.97526,-0.59636,-1.3005,10.4268,-7.19512,6.15854
320.006,-1.40319,-6.41544,0,-0.0646655,9.67348,-1.19272,-9.87805,-9.93902,-0.304878,-9.91778,-0.524509,-1.24062,10.9756,-7.71341,5.73171
320.016,-1.28993,-6.43164,0,0.0646655,9.55613,-1.14721,-10.6707,-8.44512,0.121951,-9.92736,-0.486189,-1.19511,10.7317,-8.14024,5.39634
320.026,-1.18391,-6.43226,0,0.0934058,9.57289,-1.1544,-10.9756,-7.7439,0.27439,-9.89143,-0.488584,-1.12566,10.9146,-9.08537,4.96951
320.036,-1.07263,-6.40306,0,0.155676,9.5705,-1.21427,-10.122,-9.26829,0.426829,-9.9082,-0.455054,-0.996328,10.7012,-9.57317,4.7561
320.045,-0.952186,-6.38578,0,0.222737,9.6639,-1.22386,-9.14634,-11.128,0.396341,-9.92975,-0.440684,-1.04662,10.1829,-10.122,4.20732
320.056,-0.794319,-6.36995,0,0.459844,9.72617,-1.24062,-9.17683,-9.96951,-0.487805,-9.89862,-0.426313,-1.04662,9.45122,-10.0305,3.9939
320.066,-0.685535,-6.34905,0,0.651445,9.71899,-1.34361,-9.29878,-6.34146,-1.70732,-9.86269,-0.459844,-1.01788,8.5061,-10.122,3.84146
320.076,-0.611648,-6.33332,0,0.656235,9.74773,-1.24062,-9.20732,-1.98171,-2.80488,-9.82437,-0.522114,-1.03225,7.59146,-9.35976,4.02439
320.085,-0.563591,-6.30315,0,0.543669,9.82437,-1.0586,-9.84756,-0.884146,-3.32317,-9.81719,-0.543669,-0.965193,6.55488,-8.75,3.78049
320.096,-0.515073,-6.26654,0,0.56762,9.91059,-1.06818,-9.72561,-0.243902,-3.35366,-9.79084,-0.61073,-0.929268,5.45732,-8.65854,4.05488
320.105,-0.477668,-6.24405,0,0.514929,9.9537,-0.991538,-10.7927,-0.365854,-3.59756,-9.77168,-0.608335,-0.981958,4.11585,-7.95732,4.29878
320.116,-0.450671,-6.23053,0,0.392783,9.91299,-1.0083,-11.9512,-0.853659,-3.23171,-9.7621,-0.603545,-1.01549,3.10976,-7.22561,4.7561
320.125,-0.431419,-6.21489,0,0.335303,9.92736,-0.972378,-12.378,-1.37195,-3.23171,-9.7597,-0.60594,-1.00351,2.19512,-6.89024,5.03049
320.135,-0.392866,-6.19876,0,0.443079,9.91059,-1.01309,-12.439,-2.34756,-2.80488,-9.8076,-0.627495,-1.00351,1.46341,-6.85976,5.67073
320.146,-0.357354,-6.20022,0,0.459844,10.004,-1.07057,-12.1037,-1.89024,-3.01829,-9.8555,-0.641865,-1.08255,0.823171,-6.61585,6.28049
320.156,-0.317705,-6.1982,0,0.543669,9.98484,-0.998723,-12.8049,-1.76829,-3.41463,-9.86269,-0.656235,-1.06818,-0.365854,-6.46341,6.40244
320.165,-0.267403,-6.19887,0,0.593965,9.90341,-0.934058,-13.5366,-1.09756,-3.10976,-9.88904,-0.66342,-1.08255,-1.18902,-6.52439,6.89024
320.176,-0.214567,-6.18452,0,0.589175,9.8579,-0.764011,-13.9329,-0.213415,-2.89634,-9.87946,-0.656235,-1.01549,-1.67683,-6.21951,7.13415
320.185,-0.16639,-6.15632,0,0.534089,9.9058,-0.768801,-15.0305,-0.0914634,-2.65244,-9.81479,-0.64426,-0.946033,-1.98171,-6.15854,7.16463
320.196,-0.0899772,-6.14298,0,0.502954,9.93215,-0.857417,-16.5244,3.32317,-1.31098,-9.72378,-0.677791,-0.996328,-2.9878,-5.85366,7.28659
320.206,-0.0298139,-6.12109,0,0.294587,10.0974,-0.337698,-17.0122,-3.68902,-0.548781,-9.68306,-0.692161,-0.953218,-3.32317,-5.36585,7.37805
320.216,0.0833766,-6.08832,0,0.445474,9.89383,-0.821492,-19.3902,-4.08537,0.487805,-9.68067,-0.680186,-0.902922,-2.83537,-5.21341,7.16463
320.226,0.204091,-6.04524,0,0.677791,9.69743,-0.859812,-20.6707,-3.87195,1.95122,-9.69504,-0.696951,-0.855022,-2.77439,-5.03049,7.53049
320.235,0.338786,-5.9864,0,0.816702,9.7118,-0.694556,-20.6098,-7.16463,3.9939,-9.7621,-0.699346,-0.785566,-2.92683,-5.2439,7.59146
320.245,0.494492,-5.94047,0,0.929268,9.8124,-0.632285,-21.2195,-7.16463,5.45732,-9.82197,-0.682581,-0.835862,-2.40854,-5.15244,7.59146
320.256,0.676883,-5.90032,0,0.958008,9.75731,-0.347278,-21.189,-7.10366,8.17073,-9.87706,-0.64426,-0.857417,-2.04268,-5.36585,7.53049
320.265,0.893368,-5.82477,0,0.998723,9.6663,-0.217947,-21.4329,-6.64634,11.4329,-9.92257,-0.64905,-0.699346,-1.15854,-5.67073,7.16463
320.276,1.14444,-5.73539,0,1.00351,9.63277,0.0407153,-20.5793,-5.21341,15.3049,-9.95849,-0.687371,-0.627495,-0.853659,-6.31098,7.0122
320.286,1.42432,-5.64674,0,0.946033,9.55852,0.215552,-19.2378,-4.29878,19.3598,-9.88664,-0.579595,-0.61073,-0.182927,-6.58537,7.0122
320.296,1.74992,-5.53522,0,0.986748,9.5202,0.359253,-17.5,-5,24.0549,-9.93694,-0.538879,-0.498164,1.18902,-7.2561,7.28659
320.306,2.13044,-5.43774,0,1.0586,9.45314,0.332908,-15.3963,-5.12195,29.3598,-9.95131,-0.440684,-0.541274,2.28659,-7.65244,7.53049
320.315,2.55231,-5.36532,0,1.04902,9.52739,0.390388,-14.939,-6.06707,34.5732,-9.87467,-0.411943,-0.62989,3.68902,-8.07927,8.14024
320.326,3.02852,-5.31264,0,1.11608,9.56092,0.395178,-16.4634,-7.71341,40.2134,-9.87946,-0.438289,-0.704136,5.67073,-8.29268,8.5061
320.336,3.57262,-5.28998,0,1.31487,9.83395,0.399968,-18.4756,-10.6707,46.1585,-9.76449,-0.395178,-0.816702,8.62805,-8.17073,9.39024
320.346,4.20614,-5.26984,0,1.65017,9.91538,0.356858,-22.9573,-13.5366,52.6524,-9.62798,-0.316143,-0.811912,11.9817,-7.7439,10.6098
320.356,4.92409,-5.24417,0,1.88967,9.88425,0.467029,-27.622,-17.2561,59.7561,-9.51302,-0.138911,-0.775986,15.7927,-8.35366,12.378
320.365,5.73561,-5.20639,0,2.34472,10.174,0.60594,-30.7012,-20.7622,66.3719,-9.50823,0.126936,-0.720901,18.2927,-9.17683,13.3232
320.376,6.63695,-5.13377,0,2.8381,10.3058,0.447869,-33.1707,-21.4024,72.2561,-9.71659,0.376018,-0.58199,19.8171,-11.0976,14.2988
320.385,7.59356,-5.09126,0,2.89797,10.0375,0.347278,-33.1707,-18.8415,78.2927,-9.87227,0.64426,-0.711321,20.5183,-12.3476,13.811
320.396,8.56761,-5.03762,0,2.74948,9.83635,0.641865,-28.689,-13.2012,83.0183,-10.2555,0.898132,-0.682581,20.5793,-14.3598,12.8354
320.405,9.49801,-4.99405,0,2.26329,9.97765,1.12805,-21.4329,-8.41463,86.3415,-10.5429,1.08494,-0.740061,21.5549,-15.7317,11.9207
320.415,10.4153,-4.93175,0,2.03098,10.1573,1.48491,-13.4146,-3.38415,89.9085,-10.7944,1.03704,-0.661025,22.378,-16.8598,11.7073
320.426,11.2739,-4.90185,0,1.2981,10.301,2.09564,-5.85366,-9.14634,94.2073,-10.9261,0.883762,-0.814307,24.1463,-17.2866,12.1951
320.436,12.1039,-4.91032,0,0.66342,10.2507,2.85007,3.17073,-19.6037,100.152,-10.9333,0.58678,-0.993933,25.1829,-15.9146,13.872
320.445,12.9649,-4.93529,0,0.543669,10.3225,3.41769,15.1829,-36.128,106.402,-10.7896,0.505349,-1.06099,25.6098,-15.2134,16.1585
320.456,13.9214,-4.9987,0,1.21188,10.5093,3.33626,27.0427,-52.378,110.64,-10.5022,0.589175,-1.21667,26.189,-14.4817,18.811
320.465,14.9221,-5.08547,0,1.93757,11.0099,2.53633,31.6463,-56.9207,110.152,-10.1884,0.730481,-1.2981,25.9146,-14.3293,20.3659
320.475,15.9043,-5.17409,0,2.67524,11.6853,0.692161,17.8354,-46.4329,104.36,-10.1357,0.843047,-1.31487,25.5793,-13.7805,20.4573
320.485,16.8096,-5.25384,0,3.29555,11.4314,-0.63947,-0.518293,-26.7683,92.0122,-10.1956,0.929268,-1.2981,25.5793,-13.7195,19.7256
320.496,17.5888,-5.31882,0,3.43206,10.5884,-0.749641,-5.27439,-6.67683,77.1646,-10.3728,1.0083,-1.26697,25.4268,-13.9329,18.3232
320.505,18.2127,-5.38297,0,3.09437,10.0208,-0.419128,-2.65244,5.09146,64.5427,-10.5213,0.977168,-1.29331,25.7927,-13.9634,17.0427
320.516,18.6652,-5.43583,0,2.67284,9.96089,-0.0718506,2.59146,9.7561,52.6829,-10.562,0.950823,-1.25739,26.2195,-14.3598,17.4695
320.526,18.9305,-5.47437,0,1.9232,9.94652,0.304167,6.89024,4.5122,42.8354,-10.4375,0.852627,-1.18553,26.5854,-14.3598,18.3232
320.536,19.119,-5.50382,0,1.75555,9.39087,0.481399,9.08537,-4.08537,36.25,-10.2148,0.701741,-1.12566,26.4024,-14.2378,19.2073
320.546,19.308,-5.53166,0,2.07169,8.81128,0.100591,10.7622,-6.61585,31.311,-9.86748,0.63468,-1.08494,26.25,-13.689,20.1829
320.556,19.5335,-5.55388,0,2.66805,8.31311,-0.0502954,13.1707,-3.10976,26.0976,-9.47949,0.699346,-1.02267,25.9146,-13.0793,21.0061
320.566,19.8078,-5.57566,0,3.45362,8.02571,0.0479004,15.7622,2.86585,20.3354,-9.20406,0.838257,-0.993933,25.7927,-12.0122,21.4024
320.576,20.1142,-5.569,0,4.10506,7.72873,-0.0550855,17.4695,11.4329,14.6037,-9.0388,1.04183,-0.864602,24.7256,-11.4329,20.9451
320.585,20.4301,-5.51973,0,4.91458,7.97542,-0.0934058,14.939,22.7744,8.68902,-9.00767,1.21906,-0.689766,23.4756,-10.9146,20.061
320.596,20.82,-5.48028,0,5.63788,7.95386,0.0191602,12.3476,40.1524,2.19512,-9.0412,1.34121,-0.723296,21.8598,-10.122,18.7805
320.606,21.1613,-5.43001,0,5.87019,7.85806,-0.0287402,11.7988,57.5305,-2.59146,-9.17053,1.53042,-0.682581,20.0915,-9.20732,16.9512
320.616,21.4157,-5.36938,0,5.68099,7.96344,0.294587,13.0488,67.0122,-4.20732,-9.25196,1.66933,-0.637075,18.1098,-7.7439,15.7622
320.625,21.6221,-5.32615,0,5.27862,8.17181,0.57241,12.9878,76.7073,-3.62805,-9.33339,1.6837,-0.704136,15.7317,-6.43293,14.6646
320.635,21.823,-5.29263,0,4.73016,8.464,0.845442,16.311,80.3963,-1.61585,-9.36213,1.63101,-0.740061,13.4756,-4.93902,13.5976
320.646,21.9834,-5.2641,0,4.46671,8.72027,0.359253,19.6037,82.6219,1.7378,-9.46512,1.42264,-0.768801,10.8537,-3.38415,12.4085
320.656,22.1017,-5.22561,0,4.24158,8.82086,0.210762,19.2988,88.5061,4.32927,-9.616,1.24302,-0.747246,8.87195,-2.56098,10.9451
320.665,22.1594,-5.20229,0,3.59492,8.93821,0.684976,20.2134,88.5671,6.28049,-9.73336,1.05381,-0.811912,7.37805,-2.0122,9.39024
320.676,22.1641,-5.20156,0,3.01533,9.10826,1.24062,20.0915,81.8902,8.32317,-9.87467,0.893342,-0.898132,6.12805,-1.89024,7.92683
320.685,22.1373,-5.23939,0,2.62734,9.16334,1.58071,18.9329,70.8232,9.84756,-9.9561,0.795146,-1.02746,5.42683,-1.37195,6.85976
320.695,22.1217,-5.31273,0,2.64889,9.15856,1.79626,15.7622,52.3476,10.6707,-10.0687,0.747246,-1.14242,5.15244,-1.0061,6.52439
320.706,22.1534,-5.37357,0,2.97701,9.16334,2.01421,10.9756,31.9817,11.6463,-10.1501,0.720901,-1.11847,5.12195,-0.792683,5.79268
320.716,22.1936,-5.41507,0,2.92911,9.12981,2.26808,9.26829,15.3659,13.0183,-10.2004,0.699346,-1.1065,4.7561,-1.43293,5.30488
320.726,22.2703,-5.44054,0,3.19975,9.12742,1.9711,6.28049,-2.13415,13.689,-10.1525,0.732876,-1.06578,4.57317,-2.2561,5
320.735,22.3878,-5.46413,0,3.56379,8.98611,1.97829,5.36585,-14.6646,13.2927,-10.0782,0.826282,-1.0586,4.20732,-2.65244,4.78659
320.746,22.5551,-5.45947,0,4.06914,8.87594,1.50647,2.89634,-22.0732,12.5,-10.0663,0.979563,-0.946033,4.05488,-3.14024,4.60366
320.756,22.7482,-5.46133,0,4.36852,8.87594,1.26457,-0.0914634,-20.3049,12.2561,-9.98963,1.11368,-0.965193,2.71341,-3.10976,4.84756
320.765,22.9665,-5.46336,0,4.56251,8.68434,1.41546,1.95122,-15.5793,12.1341,-9.8555,1.32205,-0.953218,2.22561,-3.10976,5.21341
320.775,23.19,-5.48286,0,4.71819,8.72985,0.972378,0.243902,-8.56707,11.7378,-9.78844,1.47533,-1.01309,0.701219,-2.53049,6.37195
320.786,23.4597,-5.52769,0,4.99601,8.2724,0.752036,1.82927,-2.56098,11.311,-9.72617,1.59508,-1.09931,-0.609756,-2.2561,6.89024
320.796,23.7189,-5.55853,0,4.92177,8.07601,0.63947,4.78659,4.60366,10.3354,-9.6639,1.61424,-1.04423,-1.92073,-2.07317,7.56098
320.805,23.9587,-5.58662,0,4.79243,7.87482,0.593965,7.34756,11.6159,8.93293,-9.67109,1.60945,-1.04902,-2.71341,-2.56098,7.59146
320.815,24.1781,-5.6334,0,4.77088,7.80297,0.505349,9.26829,19.2378,7.07317,-9.58008,1.46336,-1.10889,-4.08537,-2.46951,7.34756
320.826,24.3653,-5.73917,0,4.64394,7.72394,0.538879,10.3049,24.4817,4.39024,-9.51781,1.2502,-1.27655,-4.90854,-1.89024,6.79878
320.836,24.6147,-5.90835,0,4.45713,7.66646,0.773591,10.6707,27.1646,1.58537,-9.34776,1.08734,-1.33642,-5.45732,-1.21951,5.54878
320.846,25.0584,-6.15837,0,4.25116,7.58742,0.833467,9.57317,26.7073,-0.426829,-9.30465,0.977168,-1.41067,-5.70122,-0.731707,4.60366
320.856,25.1159,-6.5143,0,4.22002,7.48204,0.859812,9.7561,25.7317,-4.05488,-9.28549,0.866997,-1.44659,-5.57927,-0.182927,3.78049
320.865,25.1206,-6.89191,0,4.06195,7.46767,1.03225,10.7317,23.5366,-6.58537,-9.24238,0.845442,-1.48491,-6.18902,0.0914634,3.04878
320.876,25.1005,-7.18184,0,4.04279,7.33355,1.08973,11.5854,21.25,-9.69512,-9.23759,0.809517,-1.49689,-6.0061,0.304878,2.2561
320.885,25.0409,-7.42663,0,3.97334,7.26409,0.981958,12.8354,20.7622,-13.3841,-9.25436,0.855022,-1.5879,-5.51829,0.701219,1.85976
320.896,24.9278,-7.61041,0,3.87754,7.31918,1.01549,13.6585,18.7195,-17.4085,-9.27112,0.905317,-1.55676,-5.18293,0.853659,1.46341
320.906,24.7564,-7.77094,0,3.80808,7.56826,1.07776,14.4207,15.1524,-21.128,-9.30944,0.967588,-1.5879,-4.54268,1.03659,1.58537
320.916,24.5515,-7.89196,0,3.85119,7.84369,0.948428,13.8415,10.7012,-23.75,-9.40524,0.993933,-1.5879,-3.93293,1.28049,1.46341
320.926,24.3499,-7.99693,0,4.00208,8.05445,0.756826,13.1707,5.70122,-24.3902,-9.50344,1.05141,-1.59508,-3.29268,1.28049,1.34146
320.935,24.1566,-8.09212,0,4.12183,8.27719,0.670605,12.3476,0.457317,-24.0549,-9.62319,1.02986,-1.56634,-2.62195,0.762195,0.945122
320.945,24.0013,-8.14984,0,4.33259,8.26282,0.747246,12.1341,-3.71951,-23.0183,-9.77647,1.02507,-1.51365,-2.22561,0.487805,-0.152439
320.956,23.8827,-8.22111,0,4.50264,8.20055,0.641865,12.3171,-4.48171,-21.8293,-9.87706,1.11129,-1.54958,-1.79878,0.121951,-0.670732
320.965,23.7827,-8.22333,0,4.54814,8.18618,0.768801,12.622,-6.21951,-20.7622,-9.94891,1.2023,-1.4418,-1.7378,-0.0914634,-1.52439
320.975,23.688,-8.24295,0,4.48348,8.15983,0.735271,13.1098,-8.59756,-19.878,-10.0208,1.27894,-1.4897,-1.70732,0.152439,-2.59146
320.986,23.6227,-8.30072,0,4.6152,8.08559,0.790356,15.3963,-11.5549,-18.9634,-10.0543,1.37953,-1.60706,-2.71341,0.518293,-3.59756
320.996,23.5913,-8.36391,0,4.87865,7.95386,1.09452,20.4268,-13.689,-19.3293,-10.1142,1.50407,-1.66933,-4.35976,0.853659,-4.93902
321.006,23.587,-8.45358,0,5.23551,7.99458,1.01549,26.7378,-11.7988,-20.0915,-10.1333,1.70046,-1.81063,-6.0061,1.34146,-5.73171
321.015,23.5993,-8.56392,0,5.49178,8.17899,0.313748,28.1707,-7.43902,-19.7561,-10.0615,1.89207,-1.94476,-8.32317,2.22561,-6.21951
321.026,23.5464,-8.47752,0,5.42951,8.85439,-0.0766406,31.3415,-2.07317,-21.5549,-10.2459,1.9232,-1.34121,-10.122,0,-6.31098
321.035,23.267,-8.29137,0,4.83315,11.0363,-0.0646655,31.4634,6.64634,-28.7195,-10.8279,1.60706,-0.728086,-10.8232,-4.05488,-7.40854
321.046,22.7253,-8.01679,0,3.59492,13.4385,1.04662,32.378,10.5183,-38.3537,-11.7308,0.912502,-0.287402,-9.11585,-9.26829,-8.96341
321.056,22.0527,-7.79248,0,2.58662,14.6144,2.28245,28.5366,6.85976,-42.7439,-12.3894,0.102986,-0.522114,-5.21341,-12.2561,-10.8232
321.065,21.5214,-7.65072,0,2.79978,13.1942,2.61536,18.9329,-11.4329,-33.6585,-12.4038,-0.330513,-0.926873,-0.243902,-12.2866,-10.122
321.076,21.3911,-7.59247,0,5.60195,11.5536,2.12678,10.061,-27.7744,-22.1646,-11.5895,-0.368833,-1.26457,3.78049,-9.54268,-6.61585
321.086,21.6353,-7.57235,0,8.28916,10.6411,1.70765,1.82927,-24.2073,-8.81098,-10.7608,-0.0287402,-1.346,7.43902,-9.14634,-1.85976
321.095,22.2147,-7.54734,0,10.4064,9.71659,0.725691,-0.0304878,-2.77439,7.43902,-10.3201,0.263452,-1.26457,12.6829,-9.11585,1.25
321.105,22.8573,-7.47519,0,10.5956,9.52739,-0.821492,6.12805,24.5427,12.8659,-10.3824,0.529299,-1.04902,16.9512,-8.84146,0.884146
321.116,23.1164,-7.34907,0,5.98515,10.2914,-2.09085,21.4024,53.7805,11.4939,-10.6051,0.931663,-0.802332,18.0793,-6.40244,-1.03659
321.126,22.6805,-7.23541,0,0.167651,10.6483,-1.48252,28.0793,63.689,2.86585,-10.8231,1.3484,-0.993933,15.9146,-0.548781,-2.89634
321.135,21.8749,-7.19244,0,-2.36149,9.65193,0.409548,26.5854,41.5244,-7.80488,-10.8111,1.77231,-1.15919,12.8354,6.34146,-3.47561
321.145,20.9223,-7.15578,0,-2.57225,8.27479,1.36995,23.2317,1.21951,-17.3171,-10.6842,2.15791,-1.16158,8.38415,12.5,-1.89024
321.156,20.0114,-7.06539,0,-1.47054,7.33115,1.15679,23.0488,-37.0732,-27.1037,-10.5405,2.27287,-0.883762,3.59756,16.2805,1.18902
321.165,19.3595,-6.90799,0,0.57241,7.07249,0.974773,30.122,-50.0305,-35.122,-10.653,2.05972,-0.55804,-1.58537,18.5671,3.62805
321.175,18.9018,-6.66308,0,2.17707,8.22929,-0.0287402,32.6829,-43.5671,-37.439,-11.0794,1.41067,-0.122146,-6.34146,18.5366,2.86585
321.186,18.4923,-6.32074,0,3.05844,10.1285,-2.37586,29.9085,-35.122,-37.5,-11.6542,0.713716,0.419128,-9.5122,15.7317,-1.03659
321.196,18.0247,-5.9114,0,2.84049,11.3572,-2.86444,30.3354,-27.7744,-38.628,-11.6829,0.244292,0.831072,-11.6768,10.6707,-5.33537
321.205,17.4297,-5.47967,0,1.85854,11.9224,-1.77471,28.7195,-20.9756,-42.0122,-11.544,-0.110171,1.01549,-13.9939,7.68293,-8.71951
321.216,16.7648,-5.0002,0,1.22386,11.4841,-0.696951,24.1159,-13.872,-44.6951,-11.0506,-0.397573,1.28852,-16.6768,6.4939,-10.3049
321.226,16.0694,-4.48428,0,0.974773,10.5357,-0.313748,20.3049,-10.2744,-47.5305,-10.2267,-0.543669,1.4442,-20.3659,6.52439,-10.5488
321.235,15.3598,-3.97605,0,1.02267,9.80281,-0.431104,16.7683,-11.0671,-51.7683,-9.23999,-0.759221,1.35319,-23.811,6.64634,-9.11585
321.246,14.6127,-3.33951,0,0.866997,9.34537,-0.902922,13.3537,-15,-55.7012,-8.98611,-0.536484,1.87051,-28.0793,5.06098,-6.7378
321.256,13.821,-2.68975,0,0.725691,9.3765,-1.29092,10.4573,-22.561,-60,-8.70111,-0.55325,1.91362,-31.1585,4.69512,-4.11585
321.265,13.0211,-2.07562,0,0.701741,9.23759,-1.87291,9.2378,-29.3902,-62.2866,-8.68913,-0.462239,1.82021,-33.7195,4.26829,-1.43293
321.275,12.2432,-1.51829,0,0.706531,9.0412,-2.23455,10.0305,-32.5915,-61.9207,-8.80409,-0.241897,1.67172,-35.0305,3.84146,2.07317
321.285,11.4648,-1.06102,0,0.438289,8.91426,-2.30161,12.8354,-32.1341,-60.1829,-9.04838,-0.287402,1.40109,-35.4268,3.44512,4.14634
321.296,10.7134,-0.730449,0,0.416733,9.15137,-2.68721,12.8049,-28.3232,-58.5976,-9.331,-0.407153,1.06578,-35.8232,3.35366,4.63415
321.306,9.97689,-0.501627,0,0.270637,9.09868,-2.80696,13.7805,-30.3963,-56.7683,-9.54415,-0.742456,0.785566,-34.8171,3.59756,3.56707
321.316,9.28484,-0.352755,0,0.399968,9.09389,-2.73511,14.8171,-35.061,-55.3963,-9.74294,-1.12805,0.526904,-33.0183,3.65854,1.18902
321.325,8.6848,-0.284843,0,0.946033,9.36213,-2.6441,14.8171,-33.5671,-54.0549,-9.84353,-1.45857,0.227527,-30.8232,3.90244,-0.97561
321.336,8.1567,-0.236484,0,1.29092,9.50344,-2.44052,15.0305,-32.2561,-51.9512,-9.99921,-1.71723,0.160466,-28.7805,3.84146,-3.47561
321.346,7.66974,-0.219446,0,1.42983,9.51302,-2.28964,13.5976,-29.4207,-50.4878,-9.94652,-1.68609,0.0311353,-26.9817,3.01829,-5.09146
321.356,7.18933,-0.217143,0,1.26936,9.63277,-1.97829,13.0488,-28.1098,-48.689,-9.73815,-1.53281,-0.0263452,-25.8537,2.65244,-5.09146
321.365,6.67357,-0.212848,0,0.910107,9.63995,-1.83219,11.9817,-28.0488,-48.9634,-9.54176,-1.31247,-0.0215552,-25.0915,1.82927,-4.05488
321.375,6.10298,-0.227321,0,0.364043,9.62319,-1.52563,10.8841,-28.75,-49.0244,-9.50823,-1.16398,-0.0742456,-25.9451,1.58537,-2.95732
321.386,5.50893,-0.294194,0,0.105381,9.56571,-1.50168,10.0305,-29.0244,-49.4512,-9.41243,-1.06339,-0.191602,-26.9207,1.25,-1.52439
321.396,4.92066,-0.388978,0,0.00958008,9.4747,-1.49689,9.35976,-30.061,-48.9024,-9.33339,-0.958008,-0.227527,-27.9878,0.945122,-0.27439
321.406,4.3678,-0.508518,0,0.138911,9.51302,-1.67651,8.90244,-31.8902,-48.0793,-9.24717,-0.859812,-0.251477,-28.9939,0.731707,1.09756
321.416,3.86704,-0.72275,0,0.428708,9.4244,-1.7771,8.20122,-34.2073,-47.5,-9.2328,-0.874182,-0.342488,-29.4207,0.335366,2.46951
321.425,3.38425,-1.00563,0,0.555645,9.46033,-1.86333,8.35366,-36.128,-48.2317,-9.25196,-0.948428,-0.407153,-29.3293,-0.0609756,3.47561
321.435,2.9107,-1.29179,0,0.617915,9.44356,-2.02858,8.32317,-35.6402,-49.0549,-9.28789,-1.09692,-0.483794,-29.0244,-0.121951,3.59756
321.445,2.46751,-1.59301,0,0.828677,9.39327,-2.23455,9.05488,-30.7012,-49.5732,-9.331,-1.26218,-0.622705,-28.2622,-0.335366,3.65854
321.456,2.04131,-1.77009,0,0.902922,9.31184,-2.29922,10.1524,-24.878,-49.7561,-9.30465,-1.3939,-0.565225,-26.9817,-0.731707,3.62805
321.465,1.62838,-1.99499,0,0.972378,9.27591,-2.18426,11.5549,-17.378,-50.1829,-9.23759,-1.55676,-0.692161,-24.878,-0.853659,3.56707
321.475,1.21282,-2.27531,0,0.883762,9.25436,-2.14594,12.6524,-10.8232,-50.2134,-9.20885,-1.70286,-0.785566,-22.9878,-0.701219,3.68902
321.486,0.784379,-2.55387,0,0.761616,9.15856,-2.16031,13.4451,-6.06707,-50.9451,-9.13221,-1.79626,-0.773591,-20.6098,-0.579268,4.02439
321.496,0.315932,-2.73283,0,0.440684,9.14658,-2.11959,13.1402,-2.0122,-51.8293,-9.06515,-1.82021,-0.744851,-19.2378,-1.09756,5.12195
321.506,-0.177632,-2.8931,0,0.273032,9.3286,-2.14354,12.9268,-0.701219,-53.1402,-8.94779,-1.83219,-0.773591,-17.7744,-1.4939,6.21951
321.516,-0.69612,-3.05521,0,0.0407153,9.31663,-2.20821,11.5549,0.396341,-53.7805,-8.87115,-1.76034,-0.871787,-16.8902,-2.07317,7.59146
321.526,-1.22685,-3.27906,0,-0.0934058,9.44596,-2.07648,11.4634,-0.365854,-54.4207,-8.79451,-1.71244,-0.991538,-16.189,-1.85976,9.11585
321.536,-1.7789,-3.47932,0,-0.301772,9.27112,-2.13157,10.2744,1.09756,-55.0305,-8.74182,-1.67412,-1.0107,-15.3354,-2.16463,10.3659
321.546,-2.33739,-3.70081,0,-0.416733,9.16334,-2.04056,10.5793,-2.62195,-55.3049,-8.76098,-1.65496,-1.08494,-14.1768,-2.07317,11.8598
321.556,-2.90232,-3.98552,0,-0.534089,9.04359,-1.89925,10.8841,-3.41463,-55.5183,-8.78014,-1.70286,-1.26218,-12.8049,-1.95122,12.622
321.566,-3.42315,-4.31083,0,-0.270637,8.90947,-2.01421,10.7622,-0.518293,-55.5183,-8.80409,-1.75794,-1.46575,-10.8537,-2.07317,13.5671
321.576,-3.91414,-4.66896,0,-0.184417,9.01246,-1.94476,9.48171,-7.46951,-54.6951,-8.81128,-1.84896,-1.5376,-7.89634,-1.82927,14.0854
321.586,-4.38059,-4.90116,0,-0.292192,9.01964,-2.0693,7.62195,-12.5,-51.7988,-8.79212,-1.88009,-1.31726,-5.2439,-2.04268,14.2073
321.596,-4.75997,-5.05673,0,0.198787,9.07233,-2.51477,7.5,-10.4878,-50.2134,-8.68195,-1.89925,-1.2023,-2.28659,-2.65244,14.6951
321.605,-5.14065,-5.19777,0,0.0239502,8.94779,-2.48843,6.70732,-16.189,-48.872,-8.52387,-1.85614,-1.17835,1.06707,-2.9878,15.2134
321.616,-5.45764,-5.37809,0,0.376018,9.01246,-2.46927,5.64024,-12.1341,-47.7134,-8.47837,-1.69567,-1.25499,3.53659,-2.62195,16.0061
321.626,-5.75046,-5.72046,0,0.440684,9.19687,-2.29922,4.69512,-10.2744,-46.6159,-8.54064,-1.44659,-1.31966,5.70122,-1.28049,16.7988
321.635,-6.01764,-6.06973,0,0.55325,9.30226,-2.22018,3.81098,-6.06707,-45.9451,-8.79451,-1.08973,-1.5855,7.37805,1.52439,17.5305
321.646,-6.27512,-6.25146,0,0.502954,9.5202,-2.0669,3.10976,-8.29268,-44.7256,-9.29986,-0.878972,-1.71244,8.20122,4.05488,17.439
321.655,-6.53084,-6.27801,0,0.320933,9.68306,-2.09804,1.70732,-14.6037,-42.7744,-9.87467,-0.955613,-1.19272,8.38415,4.45122,16.5549
321.666,-6.73629,-6.28168,0,0.467029,9.6639,-2.62015,-2.10366,-19.3293,-39.939,-10.3944,-0.673001,-1.15679,7.22561,3.62805,14.0854
321.676,-6.892,-6.21493,0,0.428708,9.61361,-2.88121,-6.28049,-23.1098,-34.8476,-10.5285,-0.807122,-0.888552,5.12195,1.70732,11.9207
321.685,-7.00236,-6.07502,0,0.361648,9.8124,-2.91953,-8.68902,-22.4695,-29.6341,-10.6411,-0.850232,-0.735271,2.31707,-0.365854,10.5183
321.695,-7.0429,-6.0761,0,0.593965,10.0423,-3.01533,-11.0671,-20.9756,-25.3354,-10.6411,-0.895737,-1.13763,-0.426829,-1.12805,10
321.706,-7.02706,-6.28822,0,0.902922,10.0519,-2.95306,-11.311,-16.6159,-23.2317,-10.3776,-0.850232,-1.90404,-1.64634,1.34146,10.8841
321.716,-6.99351,-6.65399,0,1.01309,10.2483,-2.87163,-10.5183,-7.16463,-22.439,-10.0711,-0.950823,-2.7878,-0.731707,6.03659,12.8659
321.726,-6.97755,-7.13751,0,0.840652,10.471,-2.79978,-8.47561,-3.17073,-22.0122,-10.1477,-1.22625,-3.45601,2.40854,11.4329,13.4146
321.735,-6.99143,-7.69451,0,0.61073,10.8087,-2.73751,-7.19512,-2.71341,-22.2561,-10.198,-1.49928,-3.93981,7.80488,16.189,13.4451
321.745,-6.99015,-8.16113,0,0.680186,10.8423,-2.8381,-7.56098,-3.10976,-21.4634,-10.3609,-1.82261,-3.64522,12.8659,19.1159,12.3171
321.756,-6.93562,-8.4588,0,1.00112,10.9836,-2.8357,-10.2134,-7.56098,-19.3293,-11.0243,-2.16749,-3.07281,16.4634,20.8537,10.3659
321.766,-6.80927,-8.59229,0,1.38911,11.2638,-2.95785,-14.0549,-11.4939,-15.6098,-11.9895,-1.97589,-2.49082,18.1402,18.872,7.59146
321.775,-6.58158,-8.67704,0,1.94955,11.3883,-3.00096,-17.6829,-10.9146,-10.4878,-12.6936,-1.45857,-2.38544,19.4207,18.0488,5.4878
321.786,-6.24368,-8.72581,0,2.35909,11.3859,-2.74469,-21.0976,-11.4939,-3.20122,-13.2037,-0.948428,-2.28485,19.4207,18.4146,3.5061
321.796,-5.78205,-8.69871,0,2.72553,11.1512,-2.30161,-24.0854,-10.7927,6.31098,-13.3283,-0.510139,-1.86093,17.8354,18.7805,1.85976
321.806,-5.15123,-8.53983,0,3.30992,10.8231,-1.93997,-27.5305,-9.96951,17.8659,-12.8229,-0.138911,-1.03225,14.1159,17.0122,2.34756
321.816,-4.36467,-8.16367,0,3.69552,10.8063,-1.72681,-32.2561,-10.4878,31.2195,-12.1739,0.0958008,0.217947,8.81098,13.4451,4.84756
321.825,-3.4507,-7.62053,0,3.8488,10.9093,-1.50647,-38.5366,-10.5793,44.6951,-11.7548,0.162861,1.152,4.20732,9.20732,7.86585
321.836,-2.46461,-7.04609,0,3.45362,10.8159,-1.22146,-47.3476,-6.98171,57.439,-12.2242,0.143701,1.48252,2.95732,6.61585,9.20732
321.846,-1.49967,-6.42634,0,2.34712,10.6674,-1.23823,-58.628,2.37805,68.1098,-12.8876,2.04774,1.76034,-6.98171,-0.213415,8.47561
321.855,-0.585655,-5.99001,0,1.03944,10.1669,-0.584385,-63.872,11.4329,78.2927,-11.7404,0.399968,0.953218,6.09756,10.061,5.33537
321.866,0.348768,-5.62736,0,0.225132,9.46033,0.905317,-57.9268,10.3049,91.3719,-10.4327,0.225132,0.589175,10.5488,13.0183,1.79878
321.875,1.43101,-5.23116,0,0.165256,9.38129,0.488584,-53.4756,5.51829,109.085,-9.48667,-0.330513,0.737666,16.4329,13.8415,-2.34756
321.885,2.61685,-4.77203,0,-0.201182,9.37411,0.311353,-48.5366,-7.7439,126.433,-8.73943,-1.01549,0.984353,24.3293,12.8354,-5.21341
321.896,3.78609,-4.29571,0,-1.27415,9.99202,-0.342488,-42.6829,-26.128,139.482,-8.35143,-1.60466,1.07057,32.1341,10.3659,-7.0122
321.905,4.90381,-3.79339,0,-2.06211,11.0818,-1.20948,-34.878,-31.7988,143.293,-8.66518,-1.83219,1.27415,37.8049,6.92073,-6.85976
321.915,5.92257,-3.23337,0,-2.74948,12.5212,-1.55676,-28.5061,-36.1585,139.238,-9.3789,-1.56155,1.33882,40.7317,2.56098,-4.84756
321.926,6.86241,-2.45833,0,-2.68242,13.199,-1.50168,-23.9939,-36.9512,131.433,-10.3273,-0.761616,1.12805,40.7927,0,0.640244
321.936,7.80927,-2.03691,0,-1.5376,13.0289,-1.48012,-18.7805,-32.561,124.36,-10.78,0.344883,0.804727,38.5061,-0.213415,7.77439
321.945,8.80574,-1.81071,0,-0.376018,12.5212,-0.883762,-14.7256,-29.4512,121.128,-11.0363,1.06339,0.60594,34.8171,1.64634,14.6951
321.956,9.89466,-1.65356,0,0.730481,11.9583,-0.167651,-12.4085,-21.5854,121.951,-10.8566,1.66933,0.407153,30.5488,4.32927,18.75
321.966,10.9754,-1.50737,0,0.785566,11.2063,0.584385,-6.40244,-16.4939,122.287,-10.6267,2.04535,0.383203,25.4573,6.37195,21.0671
321.975,12.0209,-1.38815,0,0.998723,11.6518,0.570015,1.46341,-7.89634,119.085,-9.9058,1.6813,0.265847,20.7012,7.43902,20.5183
321.985,13.0727,-1.25372,0,1.45857,11.9464,0.141306,5.82317,3.01829,117.652,-9.4723,1.00591,0.332908,17.9268,5.94512,17.0732
321.996,14.0847,-1.14495,0,1.31726,11.6087,-0.191602,9.08537,14.1463,116.738,-9.54655,0.349673,0.208367,17.5915,3.20122,12.8354
322.005,15.0597,-1.06733,0,1.20948,10.9524,-0.481399,12.6524,23.7195,115.366,-9.82437,-0.0886157,-0.0670605,19.2378,-0.182927,9.84756
322.016,15.9739,-1.12905,0,1.02986,10.586,-0.704136,18.3232,29.2378,112.683,-9.96807,-0.340093,-0.423918,22.0122,-2.40854,9.02439
322.026,16.8699,-1.24312,0,1.34121,10.4806,-0.651445,22.2561,37.0427,109.146,-9.88425,-0.426313,-0.646655,25.061,-2.80488,10.0305
322.035,17.7663,-1.32553,0,1.87291,10.5549,-0.689766,23.0793,49.9695,105.366,-9.63995,-0.352068,-0.531694,26.9207,-3.17073,11.7988
322.046,18.6043,-1.35296,0,1.89207,10.562,-0.622705,20.4878,65.8841,101.037,-9.22801,-0.148491,-0.318538,28.1402,-3.62805,14.2073
322.055,19.4016,-1.31262,0,1.96392,10.1357,-0.457449,17.4085,77.439,96.9512,-8.88073,0.126936,-0.0646655,28.2012,-4.35976,16.0671
322.066,20.2768,-1.24163,0,3.24525,9.63516,-0.62031,13.628,102.043,90.9146,-8.51429,0.411943,0.0550855,26.7988,-4.96951,17.4085
322.076,20.9556,-1.179,0,2.24413,9.15376,-0.261057,10.5183,108.902,82.5305,-8.33946,0.63947,0.0359253,23.689,-5.2439,17.7439
322.085,21.4659,-1.11033,0,1.60227,8.86636,-0.651445,6.82927,123.689,73.9329,-8.30114,0.979563,0.0694556,19.7561,-5.70122,17.1037
322.096,21.7263,-1.10371,0,0.265847,8.53824,-0.306563,2.04268,121.433,66.7378,-8.14786,1.36995,-0.138911,16.0061,-6.03659,17.0732
322.105,21.8109,-1.08494,0,-0.550855,8.3203,-0.172441,-3.35366,113.598,60.7012,-8.41131,1.6334,-0.0981958,11.9817,-7.56098,16.9512
322.116,21.6735,-1.04981,0,-1.8274,7.92033,0.316143,-5.60976,106.25,57.0122,-8.58375,1.88967,-0.0359253,7.56098,-8.23171,17.1951
322.126,21.3258,-1.04945,0,-3.07521,7.47486,0.740061,-1.58537,85.2134,54.3902,-8.84481,1.91841,-0.167651,3.59756,-9.11585,16.311
322.135,20.9763,-1.06886,0,-2.59381,6.96472,0.799937,5.85366,65.8841,49.5427,-9.00527,1.85375,-0.249082,-0.945122,-9.08537,15.0305
322.146,20.5841,-1.1253,0,-2.39502,6.74438,0.546064,9.63415,48.5061,42.6829,-9.14179,1.67172,-0.404758,-4.17683,-8.5061,12.8659
322.156,20.1461,-1.19701,0,-2.26569,6.36357,0.517324,10.8841,31.189,37.3171,-9.11784,1.51365,-0.474214,-7.62195,-8.53659,10.4573
322.166,19.6798,-1.28405,0,-2.05732,6.4905,0.756826,12.6829,8.35366,29.4207,-9.01725,1.38911,-0.541274,-10.2439,-8.47561,7.40854
322.175,19.1852,-1.40802,0,-1.77471,6.53601,0.627495,13.3841,-9.57317,20.7012,-8.8496,1.24781,-0.689766,-12.439,-8.90244,5.27439
322.186,18.6536,-1.57999,0,-1.48491,6.48092,0.783171,16.128,-29.9085,11.2805,-8.74182,1.11608,-0.886157,-14.3598,-8.5061,3.44512
322.195,18.6515,-1.82329,0,-1.00351,6.82102,0.797541,16.128,-42.6829,-0.213415,-8.69392,0.900527,-1.18074,-16.1585,-7.16463,1.76829
322.206,18.0819,-2.15695,0,-0.534089,6.79707,0.802332,16.9817,-54.4817,-10.8537,-8.67955,0.687371,-1.49689,-17.622,-4.45122,0.731707
322.216,17.5092,-2.70632,0,-0.0311353,6.84497,0.543669,18.0793,-63.5061,-21.0061,-8.77056,0.58199,-1.7771,-18.9939,-2.22561,-0.152439
322.226,16.9742,-3.92525,0,0.699346,7.16111,0.323328,16.4939,-66.7683,-30.2439,-8.95498,0.57241,-1.90404,-19.6341,-0.457317,-0.823171
322.236,16.5079,-4.72346,0,1.83698,7.81255,0.273032,12.9573,-65.3659,-39.939,-9.21364,0.61552,-1.99266,-19.8171,0.670732,-0.640244
322.245,16.1512,-5.53074,0,3.36979,8.25803,0.512534,8.17073,-57.6829,-48.0183,-9.38848,0.680186,-1.94955,-20.0305,0.213415,-0.396341
322.255,15.8924,-6.14962,0,5.07984,8.80888,0.560435,2.19512,-50.5793,-54.6037,-9.43638,0.613125,-1.95673,-19.7561,-0.396341,-0.365854
322.266,15.7603,-6.43552,0,7.27846,9.24717,0.651445,-8.53659,-37.1646,-59.0244,-9.63995,0.522114,-2.03816,-17.8963,-2.0122,-0.487805
322.276,15.7733,-6.66544,0,9.20885,9.34297,0.330513,-16.0976,-20.4573,-57.5,-9.66869,0.404758,-1.94955,-14.3598,-2.37805,-0.27439
322.286,15.971,-6.8086,0,10.7848,9.36692,-0.483794,-15.7317,-12.9573,-47.6829,-9.83874,0.277822,-1.72202,-10.6098,-2.68293,0.518293
322.295,16.38,-6.94736,0,12.3272,9.32381,-1.90883,0.152439,-3.75,-33.628,-9.93933,0.102986,-1.70286,-6.40244,-1.98171,1.43293
322.306,16.9092,-7.09918,0,12.981,9.86269,-3.77216,20.4573,15.9756,-20.2744,-10.0016,-0.112566,-1.69807,-2.59146,-1.18902,2.86585
322.316,17.4706,-7.36373,0,11.5919,10.6315,-4.16733,23.3232,44.3598,-5.09146,-10.0327,-0.141306,-1.93278,1.58537,0.548781,3.9939
322.326,18.1303,-7.57513,0,10.2219,10.7728,-3.56618,22.378,67.6219,14.2073,-10.0663,-0.0718506,-2.213,4.84756,3.04878,5.2439
322.336,18.9825,-7.81922,0,9.24717,10.3872,-2.07888,29.8171,73.6585,38.9024,-10.1022,0.0981958,-2.46208,6.25,6.58537,5.97561
322.345,20.0122,-8.03431,0,8.48795,9.30226,-0.764011,42.1951,71.7683,57.3171,-10.3225,0.397573,-2.42136,5.03049,10,5.21341
322.355,20.9983,-8.20923,0,7.2593,8.72266,-0.538879,53.3841,62.3171,60.3049,-10.6674,0.773591,-2.34472,2.56098,11.0671,4.2378
322.366,21.6508,-8.268,0,5.22354,9.00767,-0.174836,53.628,50.8232,47.9878,-11.2111,1.09692,-1.90404,-0.945122,11.0061,3.04878
322.375,21.8022,-8.25453,0,3.13029,10.5333,0.617915,49.3598,45.2744,25.8537,-11.7907,1.13284,-1.6334,-3.5061,8.23171,2.46951
322.385,21.5382,-8.26996,0,1.83219,12.6457,1.20709,46.6463,44.1463,1.40244,-12.387,0.723296,-1.8753,-3.78049,7.10366,2.92683
322.396,21.026,-8.3763,0,0.720901,13.0121,0.807122,41.6159,43.2927,-14.7866,-12.7128,0.0407153,-2.4501,-2.9878,9.42073,4.60366
322.406,20.3553,-8.49746,0,-0.555645,11.9416,1.49928,25.6707,28.1402,-20.0915,-12.7631,-0.0814307,-2.56507,-2.34756,14.5732,7.71341
322.415,20.0766,-8.48905,0,3.30034,10.2411,2.50998,11.5854,38.1098,-23.3537,-12.5715,0.162861,-1.81063,-2.59146,18.0488,12.1646
322.425,20.0827,-8.38432,0,5.39119,9.54176,3.72665,0.579268,40.2744,-18.5366,-12.1356,0.440684,-1.22146,-5.42683,19.5732,15.6098
322.436,20.0044,-8.20985,0,4.28948,9.46272,0.447869,16.2195,37.3476,-16.7683,-11.7524,0.713716,-0.797541,-8.81098,19.4512,15.2744
322.445,19.7036,-7.91397,0,3.02251,11.4961,-2.16749,9.05488,48.0183,-19.939,-11.5703,0.943638,-0.131726,-10.9451,17.3171,12.9268
322.456,18.9946,-7.52595,0,-0.301772,10.7201,-1.79626,9.11585,29.0854,-28.8415,-11.4099,1.28613,0.390388,-13.7195,15.2134,10.6402
322.466,17.8176,-7.09681,0,-3.01054,9.50104,-1.87051,15.4268,4.66463,-45.4573,-11.3596,1.56874,0.670605,-17.7744,13.628,9.7561
322.475,16.2806,-6.56719,0,-4.72058,8.87115,-0.64905,17.4695,-22.1037,-63.2927,-11.3452,1.45857,1.25978,-22.4085,11.8902,10.1829
322.485,14.8161,-5.94564,0,-3.6045,9.52978,-0.696951,19.9695,-54.0854,-73.9329,-11.35,0.936453,1.83219,-28.0793,8.59756,10.7927
322.495,13.7195,-5.21084,0,-0.59157,9.6639,-1.6813,29.939,-60.7927,-74.5122,-11.0842,0.397573,2.44531,-34.2988,3.71951,11.2805
322.506,12.9759,-4.34572,0,2.01182,10.7967,-3.36021,28.2317,-36.9817,-69.4207,-10.4926,-0.220342,2.7423,-40.4268,-1.95122,12.9268
322.515,12.2728,-3.6293,0,1.9711,10.9404,-3.18777,22.1646,-19.0854,-66.0976,-10.0974,-0.505349,2.45729,-44.1159,-6.28049,15.0305
322.525,11.4973,-3.00356,0,1.16637,10.6626,-2.71356,13.6585,-9.81707,-66.8293,-9.86988,-0.677791,2.11959,-45.5793,-7.28659,16.4634
322.536,10.5628,-2.53021,0,-0.296982,10.0519,-2.46927,10.3354,-3.87195,-68.4451,-9.81958,-0.869392,1.5376,-43.8415,-7.22561,17.4695
322.545,9.57221,-2.18772,0,-0.828677,9.51302,-2.69919,8.62805,-1.76829,-69.3598,-9.92975,-1.11847,1.0562,-39.2073,-6.98171,17.0427
322.556,8.61051,-1.96763,0,-0.955613,9.31663,-2.73032,8.29268,-8.53659,-66.6463,-10.21,-1.47533,0.593965,-31.8293,-7.04268,14.2988
