time,angle1,angle2,intgangle,accX1,accY1,accZ1,gyroX1,gyroY1,gyroZ1,accX2,accY2,accZ2,gyroX2,gyroY2,gyroZ2
426.976,71.0176,10.9427,0,8.8975,3.08718,3.44404,-0.548781,-0.365854,-2.07317,-9.67588,-0.193997,1.89446,0.426829,-1.46341,6.06707
426.987,70.9991,10.9778,0,8.89271,3.08239,3.41051,-0.609756,-0.0304878,-1.52439,-9.68546,-0.234712,1.97589,0.914634,-1.31098,6.0061
426.996,70.9885,10.9945,0,8.90947,3.05125,3.44883,-0.426829,-0.27439,-1.37195,-9.69264,-0.222737,1.93278,0.609756,-1.58537,5.82317
427.007,70.9851,11.0187,0,8.89271,3.01054,3.41051,-0.823171,-0.426829,-1.28049,-9.65193,-0.186812,1.94955,0.579268,-1.52439,5.94512
427.016,70.9969,11.0525,0,8.91666,2.96982,3.30034,-0.792683,0.213415,-0.884146,-9.63516,-0.162861,1.97829,0.792683,-1.46341,5.88415
427.026,71.0086,11.079,0,8.87355,2.96264,3.38416,-1.0061,0.213415,-0.792683,-9.60163,-0.119751,1.96152,0.853659,-1.79878,6.21951
427.036,71.0254,11.0952,0,8.88073,2.9339,3.45601,-1.12805,-0.121951,-0.823171,-9.61361,-0.148491,1.93518,0.945122,-1.82927,6.37195
427.046,71.0371,11.1086,0,8.85439,2.9339,3.49673,-1.0061,-0.152439,-0.97561,-9.69025,-0.136516,1.93997,0.97561,-1.40244,6.09756
427.056,71.0455,11.1248,0,8.87355,2.92432,3.48475,-0.670732,-0.304878,-1.31098,-9.70941,-0.146096,1.95673,0.762195,-1.4939,6.25
427.067,71.0522,11.1294,0,8.93582,2.94827,3.47517,-0.518293,-0.426829,-1.34146,-9.71899,-0.150886,1.9232,1.0061,-1.15854,6.43293
427.076,71.072,11.1247,0,8.95737,2.91474,3.38895,-0.365854,-0.579268,-1.0061,-9.72378,-0.193997,1.89925,0.884146,-1.0061,6.55488
427.086,71.0935,11.1262,0,8.98611,2.8836,3.43446,-0.457317,-0.27439,-1.21951,-9.69025,-0.122146,1.90883,0.487805,-1.09756,6.55488
427.096,71.1079,11.1415,0,8.96216,2.91474,3.42248,-0.426829,0.0914634,-1.21951,-9.61361,-0.0838257,1.92799,0.609756,-0.945122,6.70732
427.106,71.1367,11.1522,0,8.96695,2.85965,3.4153,-0.426829,-0.27439,-1.0061,-9.62558,-0.0958008,1.9232,0.487805,-1.09756,6.70732
427.116,71.1746,11.1497,0,8.95977,2.81894,3.39135,-0.365854,0.121951,-0.914634,-9.59684,-0.0646655,1.88728,0.304878,-0.304878,6.82927
427.126,71.2058,11.1591,0,8.91426,2.81894,3.4129,-0.152439,0.0914634,-1.03659,-9.5705,-0.0886157,1.90165,-0.121951,0.182927,6.92073
427.136,71.2364,11.1627,0,8.90229,2.81415,3.41051,-0.609756,0.457317,-1.03659,-9.56331,-0.105381,1.89446,0.152439,0.609756,6.76829
427.146,71.2576,11.1689,0,8.91905,2.84049,3.44164,-0.0304878,0.792683,-1.21951,-9.57768,-0.126936,1.90404,-0.243902,0.701219,6.98171
427.156,71.2756,11.1762,0,8.91666,2.85007,3.45362,-0.0609756,0.701219,-1.25,-9.57529,-0.160466,1.91123,-0.335366,1.18902,6.67683
427.166,71.2911,11.185,0,8.93342,2.86684,3.43206,-0.243902,0.396341,-1.25,-9.57529,-0.143701,1.91841,-0.396341,1.37195,6.55488
427.176,71.2935,11.1898,0,8.89989,2.87642,3.46799,0.152439,0.487805,-1.82927,-9.59684,-0.182021,1.91362,-0.518293,1.52439,6.64634
427.187,71.2957,11.1748,0,8.91426,2.90516,3.47517,0.182927,-0.121951,-1.58537,-9.59445,-0.146096,1.85375,-0.487805,1.52439,6.61585
427.196,71.2955,11.1895,0,8.92384,2.91474,3.40811,-0.0914634,0.121951,-1.67683,-9.62798,-0.170046,1.94955,-0.518293,1.58537,6.70732
427.206,71.2941,11.1772,0,8.91426,2.95545,3.44883,0.152439,-0.0304878,-1.25,-9.6639,-0.155676,1.87291,-0.335366,1.70732,6.67683
427.216,71.2924,11.1766,0,8.93342,2.95066,3.47757,0,0.396341,-1.40244,-9.67588,-0.148491,1.91123,-0.396341,1.37195,6.67683
427.226,71.2887,11.1808,0,8.93821,2.95785,3.39614,0,0.0304878,-1.4939,-9.68546,-0.160466,1.92799,-0.426829,1.4939,6.43293
427.236,71.2833,11.1837,0,8.93342,2.96982,3.41051,-0.182927,0.121951,-1.46341,-9.68306,-0.148491,1.9232,-0.548781,1.15854,6.52439
427.247,71.2841,11.1796,0,8.93342,2.95545,3.42248,-0.335366,0.457317,-1.18902,-9.7118,-0.165256,1.90883,-0.548781,1.37195,6.82927
427.256,71.2823,11.1753,0,8.91666,2.95306,3.44643,0.0304878,0.487805,-1.34146,-9.70222,-0.124541,1.90644,-0.670732,1.09756,7.0122
427.266,71.2786,11.1843,0,8.92624,2.97222,3.43446,-0.335366,0.487805,-1.28049,-9.69025,-0.179626,1.94236,-0.518293,1.31098,6.85976
427.276,71.2738,11.2126,0,8.91905,2.97701,3.43685,-0.548781,0.457317,-1.28049,-9.70941,-0.129331,1.99505,-0.701219,0.945122,7.07317
427.287,71.2755,11.2078,0,8.94779,2.94827,3.44643,-0.426829,0.243902,-1.28049,-9.65672,-0.129331,1.90165,-0.914634,1.31098,7.19512
427.296,71.2733,11.2149,0,8.91187,2.95306,3.43446,-0.426829,0.457317,-1.37195,-9.68546,-0.117356,1.93997,-0.762195,1.15854,7.04268
427.306,71.2793,11.2119,0,8.91426,2.90755,3.45362,-0.518293,0.243902,-1.34146,-9.6639,-0.153281,1.90883,-0.884146,1.09756,7.0122
427.317,71.2798,11.2179,0,8.87115,2.93869,3.42967,-0.396341,0.762195,-1.18902,-9.65911,-0.160466,1.93278,-0.762195,1.18902,6.98171
427.326,71.2829,11.2187,0,8.85199,2.91953,3.50152,-0.701219,0.762195,-1.15854,-9.63277,-0.172441,1.91362,-0.762195,1.15854,6.98171
427.336,71.2865,11.2096,0,8.86636,2.9339,3.45122,-0.304878,0.518293,-1.0061,-9.63037,-0.182021,1.88728,-0.792683,1.03659,7.04268
427.346,71.2989,11.1929,0,8.88552,2.89558,3.48475,0,0.457317,-0.97561,-9.63756,-0.177231,1.86333,-0.670732,1.28049,7.04268
427.356,71.3078,11.1692,0,8.91426,2.91713,3.44404,0.152439,0.304878,-1.0061,-9.64953,-0.165256,1.84177,-0.518293,1.31098,7.19512
427.366,71.3162,11.1417,0,8.91666,2.92192,3.43446,0,0.182927,-0.97561,-9.65193,-0.148491,1.825,-0.609756,1.40244,7.5
427.376,71.3248,11.1489,0,8.96695,2.91474,3.42727,0,0.0914634,-1.18902,-9.64953,-0.141306,1.9232,-0.579268,1.40244,7.28659
427.386,71.3329,11.1438,0,8.95258,2.92671,3.38895,-0.182927,0.609756,-1.03659,-9.6663,-0.143701,1.89207,-0.548781,1.12805,7.53049
427.396,71.3449,11.1175,0,8.93821,2.89318,3.45122,-0.121951,0.670732,-1.09756,-9.65672,-0.179626,1.81782,-0.365854,1.70732,7.2561
427.406,71.3588,11.1016,0,8.943,2.89797,3.39374,-0.152439,0.945122,-0.945122,-9.67348,-0.167651,1.84896,-0.670732,1.79878,7.2561
427.417,71.3657,11.0654,0,8.92863,2.91953,3.42727,-0.152439,0.884146,-1.03659,-9.68785,-0.162861,1.78668,-0.701219,1.58537,7.2561
427.426,71.3762,11.0335,0,8.90708,2.89318,3.42727,-0.0914634,0.853659,-1.03659,-9.68067,-0.196392,1.79387,-0.518293,1.55488,7.16463
427.436,71.3823,11.0098,0,8.91905,2.90995,3.41769,-0.304878,0.731707,-1.12805,-9.69025,-0.222737,1.82021,-0.518293,1.34146,7.19512
427.446,71.3825,10.9818,0,8.88313,2.92911,3.37698,-0.457317,0.762195,-1.15854,-9.69504,-0.193997,1.80105,-0.518293,1.46341,7.19512
427.456,71.3838,10.9488,0,8.88073,2.91713,3.41769,-0.243902,0.731707,-1.21951,-9.72378,-0.186812,1.78429,-0.304878,1.4939,7.19512
427.466,71.3955,10.9306,0,8.92384,2.90755,3.44643,-0.518293,0.97561,-0.823171,-9.70222,-0.177231,1.82021,-0.0914634,1.55488,6.98171
427.476,71.3979,10.9148,0,8.90229,2.91713,3.45601,-1.15854,1.0061,-1.18902,-9.71659,-0.146096,1.82979,-0.152439,1.37195,6.95122
427.486,71.4043,10.8895,0,8.91187,2.90516,3.4632,-0.701219,0.884146,-1.09756,-9.72617,-0.153281,1.79626,0,1.52439,6.89024
427.496,71.4169,10.8629,0,8.92145,2.89318,3.47757,-0.823171,0.823171,-0.884146,-9.74533,-0.165256,1.79387,0,1.40244,7.16463
427.506,71.4263,10.8419,0,8.88073,2.89558,3.47038,-0.640244,0.701219,-0.884146,-9.68546,-0.146096,1.80584,0.152439,0.945122,7.19512
427.516,71.4401,10.814,0,8.90947,2.86444,3.50152,-0.945122,0.914634,-1.03659,-9.69743,-0.138911,1.77471,0.121951,1.37195,7.13415
427.526,71.4474,10.8221,0,8.89031,2.86923,3.52547,-0.945122,0.579268,-1.28049,-9.74773,-0.153281,1.88488,0.213415,1.0061,7.22561
427.536,71.4614,10.796,0,8.89271,2.85247,3.50631,-0.670732,0.487805,-1.06707,-9.74773,-0.102986,1.78668,0.27439,1.28049,6.98171
427.546,71.4704,10.7718,0,8.89271,2.85726,3.49433,-0.457317,0.213415,-1.28049,-9.70941,-0.100591,1.78908,0,0.97561,7.07317
427.556,71.479,10.747,0,8.86397,2.8381,3.49673,-0.548781,0.0914634,-1.40244,-9.74054,-0.0574805,1.78668,0.243902,1.03659,7.13415
427.567,71.4863,10.7315,0,8.92145,2.86684,3.44404,-0.304878,-0.0914634,-1.34146,-9.70222,-0.0981958,1.80105,-0.182927,1.03659,7.34756
427.576,71.4983,10.7065,0,8.91426,2.85726,3.46559,-0.457317,-0.0304878,-1.12805,-9.69743,-0.0574805,1.77471,-0.518293,0.945122,7.2561
427.587,71.5044,10.6804,0,8.89271,2.85965,3.44643,-0.457317,0.365854,-1.37195,-9.72138,-0.0742456,1.7771,-0.518293,0.731707,7.13415
427.596,71.5087,10.6467,0,8.88073,2.88121,3.47996,-0.243902,0.304878,-1.18902,-9.69504,-0.0526904,1.75076,-0.27439,0.731707,7.43902
427.606,71.5135,10.6346,0,8.90229,2.88121,3.49433,-0.182927,0.213415,-1.21951,-9.68067,-0.117356,1.79147,-0.396341,0.823171,7.28659
427.616,71.5172,10.6223,0,8.89989,2.85965,3.4632,-0.213415,0.304878,-1.52439,-9.69743,-0.122146,1.79387,-0.27439,0.640244,7.16463
427.626,71.5234,10.5782,0,8.89271,2.85247,3.47517,0.0914634,-0.152439,-1.40244,-9.70941,-0.107776,1.73878,-0.548781,0.304878,7.34756
427.636,71.5278,10.562,0,8.90947,2.84768,3.44164,0.182927,-0.243902,-1.61585,-9.72378,-0.124541,1.78429,-0.396341,0.365854,7.28659
427.646,71.5337,10.5638,0,8.90229,2.85726,3.53505,0.0914634,0.0914634,-1.37195,-9.72857,-0.110171,1.81782,-0.518293,0.365854,7.22561
427.656,71.5408,10.5595,0,8.92384,2.84768,3.47278,0.457317,-0.27439,-1.46341,-9.69983,-0.105381,1.80105,-0.457317,0.335366,7.2561
427.667,71.541,10.5634,0,8.90229,2.86923,3.44883,0.426829,0.0304878,-1.61585,-9.7118,-0.100591,1.82021,-0.487805,0.701219,7.19512
427.676,71.5373,10.5675,0,8.8951,2.87402,3.43446,0.304878,0.365854,-1.82927,-9.70701,-0.0958008,1.81782,-0.518293,0.243902,6.98171
427.687,71.5409,10.5447,0,8.91666,2.85247,3.47517,0.152439,0.365854,-1.61585,-9.7118,-0.141306,1.76992,-0.609756,0.27439,7.10366
427.696,71.5356,10.5084,0,8.90468,2.90516,3.42488,0,0.365854,-1.61585,-9.70462,-0.117356,1.74118,-0.304878,0.243902,7.04268
427.706,71.5349,10.5164,0,8.91187,2.86205,3.45841,0.27439,0.335366,-1.79878,-9.74054,-0.143701,1.82021,-0.335366,-0.0609756,7.16463
427.717,71.5342,10.5201,0,8.91905,2.886,3.47757,0.213415,0.213415,-1.55488,-9.74294,-0.143701,1.81542,-0.823171,0.182927,6.85976
427.726,71.5328,10.5038,0,8.92624,2.87163,3.52068,-0.0304878,0.396341,-1.79878,-9.72138,-0.172441,1.7795,-0.640244,0,6.98171
427.736,71.5309,10.5003,0,8.92624,2.86684,3.49912,-0.0914634,0.243902,-1.89024,-9.71899,-0.158071,1.79626,-0.640244,0.0914634,6.67683
427.747,71.5327,10.5243,0,8.93582,2.86444,3.48236,0.0304878,0.335366,-1.67683,-9.7118,-0.148491,1.84177,-0.396341,0.152439,6.98171
427.757,71.535,10.5035,0,8.94061,2.87163,3.44404,0.0304878,0.487805,-1.58537,-9.71659,-0.143701,1.76992,-0.487805,0.121951,6.7378
427.766,71.5365,10.4889,0,8.94779,2.86684,3.4632,0.0914634,0.396341,-1.70732,-9.65672,-0.107776,1.76513,-0.670732,0.243902,6.85976
427.776,71.5329,10.4985,0,8.91905,2.8836,3.49912,-0.0609756,0.853659,-1.79878,-9.70462,-0.143701,1.81303,-0.670732,0.121951,6.76829
427.786,71.5305,10.4635,0,8.91905,2.88839,3.53984,-0.0609756,0.792683,-1.64634,-9.71659,-0.134121,1.74357,-0.335366,0.0609756,6.89024
427.796,71.5262,10.4702,0,8.91666,2.88121,3.45122,0.27439,0.609756,-1.89024,-9.73575,-0.129331,1.81063,-0.487805,0.243902,6.7378
427.806,71.5219,10.4666,0,8.91666,2.87642,3.48954,0.152439,0.579268,-1.95122,-9.68785,-0.136516,1.78429,-0.518293,0.182927,6.85976
427.817,71.526,10.4671,0,8.87594,2.84528,3.49912,0.579268,0.579268,-1.55488,-9.73096,-0.0814307,1.79866,-0.426829,0.121951,6.76829
427.826,71.5229,10.482,0,8.93582,2.87881,3.49673,0.27439,0.457317,-1.89024,-9.72378,-0.112566,1.82261,-0.27439,0.152439,6.55488
427.836,71.5239,10.4974,0,8.91666,2.85726,3.5111,0.335366,0.609756,-1.76829,-9.72378,-0.107776,1.82979,-0.182927,0.365854,6.70732
427.846,71.5189,10.495,0,8.93103,2.88839,3.51828,0.365854,0.548781,-1.92073,-9.67827,-0.0910107,1.78908,-0.213415,0.304878,6.4939
427.856,71.5147,10.4811,0,8.87115,2.8836,3.45601,0.27439,0.792683,-1.70732,-9.67827,-0.0670605,1.76752,-0.121951,0.304878,6.70732
427.867,71.51,10.4754,0,8.87594,2.87642,3.48715,0.243902,0.548781,-1.85976,-9.66151,-0.143701,1.7771,-0.426829,0.335366,6.76829
427.876,71.5043,10.4619,0,8.85918,2.88839,3.51589,0.365854,0.609756,-1.7378,-9.69743,-0.129331,1.76992,-0.121951,-0.152439,6.61585
427.886,71.5026,10.4648,0,8.87355,2.87642,3.51349,0.518293,0.579268,-1.64634,-9.69025,-0.122146,1.79387,-0.0304878,0,6.58537
427.896,71.5029,10.4681,0,8.88073,2.86205,3.56858,0.487805,0.243902,-1.67683,-9.70941,-0.165256,1.79866,0.121951,0.0609756,6.64634
427.906,71.4974,10.4793,0,8.89031,2.90276,3.56379,0.548781,0.304878,-1.67683,-9.72138,-0.172441,1.81542,-0.0914634,0.121951,6.76829
427.917,71.4913,10.4839,0,8.90468,2.90276,3.45362,0.243902,-0.0609756,-1.79878,-9.75252,-0.153281,1.81303,0.213415,0.27439,6.67683
427.926,71.4838,10.4778,0,8.93342,2.94108,3.50391,0.487805,0.0304878,-1.55488,-9.75012,-0.143701,1.79387,0.396341,0.0914634,6.92073
427.936,71.4796,10.4686,0,8.96456,2.94348,3.47517,0.304878,0.335366,-1.40244,-9.75252,-0.0934058,1.78668,0.518293,0.243902,6.55488
427.946,71.4728,10.4804,0,8.93103,2.95785,3.45601,0.0609756,0.0914634,-1.28049,-9.7142,-0.0958008,1.81782,0.579268,0.335366,6.67683
427.956,71.4673,10.4899,0,8.89031,2.96743,3.43685,0.0304878,0.518293,-0.823171,-9.7142,-0.0766406,1.81303,0.304878,0.0914634,6.46341
427.967,71.4569,10.5241,0,8.86157,2.99856,3.44404,-0.426829,0.579268,-0.335366,-9.6639,-0.0886157,1.85135,0.365854,0.27439,6.52439
427.976,71.4505,10.5497,0,8.83762,3.01054,3.45841,-0.731707,1.03659,0.487805,-9.616,-0.114961,1.84177,0.365854,0.640244,6.40244
427.987,71.4467,10.6191,0,8.81367,3.06802,3.47517,-0.426829,1.06707,1.46341,-9.58487,-0.146096,1.93757,0.182927,0.701219,6.28049
427.996,71.4521,10.651,0,8.83523,3.10395,3.47996,-0.579268,1.15854,2.43902,-9.57289,-0.193997,1.87291,0.0609756,0.945122,6.25
428.006,71.4664,10.6706,0,8.80888,3.1279,3.51828,-0.548781,0.762195,3.59756,-9.58008,-0.244292,1.86572,0.152439,1.70732,6.15854
428.016,71.4989,10.6958,0,8.78733,3.06802,3.56618,-1.37195,0.27439,4.78659,-9.64474,-0.205972,1.88728,0.213415,1.15854,6.09756
428.026,71.5387,10.6681,0,8.78972,3.01054,3.56618,-1.40244,-0.609756,4.90854,-9.71659,-0.0934058,1.76034,0.548781,1.09756,5.82317
428.036,71.5873,10.6368,0,8.7035,2.86684,3.69791,-1.58537,-1.55488,4.48171,-9.76449,-0.0431104,1.74357,0.213415,1.40244,5.54878
428.046,71.6376,10.6456,0,8.74901,2.8357,3.61169,-1.37195,-2.0122,4.17683,-9.79563,0.0143701,1.86333,-0.213415,0.853659,5.33537
428.056,71.6823,10.664,0,8.70111,2.84768,3.69312,-1.37195,-3.44512,4.05488,-9.83156,0.00479004,1.88488,-0.579268,0.243902,5.30488
428.067,71.7224,10.6943,0,8.68195,2.90516,3.66917,-0.823171,-4.42073,4.48171,-9.83395,-0.0766406,1.91123,-1.06707,-0.213415,5.60976
428.076,71.7608,10.72,0,8.67716,3.05844,3.65001,-0.457317,-4.57317,6.25,-9.79563,-0.102986,1.90404,-1.40244,-0.396341,5.97561
428.087,71.8243,10.7217,0,8.86876,3.16143,3.61887,-0.457317,-4.84756,9.29878,-9.74773,-0.198787,1.84896,-1.61585,-0.792683,6.7378
428.096,71.9012,10.715,0,8.92624,3.2716,3.46799,-0.121951,-4.35976,11.8293,-9.7142,-0.268242,1.82021,-0.792683,-1.06707,7.40854
428.106,72.0224,10.6797,0,9.0388,2.95785,3.45122,-2.40854,-4.5122,12.4085,-9.72138,-0.261057,1.75076,-0.213415,-0.853659,7.95732
428.117,72.1725,10.6115,0,9.07712,2.49801,3.54463,-4.2378,-4.60366,10.0305,-9.73096,-0.282612,1.67172,0.518293,-0.762195,8.04878
428.127,72.3133,10.5624,0,9.09149,2.33754,3.54463,-4.2378,-4.5122,7.40854,-9.77407,-0.237107,1.69567,0.762195,-1.03659,7.65244
428.136,72.4219,10.5003,0,8.98372,2.45969,3.42967,-3.56707,-4.60366,6.21951,-9.73815,-0.162861,1.64059,0.518293,-1.15854,7.37805
428.146,72.5124,10.4426,0,8.92384,2.41178,3.37937,-4.45122,-3.38415,4.05488,-9.77168,-0.143701,1.61664,0.426829,-1.70732,7.19512
428.156,72.5748,10.3675,0,8.91426,2.60818,3.34105,-4.54268,-2.83537,3.87195,-9.78126,-0.198787,1.52323,0.396341,-2.19512,7.04268
428.166,72.6551,10.315,0,8.97893,2.5004,3.33626,-3.65854,-2.68293,4.29878,-9.78605,-0.217947,1.5855,0.579268,-2.46951,7.2561
428.176,72.7567,10.2796,0,9.15616,2.32556,3.48475,-2.92683,-2.65244,3.84146,-9.73575,-0.160466,1.62622,0.426829,-2.9878,7.71341
428.186,72.8666,10.2617,0,9.31423,2.22497,3.44883,-2.16463,-3.44512,2.0122,-9.73096,-0.131726,1.6837,0.701219,-4.39024,8.5061
428.196,72.9514,10.2188,0,9.27352,2.4022,3.37219,-1.58537,-3.17073,1.31098,-9.97526,-0.165256,1.60945,0.731707,-4.93902,8.20122
428.207,72.981,10.1876,0,9.12023,2.74469,3.25004,-1.7378,-2.77439,2.31707,-9.96807,-0.102986,1.65256,0.823171,-5.03049,8.04878
428.216,73.1915,10.1754,0,9.2807,2.12199,3.28118,-2.5,-1.7378,0,-9.87706,0.0167651,1.71723,0.27439,-4.48171,7.92683
428.226,73.2609,10.1563,0,9.12742,2.22018,3.44883,-1.64634,-2.04268,-1.55488,-9.76449,0.0359253,1.66693,0.27439,-3.9939,7.68293
428.236,73.2938,10.1506,0,9.15856,2.40939,3.35063,-0.27439,-1.58537,-1.79878,-9.77168,0.0191602,1.72202,0.487805,-4.26829,7.34756
428.247,73.3118,10.1587,0,9.1346,2.4525,3.41051,0.640244,-1.46341,-2.19512,-9.77647,-0.0287402,1.78189,0.365854,-4.29878,7.13415
428.256,73.311,10.1579,0,9.10107,2.56028,3.33387,0.762195,-1.18902,-2.37805,-9.73096,-0.0670605,1.73639,0.182927,-4.57317,7.04268
428.266,73.3037,10.1671,0,9.08431,2.5962,3.33626,0.853659,-1.03659,-2.46951,-9.71899,-0.0814307,1.7771,0.213415,-5.12195,7.16463
428.276,73.2925,10.1826,0,9.01964,2.60339,3.36261,0.640244,-1.09756,-2.53049,-9.72857,-0.100591,1.80824,0.182927,-5.4878,7.34756
428.286,73.2863,10.2048,0,8.94779,2.56507,3.40811,1.12805,-0.518293,-2.34756,-9.69983,-0.134121,1.83458,0.396341,-5.97561,7.5
428.296,73.2718,10.227,0,8.93582,2.58662,3.42248,1.58537,-0.823171,-2.77439,-9.66869,-0.141306,1.83219,0.365854,-7.04268,8.14024
428.306,73.2562,10.2528,0,8.95977,2.63452,3.42967,1.58537,-0.884146,-2.40854,-9.76928,-0.225132,1.87051,1.06707,-7.62195,7.9878
428.316,73.2327,10.2822,0,8.96216,2.68961,3.42488,1.43293,-1.06707,-2.5,-9.73815,-0.215552,1.88488,1.03659,-7.9878,7.62195
428.326,73.2027,10.3081,0,8.97174,2.76625,3.36261,1.31098,-0.945122,-2.16463,-9.76689,-0.217947,1.88009,1.18902,-8.2622,7.59146
428.336,73.1764,10.3543,0,9.01246,2.76385,3.42488,1.09756,-0.97561,-2.07317,-9.82197,-0.177231,1.98547,1.43293,-9.45122,7.53049
428.346,73.1504,10.3873,0,8.99809,2.76385,3.43925,0.518293,-1.43293,-2.04268,-9.8555,-0.165256,1.93997,1.31098,-10.4268,7.43902
428.356,73.1294,10.4173,0,8.99569,2.75188,3.45362,0.426829,-1.58537,-1.7378,-9.91059,-0.162861,1.94236,1.18902,-11.189,6.95122
428.367,73.1093,10.4623,0,8.96216,2.73511,3.36261,-0.0304878,-1.52439,-1.79878,-9.88185,-0.0814307,2.00942,1.09756,-12.1037,7.16463
428.377,73.0935,10.5202,0,8.943,2.71595,3.38416,-0.579268,-1.76829,-1.61585,-9.84114,-0.0191602,2.0669,0.609756,-12.9573,7.22561
428.387,73.084,10.5634,0,8.97414,2.6944,3.37698,-0.853659,-1.55488,-1.52439,-9.85072,-0.0239502,2.01182,0.304878,-13.7805,6.89024
428.397,73.0778,10.6087,0,8.943,2.68003,3.39374,-1.40244,-1.67683,-1.34146,-9.81479,-0.0239502,2.0214,0,-13.9329,6.76829
428.406,73.0791,10.6597,0,8.96695,2.64171,3.43206,-1.34146,-1.92073,-1.37195,-9.76928,-0.0526904,2.04535,-0.27439,-14.3902,6.98171
428.416,73.0916,10.6987,0,8.97414,2.60099,3.48954,-1.46341,-2.07317,-1.12805,-9.76449,-0.0431104,1.99984,-0.152439,-14.5122,6.7378
428.426,73.0992,10.7286,0,8.96935,2.59141,3.41051,-1.40244,-2.22561,-1.4939,-9.68546,-0.0550855,1.94955,0.0304878,-14.5427,7.0122
428.436,73.1154,10.7803,0,9.01246,2.57944,3.3674,-1.37195,-2.56098,-1.21951,-9.65432,-0.0598755,2.04535,-0.121951,-14.4512,7.07317
428.446,73.1312,10.8285,0,9.02443,2.56507,3.36979,-1.58537,-3.01829,-1.37195,-9.69743,-0.0431104,2.04774,-0.0609756,-14.9085,7.46951
428.456,73.1529,10.8852,0,9.07473,2.52435,3.39853,-1.31098,-2.5,-1.4939,-9.79323,-0.0790356,2.1148,0.0914634,-15.2439,7.22561
428.467,73.1774,10.92,0,9.07712,2.48124,3.37698,-1.0061,-2.43902,-1.67683,-9.82916,-0.0574805,2.03337,-0.0914634,-15.5183,7.28659
428.476,73.2021,10.9676,0,9.07712,2.47885,3.41769,-1.09756,-2.86585,-1.64634,-9.80042,-0.0766406,2.09085,0.335366,-15.9146,7.31707
428.486,73.2179,11.025,0,9.07473,2.49082,3.36979,-1.09756,-3.29268,-2.0122,-9.81479,-0.0766406,2.14594,0.640244,-16.8598,7.13415
428.496,73.2215,11.0758,0,9.0867,2.5483,3.37458,-1.0061,-3.90244,-2.28659,-9.77168,-0.0574805,2.1172,0.518293,-16.7073,6.95122
428.506,73.2266,11.1336,0,9.06515,2.5507,3.36021,-0.823171,-3.56707,-2.10366,-9.67588,-0.0167651,2.13636,0.640244,-17.3476,6.92073
428.517,73.232,11.2095,0,9.04599,2.51238,3.28597,-0.731707,-3.62805,-2.40854,-9.6663,-0.0143701,2.22497,0.518293,-17.6829,7.31707
428.526,73.227,11.2904,0,9.04838,2.55788,3.34584,-0.884146,-3.2622,-2.7439,-9.69983,-0.0550855,2.26808,0.304878,-18.3232,6.79878
428.536,73.2208,11.3482,0,9.02443,2.55788,3.37937,-0.731707,-3.44512,-2.77439,-9.73575,-0.107776,2.18665,0.213415,-18.4451,7.22561
428.546,73.2123,11.4197,0,9.05078,2.56028,3.32668,-0.518293,-3.84146,-3.04878,-9.74533,-0.172441,2.2609,0.213415,-18.4451,7.5
428.556,73.2058,11.5346,0,9.11305,2.5507,3.33387,-0.121951,-3.84146,-3.17073,-9.79803,-0.196392,2.48364,0.304878,-19.8171,7.28659
428.566,73.1961,11.6736,0,9.17053,2.58183,3.38656,0.0914634,-4.2378,-3.29268,-9.79323,-0.0910107,2.61297,0.426829,-21.2195,7.37805
428.576,73.1791,11.8186,0,9.19927,2.63931,3.28118,-0.182927,-3.90244,-3.44512,-9.72378,-0.112566,2.6465,0.548781,-22.5305,7.77439
428.586,73.1592,11.9794,0,9.1825,2.63692,3.29076,-0.731707,-3.84146,-3.71951,-9.66151,-0.0359253,2.72793,0.426829,-22.7439,7.77439
428.596,73.1439,12.1516,0,9.13939,2.60099,3.25962,-0.487805,-3.93293,-3.59756,-9.57768,-0.0167651,2.78541,0.182927,-22.622,7.92683
428.606,73.1272,12.3204,0,9.12502,2.58423,3.22849,-1.09756,-4.02439,-3.90244,-9.49146,0.00239502,2.77583,0.0914634,-22.4695,7.71341
428.617,73.0872,12.5442,0,8.95258,2.77343,3.17101,-1.06707,-3.96341,-3.35366,-9.46991,0.0622705,3.05125,-0.548781,-22.9573,7.71341
428.626,72.9498,12.6872,0,8.7059,3.19735,3.22609,-1.18902,-3.81098,-0.670732,-9.45554,0.177231,2.71835,-0.884146,-23.5061,7.2561
428.637,72.8506,12.7959,0,8.52866,3.74342,3.09437,-1.92073,-1.67683,3.96341,-9.4268,0.138911,2.58183,-1.12805,-23.0488,6.95122
428.646,72.8275,12.9783,0,8.76817,3.42727,2.81894,-4.57317,4.26829,6.25,-9.3765,0.0359253,2.91713,-0.914634,-24.5122,6.79878
428.656,72.9799,13.17,0,9.11544,1.12326,3.26681,-9.78659,4.14634,-5.36585,-9.43398,-0.00958008,3.00814,-0.945122,-26.7378,6.64634
428.666,73.1524,13.3683,0,8.80649,0.165256,3.92065,-3.90244,-0.609756,-14.939,-9.50344,-0.0359253,3.09437,-1.34146,-28.7805,6.89024
428.676,73.1251,13.5756,0,9.17292,1.68609,3.24765,9.35976,1.79878,-15.9146,-9.5226,-0.0407153,3.17819,-1.55488,-29.6037,7.19512
428.686,72.979,13.7828,0,9.64714,3.14706,2.86684,10.7317,0.304878,-12.4695,-9.51781,-0.0407153,3.21412,-0.945122,-30.061,7.40854
428.696,72.8875,13.9592,0,10.4902,3.17101,3.13508,6.52439,-2.62195,-9.7561,-9.51541,-0.0526904,3.10874,-0.579268,-29.5122,7.65244
428.706,72.801,14.0503,0,9.83874,2.85965,3.11592,6.67683,0.518293,-10.6707,-9.33818,-0.0814307,2.69919,0.27439,-27.7439,8.04878
428.717,72.6864,14.1981,0,8.87594,2.80457,3.05365,3.78049,1.34146,-11.0061,-9.15137,0.0119751,2.91234,0.609756,-25.9146,8.78049
428.726,72.604,14.3681,0,8.83283,2.57465,3.07281,2.65244,2.22561,-10.5793,-9.1346,-0.0934058,3.03209,1.21951,-25.8537,9.08537
428.736,72.5141,14.5037,0,8.82565,2.6944,3.09676,4.7561,4.45122,-10.0305,-9.21843,-0.136516,2.93629,1.70732,-25.122,9.17683
428.746,72.4243,14.6311,0,8.81128,2.79499,3.32908,5.39634,5.06098,-8.93293,-9.32142,-0.237107,2.95785,2.2561,-23.811,8.93293
428.756,72.3414,14.7988,0,8.85439,2.78062,3.45841,5.97561,3.78049,-8.75,-9.40285,-0.308958,3.19256,2.5,-22.5,7.95732
428.766,72.2685,14.9946,0,8.91905,2.66805,3.52068,6.12805,3.23171,-9.48171,-9.41722,-0.285007,3.36021,2.65244,-21.3415,7.31707
428.776,72.1913,15.1852,0,8.92863,2.72553,3.53505,5.91463,2.53049,-9.42073,-9.40285,-0.208367,3.3674,2.56098,-21.0671,6.67683
428.787,72.0918,15.3718,0,8.86876,2.90276,3.53984,4.48171,-0.731707,-9.5122,-9.26154,-0.102986,3.33387,2.16463,-20.0915,6.4939
428.797,71.9963,15.5813,0,8.90229,2.91953,3.57097,2.40854,-3.07927,-9.2378,-9.11544,0.0143701,3.42009,1.61585,-19.6037,6.55488
428.806,71.9078,15.7951,0,8.91426,2.90276,3.49194,0.304878,-5.36585,-8.96341,-9.06515,0.0574805,3.45841,1.25,-19.5427,6.92073
428.816,71.8143,15.9553,0,8.84002,2.96503,3.48475,-0.548781,-6.21951,-8.62805,-9.03401,0.0814307,3.24286,0.701219,-19.2988,7.40854
428.826,71.7109,16.1134,0,8.70111,3.05844,3.3171,-0.518293,-5.73171,-8.14024,-9.02204,-0.0263452,3.25723,0.640244,-19.5122,7.7439
428.836,71.6038,16.2973,0,8.70829,3.16382,3.22849,-1.03659,-4.35976,-7.5,-9.01485,-0.100591,3.39853,0.609756,-20.2744,8.04878
428.846,71.4949,16.4907,0,8.57417,3.22609,3.29315,-1.15854,-4.7561,-6.55488,-9.03641,-0.177231,3.48236,1.28049,-21.7683,8.07927
428.856,71.3961,16.6876,0,8.67955,3.21172,3.33866,-1.64634,-4.2378,-6.40244,-9.03162,-0.179626,3.53026,1.4939,-22.9268,8.17073
428.867,71.3065,16.884,0,8.70829,3.19017,3.44404,-2.31707,-5.42683,-6.03659,-9.06275,-0.210762,3.57576,1.85976,-23.3232,8.14024
428.876,71.2263,17.0891,0,8.71548,3.13748,3.47038,-2.89634,-6.64634,-5.91463,-8.97653,-0.205972,3.61648,2.31707,-23.7195,8.10976
428.886,71.1652,17.3424,0,8.80888,3.04886,3.45122,-2.95732,-8.2622,-5.57927,-8.8472,-0.184417,3.82245,2.34756,-24.3293,8.38415
428.896,71.122,17.6157,0,8.7514,2.9315,3.48236,-3.04878,-9.78659,-5.06098,-8.78733,-0.146096,3.93502,2.40854,-24.4817,9.2378
428.906,71.092,17.8898,0,8.86397,2.89079,3.46799,-2.89634,-10.9451,-4.7561,-8.74182,-0.0598755,3.96855,2.0122,-24.1159,9.57317
428.916,71.0631,18.1405,0,8.79212,2.84528,3.34584,-2.71341,-13.3232,-4.96951,-8.7035,-0.0479004,3.8943,1.67683,-23.4146,10.2439
428.926,71.0277,18.3927,0,8.78014,2.93629,3.28597,-1.7378,-14.8476,-4.54268,-8.72985,-0.0670605,3.95897,1.67683,-22.8659,10.3659
428.936,70.9756,18.6297,0,8.81846,3.13748,3.11832,-0.762195,-15.9146,-4.02439,-8.84002,-0.0718506,3.98531,1.67683,-22.6829,10.122
428.946,70.9065,18.8312,0,8.85918,3.37698,3.02251,-0.792683,-15.8537,-2.95732,-8.90468,-0.0359253,3.89191,1.85976,-22.1951,9.45122
428.956,70.8407,19.0266,0,8.92624,3.41051,2.84768,-1.34146,-15.6098,-2.5,-8.93342,0.0287402,3.91346,1.37195,-21.7378,8.93293
428.967,70.8085,19.228,0,9.01485,3.24286,2.85247,-1.4939,-16.0061,-1.58537,-9.01485,0.0742456,4.01405,1.34146,-22.5,8.01829
428.976,70.8043,19.4263,0,9.07952,3.13508,2.96024,-0.914634,-16.0366,-0.914634,-9.10586,0.0574805,4.07632,1.21951,-23.9939,7.62195
428.986,70.8282,19.6292,0,9.12742,3.06562,2.95785,-0.121951,-15.9756,-0.304878,-9.10347,0.0766406,4.1338,1.25,-25.7012,7.07317
428.996,70.874,19.8251,0,9.22322,3.00575,2.74709,-0.213415,-14.1463,-0.27439,-9.11065,0.0383203,4.14099,1.31098,-26.9817,6.92073
429.006,70.9371,20.0264,0,9.29747,2.85247,2.55549,-0.335366,-10.7927,-0.792683,-9.06754,-0.0407153,4.1841,2.0122,-28.1402,6.7378
429.017,70.9999,20.226,0,9.50104,2.71356,2.50759,-0.457317,-8.10976,-1.64634,-8.96695,-0.0359253,4.16733,2.07317,-28.0793,7.43902
429.026,71.0336,20.4156,0,9.60163,2.80936,2.5483,-0.548781,-5.33537,-2.56098,-8.91426,-0.0862207,4.1338,2.7439,-27.5915,7.86585
429.036,71.0582,20.6139,0,9.53936,2.75906,2.62255,-1.18902,-3.9939,-3.5061,-8.83523,-0.112566,4.17452,3.01829,-26.6159,8.14024
429.046,71.0787,20.7866,0,9.40045,2.68721,2.7399,-1.43293,-3.90244,-4.14634,-8.85918,-0.158071,4.10267,3.01829,-25.4878,8.56707
429.056,71.0852,20.944,0,9.23759,2.72314,2.84049,-0.304878,-3.2622,-4.5122,-8.81846,-0.0718506,4.04519,3.10976,-24.2378,8.71951
429.066,71.0873,21.0768,0,9.16813,2.78301,2.79738,0.243902,-2.65244,-4.05488,-8.85439,-0.00718506,3.97573,3.65854,-23.7805,8.78049
429.076,71.1001,21.2151,0,9.08191,2.76146,2.90037,1.31098,-3.47561,-3.10976,-8.87594,0.0383203,4.03561,3.84146,-24.2378,8.44512
429.086,71.1131,21.3547,0,9.06754,2.83091,2.97701,2.37805,-3.47561,-2.37805,-9.01725,0.131726,4.13141,4.20732,-25.2744,8.17073
429.096,71.1394,21.492,0,9.07233,2.7902,2.9339,2.89634,-3.84146,-1.92073,-9.03401,0.170046,4.15296,4.17683,-26.7378,8.14024
429.106,71.1752,21.6349,0,9.11544,2.72314,2.95066,3.35366,-4.35976,-1.98171,-9.07473,0.198787,4.22481,4.08537,-27.6524,7.2561
429.116,71.1927,21.7819,0,9.0867,2.73272,2.94348,3.47561,-4.90854,-2.89634,-9.02683,0.215552,4.24876,4.11585,-28.5366,7.37805
429.126,71.1851,21.9231,0,9.06036,2.86923,2.8357,3.29268,-5.2439,-3.44512,-9.01246,0.179626,4.24158,3.59756,-28.872,7.28659
429.136,71.1681,22.0545,0,9.02443,2.91234,2.85726,2.83537,-5.27439,-3.71951,-8.93821,0.0766406,4.18649,3.32317,-29.0854,6.89024
429.146,71.1535,22.2103,0,8.99809,2.79499,2.85486,2.43902,-5.51829,-4.7561,-8.85678,-0.0191602,4.28948,3.29268,-29.6341,7.13415
429.157,71.132,22.3692,0,9.03401,2.82612,2.84289,3.20122,-6.61585,-5.2439,-8.83523,-0.0790356,4.32301,3.2622,-30.7927,7.10366
429.166,71.1037,22.5284,0,9.0412,2.90516,2.87881,4.32927,-7.37805,-5.06098,-8.91426,-0.0502954,4.39247,3.5061,-31.7073,7.22561
429.176,71.0727,22.6882,0,9.0891,2.96743,2.87881,4.42073,-8.17073,-4.84756,-8.9454,0.0407153,4.44037,3.9939,-33.1402,7.13415
429.186,71.0432,22.8424,0,9.10586,3.00814,2.82852,4.84756,-8.04878,-4.35976,-9.01725,0.222737,4.47869,3.90244,-34.1768,7.22561
429.196,71.0161,23.0311,0,9.0867,2.96024,2.77343,4.54268,-7.86585,-4.66463,-8.99809,0.340093,4.67029,3.38415,-35.8841,7.22561
429.206,70.9936,23.2187,0,9.06036,2.87881,2.692,3.71951,-7.16463,-5.09146,-9.01006,0.423918,4.70621,3.07927,-38.0183,7.04268
429.216,70.9727,23.3998,0,9.05796,2.85007,2.69919,3.35366,-6.03659,-5.30488,-9.01246,0.414338,4.711,1.98171,-39.8476,6.76829
429.226,70.9596,23.5981,0,9.1849,2.75427,2.63692,3.93293,-5.21341,-6.12805,-8.92863,0.390388,4.78764,1.67683,-41.372,6.12805
429.236,70.9513,23.816,0,9.27112,2.72074,2.66805,4.2378,-4.81707,-6.34146,-8.78493,0.373623,4.84752,0.97561,-42.561,5.45732
429.247,70.9184,24.0594,0,9.31902,2.98898,2.72074,4.48171,-4.69512,-5.94512,-8.59812,0.308958,4.91458,0.823171,-42.6524,4.60366
429.256,70.8825,24.3127,0,9.22322,3.03928,2.79259,4.11585,-4.93902,-5.39634,-8.43286,0.227527,4.91698,0.457317,-42.561,4.39024
429.266,70.8479,24.5836,0,9.12981,2.97461,2.83091,3.47561,-5.64024,-5.73171,-8.28437,0.201182,4.96727,0.121951,-41.9817,4.72561
429.276,70.8309,24.8767,0,9.06036,2.81654,2.80696,3.35366,-6.70732,-5.60976,-8.19576,0.141306,5.07744,0.152439,-41.4024,4.87805
429.286,70.8283,25.1676,0,9.01006,2.58183,2.89558,3.56707,-8.04878,-6.76829,-8.16462,0.153281,5.10618,-0.213415,-40.7622,5.27439
429.296,70.8258,25.4683,0,9.02443,2.52914,2.86205,4.69512,-8.5061,-7.43902,-8.16462,0.150886,5.21396,-0.487805,-39.878,5.36585
429.306,70.8109,25.7554,0,9.00288,2.57465,2.94108,5.12195,-9.96951,-8.07927,-8.20294,0.155676,5.23072,-0.213415,-39.2988,5.79268
429.317,70.7682,26.0585,0,8.943,2.80217,2.91713,5.33537,-11.2805,-8.01829,-8.15265,0.174836,5.3385,-0.152439,-38.9634,5.64024
429.326,70.7071,26.3525,0,9.03162,3.01533,2.91234,4.69512,-12.5305,-7.80488,-8.16702,0.112566,5.36245,0.457317,-38.8415,5.2439
429.336,70.6357,26.6435,0,8.92145,3.03209,2.92192,3.78049,-14.3598,-8.35366,-8.10954,0.0910107,5.36963,0.884146,-38.9024,5.18293
429.346,70.5547,26.9413,0,8.85918,3.01533,2.84768,3.07927,-14.5122,-9.42073,-8.02332,0.0119751,5.40556,1.61585,-38.9634,5.06098
429.357,70.4765,27.2432,0,8.88073,2.97701,2.82612,3.23171,-15.6098,-9.84756,-7.98739,-0.0335303,5.46304,2.71341,-39.5122,5
429.366,70.3916,27.5458,0,8.96456,3.11832,2.80217,3.96341,-16.3415,-9.35976,-7.95625,-0.0766406,5.50615,3.38415,-40.4268,5.2439
429.376,70.2994,27.869,0,9.03401,3.20933,2.78541,3.65854,-17.8659,-9.5122,-7.92751,-0.110171,5.65464,4.81707,-41.7988,5.33537
429.387,70.2012,28.2053,0,9.01485,3.21412,2.74709,2.86585,-19.878,-10.1829,-7.90117,-0.102986,5.772,6.09756,-42.8354,5.36585
429.397,70.0966,28.5445,0,8.92384,3.14466,2.89318,1.82927,-21.2195,-11.4634,-7.791,-0.0455054,5.77679,6.76829,-43.3841,5.97561
429.406,69.9885,28.8829,0,8.75619,2.97701,2.7878,0.762195,-22.0732,-13.3232,-7.73112,0.00958008,5.79834,7.2561,-44.5427,6.12805
429.417,69.828,29.2198,0,8.49034,3.30752,2.63213,0.182927,-24.0549,-13.7805,-7.75986,0.105381,5.88217,7.56098,-45.8232,6.37195
429.426,69.6389,29.5509,0,8.47118,3.73144,2.50519,-0.670732,-25.5793,-11.9512,-7.78381,0.126936,5.93965,6.79878,-47.7439,6.92073
429.436,69.4795,29.8697,0,8.63644,3.72665,2.47885,-1.79878,-25.5183,-10.1829,-7.8389,0.172441,5.98276,6.4939,-50.5183,6.98171
429.446,69.3473,30.1886,0,8.82325,3.67635,2.47166,-3.01829,-27.8049,-9.20732,-7.84848,0.162861,6.057,5.97561,-53.2622,7.37805
429.456,69.2486,30.5043,0,9.06036,3.53265,2.46927,-3.59756,-27.378,-8.75,-7.87722,0.136516,6.12885,5.70122,-55.7927,7.37805
429.466,69.1706,30.8416,0,9.22083,3.42248,2.25611,-4.45122,-29.7866,-8.75,-7.74789,0.0646655,6.21508,5.4878,-57.6829,8.04878
429.476,69.1013,31.1867,0,9.17053,3.20693,2.0669,-5.82317,-30.8232,-10.2439,-7.62574,0.0670605,6.23424,4.90854,-58.6585,8.35366
429.487,69.0596,31.536,0,9.30705,2.92911,1.86572,-6.28049,-29.4817,-11.25,-7.53713,0.0311353,6.26058,4.93902,-58.9634,8.35366
429.496,69.0184,31.8869,0,9.40045,2.76146,1.76992,-5.73171,-28.75,-13.5366,-7.45809,0.0598755,6.28214,4.35976,-58.5976,8.56707
429.506,68.9913,32.2558,0,9.78366,2.79978,1.52323,-4.87805,-25.5488,-12.9878,-7.41259,0.153281,6.42344,4.45122,-58.75,8.2622
429.517,68.9567,32.6067,0,10.1046,2.86923,1.2981,-3.62805,-24.4512,-14.0549,-7.46528,0.232317,6.44979,4.69512,-58.7195,7.59146
429.526,68.9093,32.9361,0,10.1166,2.89558,1.02267,-2.59146,-21.8293,-15.1829,-7.46049,0.366438,6.40189,4.42073,-59.0244,6.70732
429.536,68.8595,33.277,0,10.1549,2.96264,0.723296,-2.65244,-16.372,-14.939,-7.4557,0.390388,6.5384,4.02439,-59.5122,5.54878
429.547,68.7936,33.6474,0,9.97526,3.00575,0.546064,-2.5,-11.0671,-15.6402,-7.36469,0.512534,6.70845,3.2622,-60.7317,4.84756
429.556,68.6996,34.0311,0,9.63756,3.04407,0.61552,-2.2561,-6.34146,-17.1037,-7.30241,0.467029,6.81623,2.07317,-62.3171,4.39024
429.566,68.5978,34.4392,0,9.616,2.92192,0.744851,-1.82927,-1.43293,-19.3598,-7.22098,0.414338,6.97909,0.884146,-63.4146,4.48171
429.577,68.4786,34.8428,0,9.74533,2.96743,0.979563,-1.76829,2.77439,-21.2805,-7.16111,0.347278,6.99106,0.304878,-64.5122,4.20732
429.586,68.3498,35.3,0,9.92017,3.06323,0.835862,-5.27439,5.88415,-22.0427,-7.01262,0.232317,7.27846,0,-65.1829,4.29878
429.597,68.2105,35.7997,0,10.4351,3.25483,0.507744,-9.42073,4.05488,-23.0488,-6.91682,0.110171,7.57305,-0.182927,-65.9451,4.69512
429.607,68.0374,36.321,0,10.8925,3.52307,0.716111,-12.4085,3.32317,-25.5488,-6.83539,0.0431104,7.76226,-0.243902,-66.8293,4.81707
429.616,67.8331,36.8712,0,10.5213,3.63564,1.22625,-15.4878,7.83537,-26.7683,-6.73,0.0455054,7.98739,-0.701219,-66.6159,5.15244
429.626,67.5901,37.4396,0,9.76928,3.64043,1.33163,-16.6463,10.4573,-28.3232,-6.72521,0.0814307,8.27479,-1.67683,-66.4634,5.36585
429.636,67.3271,38.0288,0,9.23999,3.62606,1.64777,-18.7805,6.15854,-28.8415,-6.71563,0.100591,8.59093,-1.82927,-67.1341,6.21951
429.646,67.0511,38.6135,0,8.78493,3.53026,2.70398,-16.5854,5.88415,-29.7561,-6.70845,0.0622705,8.72985,-2.16463,-67.5,6.52439
429.656,66.7517,39.2173,0,8.7059,3.63803,2.85965,-10.122,-0.304878,-31.0976,-6.64618,0.110171,8.9909,-0.945122,-67.5,7.19512
429.666,66.4474,39.8277,0,9.16334,3.87035,2.5507,-2.86585,-8.07927,-31.7683,-6.55517,0.131726,9.12023,-0.335366,-67.9878,7.71341
429.677,66.1367,40.4502,0,9.49625,4.08351,2.7399,2.95732,-13.0793,-32.2866,-6.3971,0.191602,9.20885,-0.243902,-67.5915,8.59756
429.686,65.8192,41.1,0,9.67348,4.14578,2.5028,6.21951,-16.7378,-33.75,-6.21268,0.285007,9.39566,-0.426829,-67.5,8.56707
429.696,65.5287,41.7943,0,10.0399,3.97573,2.56746,8.90244,-17.439,-34.9085,-5.89654,0.364043,9.54655,-1.03659,-67.439,8.5061
429.706,65.2342,42.5196,0,10.2746,4.03321,2.33993,11.128,-15.2744,-36.25,-5.58279,0.488584,9.58247,-1.79878,-67.7439,8.29268
429.717,64.9378,43.2814,0,10.2674,3.98531,1.80105,10.1524,-9.14634,-37.5,-5.21396,0.443079,9.57529,-2.5,-66.25,7.59146
429.726,64.62,44.0074,0,9.96089,4.01405,2.06451,8.47561,-4.20732,-38.7805,-5.20198,0.488584,9.50104,-2.71341,-63.7195,7.0122
429.736,64.2737,44.8459,0,9.43638,3.96855,2.06211,10.9146,-4.84756,-40.5793,-4.33499,0.342488,9.24717,-2.7439,-59.9695,6.28049
429.746,63.8765,45.7643,0,9.17532,4.41642,1.83938,11.7378,-5.09146,-40.5793,-3.65719,0.467029,8.9454,-2.34756,-55.8232,7.77439
429.756,63.5128,46.7152,0,8.9933,4.30385,1.78668,10.7012,-6.89024,-38.2317,-3.30752,0.277822,8.85678,-1.4939,-51.0976,9.87805
429.766,63.2244,47.693,0,9.12023,3.91586,1.88009,10.7012,-5.36585,-36.0671,-3.03209,0.0910107,8.89271,-1.67683,-47.439,10.7927
429.776,62.9214,48.631,0,8.63884,4.04758,2.00224,13.6585,-10.6098,-34.3293,-2.9339,-0.0622705,8.60291,-2.13415,-42.9573,11.6159
429.786,62.5857,49.5066,0,8.83523,4.46911,1.91123,12.9573,-8.78049,-34.7561,-2.98659,-0.162861,8.45921,-2.5,-37.8049,11.8902
429.796,62.2339,50.2306,0,8.84002,4.68945,2.01182,11.6768,-8.59756,-34.8171,-3.44643,-0.0455054,8.37299,-2.68293,-32.6829,11.25
429.807,61.8498,50.8927,0,8.4137,4.86668,2.08127,10.5793,-9.57317,-34.5427,-3.62366,0.100591,8.45681,-2.31707,-29.6037,11.4939
429.816,61.481,51.4556,0,8.52627,4.84752,1.95673,9.11585,-4.72561,-34.6341,-3.92783,0.143701,8.40891,-2.28659,-28.9024,11.5854
429.826,61.1327,52.0108,0,8.52866,4.74932,1.75555,8.17073,-4.87805,-34.3293,-3.95418,0.215552,8.6101,-1.85976,-29.2683,11.5854
429.836,60.7646,52.5885,0,8.33946,4.86189,1.89446,7.56098,-4.57317,-34.7561,-3.79371,0.203577,8.7035,-1.52439,-30.3963,11.4329
429.846,60.3904,53.1928,0,8.4137,5.02954,1.80584,7.16463,-1.06707,-34.8476,-3.49433,0.172441,8.52148,-1.15854,-29.0549,11.8598
429.856,59.979,53.8298,0,8.03529,5.27144,1.68609,5.67073,0.0304878,-34.5122,-3.22849,0.100591,8.47597,-1.25,-26.5244,11.7988
429.866,59.5746,54.5056,0,7.96344,5.2403,1.7292,5.4878,1.03659,-34.4817,-2.95306,0.114961,8.46879,-1.18902,-23.872,12.0732
429.876,59.1834,55.1653,0,7.8389,5.1924,1.8274,4.45122,1.18902,-33.5976,-2.92192,0.148491,8.51429,-1.34146,-21.6159,11.9207
429.887,58.8041,55.7821,0,7.90117,5.18522,1.91841,4.08537,1.92073,-33.689,-3.01054,0.141306,8.56938,-1.06707,-19.7866,11.3415
429.896,58.4135,56.346,0,7.75268,5.21635,1.83219,3.84146,1.7378,-34.2683,-3.09676,0.215552,8.47597,-0.518293,-18.3232,10.8841
429.906,58.026,56.8869,0,7.72394,5.23791,1.81542,3.96341,1.21951,-34.3293,-3.10395,0.215552,8.49274,0.243902,-16.8902,9.93902
429.916,57.6448,57.4254,0,7.72154,5.21156,1.43462,3.84146,0.762195,-34.7256,-3.0297,0.0574805,8.5095,0.884146,-16.5549,9.42073
429.926,57.2666,57.9469,0,7.57784,5.22354,1.40348,4.39024,-1.28049,-34.0549,-2.99856,-0.0886157,8.47597,1.55488,-15.4878,8.71951
429.937,56.8898,58.4734,0,7.60419,5.41753,1.36756,5.18293,-0.640244,-32.8659,-2.85726,-0.203577,8.38017,2.86585,-14.2073,8.29268
429.946,56.5285,58.9965,0,7.75747,5.56124,1.29092,4.93902,0.335366,-31.7073,-2.78301,-0.174836,8.37538,3.93293,-12.6524,8.56707
429.956,56.1631,59.4988,0,7.60419,5.67141,1.36037,4.60366,0.762195,-30.6707,-2.74948,-0.143701,8.27719,4.39024,-11.1585,9.11585
429.966,55.8149,59.9609,0,7.56826,5.59716,1.29331,5.70122,1.92073,-30.122,-2.86205,0.0335303,8.3658,4.60366,-10.7927,10.122
429.977,55.4776,60.3622,0,7.52994,5.62111,1.3484,5.18293,2.62195,-29.2073,-3.06802,0.179626,8.44723,4.72561,-10.9146,10.6707
429.986,55.1666,60.7168,0,7.58742,5.59716,1.34121,5.12195,1.82927,-27.8659,-3.23328,0.335303,8.53824,4.60366,-11.6159,11.0366
429.996,54.8689,61.0301,0,7.62335,5.61872,1.46336,5.88415,2.31707,-27.1951,-3.35542,0.467029,8.54782,3.96341,-12.1341,10.7927
430.006,54.5526,61.3109,0,7.46288,5.8175,1.36756,6.28049,1.21951,-26.5549,-3.40572,0.5772,8.45442,3.01829,-12.622,10.3659
430.016,54.2361,61.6037,0,7.30002,5.89414,1.27894,7.10366,0.426829,-25.2134,-3.33147,0.61552,8.51908,2.2561,-12.8049,9.78659
430.026,53.9396,61.8932,0,7.27846,5.89893,1.37953,6.61585,1.12805,-23.5976,-3.30513,0.546064,8.54303,1.03659,-13.1098,9.11585
430.036,53.6609,62.1824,0,7.20901,5.9636,1.4418,5.09146,-0.884146,-21.2195,-3.28357,0.486189,8.61249,0.182927,-13.2317,8.32317
430.046,53.4256,62.4734,0,7.55629,6.01629,1.54718,5,0.27439,-19.5427,-3.30992,0.364043,8.83523,-0.365854,-13.811,8.04878
430.056,53.1963,62.7586,0,7.61137,6.1576,1.61664,4.66463,-2.71341,-18.5061,-3.3171,0.241897,8.92145,-1.52439,-14.3598,7.16463
430.067,52.9815,63.0374,0,7.72394,6.1552,1.4418,3.44512,-2.56098,-18.3537,-3.30513,0.150886,8.94779,-1.58537,-14.4817,6.79878
430.076,52.7768,63.3157,0,7.85087,6.18155,1.39151,2.89634,-0.731707,-18.4451,-3.29076,0.0862207,9.0412,-2.04268,-13.628,6.64634
430.087,52.5886,63.5841,0,7.78142,5.93965,1.45617,2.04268,-1.40244,-18.9329,-3.31471,0.129331,9.12023,-2.71341,-13.3232,6.31098
430.096,52.3934,63.8489,0,7.64969,5.85822,1.55197,2.13415,-1.89024,-19.8476,-3.33866,0.210762,9.27591,-3.04878,-13.0793,6.43293
430.106,52.213,64.091,0,7.79339,5.84864,1.36037,2.77439,-2.62195,-19.878,-3.36021,0.251477,9.1825,-2.9878,-12.622,6.52439
430.116,52.0455,64.3113,0,8.10235,5.97797,1.08015,3.9939,-2.68293,-19.878,-3.44404,0.325723,9.25915,-3.14024,-11.9512,6.52439
430.126,51.8921,64.511,0,8.16462,5.8678,1.19511,5.18293,-3.32317,-20.2439,-3.54223,0.344883,9.37171,-3.5061,-11.6768,6.40244
430.136,51.7604,64.6977,0,8.3203,5.73607,0.965193,6.43293,-2.16463,-20.6402,-3.559,0.328118,9.35255,-3.44512,-11.9207,6.0061
430.146,51.6258,64.8942,0,8.26761,5.69057,0.936453,7.95732,0.335366,-21.2805,-3.51349,0.275427,9.44835,-3.59756,-11.8902,5.88415
430.156,51.4759,65.105,0,8.23408,5.81271,0.922083,8.9939,2.80488,-21.7378,-3.39135,0.210762,9.39806,-2.65244,-11.9817,5.4878
430.166,51.3051,65.3274,0,8.12151,5.97078,1.14242,10.6707,3.65854,-21.9207,-3.29315,0.0431104,9.38608,-2.46951,-11.25,5.45732
430.176,51.1204,65.5623,0,8.06164,6.13604,1.03704,11.3415,4.81707,-21.7378,-3.17101,-0.0359253,9.31902,-2.19512,-9.96951,5.36585
430.187,50.9261,65.8053,0,8.0305,6.30609,1.14482,11.189,4.26829,-21.3415,-3.13508,-0.0311353,9.45314,-2.10366,-9.14634,6.31098
430.196,50.7301,66.0302,0,7.89877,6.32046,1.31008,10.3354,5.67073,-20.8232,-3.12071,0.0502954,9.29507,-2.7439,-8.23171,7.07317
430.206,50.5368,66.2359,0,7.65688,6.17436,1.56874,9.84756,5.79268,-20.5183,-3.17101,0.0910107,9.30465,-3.32317,-7.04268,8.17073
430.216,50.3558,66.3996,0,7.65448,6.08335,1.6334,10.7317,4.78659,-20.4878,-3.29555,0.234712,9.21843,-3.90244,-7.04268,9.08537
430.226,50.1615,66.5284,0,7.6473,6.16478,1.58071,10.5488,5.39634,-21.4024,-3.40572,0.292192,9.16334,-3.96341,-6.82927,9.42073
430.236,49.9495,66.6342,0,7.6449,6.28214,1.57353,9.60366,6.64634,-22.5,-3.48715,0.265847,9.16095,-4.11585,-7.22561,9.11585
430.246,49.7123,66.724,0,7.50839,6.39231,1.67412,9.02439,7.43902,-23.4756,-3.5087,0.189207,9.07473,-3.93293,-7.22561,8.78049
430.256,49.4343,66.8167,0,7.16111,6.52164,1.79387,7.62195,8.20122,-24.2073,-3.42009,0.117356,8.92145,-3.20122,-7.22561,7.9878
430.266,49.137,66.931,0,6.95753,6.65336,1.88488,6.34146,6.4939,-23.9024,-3.3195,0.0479004,8.95498,-2.86585,-7.22561,7.5
430.276,48.8342,67.0661,0,6.88568,6.7348,1.77231,5.94512,5.60976,-23.75,-3.21651,0.0119751,8.98372,-3.07927,-7.19512,7.31707
430.287,48.5345,67.207,0,6.84736,6.74917,1.94955,4.14634,3.20122,-23.5976,-3.14227,-0.0287402,8.91426,-2.5,-7.2561,7.34756
430.296,48.2538,67.3464,0,7.12997,6.8306,1.86093,2.43902,1.67683,-23.9329,-3.13748,-0.00479004,8.95019,-2.13415,-6.89024,7.10366
430.306,47.9742,67.464,0,7.24014,6.99585,1.73878,-0.945122,1.82927,-23.9024,-3.22609,-0.00718506,8.99809,-1.4939,-6.82927,6.95122
430.317,47.6964,67.5529,0,7.30002,6.98627,1.87051,-2.53049,-0.365854,-24.8476,-3.36261,-0.0287402,9.07473,-0.701219,-6.34146,6.7378
430.326,47.4232,67.6098,0,7.22577,6.7827,1.80584,-3.23171,-0.914634,-26.0671,-3.5566,0.0119751,9.24238,0.152439,-6.40244,5.85366
430.336,47.1528,67.6618,0,7.18506,6.64378,1.76992,-2.43902,-4.08537,-27.2256,-3.58055,0.0550855,9.27352,0.670732,-6.43293,5.06098
430.346,46.8733,67.7061,0,7.16829,6.69168,1.66933,-2.59146,-6.58537,-28.1402,-3.61169,0.172441,9.28549,1.0061,-6.7378,4.72561
430.356,46.593,67.7669,0,7.27846,6.76114,1.56395,-2.9878,-6.7378,-29.0854,-3.54702,0.241897,9.33818,0.914634,-7.46951,4.69512
430.367,46.3116,67.8596,0,7.2617,6.85455,1.59987,-2.92683,-6.31098,-28.8415,-3.42248,0.399968,9.43638,0.609756,-8.53659,5.21341
430.376,46.0419,67.9651,0,7.34313,7.00543,1.46575,-3.04878,-6.06707,-27.5915,-3.29555,0.495769,9.29507,1.0061,-9.2378,5.91463
430.386,45.798,68.0879,0,7.40301,6.93358,1.11608,-2.0122,-5.4878,-26.5854,-3.14706,0.524509,9.15137,0.762195,-8.44512,6.4939
430.396,45.5787,68.2366,0,7.42456,6.7324,1.07057,-1.28049,-4.69512,-26.4634,-3.01772,0.517324,9.18011,1.06707,-7.34756,6.95122
430.406,45.3809,68.3946,0,7.36469,6.40907,1.45857,1.06707,-5.06098,-27.1037,-2.96982,0.368833,9.23759,1.12805,-6.31098,7.04268
430.416,45.1844,68.541,0,7.4557,6.39949,1.14242,2.77439,-4.05488,-28.1707,-2.96743,0.217947,9.14418,1.64634,-5.2439,6.46341
430.426,44.9744,68.6872,0,7.46767,6.51685,1.14242,4.57317,-2.62195,-28.9939,-2.92911,0.0502954,9.04359,2.95732,-4.08537,5.09146
430.436,44.7349,68.8194,0,7.27607,6.71084,1.09452,5.94512,-1.46341,-29.2073,-2.94587,-0.00958008,8.96935,5.06098,-3.87195,4.48171
430.447,44.4856,68.9479,0,7.19224,6.71084,1.12805,7.07317,0.670732,-30.0305,-2.96743,-0.0263452,9.0388,6.58537,-3.59756,3.62805
430.456,44.2399,69.0769,0,7.12997,6.60546,1.22386,8.32317,1.58537,-30.5793,-2.94587,-0.0479004,9.06275,7.34756,-3.71951,3.68902
430.466,43.9942,69.2197,0,7.14913,6.55038,1.19032,8.84146,2.43902,-31.7378,-2.90276,-0.0479004,9.20885,7.68293,-3.90244,4.66463
430.476,43.7422,69.3685,0,7.20182,6.72042,1.21906,9.87805,2.89634,-31.7988,-2.86684,0.0455054,9.27112,6.76829,-4.05488,5.70122
430.487,43.4813,69.5373,0,7.15153,6.82581,1.24302,10.122,3.35366,-31.9207,-2.76864,0.227527,9.33818,5.18293,-4.2378,7.5
430.496,43.1845,69.7137,0,6.80186,7.09884,1.08494,8.75,4.08537,-30.8841,-2.70637,0.462239,9.33579,2.65244,-4.20732,9.63415
430.506,42.8953,69.8705,0,6.62941,7.05573,1.17356,7.89634,4.26829,-29.5732,-2.72314,0.579595,9.19927,0.579268,-4.17683,11.4024
430.516,42.6053,70.0027,0,6.29411,6.86652,1.2981,6.76829,3.41463,-28.811,-2.79738,0.737666,9.15856,-1.58537,-3.78049,12.378
430.526,42.3207,70.0993,0,6.16478,6.84257,1.30289,6.76829,0.670732,-27.8354,-2.90276,0.826282,9.0867,-3.84146,-3.71951,12.439
430.536,42.0473,70.1696,0,6.15041,6.88329,1.2981,6.21951,-0.792683,-26.7988,-2.96503,0.881367,8.95737,-6.28049,-3.23171,11.7378
430.546,41.7632,70.2201,0,5.9612,6.99585,1.42743,4.66463,-2.04268,-25.7012,-3.01533,0.948428,8.91187,-8.56707,-3.29268,11.189
430.556,41.5164,70.2758,0,6.17915,6.99585,1.54479,5.09146,-3.68902,-24.5427,-2.97701,0.962798,8.91426,-10.1524,-3.93293,10.7622
430.566,41.2837,70.329,0,6.31806,7.17069,1.43941,5.54878,-3.75,-23.4756,-2.95306,0.878972,8.82086,-11.5549,-3.53659,9.45122
430.577,41.0493,70.3988,0,6.29172,7.31678,1.31726,4.26829,-4.20732,-22.7134,-2.85965,0.713716,8.64123,-12.378,-2.62195,8.32317
430.586,40.8589,70.5759,0,6.56235,7.19703,1.17356,5.21341,-3.10976,-22.1037,-2.73032,0.495769,8.26521,-12.2256,-0.884146,7.07317
430.596,40.6473,70.6938,0,6.41386,7.24972,1.00351,4.02439,-0.426829,-22.8963,-2.63452,0.191602,8.09517,-11.6768,1.82927,6.12805
430.606,40.4257,70.7998,0,6.11209,7.24733,1.18793,1.95122,0.823171,-21.5854,-2.60578,-0.0311353,8.43765,-10.122,3.01829,5.21341
430.616,40.2437,70.9056,0,6.21747,6.99825,1.22386,3.62805,-1.4939,-21.0061,-2.60578,-0.325723,8.48076,-7.71341,2.92683,4.72561
430.626,40.0941,70.9755,0,6.47374,7.02699,1.18793,5.27439,-2.86585,-20.1829,-2.63931,-0.56283,8.35143,-4.93902,3.62805,4.60366
430.637,39.9445,71.0416,0,6.51685,7.18506,1.27894,5.82317,-1.0061,-19.5732,-2.692,-0.732876,8.58854,-2.40854,4.57317,4.81707
430.647,39.8125,71.1039,0,6.82581,7.37187,1.19511,4.78659,0.823171,-19.2988,-2.80457,-0.845442,8.95258,0.152439,4.90854,5.33537
430.656,39.693,71.1571,0,7.05573,7.44133,1.13524,5.73171,2.92683,-19.6646,-2.87642,-0.795146,9.09868,2.2561,5.36585,6.21951
430.666,39.5671,71.2004,0,7.04854,7.46767,0.910107,6.46341,4.2378,-20.3049,-2.91713,-0.747246,9.12981,4.26829,6.58537,7.43902
430.676,39.4327,71.2321,0,6.90005,7.26409,1.12326,8.20122,2.9878,-21.7988,-2.9315,-0.555645,9.04359,5.79268,8.17073,8.81098
430.686,39.2806,71.2203,0,6.83299,7.31199,0.998723,9.84756,3.84146,-22.9268,-3.19017,-0.392783,9.25196,7.71341,7.95732,9.69512
430.696,39.1071,71.2116,0,6.7348,7.37666,0.790356,9.5122,5.73171,-24.0549,-3.25723,-0.203577,9.48188,9.45122,8.53659,10.4878
430.706,38.9298,71.1851,0,6.65815,7.37187,0.936453,9.72561,7.22561,-24.1768,-3.31471,-0.0215552,9.40524,10.9756,8.78049,10.3354
430.716,38.7554,71.1552,0,6.69408,7.41977,0.764011,12.0122,7.22561,-24.1768,-3.34824,0.170046,9.44835,10.8232,11.2195,10.1829
430.726,38.5601,71.112,0,6.57672,7.58503,0.732876,13.4146,6.61585,-24.3598,-3.4632,0.246687,9.58008,9.7561,12.2561,9.84756
430.736,38.3779,71.0903,0,6.71324,7.65448,0.682581,11.8598,8.2622,-24.0854,-3.48715,0.376018,9.91538,8.84146,12.0732,8.71951
430.746,38.1682,71.0814,0,6.50487,7.72633,0.871787,14.0244,8.20122,-24.9085,-3.48715,0.63468,10.0806,7.92683,10.8232,8.32317
430.757,37.9288,71.0135,0,6.31567,7.87722,0.912502,14.3598,8.29268,-25.5488,-3.78892,0.778381,10.0878,5.91463,9.72561,7.65244
430.766,37.6778,70.9055,0,6.14083,7.80537,0.720901,14.878,8.04878,-26.1585,-3.72186,0.835862,9.37411,4.39024,11.7988,6.7378
430.776,37.4071,70.8135,0,6.0091,7.85327,0.740061,14.2683,6.61585,-27.1037,-3.67396,0.771196,9.40285,2.68293,15.122,6.28049
430.786,37.1203,70.7332,0,5.87259,7.91554,0.883762,15.3963,6.09756,-27.561,-3.80569,0.740061,9.83874,0.457317,13.811,5.45732
430.797,36.8202,70.5949,0,5.87259,8.30114,0.953218,15.2134,3.71951,-26.8598,-3.97094,0.64905,9.49625,-1.21951,13.1098,4.2378
430.807,36.5182,70.4421,0,5.98276,8.52866,0.869392,15,4.54268,-27.1951,-4.07153,0.538879,9.49865,-1.7378,12.5915,3.17073
430.816,36.1831,70.2996,0,5.82948,8.62446,1.03704,13.5061,3.47561,-29.1768,-4.13141,0.390388,9.68306,-2.31707,9.90854,2.56098
430.826,35.8464,70.1328,0,5.88935,8.75859,1.03465,12.9268,2.86585,-29.7256,-4.19847,0.177231,9.48667,-2.77439,8.2622,1.67683
430.837,35.4832,69.9678,0,5.7696,8.80888,0.893342,12.0122,5.57927,-31.7073,-4.14338,-0.0646655,9.30944,-2.71341,7.83537,0.914634
430.846,35.0947,69.8405,0,5.51573,8.64602,1.1065,11.7683,5.57927,-33.628,-4.01884,-0.241897,9.37411,-1.58537,6.18902,0.518293
430.856,34.6922,69.7282,0,5.38879,8.6053,0.917292,11.8293,6.95122,-34.878,-3.92544,-0.378413,9.27591,-0.0609756,4.78659,0.27439
430.866,34.289,69.6327,0,5.30976,8.56219,1.03465,10.7622,8.41463,-35.2439,-3.8009,-0.495769,9.12742,2.07317,4.35976,-0.0914634
430.876,33.9047,69.5722,0,5.34329,8.53106,1.06818,10.7317,7.07317,-34.6646,-3.62845,-0.5772,9.06754,4.90854,3.78049,0.396341
430.886,33.5277,69.5432,0,5.37203,8.50471,1.11608,8.38415,6.43293,-35.1524,-3.48236,-0.565225,9.01964,7.5,3.9939,1.21951
430.897,33.166,69.5432,0,5.29299,8.21252,1.14242,7.95732,5.03049,-35.4268,-3.28836,-0.387993,8.82804,9.32927,5.39634,1.85976
430.906,32.7718,69.565,0,4.91219,8.16702,1.29092,6.4939,3.84146,-35.8537,-3.13508,-0.222737,8.67237,10.1829,6.64634,3.35366
430.916,32.3545,69.6102,0,4.56491,8.05206,1.38193,6.52439,0.121951,-36.0061,-3.06802,0.0119751,8.78254,9.72561,7.83537,5.12195
430.926,31.9146,69.6639,0,4.28229,7.98739,1.37714,5.94512,-4.96951,-36.4024,-3.1279,0.203577,9.08431,8.84146,7.34756,6.09756
430.936,31.496,69.6929,0,4.47869,8.23168,1.32684,5.85366,-11.311,-35.8537,-3.27639,0.282612,9.21364,7.59146,6.40244,7.34756
430.947,31.1135,69.659,0,4.84991,8.33946,1.10171,4.93902,-16.0976,-36.3415,-3.5087,0.328118,9.07952,6.61585,5.64024,7.34756
430.956,30.7329,69.5804,0,5.01757,8.92863,1.01309,4.54268,-15.1524,-35.2134,-3.63085,0.301772,8.86157,5.27439,5.57927,6.85976
430.966,30.371,69.4906,0,5.16127,8.88552,0.764011,2.2561,-13.0183,-35.7317,-3.69791,0.273032,8.86636,4.45122,5.57927,5.57927
430.976,30.0425,69.4337,0,5.23312,8.62686,0.828677,1.40244,-14.6037,-35.3049,-3.61408,0.280217,8.9909,3.78049,4.90854,4.81707
430.986,29.7843,69.3838,0,5.60195,8.11672,0.507744,1.58537,-13.6585,-35.6707,-3.53265,0.361648,8.8472,3.01829,4.48171,4.90854
430.996,29.5355,69.35,0,5.31215,7.68322,0.407153,2.62195,-11.4634,-35.3354,-3.44164,0.419128,8.76817,1.7378,5.15244,5.12195
431.006,29.2666,69.2927,0,5.04391,7.75747,0.57241,1.03659,-9.69512,-34.5732,-3.43446,0.541274,8.48555,0.914634,4.93902,6.12805
431.016,28.9932,69.2539,0,4.78046,7.80776,0.670605,0.609756,-9.02439,-32.4085,-3.40093,0.550855,8.57177,0.396341,5.06098,7.13415
431.026,28.7372,69.2449,0,4.84033,8.01374,0.65863,0.792683,-9.72561,-30.4878,-3.33387,0.60594,8.71069,-0.762195,5.21341,8.04878
431.036,28.4853,69.219,0,4.9529,8.23647,0.447869,0.853659,-6.03659,-30.3659,-3.39853,0.541274,8.69153,-1.61585,4.14634,8.32317
431.046,28.2384,69.1681,0,5.14929,8.33467,0.481399,-0.365854,-2.13415,-31.7683,-3.4632,0.476609,8.58854,-2.16463,3.84146,8.14024
431.056,27.9977,69.1189,0,5.30736,8.51669,0.308958,0.823171,0.457317,-32.1037,-3.47517,0.392783,8.6053,-3.14024,4.14634,7.9878
431.066,27.7235,69.0882,0,4.9553,8.39215,0.459844,0.304878,3.32317,-33.2012,-3.41769,0.332908,8.65081,-3.81098,3.32317,7.59146
431.077,27.4523,69.065,0,4.84752,8.20294,0.548459,1.67683,1.0061,-33.5061,-3.40811,0.275427,8.7035,-3.90244,2.71341,7.53049
431.086,27.1807,69.0437,0,4.75411,8.32748,0.524509,2.65244,-0.548781,-32.3476,-3.34105,0.253872,8.55501,-3.93293,2.46951,7.34756
431.096,26.885,69.0131,0,4.48587,8.39694,0.888552,3.47561,-2.07317,-32.0732,-3.34584,0.270637,8.49753,-3.68902,2.22561,7.34756
431.106,26.5928,68.9982,0,4.37091,8.47358,0.627495,4.32927,-2.13415,-30.6402,-3.37698,0.215552,8.67716,-3.2622,2.40854,7.28659
431.116,26.3216,68.967,0,4.4739,8.46639,0.431104,5.18293,-2.16463,-30.2439,-3.42488,0.225132,8.69153,-3.53659,1.76829,7.43902
431.126,26.0443,68.9436,0,4.32541,8.48555,0.728086,6.58537,-2.46951,-29.6951,-3.40332,0.174836,8.6556,-2.77439,2.28659,7.37805
431.136,25.7622,68.9048,0,4.26553,8.46639,0.708926,7.86585,-4.05488,-30.2134,-3.45601,0.158071,8.64363,-2.37805,2.34756,7.89634
431.147,25.4664,68.8812,0,4.1841,8.57177,0.61552,8.2622,-6.12805,-30.7012,-3.44404,0.143701,8.73224,-1.28049,2.13415,8.17073
431.156,25.1601,68.8668,0,4.14099,8.62686,0.383203,7.7439,-5.39634,-31.6159,-3.44643,0.117356,8.7993,-0.762195,2.28659,8.62805
431.166,24.8521,68.8489,0,4.11943,8.74422,0.510139,8.01829,-5.64024,-31.5549,-3.44404,0.143701,8.76577,0.152439,2.0122,9.02439
431.176,24.5383,68.7993,0,4.12422,8.96216,0.589175,7.83537,-2.77439,-31.7378,-3.47996,0.150886,8.63884,0.731707,1.7378,9.02439
431.186,24.2442,68.6815,0,4.19368,8.93342,0.6251,7.86585,0,-31.25,-3.51349,0.117356,8.43526,1.67683,1.25,9.5122
431.196,23.952,68.5407,0,4.15536,9.15137,0.534089,7.04268,2.89634,-30.1829,-3.5111,0.153281,8.42089,1.79878,0.823171,9.69512
431.206,23.6717,68.3206,0,4.16494,9.12502,0.756826,8.10976,3.32317,-29.7866,-3.55181,0.0455054,8.48316,2.46951,-0.0304878,9.7561
431.216,23.3849,67.887,0,4.12662,9.10107,0.603545,8.65854,4.87805,-30.7317,-3.50391,-0.0526904,8.04966,4.05488,-0.0609756,9.63415
431.226,23.0668,67.7701,0,3.91346,9.17292,0.481399,8.62805,4.63415,-31.8902,-3.46799,-0.0958008,8.00176,5.18293,1.55488,9.96951
431.236,22.736,67.7526,0,3.79371,9.05317,0.445474,8.2622,6.85976,-33.0793,-3.49433,-0.0574805,8.464,5.85366,1.21951,10.0305
431.247,22.3916,67.6493,0,3.66677,8.93103,0.455054,9.48171,7.2561,-34.2988,-3.51349,-0.0526904,8.33706,6.98171,0.213415,10.2744
431.256,22.036,67.4381,0,3.52307,8.88552,0.608335,9.84756,6.95122,-34.7256,-3.54463,0.00479004,8.11193,6.85976,0.426829,10.2439
431.266,21.6752,67.2693,0,3.4153,8.95498,0.579595,9.78659,9.32927,-34.4512,-3.4608,0.162861,7.86045,6.25,0.945122,10.1524
431.276,21.3168,67.1737,0,3.34345,8.96216,0.603545,9.87805,9.11585,-34.0854,-3.33147,0.258662,7.19943,5.30488,4.54268,10.2439
431.286,20.9698,67.1519,0,3.40332,8.943,0.318538,7.83537,7.10366,-34.4207,-3.26202,0.330513,7.56108,5.12195,6.98171,10.1524
431.297,20.644,67.1823,0,3.46799,8.77056,0.220342,7.2561,6.55488,-34.4817,-3.23567,0.320933,7.98499,6.46341,6.31098,10.6402
431.306,20.3589,67.275,0,3.63564,8.5095,0.459844,8.78049,3.84146,-34.1768,-3.24525,0.306563,8.62686,7.46951,3.90244,10.6402
431.316,20.132,67.3909,0,3.87514,8.33227,0.304167,10.3354,0.365854,-32.5,-3.35063,0.251477,8.77535,7.59146,1.58537,10.5793
431.326,19.9765,67.4498,0,4.21284,8.40412,0.320933,13.2012,-1.06707,-29.1159,-3.41051,0.404758,8.71787,6.31098,2.68293,10.8232
431.336,19.8654,67.5148,0,4.46192,8.81367,-0.0383203,14.0854,1.0061,-25.3659,-3.50152,0.543669,9.0891,4.14634,2.86585,10.7317
431.347,19.7761,67.5311,0,4.57928,9.19687,-0.229922,14.1159,7.68293,-22.5915,-3.54942,0.730481,8.7538,3.29268,4.14634,11.0061
431.356,19.6562,67.5768,0,4.28469,9.65911,-0.0407153,11.9207,9.57317,-20.7012,-3.56618,0.833467,9.15376,2.31707,6.58537,11.189
431.366,19.4985,67.6117,0,3.93741,9.5705,-0.0215552,12.2561,8.41463,-21.6159,-3.7051,0.799937,9.40045,1.89024,6.70732,11.2195
431.376,19.2997,67.6299,0,3.67635,9.38369,0.126936,13.2622,8.01829,-24.1463,-3.74342,0.6251,9.31663,1.76829,7.71341,10.4878
431.387,19.0665,67.6114,0,3.50152,9.21843,0.170046,13.3232,5.73171,-26.8598,-3.78653,0.352068,9.01246,2.83537,9.69512,9.45122
431.396,18.8509,67.6065,0,3.51589,8.91426,0.493374,16.4024,4.14634,-27.0122,-3.77216,0.102986,9.12742,2.95732,11.5244,8.20122
431.406,18.6197,67.5938,0,3.26681,8.93103,0.304167,17.439,3.04878,-26.128,-3.77934,0.00239502,9.05317,3.14024,11.2195,7.19512
431.416,18.3841,67.5978,0,3.09676,9.0867,0.122146,17.5915,3.32317,-24.4512,-3.58295,0.0814307,8.76338,3.14024,13.7805,7.16463
431.426,18.1412,67.6372,0,2.95785,9.21843,0.313748,15.6098,2.16463,-23.5671,-3.49673,0.289797,8.95258,2.89634,14.878,7.80488
431.436,17.9282,67.6366,0,3.13987,9.25436,0.443079,13.1098,2.68293,-22.9573,-3.49673,0.495769,8.52866,2.46951,17.0732,8.90244
431.447,17.769,67.646,0,3.48954,9.25196,0.505349,11.8902,2.86585,-21.8293,-3.52307,0.603545,8.7059,1.52439,18.9024,9.02439
431.456,17.6391,67.6489,0,3.61408,9.22801,0.555645,10.5793,0.426829,-20.6402,-3.5566,0.675395,8.72266,1.12805,19.6341,8.71951
431.466,17.5395,67.6369,0,3.64522,9.05796,0.61073,9.63415,0.579268,-18.9024,-3.53026,0.711321,8.50471,0.548781,22.378,8.01829
431.476,17.4496,67.6342,0,3.57337,9.10826,0.514929,7.5,0.731707,-17.1037,-3.50631,0.689766,8.54543,-0.152439,24.9085,7.37805
431.486,17.3521,67.6336,0,3.3674,9.29507,0.256267,4.54268,0.457317,-14.9695,-3.45601,0.61552,8.44963,-0.213415,27.5,6.40244
431.496,17.2783,67.6489,0,3.36261,9.29507,0.225132,2.59146,-1.25,-12.7134,-3.40572,0.493374,8.49992,-0.853659,29.4207,5.85366
431.506,17.2286,67.6567,0,3.37458,9.17053,0.0862207,3.44512,-2.71341,-11.0366,-3.42488,0.462239,8.47837,-1.12805,31.6159,5.7622
431.516,17.1531,67.663,0,3.0297,9.30226,0.0718506,5.70122,-7.56098,-9.35976,-3.59253,0.455054,8.88073,-1.06707,32.1646,5.67073
431.526,17.0517,67.6134,0,2.76625,9.24717,-0.0550855,5.60976,-12.3171,-9.32927,-3.8488,0.426313,8.88313,-0.426829,33.3537,5.73171
431.536,16.9467,67.5053,0,2.71835,9.11305,-0.102986,4.7561,-16.189,-9.81707,-4.06195,0.361648,8.73464,0.27439,35.6098,5.39634
431.547,16.8275,67.3595,0,2.69919,9.19927,0.0311353,3.65854,-22.439,-10.9451,-4.33259,0.311353,8.88792,-0.182927,37.7439,4.87805
431.556,16.7126,67.1823,0,2.77343,9.16813,0.213157,4.72561,-25.2439,-11.7378,-4.54335,0.294587,8.94779,0,39.5732,4.57317
431.566,16.6129,66.9656,0,2.96743,9.39566,0.153281,4.7561,-26.7683,-11.8293,-4.78285,0.241897,8.96216,0,41.128,3.96341
431.576,16.5397,66.71,0,3.24046,9.52978,0.205972,4.72561,-31.311,-11.8902,-4.94572,0.282612,8.82325,0.518293,43.5061,2.83537
431.586,16.4694,66.4167,0,3.29076,9.616,0.198787,3.68902,-33.0488,-11.9817,-5.01038,0.352068,8.51669,0.487805,46.128,1.98171
431.596,16.384,66.1242,0,3.23328,9.77886,0.153281,2.9878,-31.2195,-12.439,-5.09421,0.505349,8.56699,0.365854,46.9512,1.70732
431.606,16.2872,65.8438,0,3.24525,9.79803,-0.0287402,1.40244,-30.7927,-13.8415,-5.03433,0.60594,8.47358,0.884146,48.689,2.13415
431.616,16.2037,65.5658,0,3.45362,9.58247,-0.136516,-0.792683,-29.1768,-15.7317,-4.88824,0.58678,8.15744,1.82927,49.4207,2.68293
431.626,16.0987,65.3234,0,3.36261,9.44117,-0.282612,-1.79878,-27.0732,-17.6524,-4.8571,0.507744,8.31072,1.7378,51.2195,3.32317
431.636,15.9613,65.0881,0,3.04646,9.35255,-0.213157,-1.7378,-28.5061,-17.9878,-4.78525,0.474214,8.16941,1.92073,52.0427,3.90244
431.647,15.8055,64.849,0,2.91953,9.25436,-0.162861,-3.32317,-27.2561,-19.0549,-4.78046,0.517324,8.05445,2.92683,52.8354,4.84756
431.656,15.6525,64.633,0,3.01054,9.0867,-0.366438,-4.26829,-19.5427,-20.7622,-4.79243,0.617915,8.18857,3.2622,53.872,5.12195
431.666,15.4728,64.4049,0,2.93869,8.86157,-0.0981958,-3.2622,-16.5549,-23.8415,-4.79722,0.665815,8.0305,3.65854,55.0305,5.70122
431.676,15.2867,64.1605,0,2.99617,8.80409,-0.0143701,-0.701219,-11.8293,-25.7622,-4.91458,0.780776,8.02332,3.41463,56.5244,5.67073
431.686,15.0917,63.869,0,3.00575,9.15616,-0.155676,-0.304878,-9.7561,-25.7927,-5.05828,0.809517,7.81495,2.86585,58.0183,5.39634
431.697,14.8975,63.5586,0,2.91474,9.24478,-0.172441,1.92073,-11.25,-24.7256,-5.29539,0.840652,7.94667,1.89024,58.6585,4.29878
431.706,14.7109,63.2208,0,2.91474,9.35255,-0.318538,4.08537,-13.0488,-23.9634,-5.47741,0.905317,7.91554,1.46341,58.2622,3.47561
431.716,14.5212,62.8556,0,2.85007,9.63037,-0.325723,5.54878,-17.1037,-22.9878,-5.56842,1.02986,7.74549,1.09756,58.5061,2.9878
431.726,14.3259,62.4814,0,2.64889,9.83156,-0.220342,5.51829,-17.0732,-21.0671,-5.68817,1.00591,7.7431,0.27439,59.0854,2.95732
431.736,14.1363,62.0819,0,2.46687,9.98005,-0.354463,3.78049,-13.0793,-18.4451,-5.84145,0.902922,7.66406,-0.609756,59.2683,2.89634
431.746,13.936,61.6676,0,2.23216,9.96807,-0.114961,2.40854,-10.5183,-17.3476,-5.92288,0.792751,7.55868,-1.37195,60,2.40854
431.756,13.7604,61.2496,0,2.38304,9.81719,0.0934058,2.92683,-8.81098,-17.3171,-6.0115,0.701741,7.53234,-1.70732,59.878,2.53049
431.766,13.58,60.8238,0,2.39023,9.56331,0.0814307,1.61585,-10.5183,-18.9634,-6.04263,0.593965,7.4078,-2.10366,60.2134,2.53049
431.776,13.3864,60.3587,0,2.44292,9.30226,0.265847,0.121951,-13.2622,-22.0732,-6.10251,0.510139,7.1156,-2.62195,61.0366,2.77439
431.787,13.1848,59.9072,0,2.5004,9.25196,-0.0670605,-0.640244,-10.2439,-24.1159,-6.18155,0.402363,7.17548,-3.01829,60.5793,2.65244
431.796,12.9628,59.4655,0,2.36149,9.52978,-0.210762,-1.06707,-9.5122,-24.1463,-6.18394,0.445474,7.12518,-3.41463,59.2073,2.68293
431.806,12.705,58.9905,0,1.99266,9.4268,-0.112566,-0.396341,-9.45122,-24.2073,-6.21029,0.526904,6.84018,-3.35366,58.872,2.77439
431.816,12.4554,58.5212,0,2.12199,9.45314,-0.246687,2.77439,-9.78659,-25.3659,-6.24382,0.661025,6.79707,-3.44512,58.5976,3.07927
431.826,12.1671,58.029,0,1.71723,9.55852,-0.349673,5.09146,-12.378,-24.7866,-6.41386,0.768801,6.73,-3.68902,57.9268,3.35366
431.836,11.9084,57.5394,0,1.8274,9.4747,-0.0790356,6.79878,-13.6585,-23.8415,-6.54319,0.816702,6.76354,-3.93293,57.2256,3.9939
431.847,11.6382,57.0325,0,1.67412,9.57768,-0.0981958,6.85976,-12.1646,-23.5061,-6.64618,0.754431,6.65097,-3.47561,56.9207,3.9939
431.857,11.3901,56.5094,0,1.83698,9.79803,-0.172441,6.43293,-11.4024,-23.2317,-6.71563,0.699346,6.50966,-3.71951,57.2561,3.75
431.866,11.1201,56.0103,0,1.66693,9.98244,-0.0790356,4.02439,-12.2866,-23.6585,-6.75875,0.538879,6.56954,-3.9939,56.9817,3.56707
431.876,10.8666,55.5326,0,1.79866,9.75731,0,0.792683,-13.1707,-24.4817,-6.80904,0.423918,6.62702,-4.2378,55.8537,3.65854
431.887,10.6457,55.0657,0,2.03098,9.69504,-0.160466,-2.19512,-13.6585,-24.5122,-6.81862,0.426313,6.5887,-4.32927,55.6098,3.35366
431.896,10.4482,54.6514,0,2.09564,9.52499,-0.0167651,-2.0122,-9.90854,-23.75,-6.67013,0.510139,6.64139,-5.03049,55.3049,4.35976
431.906,10.259,54.2526,0,2.05493,9.46512,-0.0981958,-0.152439,-5.33537,-22.9878,-6.62223,0.66821,6.5887,-6.28049,55.3049,5.39634
431.916,10.0626,53.8321,0,1.96392,9.40524,-0.148491,2.0122,-3.20122,-23.1707,-6.77072,0.819097,6.51685,-7.59146,54.5732,6.15854
431.926,9.81986,53.3898,0,1.50647,9.37411,-0.191602,3.07927,-1.12805,-22.8659,-6.86652,0.845442,6.38752,-8.53659,54.2378,7.07317
431.936,9.59766,52.9532,0,1.79147,9.68306,-0.196392,5.06098,-5.57927,-24.0244,-6.91442,0.833467,6.36596,-9.20732,54.3598,7.7439
431.947,9.35828,52.4886,0,1.58071,9.56331,-0.481399,4.78659,-5.12195,-23.9939,-7.00304,0.752036,6.19352,-9.5122,54.3598,7.83537
431.956,9.12311,52.0379,0,1.5855,9.60642,-0.661025,2.65244,-2.95732,-24.0244,-7.02938,0.6251,6.19113,-9.54268,53.7805,7.71341
431.966,8.88686,51.6129,0,1.5376,9.6184,-0.404758,-0.304878,-3.47561,-24.0244,-7.05094,0.488584,6.2534,-9.2378,53.2317,7.59146
431.976,8.63732,51.209,0,1.2502,9.54176,-0.107776,-1.67683,-1.06707,-22.561,-6.97909,0.328118,6.21268,-9.45122,52.8049,7.46951
431.987,8.41391,50.7691,0,1.4418,9.72617,-0.172441,-0.182927,0.365854,-22.378,-7.0701,0.179626,6.0091,-8.87195,52.8659,7.53049
431.997,8.16449,50.3444,0,1.09931,9.73096,-0.174836,1.43293,1.52439,-21.4329,-7.15871,0.215552,6.07137,-8.75,52.1951,7.37805
432.007,7.92224,49.9046,0,0.979563,9.70701,-0.00958008,2.89634,0.182927,-19.8171,-7.20901,0.210762,5.94204,-8.38415,52.2866,7.46951
432.016,7.6994,49.489,0,0.993933,9.80521,0.0143701,4.72561,-0.701219,-18.3841,-7.3072,0.289797,6.0594,-7.80488,51.8902,8.14024
432.026,7.50788,49.0471,0,1.17116,9.81719,-0.225132,5.67073,0.335366,-17.7134,-7.3599,0.222737,5.87259,-7.37805,51.8293,8.71951
432.036,7.33668,48.6013,0,1.20469,9.76928,-0.282612,4.90854,0.640244,-16.4939,-7.53473,0.220342,5.89654,-6.89024,51.9817,8.9939
432.046,7.1528,48.1252,0,1.17595,9.78605,-0.380808,2.86585,-2.13415,-17.7744,-7.61856,0.203577,5.70733,-6.40244,52.1341,9.35976
432.056,6.96447,47.6215,0,1.12805,9.69025,-0.409548,0.0914634,-2.92683,-18.1707,-7.64969,0.191602,5.48938,-6.09756,52.2561,9.87805
432.066,6.76946,47.1069,0,1.03944,9.58008,-0.352068,-0.640244,-4.48171,-18.3232,-7.78621,0.155676,5.42951,-5.33537,52.7134,9.90854
432.076,6.55583,46.6299,0,0.809517,9.616,-0.191602,-0.548781,-4.87805,-17.8049,-7.58503,0.268242,5.37442,-4.93902,52.5,9.93902
432.086,6.36444,46.1202,0,0.831072,9.65672,-0.354463,-2.31707,-3.78049,-16.189,-7.85806,0.184417,5.30497,-4.54268,53.1402,9.90854
432.096,6.22454,45.6114,0,1.14482,9.73815,-0.196392,-0.609756,-7.43902,-14.9695,-7.81974,0.282612,5.18282,-4.5122,53.4146,9.35976
432.106,6.10169,45.0779,0,1.17835,9.78844,-0.483794,0.548781,-10,-13.8415,-8.16941,0.229922,5.18522,-3.47561,53.4146,8.87195
432.116,6.00835,44.5429,0,1.34121,9.88904,-0.64426,1.55488,-10,-12.8354,-8.15504,0.203577,5.06307,-2.68293,53.9634,8.71951
432.126,5.94523,43.9875,0,1.47294,9.83874,-0.720901,2.34756,-8.90244,-11.5549,-8.38496,0.105381,4.99601,-2.5,54.8171,7.83537
432.137,5.90285,43.4267,0,1.51844,9.79084,-0.665815,3.38415,-8.47561,-10.1829,-8.33706,0.105381,4.83315,-2.19512,55.3963,7.7439
432.146,5.8599,42.8715,0,1.26218,9.68067,-0.866997,3.35366,-6.0061,-7.5,-8.49274,0.0694556,4.84033,-2.13415,55.5183,7.04268
432.156,5.8607,42.3592,0,1.5855,9.63516,-0.799937,5.03049,-5.27439,-7.04268,-8.32509,0.213157,4.84752,-2.43902,55.8537,6.70732
432.166,5.8548,41.8211,0,1.51605,9.62558,-0.778381,6.64634,-3.9939,-6.92073,-8.22689,0.273032,4.5697,-2.92683,56.5854,6.76829
432.176,5.81631,41.3004,0,1.19751,9.76928,-0.65863,6.37195,-3.32317,-6.25,-8.49274,0.337698,4.69903,-3.47561,57.1646,6.21951
432.186,5.76466,40.7973,0,1.01549,9.66869,-0.498164,5.42683,-1.82927,-5.64024,-8.19815,0.459844,4.5218,-4.08537,57.3476,6.82927
432.196,5.73974,40.2608,0,1.32445,9.59445,-0.56762,5.94512,-1.82927,-6.82927,-8.38736,0.498164,4.37331,-4.60366,58.5671,6.15854
432.206,5.70147,39.7195,0,1.27894,9.59924,-0.59636,4.81707,-1.06707,-7.68293,-8.53106,0.464634,4.32541,-5.42683,59.4817,6.4939
432.216,5.64379,39.1363,0,1.18074,9.72138,-0.589175,3.01829,-1.40244,-8.38415,-8.67237,0.280217,4.09788,-5.85366,60.1829,6.03659
432.227,5.57405,38.5366,0,1.1065,9.81958,-0.65384,1.85976,-0.426829,-8.71951,-8.78733,0.136516,3.96615,-5.79268,60.5793,5.4878
432.237,5.46237,37.9367,0,0.574805,9.7597,-0.608335,1.21951,1.7378,-6.89024,-8.81607,0.0790356,3.86796,-5.12195,61.0976,4.90854
432.246,5.44157,37.3348,0,1.31726,9.89383,-0.421523,3.53659,-0.243902,-6.46341,-8.72745,0.0526904,3.71228,-4.7561,61.4634,4.87805
432.256,5.42136,36.7194,0,1.15679,9.89862,-0.510139,4.26829,-0.97561,-4.60366,-8.89989,-0.122146,3.61408,-4.08537,62.2866,4.39024
432.266,5.42542,36.1059,0,1.14721,9.86509,-0.725691,4.7561,-1.95122,-2.43902,-9.06036,-0.177231,3.57576,-2.9878,62.5305,3.78049
432.276,5.40634,35.4938,0,0.886157,9.78844,-0.787961,3.93293,-4.20732,-1.12805,-8.85918,-0.117356,3.39374,-1.89024,63.0793,3.56707
432.286,5.41904,34.9009,0,1.04423,9.75252,-0.687371,4.96951,-6.92073,-1.09756,-8.92863,-0.134121,3.39853,-1.31098,63.7195,3.38415
432.296,5.39366,34.3175,0,0.859812,9.67588,-0.905317,4.7561,-6.85976,-1.61585,-8.98851,0.00239502,3.35782,-0.914634,63.9939,2.83537
432.306,5.33735,33.7193,0,0.670605,9.57768,-0.651445,4.08537,-9.69512,-2.0122,-8.95977,0.0431104,3.17819,-1.37195,64.5732,2.83537
432.316,5.27613,33.1,0,0.64426,9.57768,-0.6251,4.11585,-10.2134,-2.7439,-9.24238,0.114961,3.07521,-1.7378,65.0305,2.19512
432.326,5.2317,32.495,0,0.843047,9.67827,-0.63468,3.01829,-11.25,-3.90244,-9.15616,0.263452,3.00096,-2.56098,65.6098,2.19512
432.336,5.19327,31.8962,0,0.893342,9.64235,-0.5772,2.22561,-8.2622,-4.05488,-9.31423,0.273032,2.97222,-3.5061,65.7012,1.95122
432.346,5.14243,31.2942,0,0.701741,9.66869,-0.416733,2.53049,-9.57317,-2.77439,-9.15376,0.273032,2.80217,-4.45122,66.0061,1.55488
432.356,5.11293,30.7046,0,0.821492,9.7621,-0.958008,2.86585,-6.61585,-2.19512,-9.35974,0.280217,2.81415,-4.69512,66.25,1.18902
432.367,5.10942,30.0914,0,0.986748,9.69743,-0.931663,3.44512,-10.0305,-2.13415,-9.34058,0.208367,2.5986,-5.64024,66.311,0.823171
432.376,5.07957,29.4554,0,0.787961,9.6184,-0.749641,3.71951,-10.3049,-1.89024,-9.15856,0.0838257,2.34472,-5.54878,66.6463,0.609756
432.386,5.09667,28.8704,0,1.09452,9.48188,-0.886157,5.15244,-4.93902,-2.19512,-9.24478,-0.0502954,2.47885,-5.97561,66.0366,-0.0609756
432.397,5.10344,28.2732,0,1.16398,9.55373,-0.962798,6.95122,0.548781,-3.38415,-9.16574,-0.131726,2.30401,-5.60976,64.6037,0.0304878
432.406,5.03338,27.6841,0,0.548459,9.65911,-0.864602,5.03049,3.56707,-2.92683,-9.53457,-0.258662,2.32556,-4.7561,62.6829,-0.487805
432.416,5.02222,27.0878,0,1.12326,9.74773,-0.919688,5,11.4634,-4.35976,-9.75491,-0.251477,2.23934,-5.51829,61.0061,-1.09756
432.426,4.94823,26.5175,0,0.59636,9.71899,-0.826282,4.90854,9.63415,-4.39024,-9.74533,-0.0239502,2.24653,-5.42683,60.0305,-0.609756
432.436,4.8891,25.9499,0,0.728086,9.77407,-0.716111,4.08537,5.39634,-4.60366,-9.88664,0.0335303,2.18905,-5.88415,60.5488,-0.335366
432.446,4.83242,25.3663,0,0.744851,9.72617,-0.711321,4.72561,4.87805,-4.72561,-9.84353,0.0359253,2.00463,-6.43293,60.0915,-0.304878
432.456,4.78662,24.803,0,0.797541,9.76928,-0.62031,5.2439,1.89024,-4.32927,-9.69743,0.0574805,1.96152,-6.82927,59.4817,-0.121951
432.466,4.74603,24.2461,0,0.737666,9.79803,-0.65863,3.41463,3.29268,-3.07927,-9.5681,0.0191602,1.86572,-7.2561,59.5122,-0.0609756
432.476,4.71059,23.7083,0,0.790356,9.86269,-0.62989,2.31707,3.2622,-3.2622,-9.4747,-0.100591,1.83458,-8.29268,59.0854,0.243902
432.486,4.65455,23.16,0,0.5772,9.79323,-0.443079,2.2561,4.39024,-2.59146,-9.36213,-0.210762,1.67651,-7.80488,58.5061,0.243902
432.497,4.57436,22.5965,0,0.411943,9.78366,-0.589175,0.609756,3.14024,-1.43293,-9.31423,-0.289797,1.51126,-7.19512,58.1402,0.213415
432.506,4.51822,22.0178,0,0.548459,9.82916,-0.65863,1.28049,1.37195,-1.03659,-9.53697,-0.457449,1.38672,-5.97561,58.5366,0.304878
432.516,4.36736,21.4353,0,0.249082,9.79084,-0.696951,1.4939,-1.09756,0.27439,-9.37411,-0.469424,1.2502,-4.69512,58.2317,0.426829
432.526,4.31745,20.8623,0,0.376018,9.80281,-0.543669,1.55488,-4.81707,1.43293,-9.63756,-0.534089,1.22625,-2.77439,57.622,0.579268
432.536,4.30206,20.3022,0,0.445474,9.73815,-0.550855,2.7439,-4.45122,2.5,-9.60403,-0.514929,1.17835,-1.12805,55.6098,0.823171
432.546,4.34055,19.7576,0,0.766406,9.7118,-0.720901,3.71951,-5.60976,3.47561,-9.78605,-0.469424,1.16877,0.518293,52.8354,1.43293
432.556,4.32849,19.2014,0,0.265847,9.79323,-0.651445,2.13415,-7.59146,4.57317,-10.0543,-0.455054,1.04902,2.22561,49.2683,1.25
432.566,4.3186,18.6561,0,0.0455054,9.66869,-0.701741,0.823171,-7.34756,7.28659,-10.2507,-0.383203,1.01549,3.71951,45.9146,0.792683
432.576,4.34959,18.1352,0,0.227527,9.70941,-0.677791,0.762195,-11.8293,9.2378,-10.368,-0.364043,1.03704,4.63415,42.5915,0.152439
432.587,4.3917,17.5966,0,0.160466,9.75252,-0.61073,-0.304878,-15.7317,11.25,-10.5022,-0.210762,0.869392,4.90854,39.6037,-0.487805
432.596,4.47369,17.0732,0,0.421523,9.65193,-0.716111,-0.701219,-12.5305,12.2256,-10.4088,-0.0934058,0.831072,4.96951,37.6524,-0.0609756
432.606,4.54945,16.5428,0,0.385598,9.59684,-0.57241,0.426829,-11.372,12.1646,-10.3489,-0.0550855,0.696951,4.87805,35.1829,1.0061
432.616,4.54743,15.9909,0,-0.344883,9.49625,-0.471819,0.823171,-12.2256,13.3232,-10.2004,-0.0814307,0.493374,4.81707,33.1707,1.61585
432.627,4.63087,15.437,0,0.65384,9.75491,-0.919688,1.52439,-7.59146,9.96951,-10.2291,-0.0886157,0.385598,4.26829,31.0976,2.37805
432.636,4.66477,14.9222,0,0.457449,9.81719,-0.694556,1.52439,-8.75,7.46951,-10.2962,-0.0718506,0.464634,3.75,29.8476,2.95732
432.646,4.68583,14.4229,0,0.60594,9.86509,-0.783171,1.40244,-7.28659,4.54268,-10.2986,-0.0958008,0.440684,3.87195,27.622,3.32317
432.656,4.71391,13.9314,0,0.866997,9.97286,-0.843047,0.884146,-4.93902,2.19512,-10.3177,-0.213157,0.385598,3.65854,25.7012,3.75
432.666,4.73169,13.4324,0,0.878972,9.94412,-0.766406,0.548781,-2.16463,0,-10.3082,-0.273032,0.261057,3.53659,24.3293,3.90244
432.676,4.69483,12.931,0,0.711321,9.94652,-0.699346,0.97561,1.25,-2.22561,-10.3776,-0.390388,0.160466,4.20732,23.2622,4.08537
432.687,4.61926,12.4397,0,0.510139,10.0926,-0.632285,1.12805,2.28659,-3.93293,-10.4183,-0.390388,0.114961,4.7561,21.8598,4.08537
432.696,4.50986,11.9139,0,0.323328,10.1453,-0.684976,0.426829,2.16463,-5.42683,-10.6004,-0.457449,-0.136516,5.36585,20.5183,4.17683
432.706,4.37591,11.4292,0,0.203577,10.1525,-0.632285,-0.121951,1.85976,-6.79878,-10.7656,-0.471819,-0.0431104,6.55488,19.4512,4.54268
432.716,4.21724,10.9755,0,0.0742456,10.1812,-0.62031,-0.762195,0.182927,-8.10976,-10.7225,-0.423918,0.0119751,7.16463,18.3841,4.54268
432.726,4.0529,10.5534,0,-0.00958008,10.1573,-0.64426,-1.7378,-3.5061,-8.04878,-10.6626,-0.440684,0.0742456,7.9878,16.8293,5.06098
432.737,3.89662,10.1556,0,0.0167651,10.0615,-0.689766,-2.95732,-7.86585,-7.86585,-10.5644,-0.392783,0.107776,7.77439,15.3354,5.60976
432.746,3.76012,9.7632,0,0.122146,9.92736,-0.637075,-3.84146,-11.7988,-7.40854,-10.4016,-0.277822,0.0574805,7.83537,14.2073,6.31098
432.756,3.65447,9.41097,0,0.323328,9.73575,-0.6251,-4.14634,-14.3598,-6.98171,-10.2938,-0.285007,0.167651,7.31707,13.0488,7.04268
432.766,3.57445,9.06752,0,0.474214,9.71899,-0.785566,-5.09146,-14.4512,-6.40244,-10.1501,-0.244292,0.141306,7.10366,12.0122,7.71341
432.776,3.51559,8.73362,0,0.63468,9.67588,-0.811912,-5.54878,-14.3598,-6.37195,-10.1309,-0.237107,0.122146,6.95122,11.0976,7.83537
432.786,3.47032,8.40779,0,0.771196,9.62558,-0.716111,-4.90854,-14.1159,-6.79878,-10.0735,-0.0790356,0.0981958,6.58537,10.6402,7.95732
432.796,3.44263,8.12713,0,0.955613,9.57768,-0.764011,-4.17683,-13.3841,-7.37805,-10.0232,-0.0742456,0.239502,6.76829,9.60366,8.01829
432.806,3.4434,7.8362,0,1.15679,9.65193,-0.752036,-3.53659,-10.8537,-6.85976,-9.8124,-0.0431104,0.141306,6.18902,8.32317,8.5061
432.816,3.46781,7.55361,0,1.28613,9.59924,-0.754431,-3.17073,-7.77439,-6.09756,-9.94891,-0.162861,0.129331,6.4939,7.2561,8.07927
432.826,3.51285,7.2801,0,1.37714,9.63277,-0.687371,-2.9878,-4.84756,-5.06098,-9.94652,-0.150886,0.122146,6.37195,6.09756,7.95732
432.836,3.56118,7.01533,0,1.34361,9.55134,-0.665815,-2.22561,-2.65244,-4.48171,-10.1022,-0.244292,0.119751,5.79268,5.09146,7.68293
432.846,3.59171,6.73175,0,1.19032,9.6639,-0.749641,-1.7378,-0.0914634,-4.17683,-10.0327,-0.225132,0.00239502,5.54878,4.39024,7.19512
432.856,3.6144,6.44638,0,1.06339,9.72138,-0.740061,-2.92683,-0.0914634,-3.44512,-9.94173,-0.246687,-0.0455054,5.45732,4.14634,7.62195
432.866,3.63821,6.17166,0,0.969983,9.71659,-0.656235,-3.47561,-0.884146,-2.53049,-9.90341,-0.237107,-0.0383203,5.85366,3.87195,7.7439
432.876,3.65833,5.90419,0,0.946033,9.70941,-0.744851,-3.20122,-1.58537,-2.53049,-9.91538,-0.162861,-0.0191602,5.51829,3.20122,8.29268
432.886,3.6683,5.63972,0,0.886157,9.74773,-0.766406,-2.22561,-1.98171,-2.59146,-9.94412,-0.0574805,-0.00958008,5.30488,2.68293,8.59756
432.896,3.67226,5.36671,0,0.840652,9.75491,-0.802332,-1.76829,-1.64634,-2.56098,-9.95131,0.00718506,-0.0239502,4.35976,2.19512,9.20732
432.906,3.67394,5.07794,0,0.840652,9.79323,-0.728086,-1.55488,-2.13415,-2.68293,-10.0351,0.0479004,-0.0383203,3.87195,1.64634,9.54268
432.916,3.67703,4.81999,0,0.898132,9.82677,-0.656235,-1.40244,-2.22561,-3.10976,-10.0423,0.0455054,-0.0263452,2.89634,1.85976,9.66463
432.926,3.67687,4.5353,0,0.847837,9.81719,-0.622705,-1.58537,-2.0122,-2.86585,-9.95849,0.0143701,-0.0263452,1.70732,1.34146,9.7561
432.936,3.68228,4.24062,0,0.919688,9.82197,-0.63947,-1.64634,-1.55488,-3.14024,-9.94412,-0.0191602,-0.0502954,1.15854,1.15854,9.96951
432.946,3.68632,3.93376,0,0.917292,9.78366,-0.5772,-1.18902,-0.640244,-3.2622,-9.97526,-0.0598755,-0.0502954,0.27439,0.853659,9.57317
432.956,3.68856,3.64483,0,0.924478,9.81,-0.711321,-1.0061,1.64634,-3.44512,-9.94652,-0.129331,-0.0766406,-0.396341,0.945122,9.17683
432.966,3.69232,3.32162,0,0.890947,9.77407,-0.711321,-1.09756,1.95122,-3.01829,-9.91299,-0.213157,-0.100591,-0.365854,0.640244,8.90244
432.976,3.7014,2.99799,0,0.924478,9.75252,-0.699346,-0.914634,0.426829,-2.95732,-9.87706,-0.268242,-0.229922,-0.182927,0.884146,8.84146
432.986,3.71068,2.74502,0,0.917292,9.74533,-0.766406,-1.06707,0.335366,-2.86585,-9.92975,-0.205972,-0.210762,0.27439,1.21951,9.08537
432.996,3.71286,2.5282,0,0.895737,9.70701,-0.64905,-0.426829,0.426829,-3.23171,-9.92496,-0.172441,-0.215552,0.762195,1.55488,9.63415
433.007,3.71656,2.32296,0,0.946033,9.75012,-0.720901,-1.25,1.03659,-3.56707,-9.78126,-0.131726,-0.203577,0.457317,1.64634,10.0305
433.016,3.71708,2.13672,0,0.955613,9.70222,-0.677791,-1.55488,1.89024,-3.9939,-9.87946,-0.0431104,-0.172441,0.640244,1.4939,9.96951
433.026,3.70584,1.94224,0,0.895737,9.71899,-0.689766,-1.21951,1.95122,-4.39024,-9.90101,-0.0359253,-0.184417,-0.0304878,1.21951,9.96951
433.036,3.68416,1.79101,0,0.847837,9.76689,-0.704136,-1.09756,1.95122,-4.81707,-9.82197,-0.0407153,-0.0910107,-0.518293,1.28049,9.7561
433.046,3.65874,1.63269,0,0.821492,9.71899,-0.701741,-1.06707,2.7439,-4.96951,-9.90101,-0.0574805,-0.177231,-0.914634,1.46341,9.42073
433.056,3.62771,1.50743,0,0.752036,9.75491,-0.802332,-1.52439,3.5061,-4.72561,-9.95131,-0.0694556,-0.105381,-1.40244,1.43293,8.90244
433.066,3.59441,1.37263,0,0.711321,9.77647,-0.752036,-1.28049,2.95732,-4.5122,-9.94173,-0.126936,-0.0958008,-1.64634,0.97561,8.93293
433.076,3.56163,1.26205,0,0.701741,9.80521,-0.759221,-1.18902,1.82927,-4.39024,-9.98723,-0.0598755,-0.0934058,-2.04268,1.28049,8.71951
433.086,3.53022,1.15026,0,0.661025,9.83395,-0.744851,-2.19512,0.701219,-3.81098,-10.016,-0.105381,-0.119751,-2.28659,1.28049,8.75
433.096,3.50424,1.04292,0,0.684976,9.76449,-0.63947,-1.92073,-0.0914634,-3.68902,-10.0375,-0.0670605,-0.112566,-2.19512,1.12805,8.75
433.106,3.48817,0.896268,0,0.711321,9.77168,-0.62031,-1.7378,-0.792683,-3.10976,-9.90101,-0.0910107,-0.196392,-2.19512,0.945122,8.81098
433.116,3.4761,0.77411,0,0.747246,9.7597,-0.684976,-2.5,-0.426829,-3.20122,-10.0112,-0.0742456,-0.126936,-2.31707,0.579268,8.59756
433.126,3.46142,0.639097,0,0.706531,9.80042,-0.677791,-2.68293,-0.457317,-2.95732,-9.96328,-0.0766406,-0.143701,-2.80488,0.396341,8.53659
433.137,3.44892,0.519961,0,0.752036,9.78126,-0.608335,-2.53049,-1.25,-3.32317,-9.94891,0.00958008,-0.124541,-2.77439,0.335366,8.23171
433.146,3.44175,0.388753,0,0.804727,9.7597,-0.701741,-2.86585,-1.25,-3.47561,-10.0351,-0.0598755,-0.170046,-2.71341,0.243902,8.23171
433.156,3.43377,0.270225,0,0.799937,9.7621,-0.680186,-2.65244,0.182927,-3.5061,-10.0543,-0.0479004,-0.205972,-3.04878,0.518293,7.83537
433.166,3.4152,0.159283,0,0.749641,9.75731,-0.684976,-1.98171,0.823171,-3.93293,-9.93694,-0.0694556,-0.203577,-3.04878,0.609756,7.9878
433.176,3.38252,0.0390405,0,0.680186,9.74294,-0.725691,-1.0061,1.09756,-4.54268,-9.95849,-0.136516,-0.239502,-3.38415,0.548781,7.9878
433.186,3.34618,-0.082649,0,0.694556,9.76928,-0.708926,-0.853659,0.823171,-5.12195,-9.94891,-0.162861,-0.210762,-3.32317,0.152439,7.65244
433.197,3.30201,-0.208167,0,0.66342,9.77647,-0.62989,-1.37195,0.609756,-5.60976,-9.92975,-0.174836,-0.220342,-3.53659,-0.0304878,7.9878
433.206,3.2553,-0.306172,0,0.65384,9.83874,-0.62031,-1.58537,0.945122,-5.79268,-9.8603,-0.184417,-0.222737,-3.62805,-0.365854,8.01829
433.216,3.2064,-0.390576,0,0.608335,9.86988,-0.570015,-2.22561,0.609756,-5.54878,-9.93215,-0.213157,-0.244292,-2.7439,-0.609756,8.44512
433.226,3.15846,-0.477923,0,0.58678,9.8579,-0.627495,-3.41463,0.121951,-5.30488,-9.91059,-0.167651,-0.265847,-2.71341,-0.640244,8.56707
433.236,3.1122,-0.521639,0,0.56283,9.82677,-0.550855,-3.47561,0.213415,-4.96951,-9.95849,-0.162861,-0.193997,-2.22561,-0.823171,9.08537
433.246,3.0589,-0.572503,0,0.514929,9.81719,-0.510139,-3.96341,-0.792683,-5.21341,-10.0327,-0.167651,-0.249082,-1.79878,-1.28049,8.75
433.257,3.00983,-0.619052,0,0.514929,9.79084,-0.471819,-4.05488,-2.10366,-4.90854,-10.0232,-0.112566,-0.246687,-1.43293,-1.34146,8.68902
433.266,2.96559,-0.648669,0,0.531694,9.78366,-0.476609,-3.75,-2.13415,-4.72561,-10.0399,-0.0958008,-0.208367,-1.31098,-1.55488,8.96341
433.276,2.92853,-0.667432,0,0.565225,9.7597,-0.474214,-3.65854,-2.68293,-4.5122,-10.0232,-0.0862207,-0.186812,-1.03659,-2.28659,8.78049
433.287,2.90245,-0.665991,0,0.641865,9.74294,-0.5772,-3.68902,-2.89634,-4.42073,-9.9561,-0.0574805,-0.112566,-1.09756,-2.37805,9.08537
433.297,2.88589,-0.661584,0,0.694556,9.76689,-0.555645,-3.90244,-3.32317,-4.14634,-9.91059,-0.0742456,-0.100591,-1.52439,-2.46951,9.45122
433.307,2.87074,-0.657434,0,0.66821,9.72857,-0.524509,-3.78049,-3.23171,-3.78049,-9.91538,-0.105381,-0.100591,-1.21951,-2.71341,9.60366
433.317,2.85612,-0.669461,0,0.6251,9.74054,-0.502954,-3.56707,-3.44512,-3.2622,-9.8555,-0.114961,-0.160466,-1.46341,-2.5,9.93902
433.327,2.82596,-0.695262,0,0.474214,9.88664,-0.59157,-4.17683,-2.2561,-2.83537,-9.79084,-0.0766406,-0.210762,-1.67683,-2.40854,9.96951
433.337,2.76889,-0.73354,0,0.268242,9.94412,-0.517324,-4.54268,-1.21951,-2.9878,-9.76928,-0.155676,-0.253872,-2.0122,-2.16463,10.8537
433.347,2.68026,-0.738404,0,0.0215552,9.97526,-0.387993,-4.66463,-2.71341,-3.32317,-9.9082,-0.167651,-0.146096,-2.34756,-2.10366,11.0061
433.357,2.58741,-0.802055,0,-0.0167651,9.91299,-0.433499,-5.18293,-6.55488,-3.5061,-9.83395,-0.136516,-0.342488,-2.31707,-1.89024,11.0061
433.367,2.49785,-0.825431,0,0.0191602,9.75731,-0.380808,-5.21341,-11.8293,-3.87195,-9.92496,-0.0838257,-0.215552,-2.59146,-1.58537,11.5549
433.377,2.41176,-0.86693,0,0.0526904,9.73575,-0.536484,-4.96951,-14.1768,-4.17683,-10.0471,-0.0718506,-0.280217,-2.92683,-1.43293,11.9207
433.387,2.33354,-0.899751,0,0.138911,9.74294,-0.622705,-5.82317,-15.6402,-4.66463,-9.98963,-0.0479004,-0.256267,-3.17073,-1.43293,12.1646
433.397,2.27666,-0.954232,0,0.409548,9.64474,-0.62989,-6.82927,-15.0915,-6.0061,-10.0447,-0.124541,-0.316143,-3.87195,-1.06707,12.4085
433.406,2.24871,-0.976347,0,0.740061,9.51781,-0.661025,-7.40854,-14.939,-7.28659,-10.0758,-0.201182,-0.244292,-4.17683,-1.58537,12.1951
433.416,2.23246,-0.978408,0,0.946033,9.54176,-0.917292,-7.37805,-13.9024,-8.62805,-9.97047,-0.273032,-0.179626,-4.81707,-2.28659,11.9207
433.427,2.22365,-0.991231,0,1.10889,9.64714,-1.3005,-8.68902,-9.60366,-9.72561,-9.76689,-0.493374,-0.217947,-5.60976,-2.7439,11.25
433.437,2.21084,-1.0157,0,1.23823,9.69983,-1.35558,-7.37805,-4.48171,-11.6159,-9.66151,-0.749641,-0.261057,-5.73171,-2.77439,10.3354
433.446,2.17945,-1.07324,0,1.24302,9.63756,-1.41306,-6.64634,0.97561,-13.689,-9.58008,-0.826282,-0.347278,-5.12195,-1.82927,9.54268
433.457,2.11756,-1.19853,0,1.2023,9.70462,-1.28852,-7.43902,5.42683,-16.2805,-9.58487,-0.934058,-0.479004,-4.29878,-1.09756,9.39024
433.467,2.02443,-1.37901,0,1.05381,9.79563,-1.13763,-7.43902,9.35976,-17.7134,-9.5681,-0.936453,-0.507744,-3.20122,-0.457317,9.05488
433.477,1.9133,-1.57369,0,0.989143,9.83156,-1.09452,-7.5,11.3415,-18.9329,-9.66151,-1.07536,-0.589175,-1.18902,0.457317,8.96341
433.487,1.79645,-1.70449,0,1.00591,9.8579,-1.02267,-8.29268,12.0122,-19.9085,-9.8124,-1.09931,-0.56762,0.27439,0.701219,8.56707
433.497,1.68682,-1.81036,0,1.06339,9.80521,-1.06099,-9.17683,12.8354,-20.1524,-9.76928,-1.06818,-0.514929,2.0122,0.609756,8.29268
433.506,1.58717,-1.8795,0,1.01549,9.79084,-1.04183,-10.1829,14.7256,-18.811,-9.88185,-1.05141,-0.450264,2.86585,0.365854,7.92683
433.516,1.50858,-1.90991,0,0.989143,9.84114,-0.979563,-11.25,14.7866,-16.4939,-9.89383,-1.0107,-0.376018,3.84146,-0.0609756,7.40854
433.527,1.46849,-1.94791,0,0.958008,9.82437,-0.936453,-12.439,12.7744,-12.378,-9.94412,-1.01309,-0.411943,4.5122,-0.396341,7.04268
433.537,1.48298,-1.9711,0,1.04183,9.76689,-0.958008,-13.2317,9.26829,-7.95732,-10.0184,-0.993933,-0.402363,5.42683,-0.792683,6.55488
433.546,1.57613,-1.9642,0,1.14961,9.71659,-0.962798,-13.9939,5.60976,-2.68293,-10.0064,-0.979563,-0.323328,6.06707,-1.43293,6.28049
433.556,1.74296,-1.96697,0,1.31726,9.72857,-0.948428,-14.7866,3.9939,2.43902,-10.0375,-0.876577,-0.356858,7.31707,-2.28659,7.04268
433.566,1.95079,-1.94875,0,1.48731,9.78366,-0.946033,-15.3963,2.80488,7.10366,-9.9537,-0.910107,-0.270637,7.95732,-2.95732,7.65244
433.576,2.22708,-1.93152,0,1.69567,9.76689,-0.859812,-15.2439,2.77439,12.0732,-10.0519,-1.0107,-0.273032,9.57317,-3.10976,8.41463
433.586,2.5675,-1.9226,0,1.88249,9.76449,-0.64905,-15.1524,3.07927,17.0122,-10.1261,-1.0562,-0.306563,11.0061,-3.17073,9.2378
433.596,2.976,-1.92218,0,2.04774,9.68546,-0.416733,-14.4512,3.07927,22.561,-9.95849,-1.00351,-0.335303,13.1402,-3.20122,10.3354
433.606,3.45283,-1.95868,0,2.14115,9.59445,-0.237107,-13.9939,2.83537,29.0549,-9.75252,-0.898132,-0.471819,15.1829,-2.92683,11.4329
433.616,4.01089,-2.00849,0,2.36388,9.44117,-0.00239502,-15.7622,1.40244,35.3049,-9.63995,-0.761616,-0.512534,17.8354,-2.56098,12.2561
433.627,4.65991,-2.04191,0,2.62734,9.49146,0.138911,-18.7805,-1.55488,42.8354,-9.53936,-0.617915,-0.452659,20.1829,-2.46951,12.9268
433.636,5.42208,-2.12188,0,3.11832,9.62319,0.0143701,-23.9024,-2.71341,50.6402,-9.49625,-0.493374,-0.58678,23.4146,-1.98171,12.8354
433.646,6.30501,-2.29193,0,3.58295,9.49386,-0.0718506,-28.628,-3.84146,58.9634,-9.43877,-0.289797,-0.704136,26.8902,-1.0061,12.2256
433.656,7.29364,-2.42177,0,3.87754,9.31423,-0.126936,-30.3963,-2.92683,67.6219,-9.40764,-0.0934058,-0.608335,30.5183,-0.762195,11.5549
433.666,8.35106,-2.4679,0,4.02124,9.29268,-0.131726,-27.439,0.0914634,75.0305,-9.45793,0.160466,-0.524509,33.0183,-1.58537,10.6402
433.676,9.4213,-2.45417,0,3.86796,9.42201,-0.404758,-21.5244,5.36585,80.7012,-9.38129,0.390388,-0.356858,34.5427,-3.07927,10.122
433.686,10.4665,-2.41118,0,3.49673,9.74054,-0.469424,-14.6646,8.53659,85.5793,-9.41003,0.732876,-0.232317,34.878,-4.96951,9.84756
433.696,11.4867,-2.38121,0,3.07042,9.99442,-0.337698,-8.78049,8.04878,90.6098,-9.66869,1.02746,-0.285007,34.0854,-6.25,9.63415
433.706,12.4721,-2.36522,0,2.5028,10.0184,0.490979,1.06707,5.67073,95.3659,-9.9561,1.23583,-0.349673,32.6829,-6.7378,9.60366
433.716,13.4039,-2.35899,0,1.7771,10.1046,1.7292,16.0061,-3.68902,100.183,-10.2914,1.40827,-0.402363,30.2439,-6.18902,10.0915
433.726,14.3364,-2.39041,0,1.5855,10.0998,2.28006,28.4756,-14.4512,104.299,-10.5022,1.6334,-0.58199,28.0793,-4.93902,9.84756
433.736,15.2387,-2.44298,0,1.41785,10.0902,2.43573,33.75,-25.4878,105,-10.7201,1.76273,-0.694556,25.061,-3.44512,10.3354
433.746,16.1268,-2.47814,0,2.03337,11.3189,0.845442,22.8659,-18.2927,100.945,-10.9357,1.90404,-0.63468,21.5244,-2.95732,10.1524
433.756,16.9396,-2.52143,0,2.71116,11.9056,-0.58199,3.04878,0.396341,89.6646,-11.0027,1.93039,-0.682581,18.3537,-2.71341,10.122
433.766,17.6605,-2.55785,0,3.31471,11.2853,-1.28134,-6.64634,20.9451,74.7256,-11.2135,1.72681,-0.673001,16.25,-2.89634,9.93902
433.776,18.2448,-2.63481,0,3.3195,10.7081,-0.979563,-4.17683,33.0183,60.5183,-11.1129,1.3484,-0.869392,15.2439,-3.04878,9.78659
433.786,18.621,-2.74426,0,2.36388,10.2627,-0.292192,2.16463,32.4695,49.1463,-10.8542,1.0083,-1.00351,14.2378,-2.56098,10.4878
433.796,18.8081,-2.9005,0,1.33642,10.016,0.58199,8.01829,18.9634,41.5854,-10.5453,0.720901,-1.16637,14.5122,-2.07317,12.561
433.806,18.9004,-3.07102,0,0.965193,9.94891,0.718506,11.2805,7.0122,36.4939,-10.2603,0.56762,-1.22386,15.2744,-2.37805,14.3902
433.817,18.9736,-3.2479,0,1.30529,9.51062,0.337698,11.8598,4.66463,30.0915,-10.119,0.502954,-1.24302,16.9512,-2.2561,15.3963
433.826,19.0576,-3.39729,0,1.94715,9.06754,0.270637,12.8659,11.2805,22.561,-9.97286,0.570015,-1.18793,18.9634,-3.10976,16.0671
433.837,19.1799,-3.50628,0,2.76864,8.8472,0.316143,13.9329,21.7683,15.9146,-9.84832,0.764011,-1.04423,20.6402,-3.68902,16.2195
433.846,19.3415,-3.55311,0,3.61648,8.88552,0.522114,13.811,33.8415,10.4268,-9.78366,0.946033,-0.802332,20.9451,-4.54268,15.9451
433.856,19.5595,-3.58254,0,4.56491,8.98132,0.632285,11.372,44.6037,6.70732,-9.70462,1.17356,-0.732876,20.7012,-5.60976,15.2744
433.866,19.8023,-3.57473,0,5.03433,9.01725,0.835862,10.4268,52.439,5,-9.70941,1.30529,-0.579595,19.878,-6.06707,14.2073
433.876,20.0731,-3.54263,0,5.21875,8.87115,0.922083,9.32927,58.9939,5.79268,-9.65432,1.44899,-0.471819,18.2317,-5.91463,13.5976
433.886,20.3824,-3.493,0,5.08942,8.63405,0.931663,11.6463,61.6768,10.2439,-9.60163,1.47773,-0.390388,16.128,-5.39634,13.0183
433.896,20.6668,-3.45499,0,4.73016,9.14179,0.967588,10,63.7805,14.7866,-9.55134,1.53281,-0.428708,14.0854,-5.30488,13.0183
433.906,20.9359,-3.39193,0,4.24158,9.29507,0.749641,8.78049,64.4207,19.5732,-9.63516,1.54718,-0.320933,11.9207,-5.09146,13.1402
433.916,21.1929,-3.35063,0,3.77934,9.12742,0.550855,7.04268,59.1463,23.0488,-9.70701,1.4442,-0.404758,10.0915,-4.96951,13.0488
433.927,21.4339,-3.30607,0,3.48475,8.82565,0.730481,9.81707,53.4146,23.872,-9.84593,1.36756,-0.390388,8.32317,-4.39024,13.2622
433.936,21.6324,-3.28781,0,3.15903,8.82086,0.886157,12.1341,48.0488,23.7805,-9.86509,1.2502,-0.495769,7.10366,-4.2378,12.622
433.947,21.8188,-3.30896,0,3.11113,8.8975,1.06818,11.7378,42.439,23.8415,-9.88664,1.11608,-0.661025,5.70122,-3.96341,11.7378
433.956,22.0471,-3.36224,0,3.37937,8.69632,0.780776,11.7073,30.2744,24.4817,-9.84353,1.00351,-0.790356,4.72561,-3.32317,10.6402
433.966,22.3269,-3.44057,0,3.88472,8.61728,0.764011,12.1341,24.4817,24.0244,-9.77647,0.900527,-0.881367,4.54268,-2.80488,9.54268
433.976,22.5969,-3.55086,0,4.03321,8.79451,0.929268,11.128,25.4573,22.8354,-9.7142,0.780776,-0.962798,4.45122,-2.04268,8.90244
433.986,22.8569,-3.78932,0,4.07153,8.81846,1.07776,8.44512,24.5427,22.0732,-9.68067,0.696951,-1.15919,4.45122,-0.884146,8.44512
433.996,23.1257,-4.18685,0,4.09788,8.49034,0.996328,6.89024,23.6585,21.4939,-9.57768,0.665815,-1.17116,4.42073,0.0304878,8.01829
434.006,23.4027,-4.48073,0,4.22481,8.3682,1.14482,5.12195,20.7317,20.7927,-9.58966,0.725691,-1.14482,4.45122,-0.182927,8.01829
434.016,23.6562,-4.7888,0,4.12901,8.09038,1.13763,5.54878,16.7378,18.4451,-9.60403,0.859812,-1.23823,4.20732,-0.213415,7.9878
434.026,23.8878,-5.04623,0,4.0883,7.94428,1.03704,6.18902,9.7561,16.3415,-9.54655,1.01549,-1.26457,3.9939,-0.487805,8.10976
434.036,24.124,-5.3069,0,4.14338,7.70957,0.890947,9.32927,9.63415,15.1829,-9.5202,1.13763,-1.26697,3.65854,-0.335366,8.32317
434.047,24.3473,-5.59153,0,4.10027,7.62095,0.61552,11.0061,13.5976,14.2988,-9.47949,1.28134,-1.31487,2.62195,-0.243902,7.86585
434.057,24.5359,-5.73206,0,3.85119,7.5012,0.65384,11.5549,14.1159,13.4756,-9.54655,1.43701,-1.19511,1.67683,-0.487805,7.34756
434.066,24.7118,-5.79067,0,3.80808,7.39822,0.66821,11.6768,13.3841,12.439,-9.59445,1.45857,-1.11847,0.792683,-1.18902,6.76829
434.077,24.8892,-5.81539,0,3.96376,7.34073,0.529299,11.6159,13.6585,10.6402,-9.55134,1.40348,-1.0586,-0.701219,-2.40854,5.21341
434.086,25.0662,-5.84162,0,4.1338,7.26649,0.397573,10.8232,13.5671,8.35366,-9.46512,1.40348,-1.06818,-1.76829,-3.2622,3.5061
434.097,25.2186,-5.85831,0,4.12901,7.21619,0.62031,11.0366,13.9024,5.64024,-9.4244,1.37474,-1.03465,-3.04878,-4.02439,1.64634
434.107,25.4034,-5.85912,0,4.19847,7.24733,0.718506,11.5244,18.0793,2.53049,-9.38608,1.31487,-0.969983,-4.48171,-4.48171,0.243902
434.116,26.0256,-5.89222,0,4.15057,7.34313,0.65384,12.3171,17.9268,0.152439,-9.27352,1.20948,-1.08734,-5.91463,-4.39024,-1.06707
434.126,26.1305,-5.9284,0,4.25116,7.37906,0.766406,12.8659,17.8963,-2.40854,-9.27112,1.17595,-1.10171,-7.31707,-3.96341,-2.34756
434.137,26.163,-5.98372,0,4.36852,7.49162,0.617915,12.4695,16.2195,-5.33537,-9.24957,1.15679,-1.17356,-8.96341,-3.53659,-3.47561
434.147,26.1676,-6.03649,0,4.40684,7.54192,0.589175,12.3476,13.9329,-7.9878,-9.36692,1.26218,-1.16637,-10.5183,-2.53049,-3.53659
434.156,26.1429,-6.17415,0,4.42121,7.58982,0.546064,12.3171,11.372,-10.7927,-9.38848,1.17835,-1.39151,-11.5244,-1.70732,-3.68902
434.167,26.1096,-6.40352,0,4.59844,7.66406,0.555645,12.378,9.11585,-13.2317,-9.49865,1.03704,-1.55197,-12.2866,-0.945122,-3.93293
434.176,26.0594,-6.7274,0,4.68705,7.75268,0.63468,13.5366,6.61585,-15.4268,-9.55373,0.910107,-1.60706,-12.622,-0.27439,-4.02439
434.186,26.0014,-7.05126,0,4.88584,7.87722,0.749641,14.6037,6.15854,-17.6524,-9.60403,0.720901,-1.71962,-12.4695,-0.365854,-4.84756
434.197,25.9343,-7.25243,0,5.01996,7.97302,0.768801,14.9085,6.4939,-19.4817,-9.73336,0.768801,-1.70046,-12.0427,-0.823171,-5.82317
434.206,25.8614,-7.40222,0,5.0966,8.0305,0.859812,14.3598,6.18902,-20.6402,-9.76449,0.725691,-1.75794,-11.6768,-1.79878,-6.34146
434.216,25.7947,-7.53589,0,5.23551,8.14067,1.01309,13.1402,5.33537,-20.8537,-9.94652,0.895737,-1.81542,-11.4024,-2.22561,-6.64634
434.226,25.7269,-7.65946,0,5.22354,8.09517,0.993933,13.4146,3.32317,-21.2805,-10.083,0.955613,-1.85854,-11.7988,-2.7439,-6.89024
434.236,25.6764,-7.75343,0,5.28581,8.08798,1.21427,14.5122,-0.396341,-20.3354,-10.1669,1.09692,-1.7795,-11.7073,-3.04878,-6.98171
434.246,25.6646,-7.86481,0,5.51813,8.02092,1.12805,16.2805,0.121951,-19.2683,-10.1381,1.22386,-1.87291,-12.0122,-3.2622,-7.56098
434.256,25.6379,-7.91733,0,5.55166,8.32988,1.13045,15.4573,0.823171,-19.0854,-10.0519,1.42983,-1.61424,-12.9573,-2.92683,-7.92683
434.266,25.4533,-7.88041,0,5.16606,9.73575,0.759221,19.3598,4.69512,-23.5671,-10.2555,1.47054,-1.26218,-13.0488,-5.09146,-8.75
434.276,24.9872,-7.69215,0,4.24397,12.6218,0.61073,24.7256,11.7378,-33.5366,-10.8399,1.1999,-0.60115,-11.7073,-9.63415,-9.72561
434.286,24.2791,-7.42808,0,3.05844,15.2395,1.42983,27.5305,10.1524,-44.4207,-11.6087,0.481399,-0.222737,-8.68902,-15.2744,-10.8841
434.297,23.5808,-7.2319,0,2.2609,14.7821,2.55309,20.4268,-5.60976,-39.4512,-12.0996,-0.399968,-0.541274,-3.56707,-17.622,-10.9146
434.306,23.2182,-7.11195,0,3.85359,12.4445,2.62734,9.08537,-32.2561,-23.9939,-12.4062,-0.948428,-0.929268,1.31098,-16.3415,-8.90244
434.316,23.3084,-7.13219,0,7.20661,10.8039,2.00703,-1.15854,-45.5793,-12.1951,-12.6313,-0.811912,-1.70765,6.64634,-15.3659,-4.35976
434.327,23.8014,-7.146,0,9.12502,9.09868,1.46336,1.21951,-40.122,5.85366,-11.6398,-0.0862207,-1.54,13.0488,-11.311,2.22561
434.337,24.5954,-7.14457,0,9.46033,7.15632,0.143701,16.1585,-22.3171,21.6463,-10.4207,1.12326,-1.30768,16.8598,-8.59756,8.53659
434.346,25.3149,-6.9707,0,8.30353,7.05812,-1.69807,34.3598,2.89634,22.3171,-9.9561,2.14354,-0.486189,15.6402,-8.10976,11.189
434.356,25.5171,-6.8022,0,4.86907,8.75619,-2.34233,42.5915,34.6341,12.9573,-10.2531,2.46687,-0.493374,12.439,-6.09756,11.0366
434.366,25.0749,-6.69712,0,1.36277,10.7991,-0.989143,34.5122,39.2073,-1.34146,-10.9285,2.20821,-0.833467,8.59756,-1.79878,7.59146
434.376,24.4647,-6.59741,0,0.306563,10.6866,0.809517,24.2988,23.3841,-14.4512,-11.2518,1.96152,-0.819097,4.48171,4.78659,3.38415
434.386,23.8227,-6.48269,0,0.598755,9.75731,1.33163,25.8537,6.12805,-22.7439,-11.235,1.90644,-0.716111,-0.426829,10.7927,2.07317
434.397,23.2382,-6.35673,0,1.27176,8.98372,0.589175,26.4329,-6.76829,-27.4695,-11.0985,1.71004,-0.6251,-6.12805,15.7927,4.05488
434.408,22.7551,-6.16952,0,2.26329,8.63884,0.337698,27.1951,-13.2927,-31.8293,-11.1129,1.13284,-0.296982,-12.7744,19.8476,6.85976
434.417,22.2482,-5.91746,0,2.56267,8.93342,-0.747246,24.939,-16.6768,-37.9573,-11.156,0.821492,0.0574805,-16.372,20.122,7.71341
434.427,21.6172,-5.59467,0,2.27766,9.59924,-1.71004,24.6037,-21.5244,-46.2195,-11.3428,0.570015,0.459844,-19.7866,17.7439,7.40854
434.436,20.8434,-5.2107,0,1.62382,10.4902,-1.65256,26.2805,-26.311,-52.8049,-11.5943,0.287402,0.845442,-21.7378,13.9329,6.0061
434.446,19.8917,-4.77224,0,0.0886157,10.9692,-0.447869,28.8415,-32.8659,-55.5183,-11.5991,0.0191602,1.1999,-23.7805,9.08537,4.54268
434.456,19.035,-4.26668,0,0.934058,11.1919,-1.60945,21.2195,-15.8232,-56.5549,-11.1392,-0.249082,1.56634,-26.128,5.7622,2.19512
434.467,18.1549,-3.6992,0,0.632285,10.38,-1.41546,20.2744,-19.2073,-58.0793,-10.3489,-0.443079,1.76992,-28.9634,3.59756,0.457317
434.477,17.3247,-3.02087,0,1.01788,9.61361,-1.66693,18.3537,-18.3537,-60,-9.60642,-0.661025,1.89925,-31.8902,2.56098,-0.396341
434.486,16.5349,-2.32551,0,1.38911,9.01485,-1.93997,15.1829,-20.5488,-63.1098,-9.04599,-0.893342,1.85375,-32.3476,2.80488,-0.548781
434.496,15.7529,-1.47001,0,1.45378,8.58136,-1.87291,14.6951,-24.1159,-65.6707,-8.81607,-1.01309,1.96631,-32.9878,2.19512,-0.243902
434.506,14.9576,-0.46633,0,1.36756,8.93342,-2.07648,13.3537,-23.4756,-66.7683,-8.70829,-0.998723,1.88488,-33.4756,1.67683,0.396341
434.516,14.165,0.893056,0,1.19751,9.23999,-2.28485,13.5366,-23.0793,-65.4268,-8.75619,-0.833467,1.75076,-33.628,0.853659,1.89024
434.526,13.432,1.74513,0,1.31008,9.29268,-2.67284,14.6037,-21.128,-62.2561,-8.95737,-0.728086,1.40109,-32.7439,0.853659,3.53659
434.536,12.7177,2.17526,0,1.12566,9.21603,-2.80696,15.8537,-20.4573,-59.6951,-9.30705,-0.787961,1.00351,-30.7317,0.701219,3.68902
434.546,12.0292,2.33668,0,0.996328,9.10107,-2.85007,16.2805,-19.6037,-57.0427,-9.72857,-0.989143,0.795146,-27.7439,1.12805,2.77439
434.557,11.3408,2.34455,0,0.747246,9.10826,-2.42136,15.9451,-24.7866,-55.2744,-10.0519,-1.26457,0.443079,-25.7012,2.37805,0.701219
434.566,10.6778,2.34646,0,0.737666,9.18729,-2.17468,13.9024,-30.0305,-53.872,-10.2794,-1.61903,0.431104,-23.5061,2.53049,-3.07927
434.576,10.0469,2.3481,0,0.749641,9.24717,-1.96152,11.7988,-34.9695,-52.0427,-10.2148,-1.54479,0.426313,-22.2866,1.76829,-6.7378
434.586,9.43714,2.3205,0,0.66342,9.49386,-2.02379,9.96951,-41.2805,-49.878,-10.0016,-1.31726,0.325723,-21.7683,1.25,-8.90244
434.596,8.88897,2.25296,0,0.943638,9.69743,-2.15552,8.47561,-45.4573,-48.0183,-9.83395,-1.08494,0.198787,-21.4634,1.37195,-9.35976
434.606,8.38671,2.1638,0,1.22386,9.58726,-2.12678,7.92683,-50.0915,-47.9573,-9.62319,-0.907712,0.0862207,-21.2805,2.07317,-9.08537
434.616,7.92215,1.99104,0,1.44659,9.45075,-2.17707,8.20122,-47.0427,-48.0488,-9.43877,-0.756826,-0.153281,-21.7988,1.92073,-7.89634
434.626,7.43876,1.79017,0,1.19511,9.33339,-1.85854,7.83537,-45.8232,-48.0488,-9.25675,-0.732876,-0.205972,-22.4085,1.79878,-5.97561
434.636,6.98025,1.48007,0,1.28373,9.24238,-2.05253,7.34756,-43.1098,-47.7439,-9.01006,-0.747246,-0.313748,-22.2561,1.37195,-4.20732
434.646,6.52956,1.14181,0,1.33642,9.29268,-2.05253,7.2561,-43.9329,-48.4451,-8.90708,-0.953218,-0.467029,-22.2256,1.61585,-2.5
434.657,6.11591,0.750742,0,1.66933,9.25196,-2.15791,7.34756,-37.2866,-49.7561,-8.90229,-1.23104,-0.608335,-21.128,1.52439,-1.43293
434.666,5.70941,0.329439,0,1.79387,9.27352,-2.22976,7.0122,-30.122,-51.3415,-8.98372,-1.45378,-0.646655,-19.5427,1.18902,-1.70732
434.677,5.28244,-0.18314,0,1.65256,9.16574,-2.0693,7.37805,-25.5488,-52.7744,-9.08191,-1.66933,-0.65863,-17.6829,0.579268,-2.59146
434.686,4.84301,-0.839721,0,1.57832,9.1825,-2.00463,7.46951,-17.9573,-53.9634,-9.05796,-1.71244,-0.766406,-15.2134,0.27439,-2.62195
434.697,4.34673,-1.29956,0,1.1065,9.0388,-1.86333,7.7439,-15.0305,-55,-9.0388,-1.65735,-0.716111,-13.628,-0.487805,-2.62195
434.707,3.78391,-1.60462,0,0.574805,8.94061,-1.81303,8.29268,-13.1707,-56.0671,-8.92145,-1.53521,-0.696951,-11.9207,-1.03659,-1.92073
434.716,3.17418,-1.85908,0,0.198787,8.91187,-1.83938,8.32317,-15.4878,-57.1037,-8.83044,-1.3939,-0.687371,-10.8841,-1.28049,-0.609756
434.727,2.5799,-2.0261,0,0.193997,8.91187,-1.87291,7.80488,-20.122,-56.7073,-8.72985,-1.27176,-0.704136,-10.2439,-2.2561,1.18902
434.737,2.01772,-2.21584,0,0.364043,9.05557,-1.98068,8.71951,-24.7866,-56.7988,-8.68674,-1.16877,-0.795146,-9.7561,-2.37805,3.14024
434.747,1.46192,-2.3574,0,0.227527,9.10347,-1.89446,8.35366,-26.7073,-55.5183,-8.66279,-1.14961,-0.764011,-9.26829,-3.01829,4.87805
434.756,0.971032,-2.48245,0,0.637075,9.10586,-2.09804,9.2378,-25.5488,-55.2744,-8.7059,-1.22146,-0.809517,-8.96341,-4.2378,6.7378
434.767,0.497195,-2.60154,0,0.61073,8.95737,-2.20342,9.02439,-26.0061,-54.3293,-8.68913,-1.24541,-0.819097,-7.9878,-4.78659,8.56707
434.776,0.098496,-2.70708,0,0.981958,9.0867,-2.17228,10.2134,-27.4695,-52.2561,-8.66279,-1.33163,-0.787961,-6.61585,-5,10.0305
434.786,-0.283438,-2.88036,0,0.890947,9.32621,-2.24174,10.4268,-28.7195,-49.9085,-8.63884,-1.40827,-1.02986,-4.69512,-4.26829,11.2195
434.797,-0.62642,-3.20937,0,1.03465,9.616,-2.41897,10.7317,-22.8049,-48.1098,-8.5119,-1.52563,-1.31247,-2.46951,-2.62195,12.6524
434.807,-0.906304,-4.69232,0,1.45617,9.66869,-2.4046,10.3354,-19.5122,-47.3171,-8.66279,-2.09564,-1.77471,0.853659,0.121951,12.7744
434.817,-1.18974,-5.15261,0,1.23583,9.48907,-1.87051,8.75,-19.6341,-45.9146,-8.71548,-2.36388,-2.16031,5.82317,2.56098,12.7134
434.826,-1.44801,-5.47704,0,1.19751,9.62079,-1.8777,6.64634,-14.7866,-43.2622,-8.97653,-2.70398,-2.08846,11.2195,4.45122,12.4695
434.836,-1.71825,-5.75159,0,0.819097,9.77647,-1.69328,4.57317,-20.7622,-40.3049,-9.14658,-2.82612,-2.00224,15.9451,6.06707,12.0122
434.847,-1.95047,-5.98348,0,0.962798,9.84832,-2.16749,1.98171,-20.9451,-38.5976,-9.2352,-2.72314,-1.88967,20,7.65244,11.7988
434.856,-2.16035,-6.10823,0,0.981958,9.82677,-2.4525,-2.43902,-25.3354,-37.0427,-9.38608,-2.38544,-1.50168,22.5305,8.65854,12.1951
434.866,-2.37744,-6.07534,0,0.838257,9.78366,-2.60578,-5.51829,-30,-36.5549,-9.74294,-1.78908,-0.893342,22.6524,7.95732,12.6524
434.876,-2.51457,-6.05509,0,1.36995,9.57768,-3.04646,-8.5061,-26.372,-35.4573,-9.95849,-1.08973,-0.962798,21.25,8.44512,13.1707
434.886,-2.62359,-6.00881,0,1.48012,9.1849,-3.10155,-8.9939,-22.1341,-34.939,-10.1381,-0.490979,-0.857417,17.6829,10.5488,13.0183
434.896,-2.73613,-5.94371,0,1.27415,9.14897,-3.10874,-8.53659,-19.7256,-33.0183,-10.1716,-0.730481,-0.768801,13.0488,8.65854,12.5915
434.907,-2.79056,-5.75827,0,1.60227,9.11065,-3.42248,-9.54268,-16.2195,-31.4939,-10.4758,-0.162861,-0.222737,8.90244,8.84146,10.7622
434.917,-2.77202,-5.83042,0,2.03098,8.9454,-3.76497,-10.7927,-9.2378,-29.9085,-9.9537,-0.146096,-1.31487,4.96951,11.0976,9.17683
434.927,-2.76919,-5.96711,0,1.69807,9.10826,-3.57097,-10.4268,-0.0304878,-26.9207,-10.0184,-0.205972,-1.62622,3.2622,12.561,7.95732
434.937,-2.77639,-6.15808,0,1.47054,9.74294,-3.24286,-9.2378,8.29268,-23.9024,-10.3465,-0.498164,-1.95913,3.29268,13.6585,6.85976
434.947,-2.76191,-6.32057,0,1.3939,10.3872,-2.82612,-7.68293,8.84146,-19.7866,-10.9812,-1.02746,-1.9735,4.60366,14.7256,5.54878
434.957,-2.67813,-6.40118,0,1.70046,10.8446,-2.68961,-7.0122,7.56098,-15.2744,-11.7428,-1.56874,-1.71004,5.82317,14.2988,2.80488
434.967,-2.53086,-6.49027,0,1.93997,11.326,-2.69679,-7.89634,4.39024,-10.2744,-12.2793,-1.93518,-1.85135,6.70732,15.5793,0.365854
434.977,-2.301,-6.55085,0,2.22497,11.5703,-2.73751,-11.8293,-3.81098,-4.02439,-12.5355,-2.07888,-1.74597,6.46341,18.3232,-2.13415
434.987,-1.95228,-6.50061,0,2.73751,11.4554,-2.50759,-17.4085,-10.8537,3.17073,-12.4613,-2.03098,-1.13045,6.55488,19.9695,-3.07927
434.997,-1.4533,-6.2974,0,3.30034,11.2183,-2.07169,-24.939,-13.4146,13.4756,-12.2505,-1.62861,-0.273032,6.76829,18.628,-2.7439
435.007,-0.788994,-6.0181,0,3.92065,11.3548,-1.72681,-32.5,-10.5793,25.9451,-11.9272,-1.22864,0.174836,6.67683,16.9817,-0.0609756
435.017,-0.0110115,-5.58673,0,4.01884,11.9009,-1.152,-40.3354,-7.9878,39.6951,-12.3535,-0.234712,1.06818,4.32927,13.5061,2.77439
435.027,0.844691,-5.13947,0,3.60929,12.1643,-0.773591,-49.6951,-6.46341,53.5671,-12.6768,0.261057,1.27894,0.884146,10.7927,4.2378
435.037,1.71351,-4.72899,0,2.56267,12.0541,-1.01549,-64.7256,-3.96341,65.8841,-12.8469,0.455054,1.18553,-2.5,9.35976,4.54268
435.046,2.63442,-4.43315,0,2.04056,11.2039,0.0191602,-68.8719,-1.92073,76.4024,-12.1906,0.299377,0.59636,-1.89024,11.9207,3.41463
435.056,3.6663,-4.21624,0,1.76273,10.174,1.25499,-65.0915,-8.44512,90.6098,-10.6554,0.0502954,0.208367,-0.27439,15.3049,2.89634
435.066,4.91145,-4.09973,0,2.16031,9.17532,0.974773,-59.5122,-14.0244,107.5,-9.1346,-0.500559,-0.189207,4.20732,17.6829,3.07927
435.076,6.24434,-3.96435,0,1.73399,9.02683,0.993933,-58.6585,-25.9756,123.841,-8.56699,-1.03944,-0.0886157,11.128,17.8659,2.9878
435.086,7.54057,-3.69269,0,0.670605,9.18969,0.972378,-53.5671,-37.8049,136.494,-8.63884,-1.36516,0.447869,18.1402,14.5427,1.7378
435.096,8.68264,-3.28401,0,-0.783171,10.6028,0.155676,-39.4207,-41.0366,140.549,-9.15856,-1.37953,1.06818,22.6829,7.80488,0.0304878
435.106,9.61719,-2.40387,0,-2.21779,11.7595,-1.18314,-25.5793,-34.878,134.878,-9.96568,-0.917292,1.38672,25.4268,-0.396341,-0.335366
435.117,10.4979,-1.99882,0,-1.79147,12.6505,-2.33275,-17.9573,-22.561,125.945,-10.7584,-0.0383203,1.47054,26.0061,-7.65244,1.43293
435.127,11.4556,-1.7136,0,-0.258662,13.2229,-2.81415,-22.0122,-14.6646,121.433,-10.7201,0.965193,0.967588,24.9695,-9.20732,6.28049
435.137,12.5898,-1.37199,0,2.10522,12.7199,-2.16031,-25.0915,-4.29878,119.939,-11.0051,1.72202,1.32684,21.7073,-6.95122,12.2256
435.147,13.8493,-1.06817,0,3.65959,11.9799,-1.29571,-17.7134,10.9146,119.543,-11.1321,2.2609,1.21188,15.6707,-3.78049,17.8049
435.157,15.0902,-0.688934,0,3.50152,11.077,-0.526904,-5.82317,22.1951,119.085,-10.6818,2.34233,0.922083,9.11585,0.0304878,21.9512
435.167,16.1989,-0.442108,0,2.77343,11.1895,-0.423918,6.25,33.2012,115.518,-9.69504,1.45378,0.857417,2.19512,3.07927,22.8963
435.177,17.1704,-0.0993713,0,2.18426,12.1883,-0.65384,9.87805,50.5183,111.463,-9.20885,0.229922,0.905317,-1.95122,2.07317,21.311
435.187,18.0294,0.525665,0,1.40109,12.411,-0.965193,9.29878,66.9512,109.543,-9.20646,-0.696951,0.701741,-2.19512,-0.27439,17.6829
435.196,18.8006,0.603028,0,0.953218,11.7979,-1.32684,9.45122,83.5061,106.067,-9.35495,-1.09931,0.340093,0.152439,-2.46951,15.3354
435.206,19.4778,0.584994,0,0.502954,11.0243,-1.17595,11.2195,90.9146,102.134,-9.66151,-1.15919,0.0239502,4.29878,-4.14634,14.6646
435.216,20.0699,0.487585,0,0.208367,10.6938,-0.790356,12.378,86.4634,97.8963,-9.89862,-1.13045,-0.328118,8.90244,-6.31098,16.25
435.227,20.6647,0.357481,0,0.550855,10.5357,-0.502954,13.4756,82.7744,95.5488,-9.83874,-0.941243,-0.486189,13.2012,-7.19512,17.9573
435.236,21.2987,0.236523,0,1.27415,10.2962,-0.337698,13.5366,86.2195,92.4695,-9.59205,-0.64426,-0.457449,16.2195,-7.53049,18.5976
435.246,21.9044,0.135693,0,1.52802,9.87706,0.0143701,11.6768,90.2744,87.3171,-9.27591,-0.268242,-0.380808,17.6829,-8.62805,18.0488
435.256,22.4016,0.0460427,0,1.13524,9.30944,0.0670605,8.96341,100.976,81.25,-8.83762,0.234712,-0.335303,18.0488,-9.2378,17.1951
435.266,22.7428,-0.0211336,0,0.380808,8.91905,0.0862207,6.58537,106.951,75.5488,-8.47597,0.735271,-0.251477,17.561,-10.0305,16.5549
435.278,22.9176,-0.0351329,0,-0.474214,8.62926,0.387993,3.59756,102.287,70.6707,-8.3179,1.1065,-0.0622705,15.8841,-10.9756,16.2805
435.287,22.9481,-0.00203184,0,-1.32445,8.39933,0.677791,0.121951,90.1829,68.1707,-8.30832,1.4418,0.107776,12.9878,-11.6159,15.9756
435.297,22.8922,0.0228758,0,-1.75794,7.68801,0.802332,3.81098,74.1463,67.4085,-8.49034,1.59987,0.0838257,9.42073,-12.378,15.7622
435.307,22.6907,0.013185,0,-2.48603,7.52994,0.63468,10.122,57.4085,63.4451,-8.72027,1.53042,-0.0431104,5.7622,-12.4085,15.0915
435.317,22.3606,-0.0204343,0,-3.00814,7.32876,0.60594,13.4451,40.5488,58.1707,-8.90947,1.49928,-0.138911,2.13415,-11.6159,14.4207
435.327,21.9581,-0.11187,0,-2.98419,6.85215,0.447869,14.2683,25.2439,52.5915,-9.09868,1.29092,-0.378413,-1.55488,-10.5793,12.622
435.337,21.5034,-0.256613,0,-2.85726,6.6845,0.404758,16.128,4.87805,45.6402,-9.13221,1.12087,-0.608335,-4.63415,-9.17683,10.2744
435.346,21.0013,-0.412213,0,-2.61297,6.66055,0.296982,18.2622,-18.4756,36.372,-9.05557,0.917292,-0.66821,-6.67683,-7.9878,8.68902
435.356,20.4743,-0.604314,0,-2.18905,6.73,0.361648,19.0549,-38.1402,25.8537,-9.01964,0.708926,-0.833467,-7.80488,-6.98171,6.95122
435.366,19.9635,-0.83957,0,-1.36277,6.76114,0.63947,21.7073,-53.2622,12.9268,-8.89031,0.517324,-1.0107,-8.10976,-5.73171,5.70122
435.376,18.4507,-1.12589,0,0.141306,6.91203,0.680186,26.2805,-63.1707,-2.46951,-8.88313,0.340093,-1.18314,-8.44512,-4.11585,4.60366
435.386,18.0428,-1.63055,0,0.974773,7.15871,0.637075,29.4207,-69.1768,-19.7866,-8.9454,0.287402,-1.51844,-8.07927,-2.10366,4.05488
435.396,17.6574,-2.87984,0,1.98308,7.24493,0.787961,25.6402,-64.7866,-33.75,-9.08191,0.325723,-1.6334,-8.32317,0.243902,3.78049
435.406,17.3637,-3.376,0,3.15424,7.0222,0.989143,15.122,-51.3415,-43.2927,-9.21364,0.474214,-1.57832,-7.86585,1.31098,3.90244
435.416,17.1472,-3.78988,0,4.42121,7.31678,1.4442,4.90854,-37.1951,-50.2134,-9.31902,0.675395,-1.3963,-7.95732,1.0061,3.96341
435.426,16.9244,-4.37857,0,5.40556,8.01853,1.13284,-0.97561,-27.0122,-57.1037,-9.12742,0.859812,-1.36037,-8.56707,0.426829,3.78049
435.437,16.667,-4.69055,0,6.11928,8.77056,0.124541,-4.57317,-21.8293,-62.9573,-9.01964,0.950823,-1.47294,-10.3354,1.79878,3.56707
435.447,16.4693,-4.89458,0,7.21619,8.97653,-0.787961,-9.7561,-9.66463,-65.3354,-9.2304,1.02267,-1.55437,-12.5305,3.9939,3.38415
435.46,16.3174,-5.03782,0,7.27367,8.82804,-1.17356,-15.8232,-2.37805,-62.4695,-9.68785,1.26697,-1.4418,-14.6951,5.94512,3.41463
435.467,16.2598,-5.1587,0,6.6342,8.11912,-1.67172,-7.5,-12.9878,-52.6829,-10.0471,1.40827,-1.42025,-15.1524,5.39634,4.29878
435.477,16.3607,-5.25075,0,7.3072,8.13828,-2.77343,14.6646,-30.3354,-42.0732,-10.4327,1.38911,-1.36277,-15.4878,4.7561,5.70122
435.486,16.5757,-5.34944,0,8.20534,8.79691,-3.55181,34.1463,-29.6646,-32.439,-10.5357,0.948428,-1.42504,-14.9695,4.87805,6.34146
435.496,16.8151,-5.45869,0,8.3203,9.56571,-3.21412,36.4634,-14.2683,-25.4573,-10.507,0.440684,-1.4897,-14.1463,5.27439,5.67073
435.506,17.1433,-5.62826,0,8.93582,10.3896,-2.13636,26.4024,4.29878,-15.2439,-10.2124,-0.00239502,-1.74597,-12.4085,6.92073,4.57317
435.516,17.6623,-5.893,0,9.97047,10.8806,-0.598755,16.25,21.4634,0.914634,-10.0064,-0.174836,-2.17468,-10.9146,10.4878,3.17073
435.526,18.4307,-6.21932,0,10.2028,10.0184,1.00351,22.0122,33.5061,21.5549,-9.89383,-0.165256,-2.47885,-11.0671,13.7195,1.64634
435.536,19.3229,-6.50946,0,9.35255,8.90229,0.411943,38.8415,33.2317,33.9329,-10.0902,0.105381,-2.41657,-12.2256,15.6707,1.03659
435.546,20.0308,-6.74278,0,7.56108,8.77056,-0.737666,48.5671,22.378,28.4756,-10.4279,0.364043,-2.27766,-12.8659,16.25,-0.0304878
435.556,20.2237,-6.86321,0,5.01278,10.2651,-1.19272,47.8659,18.5976,7.43902,-10.8542,0.311353,-1.85854,-12.9878,13.6585,-0.640244
435.567,19.8453,-6.92241,0,2.03577,12.0829,-0.821492,49.7256,13.9939,-16.8598,-11.3572,-0.0287402,-1.65735,-11.4024,11.189,-0.304878
435.576,19.1385,-7.01752,0,-0.0383203,12.1044,0.6251,52.5305,3.93293,-31.25,-11.944,-0.443079,-1.94955,-8.93293,10.9146,1.55488
435.586,18.4263,-7.09877,0,0.546064,11.5967,2.2106,45.9146,-5.4878,-39.1159,-12.5523,-1.04662,-1.99026,-3.9939,12.0122,3.96341
435.596,17.8876,-7.11047,0,3.19496,13.1463,2.81175,18.3537,2.31707,-45.2439,-13.0313,-1.27415,-1.67651,1.95122,12.8049,6.40244
435.607,17.5588,-6.94617,0,5.56842,14.3557,2.05014,-16.2195,30.6098,-40.3049,-13.0984,-1.09213,-0.66342,7.04268,12.5,8.68902
435.617,17.5778,-6.64961,0,7.03178,12.4062,-0.907712,0.609756,53.1402,-22.5305,-13.0217,-0.977168,0.136516,10.122,11.7073,11.7378
435.627,17.8007,-6.30995,0,6.33004,10.6147,-5.50136,38.4756,66.5244,-4.26829,-12.5954,-0.905317,0.438289,13.9634,13.1707,14.3598
435.637,17.7245,-5.84937,0,2.44771,10.277,-6.85455,45,70.2439,1.46341,-11.7452,0.227527,1.1041,13.4756,10.061,18.3232
435.647,17.0623,-5.25169,0,-1.54,8.37299,-3.03209,32.1341,58.0488,-10.122,-10.7321,0.881367,1.75794,10.2744,11.9207,22.5305
435.656,15.7847,-4.53269,0,-4.95769,7.3096,1.03225,18.9939,21.7378,-25.8537,-10.5572,1.01309,2.42855,2.83537,10.1829,22.378
435.666,14.0428,-3.74743,0,-6.80665,6.33004,2.53154,16.2805,-26.9207,-49.4512,-10.4183,1.16398,2.85486,-7.83537,7.31707,17.9573
435.676,12.2727,-2.95388,0,-5.42711,6.53361,-0.205972,18.0793,-59.3293,-70.9146,-9.87706,1.55676,2.88121,-20.3659,5.91463,12.9268
435.686,11.0498,-2.24231,0,-1.68609,8.54064,-2.692,18.4756,-71.311,-76.9512,-9.48428,1.81303,2.53393,-32.0122,5.85366,8.5061
435.696,10.2294,-1.6175,0,0.984353,11.0746,-4.73256,16.7988,-61.372,-71.5244,-9.39806,1.72202,2.17707,-40.7927,4.08537,5.97561
435.707,9.60814,-0.58913,0,2.33993,12.3655,-5.57561,15.9756,-35.2439,-64.3902,-9.83156,1.07776,1.88728,-44.9085,0.335366,4.08537
435.716,9.02548,-0.229475,0,1.95913,11.9344,-4.56251,13.3841,-12.8659,-58.872,-10.5572,0.201182,1.55916,-44.8171,-4.69512,1.92073
435.726,8.37065,-0.0522534,0,0.864602,11.0506,-2.67045,9.66463,2.68293,-57.5305,-11.168,-0.847837,0.821492,-42.1951,-5.03049,0.213415
435.736,7.55998,-0.0403267,0,-0.462239,10.0687,-0.910107,8.01829,4.66463,-60.2744,-11.1991,-1.80105,0.0431104,-36.8598,-1.82927,-1.40244
435.746,6.5792,-0.146263,0,-1.55916,9.14658,-0.993933,7.37805,0.304878,-64.9085,-10.986,-2.7423,-0.493374,-29.6341,2.10366,-2.28659
435.757,5.50466,-0.234222,0,-2.04774,8.25084,-1.49928,8.87195,-18.9329,-67.7744,-10.6459,-3.24046,-0.431104,-21.7073,3.62805,-2.53049
435.766,4.37593,-0.310331,0,-2.54351,8.26282,-2.27527,10.4268,-42.4085,-69.0244,-9.89622,-3.14227,-0.344883,-14.6037,2.59146,-2.22561
435.776,3.35012,-0.329851,0,-2.18905,9.01725,-2.92671,9.2378,-63.2317,-67.8963,-9.26154,-2.72553,-0.0790356,-9.39024,-0.243902,-1.06707
435.786,2.40324,-0.284028,0,-1.91123,9.78366,-2.57465,7.89634,-82.1951,-67.2256,-9.26873,-2.28245,0.102986,-5.51829,-2.65244,-1.15854
435.796,1.59783,-0.239694,0,-0.819097,10.3537,-2.05732,4.87805,-81.6768,-68.0488,-9.48428,-1.59987,0.124541,-4.08537,-3.65854,-1.85976
435.806,0.916594,-0.358949,0,0.114961,10.2746,-2.019,2.43902,-78.4756,-67.561,-9.02922,-1.76992,-0.294587,-3.23171,-1.43293,-2.59146
435.817,0.337386,-0.363386,0,0.696951,9.67588,-2.06211,0.396341,-73.0488,-65.6402,-9.71899,-0.308958,-0.0790356,-3.59756,-2.46951,-3.35366
435.826,-0.125905,-0.464509,0,1.29571,9.12502,-2.45969,-0.121951,-62.4695,-63.0793,-9.26873,-0.220342,-0.280217,-3.53659,-1.34146,-2.62195
435.836,-0.546292,-0.486552,0,1.37474,8.73703,-2.56746,0.640244,-52.5,-61.4024,-8.89031,-0.172441,-0.119751,-4.32927,-1.7378,-1.64634
435.846,-0.929734,-0.472245,0,1.4418,8.50471,-2.94587,0.823171,-39.6037,-59.878,-8.66997,-0.294587,-0.0431104,-4.87805,-2.16463,-0.365854
435.856,-1.34222,-0.460795,0,1.08734,8.40891,-2.83331,1.92073,-31.4329,-59.0244,-8.51669,-0.673001,-0.0359253,-5.12195,-3.78049,-0.213415
435.866,-1.77622,-0.448872,0,0.802332,8.4616,-2.77583,3.44512,-27.2256,-58.0793,-8.45202,-0.972378,-0.0287402,-4.69512,-5.85366,-0.457317
435.876,-2.19029,-0.48565,0,0.811912,8.52387,-2.5986,4.60366,-23.4756,-56.9817,-8.38496,-1.32205,-0.205972,-3.62805,-7.10366,-1.06707
435.886,-2.60012,-0.565034,0,0.740061,8.72027,-2.42136,5.82317,-20.4573,-56.189,-8.42568,-1.59029,-0.371228,-2.31707,-7.7439,-1.82927
435.897,-3.02517,-0.696193,0,0.534089,8.95977,-2.28245,6.64634,-20.4573,-55.6402,-8.38017,-1.7795,-0.57241,0.182927,-7.86585,-2.65244
435.906,-3.46722,-0.85987,0,0.263452,9.10107,-2.03098,5.97561,-25.1524,-54.6646,-8.34185,-1.82979,-0.708926,2.89634,-7.86585,-2.80488
435.916,-3.83973,-1.03507,0,0.58199,9.01964,-1.91362,5.06098,-28.9024,-52.622,-8.27479,-1.77231,-0.766406,5.91463,-7.07317,-1.0061
435.926,-4.13098,-1.23604,0,1.07297,8.99809,-1.97829,5.30488,-30.122,-51.4329,-8.23887,-1.72202,-0.871787,8.53659,-5.94512,1.37195
435.936,-4.3873,-1.4697,0,1.23104,9.12023,-2.01421,4.96951,-30.4573,-50.2744,-8.23168,-1.57592,-0.938848,10.1829,-4.14634,3.90244
435.946,-4.62617,-1.77387,0,1.33882,9.18969,-2.15791,3.93293,-28.0183,-50.2439,-8.29635,-1.51365,-1.00351,11.0366,-2.86585,6.76829
435.956,-4.88203,-2.2742,0,1.20948,9.15137,-2.13396,1.95122,-23.6585,-50.9146,-8.37059,-1.40348,-1.13524,11.8293,-1.79878,9.02439
435.966,-5.16209,-3.2252,0,0.900527,9.01485,-2.08606,2.40854,-20.2134,-50.1829,-8.464,-1.28134,-1.24541,12.8659,-0.731707,10.7317
435.976,-5.47761,-4.56451,0,0.60115,9.12023,-1.95434,1.40244,-19.2988,-50.4268,-8.53345,-1.12326,-1.28852,13.1707,0.0609756,11.4329
435.986,-5.77369,-5.30008,0,0.723296,9.40524,-2.34951,0.487805,-17.2256,-50.3659,-8.48795,-0.876577,-1.51126,12.9268,0.945122,12.5915
435.996,-6.09507,-5.65287,0,0.347278,9.51781,-2.15791,0.243902,-17.0122,-48.8415,-8.38496,-0.840652,-1.86812,13.2317,3.35366,13.3841
436.006,-6.40646,-6.03185,0,0.486189,9.32381,-2.1651,1.37195,-14.6951,-50.3049,-8.30593,-0.998723,-2.24413,14.1159,6.7378,13.3232
436.016,-6.71234,-6.50198,0,0.526904,9.20166,-2.26329,0.426829,-16.5854,-50.9756,-8.24845,-1.29571,-2.65608,16.3415,10.7622,13.1707
436.026,-6.98155,-6.87352,0,0.718506,9.14658,-2.35909,-2.19512,-19.7561,-50.3354,-8.53824,-1.58311,-2.41897,18.0183,13.4146,12.4085
436.036,-7.21334,-7.08138,0,0.701741,9.26633,-2.54591,-6.89024,-21.8598,-46.7378,-9.02922,-1.98547,-1.92799,19.0854,13.9939,11.128
436.046,-7.39234,-7.11917,0,0.991538,9.84353,-3.10634,-7.7439,-22.7744,-44.7256,-9.66151,-2.01661,-1.35319,19.0549,12.6524,9.42073
436.056,-7.50012,-7.15881,0,1.35798,9.96568,-3.33387,-10.7012,-26.4939,-41.9207,-10.1237,-1.56395,-1.43462,18.2317,11.0366,9.29878
436.066,-7.49184,-7.2008,0,2.01182,9.72138,-3.2692,-11.7683,-26.4024,-38.3232,-10.5213,-1.0586,-1.50886,16.8902,11.7378,9.72561
436.076,-7.41963,-7.11778,0,2.05253,9.51062,-2.81654,-12.0732,-25.7927,-32.7744,-10.8925,-0.728086,-0.962798,14.1463,10.7012,10.2134
436.086,-7.24607,-7.005,0,2.47166,9.59205,-2.78541,-13.5366,-27.7744,-26.9207,-11.0099,-0.608335,-0.814307,10.2439,8.14024,9.87805
436.096,-6.95761,-7.05478,0,2.92192,9.20885,-3.21412,-16.5854,-21.5854,-21.2805,-10.4902,-0.471819,-1.51605,7.77439,7.68293,10.2134
436.106,-6.60469,-7.36397,0,2.83331,8.77775,-3.10634,-17.3171,-8.47561,-14.6951,-9.60882,-0.507744,-2.54112,7.53049,9.87805,12.0427
436.116,-6.30772,-7.73948,0,2.11959,9.0891,-2.62015,-15.9146,0.762195,-9.96951,-9.26154,-0.632285,-2.79259,9.45122,13.5671,14.3293
436.126,-6.05694,-8.13823,0,1.60227,9.86748,-2.31359,-15.2744,2.04268,-6.18902,-9.53457,-0.996328,-3.04886,12.9573,15.3963,15.3659
436.136,-5.72053,-8.37839,0,1.89925,10.6147,-2.19384,-16.2195,-1.12805,-1.85976,-10.1597,-1.49928,-2.55549,16.311,16.9817,13.872
436.146,-5.29572,-8.42728,0,2.58902,11.0937,-2.27766,-18.811,-0.0914634,4.7561,-11.1943,-1.98068,-1.88009,18.4146,16.0061,9.72561
436.156,-4.80304,-8.60076,0,2.71835,11.6733,-2.26569,-23.3841,-8.38415,12.7134,-11.6446,-1.98308,-2.62734,20.5183,18.872,5.39634
436.166,-4.18715,-8.81879,0,2.99377,11.8793,-1.98068,-30.9146,-13.2012,24.1768,-12.1404,-1.66693,-3.02251,23.2622,25.5183,0.0304878
436.177,-3.45324,-8.79912,0,2.92911,11.8146,-0.958008,-41.7073,-21.128,37.9268,-12.969,-1.60227,-1.86333,27.0732,29.5122,-4.72561
436.186,-2.56309,-8.48079,0,3.16382,12.2529,0.186812,-56.7073,-33.628,54.2378,-13.757,-1.28373,-0.150886,28.4756,26.6768,-6.70732
436.196,-1.53994,-7.95818,0,3.22609,12.4445,0.215552,-77.9573,-39.6037,69.5122,-14.418,-0.543669,1.21427,25.6098,19.7256,-7.04268
436.206,-0.449446,-7.36388,0,2.56267,11.8817,-0.160466,-95.6098,-34.0244,83.2927,-14.6695,0.459844,1.82979,19.878,12.2256,-6.61585
436.217,0.718513,-6.78841,0,1.80584,10.0782,1.06818,-95.7012,-31.8598,97.5305,-14.5689,1.36277,1.83938,15.4573,5.73171,-5.70122
436.226,2.06561,-6.30904,0,1.79866,9.03401,0.100591,-84.6037,-30.7927,115.945,-13.4313,1.85854,1.24781,16.189,3.07927,-5.12195
436.236,3.51037,-5.77402,0,1.29092,8.81367,-0.574805,-77.9573,-29.2073,134.634,-11.8122,2.50998,1.33882,16.9817,1.18902,-3.53659
436.246,4.92945,-5.1845,0,0.0143701,9.93694,-0.368833,-71.5854,-35.9451,151.799,-10.4088,1.62622,1.49928,21.5244,2.56098,-3.87195
436.256,6.32466,-4.55539,0,-0.866997,11.7979,-0.807122,-59.6951,-50.2134,161.006,-9.5681,0.673001,1.68849,23.4756,3.81098,-6.03659
436.266,7.61439,-3.76644,0,-1.51126,13.6804,-1.73639,-44.9695,-56.189,157.378,-9.26633,-0.411943,1.54718,23.9329,1.95122,-9.84756
436.276,8.76909,-3.09378,0,-1.34361,14.9138,-2.70398,-33.811,-51.7988,143.872,-9.34776,-1.32684,1.33163,23.7195,-1.79878,-12.8659
