time,angle1,angle2,intgangle,accX1,accY1,accZ1,gyroX1,gyroY1,gyroZ1,accX2,accY2,accZ2,gyroX2,gyroY2,gyroZ2
192.17,69.7885,9.31456,0,8.91426,3.19017,2.99138,0.182927,-0.243902,-1.40244,-9.69504,0.335303,1.64059,0.0609756,0.426829,6.85976
192.18,69.7878,9.32469,0,8.90468,3.19975,2.93869,0.213415,-0.213415,-1.40244,-9.67109,0.342488,1.60466,-0.0914634,0.304878,6.7378
192.19,69.7826,9.34285,0,8.91666,3.2213,2.95306,0.396341,-0.487805,-1.52439,-9.71899,0.294587,1.62861,-0.243902,0.243902,6.95122
192.2,69.7773,9.36899,0,8.9454,3.24286,2.94108,0.426829,-0.335366,-1.40244,-9.74533,0.237107,1.64538,-0.152439,0.0304878,7.19512
192.21,69.7781,9.36558,0,8.95737,3.21172,3.00814,0.365854,-0.457317,-1.37195,-9.77407,0.253872,1.60706,0.152439,-0.0304878,7.10366
192.22,69.7755,9.33177,0,8.95498,3.21412,3.06323,0.304878,-0.792683,-1.58537,-9.78126,0.241897,1.54479,0.335366,-0.396341,7.10366
192.23,69.7731,9.34604,0,8.9933,3.24765,2.91713,0.182927,-0.640244,-1.34146,-9.79563,0.304167,1.6334,0.487805,-0.0304878,6.95122
192.24,69.7662,9.3493,0,8.99569,3.27399,2.9315,-0.27439,-0.365854,-1.37195,-9.81479,0.316143,1.62143,0.365854,-0.27439,6.89024
192.25,69.7674,9.33989,0,9.01725,3.24765,2.94348,-0.182927,-0.304878,-1.18902,-9.79084,0.323328,1.59508,0.335366,0.182927,6.82927
192.26,69.7699,9.34656,0,9.01964,3.23807,2.92671,-0.518293,-0.182927,-1.21951,-9.81479,0.323328,1.62622,0.304878,-0.152439,6.82927
192.27,69.7792,9.35074,0,8.9909,3.19735,2.90516,-0.579268,0.0609756,-1.12805,-9.8076,0.277822,1.62143,0.182927,0.0609756,6.58537
192.28,69.7832,9.37231,0,9.02443,3.20933,2.87642,-0.518293,0.0609756,-1.43293,-9.76928,0.289797,1.64538,0.152439,0.0914634,6.43293
192.29,69.7874,9.33377,0,8.99569,3.19256,2.91953,-0.457317,0.396341,-1.4939,-9.73575,0.318538,1.54718,0.365854,0,6.46341
192.3,69.7957,9.3084,0,8.98132,3.16382,2.91474,-0.670732,0.304878,-1.46341,-9.71659,0.296982,1.55676,0.457317,0.0609756,6.55488
192.31,69.7985,9.28637,0,8.98851,3.18777,2.95306,-0.579268,0.365854,-1.58537,-9.70701,0.313748,1.55437,0.396341,0.152439,6.67683
192.32,69.8072,9.26001,0,8.97174,3.17101,2.9794,-0.426829,0.213415,-1.31098,-9.67109,0.328118,1.54,0.0304878,-0.0914634,6.58537
192.33,69.8093,9.25344,0,8.93103,3.16622,2.91474,-0.243902,0.304878,-1.64634,-9.69743,0.344883,1.57113,0.152439,0,6.64634
192.34,69.8137,9.24131,0,8.93582,3.16143,2.95306,-0.243902,0.0304878,-1.55488,-9.65672,0.397573,1.55437,0.0914634,-0.0914634,6.64634
192.35,69.8251,9.24218,0,8.943,3.15903,2.98659,-0.0914634,0.457317,-1.15854,-9.72138,0.378413,1.58311,0.0914634,0.0304878,6.46341
192.36,69.8306,9.25548,0,8.92863,3.16622,2.96264,-0.121951,0.579268,-1.37195,-9.70462,0.419128,1.59987,0.0914634,0.0304878,6.31098
192.37,69.8327,9.27118,0,8.94779,3.17819,3.00335,-0.0304878,0.304878,-1.52439,-9.73336,0.385598,1.61424,-0.27439,0.213415,6.40244
192.38,69.8422,9.2813,0,8.93821,3.17101,2.97461,-0.0914634,0.335366,-1.09756,-9.72378,0.387993,1.60466,-0.243902,0.152439,6.21951
192.39,69.8456,9.28383,0,8.94779,3.16861,2.96024,0.0304878,0.0914634,-1.52439,-9.75491,0.356858,1.59987,-0.213415,0.487805,5.91463
192.4,69.8418,9.2925,0,8.97414,3.21172,2.94827,-0.0914634,0.0914634,-1.64634,-9.76449,0.349673,1.61424,-0.365854,0.426829,6.06707
192.41,69.8359,9.27465,0,8.95737,3.22849,2.96982,0.243902,0.182927,-1.55488,-9.76689,0.344883,1.56155,-0.457317,0.457317,6.0061
192.42,69.8338,9.25247,0,8.96935,3.21891,2.97701,0.182927,-0.182927,-1.43293,-9.76928,0.323328,1.55676,-0.335366,0.152439,6.31098
192.43,69.8284,9.26272,0,8.96456,3.23328,2.94587,0.0304878,0.121951,-1.4939,-9.75491,0.320933,1.60706,-0.27439,0.152439,6.31098
192.44,69.823,9.2668,0,8.95258,3.23567,2.96982,0,0.0304878,-1.43293,-9.75491,0.368833,1.59748,-0.487805,-0.0304878,6.52439
192.45,69.8239,9.2885,0,8.943,3.21651,2.94827,0,0.0914634,-1.15854,-9.75731,0.368833,1.62861,-0.579268,0.0914634,6.34146
192.46,69.8189,9.27315,0,8.95977,3.24525,3.03928,0.365854,0.182927,-1.31098,-9.76449,0.335303,1.57113,-0.0914634,-0.0914634,6.43293
192.47,69.8177,9.27892,0,8.93342,3.22849,2.95066,0.457317,-0.0609756,-1.12805,-9.74054,0.347278,1.59987,-0.27439,-0.0914634,6.31098
192.48,69.8145,9.25294,0,8.94061,3.22609,2.99856,0.27439,-0.121951,-1.34146,-9.74533,0.304167,1.54239,-0.27439,-0.335366,6.15854
192.49,69.8064,9.24891,0,8.94061,3.25483,2.96503,0.304878,-0.152439,-1.37195,-9.73096,0.318538,1.57832,-0.213415,-0.152439,6.34146
192.5,69.807,9.24609,0,8.97174,3.22609,2.99617,0.0304878,-0.182927,-1.21951,-9.7118,0.313748,1.57592,-0.152439,-0.335366,6.34146
192.51,69.8093,9.25715,0,8.93582,3.21891,2.96264,0.518293,-0.365854,-1.03659,-9.70222,0.311353,1.59748,0,-0.121951,6.31098
192.52,69.8122,9.28987,0,8.94779,3.20693,2.99856,0.213415,-0.396341,-1.18902,-9.73575,0.289797,1.64298,0.152439,-0.152439,6.28049
192.53,69.8177,9.31829,0,8.93342,3.19735,2.97701,0.182927,-0.335366,-1.06707,-9.70462,0.294587,1.6334,0.152439,-0.0914634,6.34146
192.54,69.8205,9.29836,0,8.95498,3.19017,2.95066,-0.0609756,-0.335366,-1.40244,-9.73096,0.349673,1.56395,0.182927,-0.0914634,6.15854
192.55,69.8229,9.2474,0,8.94779,3.19735,2.96024,0.304878,-0.27439,-1.31098,-9.71899,0.340093,1.50886,-0.0609756,-0.0914634,6.31098
192.56,69.8261,9.21527,0,8.96456,3.19496,2.99138,0.0609756,-0.457317,-1.34146,-9.71899,0.304167,1.52563,0.0304878,0.243902,6.25
192.57,69.8297,9.23897,0,8.96216,3.18538,2.95066,-0.304878,-0.762195,-1.40244,-9.7118,0.328118,1.61424,0.152439,0.0914634,6.25
192.58,69.8325,9.23864,0,8.98611,3.18777,2.886,-0.335366,-0.762195,-1.52439,-9.75012,0.296982,1.5855,-0.304878,0.0914634,6.34146
192.59,69.8366,9.22816,0,8.96935,3.18059,2.98659,0.243902,-0.426829,-1.43293,-9.73336,0.330513,1.56395,-0.152439,0.304878,6.4939
192.6,69.8298,9.20283,0,8.95977,3.22609,2.9315,0.0914634,-0.365854,-1.67683,-9.73336,0.308958,1.54,0,0.0914634,6.4939
192.61,69.8234,9.19523,0,8.98372,3.24286,2.94827,-0.0609756,-0.426829,-1.55488,-9.74773,0.313748,1.56634,0.213415,-0.121951,6.18902
192.62,69.827,9.19192,0,8.9933,3.20214,2.94348,-0.0914634,-0.396341,-1.34146,-9.75252,0.316143,1.57353,0.152439,0,6.46341
192.63,69.8301,9.19963,0,9.00288,3.20454,2.90995,-0.0609756,-0.335366,-1.37195,-9.79084,0.296982,1.59748,0.0609756,-0.0914634,6.46341
192.64,69.8349,9.16365,0,8.98611,3.21651,2.89318,0.0304878,-0.304878,-1.06707,-9.75012,0.330513,1.51844,0.182927,-0.121951,6.21951
192.65,69.8356,9.1521,0,8.9909,3.21172,2.93869,-0.121951,-0.213415,-1.40244,-9.77407,0.294587,1.55676,0.243902,-0.121951,6.21951
192.66,69.8351,9.13922,0,9.01006,3.23567,2.92911,-0.182927,-0.27439,-1.28049,-9.79323,0.304167,1.55437,0.182927,-0.182927,6.18902
192.67,69.8473,9.12362,0,9.01246,3.1758,2.95545,-0.121951,-0.121951,-1.12805,-9.77407,0.292192,1.54239,0.213415,-0.304878,6.31098
192.68,69.8492,9.11065,0,9.01964,3.21412,2.92432,-0.121951,0.182927,-1.37195,-9.77168,0.301772,1.54479,0.243902,-0.27439,6.28049
192.69,69.8506,9.1453,0,8.95977,3.19735,2.93629,-0.213415,0.27439,-1.37195,-9.73575,0.294587,1.62382,0.426829,-0.243902,6.34146
192.7,69.8593,9.14037,0,8.99569,3.16382,2.94587,-0.182927,0.213415,-1.37195,-9.73096,0.340093,1.55676,0.243902,-0.365854,6.18902
192.71,69.8641,9.12574,0,8.9933,3.18298,2.90755,-0.0609756,0.243902,-1.40244,-9.73575,0.325723,1.54239,-0.0304878,-0.0914634,6.34146
192.72,69.8647,9.1539,0,8.97653,3.19975,2.9339,0.121951,0.396341,-1.43293,-9.73815,0.308958,1.61185,0.152439,0.121951,6.34146
192.73,69.8675,9.17825,0,8.943,3.19975,2.90516,-0.121951,0.213415,-1.15854,-9.7142,0.320933,1.60706,0.0914634,-0.182927,6.34146
192.74,69.8644,9.189,0,8.94061,3.20454,2.95306,-0.121951,0.213415,-1.4939,-9.74533,0.332908,1.59269,0.0304878,-0.121951,6.37195
192.75,69.8635,9.20159,0,8.98611,3.19975,2.90276,0.0304878,0.396341,-1.58537,-9.72857,0.325723,1.59508,0,-0.152439,6.40244
192.76,69.8682,9.20192,0,8.97653,3.18298,2.95545,-0.0609756,0.304878,-1.34146,-9.74054,0.330513,1.57832,0.0304878,-0.182927,6.58537
192.77,69.8695,9.18046,0,8.97893,3.19496,2.96024,-0.0609756,0.182927,-1.43293,-9.7118,0.330513,1.54,-0.0609756,-0.0304878,5.91463
192.78,69.8712,9.16998,0,8.94779,3.18298,2.93869,-0.0914634,0.182927,-1.43293,-9.72617,0.313748,1.55437,0.0914634,-0.121951,6.43293
192.79,69.8695,9.17392,0,8.95737,3.21412,2.90995,0.152439,0.0609756,-1.34146,-9.73575,0.316143,1.57832,-0.0914634,-0.182927,6.34146
192.8,69.867,9.19495,0,8.97174,3.19256,2.96982,0.213415,0.0914634,-1.70732,-9.74294,0.340093,1.60706,-0.243902,-0.0304878,6.28049
192.81,69.8668,9.22767,0,8.97893,3.19975,2.92911,0.152439,0.0914634,-1.4939,-9.71899,0.352068,1.62382,-0.213415,0,6.34146
192.82,69.8629,9.22775,0,8.96935,3.20454,2.98659,0.152439,0.0609756,-1.67683,-9.7597,0.328118,1.5855,-0.121951,-0.243902,6.31098
192.83,69.8606,9.21344,0,8.96935,3.19256,2.95785,0.182927,0.0914634,-1.70732,-9.74294,0.347278,1.55676,-0.121951,-0.243902,6.25
192.84,69.8587,9.24505,0,8.95977,3.19975,2.96743,-0.0609756,-0.0304878,-1.55488,-9.75012,0.328118,1.6334,-0.0914634,-0.0609756,6.37195
192.85,69.8571,9.26012,0,8.95019,3.19496,2.96264,0.152439,0.27439,-1.55488,-9.75731,0.340093,1.61664,-0.457317,-0.304878,6.46341
192.86,69.8499,9.24945,0,8.95019,3.24046,2.96264,0.152439,0.0914634,-1.43293,-9.75491,0.337698,1.57113,-0.0304878,-0.213415,6.25
192.87,69.8488,9.28711,0,8.96216,3.19496,2.98419,-0.0304878,0.0304878,-1.58537,-9.73575,0.313748,1.65256,-0.365854,-0.213415,6.09756
192.88,69.8505,9.28173,0,8.95498,3.20454,2.93869,0.0914634,0.182927,-1.25,-9.73575,0.323328,1.58311,-0.121951,-0.0914634,6.31098
192.89,69.8478,9.27602,0,8.9454,3.21412,2.99377,0.0304878,0.27439,-1.40244,-9.74054,0.320933,1.58071,-0.27439,-0.335366,6.15854
192.9,69.8452,9.26265,0,8.98132,3.21651,2.97701,0.365854,0.121951,-1.52439,-9.74054,0.330513,1.56874,-0.426829,-0.0914634,6.55488
192.91,69.8448,9.27484,0,8.97893,3.20454,2.96264,0.426829,-0.0304878,-1.4939,-9.72138,0.301772,1.60706,-0.426829,-0.243902,6.28049
192.92,69.8442,9.27119,0,8.96216,3.2213,2.91713,0.213415,-0.0304878,-1.25,-9.73575,0.285007,1.58311,-0.304878,-0.243902,6.61585
192.93,69.8385,9.25143,0,8.95019,3.2213,2.96503,0.152439,0.0609756,-1.58537,-9.74054,0.323328,1.55676,0.0304878,-0.121951,6.4939
192.94,69.8342,9.24228,0,8.96456,3.23807,2.94108,0.304878,-0.152439,-1.34146,-9.76689,0.301772,1.57353,-0.335366,-0.27439,6.43293
192.95,69.8273,9.27292,0,8.95019,3.22609,3.01054,0.0609756,0.0304878,-1.64634,-9.72857,0.304167,1.63819,-0.121951,-0.243902,6.52439
192.96,69.8207,9.27663,0,8.9454,3.23088,2.93869,0.213415,0.152439,-1.55488,-9.70462,0.294587,1.59029,0.0304878,-0.0609756,6.15854
192.97,69.8179,9.28385,0,8.95498,3.21651,2.97461,0.121951,0.0914634,-1.4939,-9.73815,0.308958,1.60227,0,-0.0609756,6.46341
192.98,69.821,9.2947,0,8.95737,3.19735,2.92192,0.0304878,0.0609756,-1.31098,-9.73815,0.335303,1.60945,-0.121951,-0.0609756,6.12805
192.99,69.8142,9.30601,0,8.95977,3.22609,2.95066,-0.152439,-0.0304878,-1.70732,-9.75252,0.349673,1.61664,-0.0304878,-0.243902,6.12805
193,69.8145,9.32331,0,8.94779,3.19017,2.97701,0.0304878,0.0609756,-1.55488,-9.73815,0.349673,1.62622,-0.0609756,0.182927,6.37195
193.01,69.818,9.31664,0,8.93342,3.19256,2.94348,0.0914634,-0.365854,-1.25,-9.72138,0.328118,1.5855,-0.426829,-0.0304878,6.15854
193.02,69.8243,9.28608,0,8.95019,3.17819,2.96503,0.0914634,-0.243902,-1.28049,-9.69264,0.316143,1.54239,-0.304878,-0.0609756,6.18902
193.03,69.8264,9.28796,0,8.96456,3.21412,3.01054,0.152439,-0.304878,-1.18902,-9.69264,0.249082,1.5879,-0.0914634,-0.243902,6.46341
193.04,69.8279,9.27543,0,8.943,3.19256,2.94108,0.182927,-0.152439,-1.40244,-9.68067,0.215552,1.55916,-0.0304878,-0.396341,6.25
193.05,69.8392,9.25428,0,8.96935,3.18059,2.95066,0.457317,-0.213415,-1.0061,-9.75252,0.256267,1.55197,0.304878,-0.335366,6.31098
193.06,69.8434,9.25998,0,8.98851,3.18538,2.96264,0.152439,-0.640244,-1.43293,-9.79563,0.256267,1.60706,0.182927,-0.335366,6.55488
193.07,69.8421,9.25712,0,8.9933,3.22609,2.9818,0.0914634,-0.457317,-1.37195,-9.82197,0.280217,1.59508,0,-0.396341,6.89024
193.08,69.8449,9.23626,0,9.02443,3.21651,2.95066,0.121951,-0.487805,-1.31098,-9.84593,0.287402,1.55916,0.335366,-0.457317,6.79878
193.09,69.8435,9.2106,0,9.04359,3.24046,2.9315,-0.243902,-0.640244,-1.40244,-9.78605,0.340093,1.54,0.396341,-0.365854,6.7378
193.1,69.8461,9.22292,0,9.00288,3.21651,2.87642,-0.121951,-0.27439,-1.25,-9.77886,0.332908,1.61185,-0.0914634,-0.518293,6.70732
193.11,69.8454,9.19639,0,9.00767,3.21891,2.90516,-0.243902,-0.152439,-1.46341,-9.7597,0.366438,1.53521,-0.0609756,-0.27439,6.34146
193.12,69.8482,9.1927,0,8.96216,3.21172,2.886,-0.365854,-0.152439,-1.12805,-9.72857,0.323328,1.56874,-0.243902,0.213415,6.37195
193.13,69.8585,9.17477,0,9.00048,3.17819,2.90755,-0.457317,0.426829,-1.15854,-9.69504,0.318538,1.54,-0.152439,0.121951,6.43293
193.14,69.8754,9.18926,0,8.95977,3.14945,2.94108,-0.243902,0.0609756,-0.945122,-9.68785,0.294587,1.59269,-0.304878,0.396341,6.34146
193.15,69.8825,9.21147,0,8.97174,3.18777,2.90755,-0.213415,0.27439,-1.09756,-9.66151,0.280217,1.59987,0.121951,0.182927,6.4939
193.16,69.8894,9.21272,0,8.95977,3.14945,2.95545,-0.335366,0.335366,-1.46341,-9.64235,0.280217,1.56634,0.121951,0.396341,6.43293
193.17,69.8897,9.21009,0,8.97653,3.19735,2.93629,0,0.27439,-1.43293,-9.69025,0.313748,1.56634,-0.27439,0.731707,6.31098
193.18,69.8925,9.24035,0,8.98132,3.20454,2.95306,-0.152439,-0.121951,-1.18902,-9.75252,0.311353,1.65256,-0.304878,0.701219,6.76829
193.19,69.8935,9.22864,0,8.93103,3.19017,2.94827,-0.121951,0.121951,-1.28049,-9.70941,0.323328,1.55197,-0.0304878,0.853659,6.4939
193.2,69.8934,9.24619,0,8.93103,3.17819,2.9818,0,-0.335366,-1.4939,-9.72138,0.359253,1.61903,0,0.640244,6.43293
193.21,69.8931,9.24932,0,8.93342,3.1758,2.94587,-0.121951,-0.426829,-1.55488,-9.71659,0.361648,1.59029,0.365854,0.884146,6.43293
193.22,69.8897,9.2725,0,8.96935,3.20693,2.98659,-0.121951,-0.457317,-1.55488,-9.71659,0.316143,1.64298,0.182927,0.97561,6.28049
193.23,69.8906,9.29956,0,8.95019,3.19735,2.9818,0,-0.823171,-1.28049,-9.73575,0.316143,1.66454,0,1.09756,6.34146
193.24,69.8914,9.32836,0,8.93342,3.20454,2.96503,0.0914634,-1.06707,-1.12805,-9.70222,0.316143,1.67891,-0.304878,1.4939,6.4939
193.25,69.9004,9.3532,0,9.00048,3.18059,2.94827,0.152439,-0.823171,-1.12805,-9.68306,0.280217,1.66933,-0.0914634,1.55488,6.46341
193.26,69.9047,9.3659,0,8.99809,3.18059,2.91474,0.609756,-0.97561,-1.40244,-9.74294,0.249082,1.64538,-0.0609756,1.46341,6.21951
193.27,69.907,9.36771,0,9.02922,3.20454,2.91713,0.609756,-1.06707,-1.37195,-9.74054,0.280217,1.61424,0.243902,1.79878,6.70732
193.28,69.9084,9.35508,0,9.03162,3.19735,2.9315,0.548781,-0.670732,-1.52439,-9.73575,0.261057,1.56634,-0.121951,1.67683,6.64634
193.29,69.9049,9.33891,0,9.00288,3.25004,2.93629,0.609756,-0.792683,-1.12805,-9.74533,0.282612,1.55437,0.0914634,1.64634,6.70732
193.3,69.9009,9.3203,0,8.9933,3.21412,2.96743,0.670732,-0.457317,-1.58537,-9.75012,0.296982,1.54479,0.182927,1.61585,6.82927
193.31,69.9051,9.29176,0,8.95977,3.16861,2.91474,0.579268,-0.426829,-1.40244,-9.7621,0.311353,1.51126,-0.0609756,1.61585,7.0122
193.32,69.9008,9.27117,0,8.96935,3.22609,2.88121,0.487805,-0.579268,-1.37195,-9.77647,0.364043,1.5376,-0.335366,1.40244,6.95122
193.33,69.8982,9.24135,0,8.98611,3.2213,2.95306,0.518293,-0.609756,-1.37195,-9.80281,0.378413,1.52802,-0.304878,0.762195,6.95122
193.34,69.9066,9.23578,0,8.98372,3.17819,2.886,0.518293,-0.457317,-1.12805,-9.80281,0.354463,1.58071,-0.182927,1.0061,6.98171
193.35,69.9053,9.20683,0,8.97653,3.21412,2.96743,0.335366,-0.182927,-1.31098,-9.78605,0.359253,1.52563,-0.457317,0.640244,6.61585
193.36,69.8991,9.16009,0,8.99569,3.25723,2.88121,0.213415,0.27439,-1.21951,-9.73575,0.332908,1.47533,-0.487805,0.640244,6.43293
193.37,69.9514,9.14732,0,9.09868,3.03688,2.78541,0.213415,1.15854,-0.731707,-9.75491,0.354463,1.54718,-0.396341,0.457317,6.64634
193.38,69.9796,9.0986,0,9.04838,3.01054,2.94587,0.0609756,0.640244,-1.61585,-9.74054,0.294587,1.47533,-0.365854,0.365854,6.79878
193.39,69.9915,9.03392,0,8.9933,3.09197,2.94587,0.762195,0,-1.64634,-9.76928,0.285007,1.46096,-0.487805,-0.0304878,6.64634
193.4,69.9677,9.00845,0,8.9909,3.34105,2.86684,0.0914634,0.914634,-1.34146,-9.77407,0.253872,1.51365,-0.182927,0,6.76829
193.41,69.9669,8.94907,0,9.01246,3.19256,2.85726,-0.0304878,1.15854,-1.55488,-9.79563,0.249082,1.44899,-0.0304878,0.152439,7.0122
193.42,69.9886,8.9339,0,9.00288,3.07042,2.9794,0.609756,0.792683,-1.34146,-9.7621,0.237107,1.51126,0.213415,0.152439,7.16463
193.43,69.9939,8.92323,0,8.95977,3.13748,2.96982,0.731707,0.243902,-1.4939,-9.74773,0.289797,1.51365,0.0609756,0.213415,7.31707
193.44,70.0012,8.90525,0,8.95977,3.13029,2.95785,0.945122,0.579268,-1.43293,-9.75491,0.330513,1.49928,0.365854,0.243902,7.16463
193.45,69.9945,8.89921,0,8.95019,3.18538,2.97461,0.548781,0.335366,-1.76829,-9.71899,0.344883,1.51365,0.213415,0,7.62195
193.46,69.9902,8.90664,0,9.00527,3.19496,2.90276,0.853659,0.0609756,-1.70732,-9.73815,0.330513,1.5376,0.213415,0.152439,7.31707
193.47,69.9843,8.96402,0,8.98611,3.1758,2.95306,0.762195,0.0304878,-1.98171,-9.73575,0.335303,1.62622,0.0304878,0.182927,7.46951
193.48,69.9797,8.96743,0,9.01006,3.19496,2.91234,0.914634,0.365854,-1.76829,-9.75012,0.368833,1.54479,-0.243902,0.335366,7.62195
193.49,69.9709,8.96451,0,8.98851,3.19975,2.92911,0.548781,0.487805,-1.98171,-9.73096,0.306563,1.53042,-0.121951,0.304878,7.40854
193.5,69.9568,8.95483,0,8.97893,3.2213,2.89797,0.457317,0.579268,-2.16463,-9.73096,0.273032,1.51365,-0.121951,0.701219,7.5
193.51,69.9464,8.94393,0,8.99569,3.20933,2.98419,0.365854,0.579268,-2.07317,-9.7142,0.261057,1.50647,-0.0609756,0.731707,7.53049
193.52,69.93,8.96916,0,8.94061,3.22609,2.9315,0.548781,0.640244,-2.19512,-9.73096,0.280217,1.5855,0.0914634,0.548781,7.56098
193.53,69.9159,8.95688,0,8.95737,3.2237,2.91474,0.335366,0.518293,-2.13415,-9.71899,0.256267,1.50647,0.365854,0.731707,7.37805
193.54,69.904,8.98187,0,8.95019,3.21172,2.95545,0.243902,0.548781,-2.07317,-9.73336,0.270637,1.59029,0.457317,0.640244,7.95732
193.55,69.8943,8.99233,0,8.95737,3.22609,2.91234,0.182927,0.609756,-1.76829,-9.75491,0.335303,1.56634,0.792683,0.670732,7.7439
193.56,69.883,8.98312,0,8.95737,3.23088,2.91953,-0.121951,0.487805,-1.85976,-9.70941,0.342488,1.51126,0.182927,1.28049,7.59146
193.57,69.8709,8.9695,0,8.943,3.24765,2.91474,0,0.304878,-1.67683,-9.73336,0.340093,1.49689,0.121951,1.58537,7.5
193.58,69.854,8.97244,0,8.92145,3.25962,2.96264,-0.121951,0.335366,-1.89024,-9.67827,0.304167,1.54,0.365854,2.19512,7.46951
193.59,69.8476,8.98281,0,8.9909,3.24765,2.9315,-0.0609756,0.152439,-1.46341,-9.72857,0.318538,1.58071,0.396341,3.07927,6.85976
193.6,69.8469,8.99341,0,9.00527,3.25004,2.91474,0.27439,-0.0914634,-1.06707,-9.71899,0.289797,1.58311,0,3.41463,7.34756
193.61,69.8469,9.00165,0,8.99569,3.24765,2.94587,0.0609756,0.27439,-1.0061,-9.75012,0.342488,1.58071,0.27439,3.56707,7.10366
193.62,69.8588,9.01616,0,9.02683,3.22849,2.90276,0.243902,0.152439,-0.609756,-9.73815,0.390388,1.60706,0.365854,3.71951,7.07317
193.63,69.8707,9.02727,0,8.97893,3.18777,2.89558,0.304878,-0.0914634,-0.884146,-9.76689,0.421523,1.59987,0.0609756,3.68902,7.31707
193.64,69.8897,9.03166,0,8.99569,3.19975,2.8836,0.335366,0.0914634,-0.426829,-9.75491,0.479004,1.57113,0.121951,3.47561,7.28659
193.65,69.9045,9.04471,0,8.95258,3.17101,2.91713,0.365854,0.121951,-0.762195,-9.76689,0.440684,1.60945,-0.0304878,3.32317,7.59146
193.66,69.9247,9.05164,0,8.93821,3.11113,2.9794,0.548781,0.182927,-1.0061,-9.79323,0.431104,1.59029,-0.304878,3.17073,7.31707
193.67,69.9331,9.04576,0,8.95498,3.15185,2.96982,0.823171,0.457317,-1.25,-9.70941,0.443079,1.52563,-0.335366,3.20122,7.53049
193.68,69.9263,9.03617,0,8.91187,3.19735,2.95545,0.884146,-0.0304878,-1.61585,-9.75252,0.404758,1.51844,-0.152439,2.40854,7.62195
193.69,69.9124,9.03096,0,8.90229,3.22609,2.9818,0.487805,-0.548781,-1.82927,-9.7597,0.423918,1.53521,-0.365854,2.07317,7.31707
193.7,69.8964,9.01575,0,8.90708,3.24525,3.04167,0.335366,-0.670732,-1.82927,-9.78366,0.402363,1.50407,-0.27439,1.85976,7.56098
193.71,69.874,8.98661,0,8.87834,3.26681,3.00575,0.0609756,-0.97561,-2.04268,-9.77886,0.364043,1.47054,-0.335366,1.15854,7.40854
193.72,69.8412,8.95833,0,8.85918,3.3674,2.9818,0.304878,-1.09756,-1.28049,-9.74533,0.335303,1.46815,-0.335366,1.0061,7.71341
193.73,69.8003,8.89066,0,8.8496,3.40811,2.99138,0.0609756,-1.06707,-0.640244,-9.74054,0.332908,1.3939,-0.243902,0.548781,7.9878
193.74,69.7907,8.79152,0,8.82565,3.27399,3.10395,-0.121951,-0.884146,-0.213415,-9.80521,0.340093,1.37235,-0.304878,-0.0304878,7.80488
193.75,69.8083,8.71724,0,8.89989,3.21891,3.09676,0.335366,-1.28049,0.182927,-9.81958,0.335303,1.36756,-0.121951,-0.396341,8.32317
193.76,69.8575,8.67337,0,8.92863,3.07281,3.03688,0,-1.31098,-0.396341,-9.8555,0.332908,1.39869,0.182927,-0.823171,8.29268
193.77,69.7884,8.62939,0,8.77056,3.71947,2.93629,0.0304878,-2.07317,1.34146,-9.87946,0.380808,1.37474,0.243902,-1.21951,8.41463
193.78,69.9113,8.58161,0,8.95737,2.90037,2.94827,-1.28049,-2.16463,-0.0914634,-9.91299,0.438289,1.35319,0.152439,-1.34146,8.81098
193.79,69.985,8.56313,0,9.15376,2.93869,3.0273,-0.579268,-1.52439,-0.701219,-9.95131,0.507744,1.42743,0.0304878,-2.34756,8.71951
193.8,70.0068,8.54486,0,9.00048,3.0776,2.98659,0,-3.23171,-1.25,-9.92257,0.534089,1.41785,-0.27439,-2.71341,8.35366
193.81,70.0102,8.5279,0,8.99809,3.15903,2.87881,-0.426829,-3.14024,-1.4939,-9.89383,0.524509,1.41306,-0.579268,-3.17073,8.35366
193.82,70.0271,8.50548,0,9.06994,3.13508,2.78062,-0.396341,-2.04268,-1.15854,-9.84114,0.493374,1.38193,-0.518293,-2.95732,8.07927
193.83,70.0521,8.47788,0,9.04599,3.11353,2.76864,-0.0609756,-1.89024,-0.884146,-9.73096,0.383203,1.3484,-0.487805,-2.53049,7.80488
193.84,70.0802,8.44959,0,9.09389,3.0776,2.82612,0,-1.21951,-1.09756,-9.71899,0.313748,1.34361,0.304878,-2.28659,7.83537
193.85,70.1076,8.40397,0,9.09868,3.07281,2.86444,0.426829,-0.701219,-1.12805,-9.72138,0.277822,1.28373,0.762195,-2.04268,7.56098
193.86,70.1248,8.39392,0,9.10826,3.09197,2.80696,0.304878,-0.640244,-1.46341,-9.69025,0.308958,1.3939,1.12805,-2.19512,7.56098
193.87,70.1376,8.41562,0,9.10826,3.08958,2.79499,0.518293,-0.0609756,-1.70732,-9.7118,0.407153,1.50647,1.58537,-1.98171,7.68293
193.88,70.1505,8.4193,0,9.07233,3.04167,2.85247,0.365854,0.426829,-2.0122,-9.77168,0.483794,1.45617,1.40244,-1.61585,6.98171
193.89,70.1608,8.4256,0,9.0412,3.04167,2.86923,0.335366,0.365854,-2.07317,-9.77168,0.531694,1.46575,1.09756,-1.70732,6.67683
193.9,70.1624,8.4349,0,9.02922,3.04407,2.91474,0.609756,0.762195,-2.62195,-9.82916,0.517324,1.48252,0.335366,-1.25,6.46341
193.91,70.1618,8.42485,0,9.01006,3.0776,2.92911,0.457317,0.213415,-2.37805,-9.85072,0.510139,1.42743,-0.213415,-1.46341,6.0061
193.92,70.1513,8.42393,0,9.01485,3.14945,2.96264,0.731707,0.182927,-2.43902,-9.89383,0.498164,1.46096,-0.152439,-1.55488,6.15854
193.93,70.138,8.42034,0,9.00527,3.14227,2.94827,0.609756,-0.0609756,-2.7439,-9.9082,0.433499,1.45138,-0.213415,-2.34756,6.34146
193.94,70.1164,8.40459,0,9.00048,3.19735,2.95545,0.762195,-0.396341,-2.89634,-9.93454,0.356858,1.40348,-0.457317,-2.86585,7.0122
193.95,70.0882,8.38595,0,8.99569,3.25723,2.92192,0.731707,-0.609756,-2.83537,-9.89862,0.356858,1.38193,-0.243902,-3.20122,7.5
193.96,70.0599,8.38828,0,9.01964,3.27399,2.886,0.304878,-0.823171,-2.80488,-9.89862,0.335303,1.46575,-0.0914634,-4.05488,7.37805
193.971,70.0283,8.41222,0,8.96456,3.28357,2.86684,0.243902,-1.0061,-2.83537,-9.93215,0.380808,1.56634,0.304878,-5,7.28659
193.98,69.9966,8.43359,0,8.98132,3.30273,2.89558,0.121951,-0.609756,-2.7439,-9.93215,0.421523,1.55916,0.121951,-5.12195,6.89024
193.99,69.964,8.44786,0,8.95977,3.3195,2.91474,-0.335366,-0.579268,-2.59146,-9.89622,0.435894,1.52563,0.152439,-5.70122,6.61585
194,69.9353,8.48363,0,8.97174,3.30273,2.86205,-0.27439,-0.701219,-2.53049,-9.86748,0.464634,1.61903,0.304878,-5.82317,6.64634
194.01,69.9149,8.51691,0,8.98372,3.25483,2.87642,-0.548781,-0.548781,-2.43902,-9.81,0.493374,1.60466,-0.182927,-6.46341,6.37195
194.02,69.8905,8.57558,0,8.96216,3.28597,2.8381,-0.640244,-0.121951,-2.37805,-9.75012,0.476609,1.71244,0.213415,-7.0122,6.43293
194.03,69.7948,8.65846,0,8.75619,3.62366,2.90755,-0.27439,0.0914634,-0.731707,-9.69983,0.495769,1.82021,-0.487805,-7.86585,6.43293
194.04,69.6952,8.76283,0,8.70829,3.90867,2.81654,-1.09756,1.21951,1.40244,-9.60882,0.524509,1.91123,-0.914634,-8.84146,6.64634
194.05,69.7189,8.87996,0,8.82086,3.20454,2.84768,-2.59146,3.07927,1.40244,-9.51541,0.56283,1.96631,-0.426829,-8.96341,6.82927
194.06,69.8233,8.99405,0,8.95258,2.33275,3.11113,-2.9878,2.62195,-2.65244,-9.40285,0.550855,1.94955,-0.182927,-9.45122,7.13415
194.07,69.8478,9.12945,0,8.98611,2.72074,3.1279,-0.914634,-0.731707,-4.45122,-9.35016,0.517324,2.05014,0,-9.17683,6.95122
194.08,69.7956,9.30778,0,9.09149,3.53505,2.85486,0.609756,-0.579268,-2.92683,-9.25675,0.438289,2.23695,-0.182927,-9.32927,6.61585
194.09,69.7534,9.52796,0,9.24478,3.6069,2.80936,-0.365854,1.52439,-1.31098,-9.20646,0.428708,2.43573,-0.640244,-9.66463,6.18902
194.1,69.7545,9.76223,0,9.11065,3.27639,2.96503,-1.21951,1.40244,-1.25,-9.15856,0.498164,2.52196,-1.79878,-9.5122,5.51829
194.11,69.7601,10.0057,0,8.77535,2.96503,3.10395,-3.41463,-0.335366,-2.9878,-9.16334,0.622705,2.60339,-2.68293,-9.87805,5.39634
194.12,69.7591,10.2035,0,8.69632,2.79738,3.16382,-3.81098,-1.28049,-5.09146,-9.29268,0.740061,2.48124,-3.20122,-10.122,5.18293
194.13,69.7598,10.3364,0,9.01964,2.81894,2.96503,-1.70732,-1.34146,-5.85366,-9.48907,0.807122,2.28006,-3.62805,-9.81707,6.15854
194.14,69.7481,10.3916,0,9.25436,2.96264,2.692,0.670732,-1.55488,-6.28049,-9.72617,0.785566,2.01182,-4.05488,-8.71951,6.79878
194.15,69.696,10.4156,0,9.26394,3.32908,2.6465,0.457317,-1.03659,-6.31098,-9.92975,0.675395,1.9232,-4.17683,-7.40854,7.71341
194.16,69.6218,10.4146,0,9.14418,3.48715,2.65608,-1.67683,0.396341,-6.40244,-10.0758,0.490979,1.84177,-4.42073,-6.4939,7.34756
194.17,69.5487,10.4037,0,8.89271,3.37698,2.73032,-2.89634,1.37195,-6.61585,-10.095,0.366438,1.79866,-4.2378,-7.07317,6.37195
194.18,69.4866,10.3805,0,8.73943,3.34105,2.79499,-1.61585,2.9878,-5.36585,-9.96568,0.249082,1.71723,-3.35366,-8.53659,4.96951
194.19,69.4304,10.3833,0,8.69871,3.44883,2.78062,0.701219,4.54268,-3.29268,-9.81,0.213157,1.80105,-2.89634,-9.66463,4.39024
194.2,69.3678,10.405,0,8.81128,3.58295,2.91234,2.34756,4.90854,-0.853659,-9.64714,0.249082,1.85375,-2.28659,-10.8537,3.96341
194.21,69.3131,10.4278,0,8.86157,3.76976,2.92911,3.78049,5.18293,1.34146,-9.55373,0.320933,1.84417,-2.31707,-11.0061,5.03049
194.22,69.2946,10.4437,0,8.86636,3.76258,2.98898,3.75,4.11585,3.14024,-9.49865,0.361648,1.80824,-1.4939,-10.4878,6.40244
194.23,69.3042,10.4604,0,8.88792,3.6045,3.04407,3.07927,2.77439,3.87195,-9.60163,0.347278,1.83458,-1.58537,-9.78659,7.65244
194.24,69.3307,10.4089,0,8.90947,3.53265,3.07521,3.10976,1.79878,4.63415,-9.78844,0.182021,1.57113,-1.52439,-8.56707,7.46951
194.25,69.3573,10.3223,0,8.82325,3.5111,3.0776,3.10976,0.853659,4.84756,-9.99442,0.0622705,1.43701,-1.52439,-8.2622,7.0122
194.26,69.3779,10.2661,0,8.71548,3.49673,3.07521,2.43902,0.243902,4.63415,-10.1908,0.00239502,1.5879,-0.762195,-9.08537,6.46341
194.27,69.3954,10.2112,0,8.61728,3.45841,3.05125,1.31098,-0.182927,4.39024,-10.2267,0.0526904,1.5879,-0.396341,-11.2805,5.64024
194.28,69.4115,10.1548,0,8.62207,3.38895,3.06802,0.243902,-0.731707,3.5061,-10.2148,0.184417,1.56634,0.365854,-13.7195,5.21341
194.29,69.4294,10.1386,0,8.65081,3.33387,3.13029,-0.243902,-1.43293,2.92683,-10.1261,0.289797,1.72441,0.823171,-16.311,4.72561
194.3,69.4498,10.1497,0,8.71308,3.28118,3.23088,-0.365854,-2.80488,2.2561,-10.0423,0.354463,1.82979,1.55488,-18.7805,4.48171
194.31,69.476,10.1923,0,8.83523,3.28118,3.2213,-1.06707,-3.14024,2.2561,-9.91299,0.459844,1.94955,1.98171,-19.939,4.14634
194.32,69.5058,10.2191,0,8.87115,3.2692,3.17819,-1.85976,-4.35976,2.34756,-9.76449,0.56283,1.85854,1.85976,-18.9634,4.54268
194.33,69.5442,10.2764,0,8.91666,3.21651,3.13508,-2.80488,-4.87805,2.37805,-9.65432,0.6251,1.97829,1.43293,-17.439,4.96951
194.34,69.5918,10.3293,0,8.89989,3.15424,3.06083,-3.41463,-5.42683,2.71341,-9.56571,0.622705,1.95194,1.06707,-15.7012,5.4878
194.35,69.6572,10.3997,0,8.93342,3.03449,2.97461,-3.38415,-5.51829,3.01829,-9.59205,0.57241,2.04535,0.731707,-14.1768,6.06707
194.36,69.7367,10.4543,0,8.97893,2.92911,2.96264,-3.47561,-5.91463,3.07927,-9.62319,0.536484,1.99505,0.853659,-13.4451,6.46341
194.37,69.8341,10.4909,0,9.12263,2.80936,2.89558,-3.29268,-5.27439,2.95732,-9.62079,0.483794,1.9256,-0.0304878,-12.378,6.58537
194.38,69.9377,10.5189,0,9.11305,2.73511,2.94108,-2.89634,-6.7378,2.31707,-9.67348,0.440684,1.90404,-0.304878,-12.561,6.89024
194.39,70.0405,10.5781,0,9.0891,2.75667,2.89318,-2.7439,-6.03659,1.55488,-9.68785,0.469424,2.05014,-0.670732,-13.2317,6.7378
194.4,70.149,10.6219,0,9.13221,2.80217,2.84528,-1.82927,-6.95122,0.853659,-9.72138,0.490979,1.99745,-1.09756,-14.5427,6.52439
194.41,70.2551,10.6687,0,9.02922,2.80217,2.86444,-1.46341,-7.43902,0.731707,-9.72378,0.502954,2.019,-1.55488,-14.9085,6.58537
194.42,70.3458,10.7363,0,9.05317,2.87402,2.80936,-0.457317,-7.34756,0.609756,-9.73336,0.510139,2.12199,-1.82927,-15.5183,6.85976
194.43,70.4107,10.7999,0,9.12023,2.93629,2.76625,0.27439,-7.40854,1.40244,-9.70462,0.443079,2.11001,-1.85976,-15.3659,7.10366
194.44,70.4765,10.8775,0,9.27112,2.95306,2.6944,1.12805,-6.82927,1.52439,-9.71659,0.421523,2.18665,-1.70732,-15.7012,7.22561
194.45,70.5462,10.963,0,9.31423,2.94348,2.62255,1.58537,-6.03659,1.12805,-9.72138,0.390388,2.23695,-1.85976,-15.7622,7.5
194.46,70.622,11.0545,0,9.33818,2.90516,2.51717,1.28049,-4.7561,1.09756,-9.74773,0.378413,2.28485,-1.85976,-16.25,7.65244
194.47,70.7069,11.1523,0,9.30465,2.91953,2.47406,1.28049,-4.14634,0.365854,-9.76928,0.390388,2.33514,-2.07317,-16.7378,7.56098
194.48,70.8015,11.2458,0,9.34297,2.90276,2.56746,1.34146,-3.14024,-0.0914634,-9.78126,0.349673,2.33514,-2.40854,-16.9817,7.2561
194.49,70.8844,11.3385,0,9.3286,2.91234,2.60339,1.7378,-2.07317,-0.152439,-9.75491,0.378413,2.34233,-2.83537,-17.5,6.95122
194.5,70.9201,11.4294,0,9.2807,2.99377,2.57704,2.13415,-1.34146,-0.731707,-9.73336,0.390388,2.34472,-2.83537,-17.7439,7.04268
194.51,70.9338,11.5262,0,9.2807,3.02012,2.57944,2.19512,-0.609756,-1.4939,-9.72138,0.347278,2.38544,-3.23171,-17.7744,6.95122
194.52,70.9335,11.6139,0,9.21125,3.10155,2.64889,2.19512,-0.457317,-1.34146,-9.7118,0.289797,2.35909,-3.23171,-17.8659,6.98171
194.53,70.9186,11.6951,0,9.14418,3.16861,2.70877,2.59146,-0.762195,-1.40244,-9.73336,0.208367,2.34951,-3.04878,-18.6585,7.13415
194.54,70.9102,11.757,0,9.15376,3.13029,2.79738,2.9878,-1.12805,-1.43293,-9.78126,0.129331,2.28724,-2.77439,-19.5427,7.04268
194.55,70.8876,11.8207,0,9.07233,3.19256,2.82612,3.59756,-1.67683,-1.4939,-9.82437,0.0383203,2.31598,-1.82927,-20.6707,7.28659
194.56,70.8596,11.894,0,9.10107,3.23807,2.72793,3.96341,-2.62195,-1.58537,-9.90101,0.0119751,2.38783,-1.46341,-22.4695,7.40854
194.57,70.8208,11.9695,0,9.08431,3.31231,2.71116,3.75,-2.9878,-1.52439,-9.98963,0.0215552,2.43094,-0.731707,-25,7.53049
194.58,70.7916,12.0547,0,9.12742,3.25962,2.69679,3.35366,-2.95732,-1.76829,-10.0615,0.0502954,2.50519,-0.243902,-27.9878,7.71341
194.59,70.7556,12.1505,0,9.06275,3.28118,2.71595,3.17073,-2.65244,-1.92073,-10.1142,0.146096,2.58183,-0.0304878,-31.5244,7.65244
194.6,70.7297,12.268,0,8.98851,3.18298,2.76146,3.23171,-2.83537,-2.0122,-10.1669,0.213157,2.71356,0,-34.9085,7.53049
194.61,70.7051,12.3946,0,8.96216,3.16622,2.86205,3.04878,-3.5061,-2.04268,-10.119,0.337698,2.76385,-0.0609756,-38.1098,7.31707
194.62,70.6925,12.5319,0,9.00767,3.10155,2.8357,2.89634,-4.72561,-2.04268,-10.0663,0.476609,2.82133,-0.243902,-41.0061,7.46951
194.63,70.6885,12.6711,0,8.97174,2.95066,2.84768,3.2622,-5.30488,-2.89634,-9.99681,0.603545,2.8357,-1.12805,-42.561,7.86585
194.64,70.6911,12.7951,0,9.05078,2.90276,2.89079,3.14024,-5.82317,-3.10976,-9.96807,0.670605,2.78062,-1.67683,-43.75,8.07927
194.65,70.68,12.9027,0,9.12023,2.94587,2.80936,3.5061,-5.64024,-4.08537,-9.91538,0.637075,2.71116,-2.62195,-44.6037,8.47561
194.66,70.6638,13.003,0,9.12023,2.96743,2.73751,3.23171,-5.7622,-4.35976,-9.84114,0.555645,2.67524,-3.14024,-45.9451,9.14634
194.67,70.6524,13.1101,0,9.15616,2.90995,2.70637,3.23171,-5.97561,-4.69512,-9.77886,0.531694,2.70637,-3.07927,-47.6829,9.69512
194.68,70.6478,13.2205,0,9.15616,2.80457,2.6441,3.29268,-5.67073,-5.2439,-9.71659,0.450264,2.72314,-3.23171,-49.2683,10.6098
194.69,70.6372,13.3407,0,9.0867,2.78301,2.70398,3.93293,-6.18902,-5.85366,-9.72138,0.387993,2.7878,-2.86585,-51.3415,11.0061
194.7,70.6186,13.4756,0,9.09868,2.77822,2.61776,4.84756,-6.58537,-6.76829,-9.79323,0.325723,2.89797,-2.07317,-53.0793,10.9146
194.71,70.6058,13.6012,0,9.10826,2.67763,2.68482,5.15244,-6.76829,-7.43902,-9.78844,0.364043,2.87642,-1.95122,-54.878,10.5183
194.72,70.5903,13.7258,0,9.18729,2.66087,2.62734,5.7622,-7.07317,-8.20122,-9.7621,0.474214,2.886,-2.07317,-55.9451,10.2134
194.73,70.5711,13.8879,0,9.21603,2.64171,2.62015,6.12805,-7.71341,-8.93293,-9.67827,0.565225,3.05844,-2.19512,-57.4695,9.96951
194.74,70.5464,14.0555,0,9.29028,2.62494,2.5507,6.92073,-6.82927,-9.96951,-9.65193,0.61552,3.10395,-2.65244,-58.7805,10.3659
194.75,70.5134,14.2207,0,9.36213,2.69679,2.47645,7.16463,-7.13415,-10.2744,-9.59924,0.58678,3.10634,-3.2622,-59.7561,10.6707
194.76,70.4775,14.4109,0,9.50104,2.72553,2.32077,7.56098,-6.34146,-10.7622,-9.58966,0.526904,3.25004,-3.41463,-60.8841,11.189
194.77,70.4291,14.5878,0,9.50823,2.78541,2.29922,7.89634,-4.69512,-11.4634,-9.50823,0.404758,3.19496,-2.68293,-61.6768,11.311
194.78,70.3689,14.8027,0,9.44356,2.77104,2.24653,7.71341,-3.14024,-12.7134,-9.34776,0.332908,3.34824,-2.07317,-62.4695,11.2195
194.79,70.3069,15.03,0,9.34537,2.72074,2.2609,7.43902,-2.04268,-13.2622,-9.30944,0.318538,3.42967,-1.46341,-63.9024,11.189
194.8,70.2285,15.252,0,9.29028,2.72793,2.28006,7.56098,-1.31098,-14.7866,-9.24957,0.299377,3.42488,-0.945122,-64.6341,10.7317
194.81,70.1312,15.4998,0,9.24478,2.81654,2.36149,7.83537,-0.97561,-15.7012,-9.18969,0.325723,3.56139,-0.579268,-65.6098,10.5488
194.82,70.0189,15.7527,0,9.25915,2.8836,2.38065,8.2622,-0.365854,-16.7073,-9.17772,0.332908,3.62606,-0.0914634,-66.4329,10.122
194.83,69.8873,16.045,0,9.16095,2.9818,2.45729,7.65244,-0.731707,-17.4085,-9.13939,0.349673,3.84161,-0.396341,-67.5915,9.45122
194.84,69.7491,16.3726,0,9.11305,3.00096,2.52675,7.22561,-1.43293,-17.9573,-9.10107,0.354463,4.04758,-0.487805,-68.9329,9.08537
194.85,69.5965,16.7191,0,9.20406,3.13029,2.46448,7.28659,-1.61585,-18.5671,-9.07233,0.387993,4.18649,-0.0304878,-70.7012,9.05488
194.86,69.4362,17.0986,0,9.28789,3.18777,2.5028,7.65244,-1.89024,-19.3293,-9.00767,0.359253,4.38289,-0.365854,-72.2866,9.05488
194.87,69.2631,17.5177,0,9.26394,3.25004,2.4549,7.22561,-1.55488,-20.1829,-8.92624,0.368833,4.61041,-0.97561,-73.8415,8.81098
194.88,69.0791,17.9331,0,9.22322,3.24046,2.47406,6.52439,-3.84146,-21.5854,-8.93103,0.414338,4.67747,-1.21951,-73.8415,8.9939
194.89,68.8887,18.378,0,9.26873,3.2237,2.51956,5.88415,-5.97561,-22.9878,-8.62446,0.500559,4.74214,-1.03659,-73.5976,9.93902
194.9,68.6792,18.8088,0,9.4268,3.34345,2.53633,5.4878,-5.18293,-24.6037,-8.66758,0.512534,4.78285,-0.701219,-74.0549,10.3659
194.91,68.4562,19.3253,0,9.0891,3.35063,2.58902,5.45732,-8.93293,-24.9695,-9.80521,0.534089,5.98994,1.34146,-87.0427,10.0915
194.92,68.2109,19.7416,0,9.15137,3.58534,2.41418,4.60366,-7.22561,-25.3354,-8.8017,0.474214,4.96967,-0.27439,-78.1707,8.14024
194.93,67.9728,20.2278,0,8.81607,3.44404,2.44771,1.92073,-8.90244,-25.2134,-8.21731,0.452659,5.06068,1.28049,-79.5122,8.20122
194.94,67.7492,20.7363,0,8.8951,3.48236,2.45729,0.792683,-10.3049,-24.1463,-8.21731,0.443079,5.26904,1.40244,-80.8232,9.57317
194.95,67.5226,21.1993,0,9.0891,3.59013,2.58902,-0.609756,-10.3354,-24.5427,-8.21013,0.256267,5.13732,2.0122,-79.3902,8.23171
194.96,67.2802,21.6818,0,8.92624,3.65001,2.27287,-3.75,-10.2439,-25.2134,-7.89159,0.311353,5.12295,3.32317,-79.3293,7.13415
194.97,67.0208,22.2064,0,9.41003,3.90628,1.36995,-8.65854,-7.07317,-26.8293,-7.75268,0.474214,5.3361,3.07927,-78.8415,6.55488
194.98,66.7279,22.8643,0,9.20885,4.05716,1.22146,-15.4268,-7.34756,-28.2622,-7.83171,0.534089,6.21268,2.19512,-80.061,5.88415
194.99,66.4223,23.5617,0,9.27591,4.15296,1.70046,-22.6829,-1.52439,-29.4512,-8.01374,0.61073,6.73958,1.40244,-82.8659,4.90854
195,66.1881,24.2742,0,9.62558,3.51589,2.44531,-23.7805,-2.04268,-31.0671,-7.97542,0.661025,6.96951,1.09756,-82.0732,3.90244
195.01,65.9463,25.0115,0,9.44835,3.45122,3.00814,-19.8476,-7.04268,-32.3171,-8.02092,0.62989,7.34313,1.43293,-84.5732,3.56707
195.02,65.7344,25.7812,0,9.35734,3.16143,3.0273,-16.4329,-11.5244,-32.622,-7.62095,0.519719,7.36947,1.79878,-82.5915,3.59756
195.03,65.4607,26.5763,0,9.23759,3.46799,2.87402,-13.2012,-15.3049,-35.4573,-7.32636,0.383203,7.44612,3.20122,-79.8781,4.05488
195.04,65.2021,27.4186,0,9.38608,3.31471,2.67763,-10.7317,-19.6646,-36.7683,-7.03896,0.320933,7.67364,4.02439,-76.25,4.32927
195.05,64.9527,28.3026,0,9.92257,3.38177,2.46448,-6.89024,-17.0427,-37.6524,-6.68689,0.308958,7.79818,3.20122,-71.3415,4.78659
195.06,64.6632,29.2263,0,9.35734,3.63324,2.9339,-5.60976,-18.5671,-37.3476,-6.5408,0.356858,8.16223,2.89634,-67.6219,5.42683
195.07,64.3711,30.1542,0,9.84832,4.01166,2.62494,-1.85976,-18.0488,-36.2805,-6.33243,0.60115,8.20773,2.2561,-62.8049,5.57927
195.08,64.0763,31.1135,0,9.46751,4.04998,2.75427,1.43293,-25.1829,-35.122,-6.13843,0.900527,8.47597,1.09756,-58.9024,6.64634
195.09,63.8443,32.0973,0,10.3776,4.01166,2.08127,4.69512,-14.5122,-33.4451,-5.87259,1.11847,8.60291,-0.0914634,-55.3049,8.10976
195.1,63.584,33.0907,0,10.2004,4.4739,1.95913,4.54268,-11.128,-31.6159,-5.61632,1.29331,8.62686,-1.0061,-50.3963,9.14634
195.11,63.3494,34.0797,0,9.51302,3.7051,2.43334,2.71341,-11.5244,-34.4207,-5.32652,1.39151,8.47118,-1.76829,-45.8232,11.0976
195.12,63.0733,35.0333,0,9.35495,3.96615,2.23934,3.10976,-3.41463,-35.6707,-5.18761,1.36037,8.28916,-3.23171,-40.122,12.1951
195.13,62.7497,35.923,0,8.4137,4.11225,2.43813,2.92683,-6.03659,-34.8171,-5.15169,1.21188,8.0329,-4.05488,-35.0915,12.1646
195.14,62.4324,36.7587,0,8.2724,4.12183,2.33275,3.65854,-6.95122,-33.9329,-5.05828,1.02028,7.75268,-4.60366,-30.3049,11.7683
195.15,62.1051,37.5773,0,8.02571,4.2799,2.47645,5.67073,-14.0549,-32.378,-4.98404,0.914897,7.76226,-5.79268,-27.1646,10.5488
195.16,61.7949,38.3699,0,8.49274,4.65352,2.12917,5.7622,-9.45122,-29.9695,-4.88824,0.708926,7.66406,-6.79878,-24.8171,9.35976
195.17,61.4719,39.1697,0,8.08559,4.82117,2.12678,6.55488,-13.0488,-27.6524,-4.70382,0.63468,7.66167,-7.71341,-22.8659,8.90244
195.18,61.1698,39.9598,0,8.22689,4.84033,1.87051,5.4878,-12.2866,-26.8598,-4.53617,0.522114,7.55629,-8.07927,-20.1829,9.26829
195.19,60.8892,40.7474,0,8.09277,4.64394,1.7795,5.2439,-9.29878,-26.5549,-4.49066,0.469424,7.70478,-8.32317,-17.0122,10.3963
195.2,60.5974,41.4742,0,7.69999,4.53138,1.84896,6.64634,-8.44512,-26.9817,-4.63915,0.318538,7.72873,-9.35976,-14.878,11.4329
195.21,60.2874,42.1378,0,7.67604,4.66071,2.04774,7.9878,-7.86585,-27.8354,-4.75172,0.316143,7.65448,-8.9939,-12.7134,11.5244
195.22,59.9436,42.7838,0,7.94428,5.19001,2.25371,8.53659,-11.8293,-28.0488,-4.74693,0.292192,7.71436,-8.01829,-11.6463,11.8902
195.23,59.593,43.4105,0,8.50711,5.69536,1.74836,6.34146,-7.0122,-28.1402,-4.71819,0.265847,7.71436,-6.15854,-11.6463,12.1951
195.24,59.2336,44.0054,0,8.39933,5.68817,1.88249,4.17683,-2.59146,-29.1159,-4.74693,0.124541,7.70957,-4.87805,-11.1585,12.439
195.25,58.8702,44.5796,0,8.06882,5.51333,1.91602,4.57317,1.34146,-29.7866,-4.73974,0.0622705,7.71915,-3.47561,-11.2195,12.3476
195.26,58.4678,45.1316,0,7.57545,5.61872,1.97829,6.34146,1.70732,-29.9695,-4.74214,0.0838257,7.72633,-1.82927,-11.4939,11.8902
195.27,58.056,45.6436,0,7.6928,5.87977,1.70286,7.40854,3.90244,-30.061,-4.86907,0.158071,7.79339,-0.396341,-11.7988,12.0732
195.28,57.6627,46.1227,0,7.81974,5.84145,1.82261,7.43902,4.17683,-30.3049,-5.03194,0.239502,7.95386,0.0609756,-12.1951,12.6524
195.29,57.2799,46.596,0,7.9347,5.87259,1.66454,7.71341,5.33537,-30.5488,-5.16606,0.371228,8.27,-0.365854,-13.2317,13.0183
195.3,56.8931,47.0477,0,7.8389,5.96839,1.75076,7.2561,4.72561,-30.1524,-5.21875,0.426313,8.32988,-0.701219,-14.4512,13.1098
195.31,56.5046,47.4974,0,7.66646,5.9636,1.69807,7.28659,5.54878,-29.9085,-5.16127,0.514929,8.3658,-1.34146,-15.2439,13.5061
195.32,56.1256,47.9381,0,7.55868,5.87019,1.75794,7.16463,4.57317,-29.8171,-5.07026,0.608335,8.28916,-2.28659,-15.8841,12.8354
195.33,55.7478,48.3797,0,7.58263,5.99234,1.87291,8.65854,2.77439,-29.4817,-4.99841,0.641865,8.32269,-3.01829,-15.7317,12.7439
195.34,55.3811,48.8167,0,7.73112,6.15041,1.83458,8.93293,1.61585,-28.75,-4.9553,0.61073,8.35862,-4.42073,-15.3049,12.0427
195.35,55.0201,49.2452,0,7.8868,6.40668,1.81542,8.32317,1.52439,-27.7134,-4.95769,0.65863,8.43765,-5.42683,-15.0305,11.5244
195.36,54.6618,49.6362,0,7.77902,6.50008,1.78189,8.01829,2.31707,-26.5549,-5.05349,0.548459,8.42568,-6.40244,-14.8171,10.9451
195.37,54.2906,49.9946,0,7.51797,6.54319,1.75315,7.59146,2.07317,-26.25,-5.09181,0.428708,8.34664,-6.28049,-14.3902,10.4573
195.38,53.9427,50.3026,0,7.53952,6.35399,1.63819,8.17073,4.39024,-26.4939,-5.2403,0.313748,8.28916,-5.51829,-14.8171,10.0305
195.39,53.5996,50.597,0,7.53473,6.34441,1.83938,8.38415,2.7439,-26.7683,-5.31934,0.146096,8.40173,-4.63415,-15.3049,9.42073
195.4,53.2785,50.8755,0,7.73352,6.29172,1.90165,8.35366,1.70732,-27.1951,-5.26904,0.0526904,8.28916,-3.68902,-14.878,8.87195
195.41,52.9745,51.1539,0,7.98499,6.30848,1.92081,7.28659,3.17073,-27.7744,-5.23072,0.0550855,8.31551,-2.71341,-15.2134,8.35366
195.42,52.6739,51.4419,0,8.02332,6.32525,1.79387,6.09756,5.06098,-28.1707,-5.19719,0.114961,8.43047,-2.19512,-15.9756,8.17073
195.43,52.3643,51.7222,0,7.82213,6.25819,1.76273,5,4.72561,-28.872,-5.11576,0.256267,8.32988,-2.16463,-15.7317,8.68902
195.44,52.0517,52.0114,0,7.70717,6.20071,1.85614,4.81707,4.63415,-29.4817,-5.03433,0.409548,8.36101,-2.5,-15.4878,8.68902
195.45,51.7482,52.2901,0,7.73112,6.22226,1.8777,5.73171,3.10976,-29.1768,-5.01996,0.450264,8.34664,-3.07927,-15,8.78049
195.46,51.4485,52.5475,0,7.70717,6.28453,1.88009,5.64024,3.56707,-28.6585,-5.03433,0.479004,8.28437,-2.65244,-15.3049,8.07927
195.47,51.1434,52.7935,0,7.51797,6.29172,1.91362,5.54878,3.2622,-28.3232,-5.0032,0.479004,8.2245,-2.77439,-14.8476,7.65244
195.48,50.8373,53.0355,0,7.36947,6.28932,1.86812,5.2439,4.54268,-27.9268,-4.96009,0.529299,8.20055,-2.9878,-14.6646,7.22561
195.49,50.5411,53.2779,0,7.2114,6.14562,1.96631,6.31098,1.31098,-27.622,-4.90021,0.603545,8.18378,-3.38415,-13.9024,7.13415
195.5,50.2685,53.5166,0,7.31678,6.1073,2.00942,6.85976,0.0609756,-27.0122,-4.88344,0.59636,8.20534,-4.26829,-13.2927,7.07317
195.51,50.0033,53.7616,0,7.30481,6.18394,2.0669,7.43902,-1.21951,-26.0061,-4.8068,0.593965,8.20534,-4.72561,-13.2317,7.10366
195.52,49.7624,54.0054,0,7.51078,6.22226,1.88249,7.95732,-1.58537,-25.3049,-4.78046,0.58199,8.23168,-5.15244,-12.8354,7.68293
195.53,49.5075,54.2532,0,7.29523,6.39231,1.83698,7.62195,-0.579268,-23.9939,-4.66789,0.490979,8.15025,-5.27439,-12.7134,7.56098
195.54,49.2572,54.4872,0,7.24972,6.4426,1.58071,6.28049,0.121951,-23.2317,-4.65592,0.347278,8.09756,-4.90854,-12.439,7.40854
195.55,49.0143,54.7151,0,7.12279,6.30609,1.51365,4.90854,-0.945122,-23.2012,-4.63436,0.237107,8.08559,-4.35976,-12.378,7.13415
195.56,48.7936,54.9145,0,7.37187,6.36357,1.73878,5.03049,-1.03659,-22.8963,-4.71819,0.114961,8.07122,-3.38415,-11.9817,6.40244
195.57,48.5568,55.1058,0,7.37666,6.59828,1.74836,5.42683,-1.03659,-22.9268,-4.82117,0.0694556,8.24605,-2.53049,-11.9512,5.97561
195.58,48.2985,55.2815,0,7.30481,6.80186,1.79866,3.93293,-0.487805,-23.2622,-4.86189,0.0910107,8.24845,-2.28659,-11.8598,5.97561
195.59,48.0275,55.4488,0,7.12758,6.75875,1.78908,4.2378,0.365854,-24.0244,-4.8547,0.153281,8.2245,-1.25,-11.7683,5.79268
195.6,47.7422,55.6327,0,6.85694,6.67492,1.79626,4.57317,-0.487805,-24.5122,-4.79722,0.174836,8.3203,-0.121951,-11.6768,5.57927
195.61,47.4719,55.8274,0,6.9264,6.56714,1.825,6.12805,-2.5,-25.0915,-4.73974,0.196392,8.37538,0.487805,-11.5549,6.03659
195.62,47.2207,56.031,0,7.15392,6.6342,1.81303,7.04268,-4.48171,-25,-4.74453,0.182021,8.52866,1.37195,-11.4329,6.18902
195.63,46.9631,56.234,0,7.2593,6.89526,1.70525,4.81707,-2.31707,-24.7561,-4.74932,0.213157,8.60291,1.85976,-11.6463,6.03659
195.64,46.704,56.4338,0,7.23535,7.0222,1.65017,4.78659,-0.945122,-24.1768,-4.72777,0.237107,8.6077,2.16463,-11.6463,5.79268
195.65,46.4456,56.6295,0,7.10123,6.99825,1.71962,4.42073,-0.152439,-23.75,-4.7134,0.299377,8.61728,2.34756,-10.6402,5.57927
195.66,46.1874,56.8195,0,6.88568,6.8761,1.7795,4.08537,-1.18902,-23.4756,-4.71819,0.443079,8.64602,1.82927,-9.84756,5.33537
195.67,45.9301,57.0078,0,6.73,6.76114,1.79626,4.69512,-3.78049,-23.5671,-4.64873,0.471819,8.57177,1.15854,-9.02439,5.57927
195.68,45.6939,57.1916,0,6.91682,6.79228,1.6358,5.03049,-5.67073,-23.2622,-4.62478,0.479004,8.55501,0.945122,-8.75,5.45732
195.69,45.4641,57.3675,0,6.98388,6.85694,1.58311,5.21341,-5.7622,-23.1098,-4.6152,0.490979,8.53106,0.640244,-8.84146,5.88415
195.7,45.2311,57.5143,0,7.06531,7.02699,1.45857,4.5122,-5.33537,-23.1402,-4.71819,0.421523,8.52148,0.121951,-9.60366,5.67073
195.71,45.0035,57.6218,0,7.14674,7.12518,1.42983,3.87195,-4.72561,-22.9268,-4.905,0.409548,8.5574,0.152439,-10.1829,5.36585
195.72,44.7802,57.7087,0,7.06291,7.03417,1.50407,3.68902,-3.65854,-23.0183,-5.01038,0.387993,8.59573,0,-10.7622,5.09146
195.73,44.5576,57.7812,0,7.06052,7.02699,1.62622,4.32927,-4.2378,-23.4451,-5.099,0.411943,8.65081,-0.243902,-11.0061,4.54268
195.74,44.3403,57.8537,0,7.18506,7.118,1.46575,4.35976,-3.81098,-23.628,-5.10379,0.447869,8.68434,-1.09756,-11.3415,4.14634
195.75,44.1174,57.9206,0,7.12997,7.14913,1.4442,3.75,-2.95732,-23.9329,-5.03912,0.428708,8.55022,-1.21951,-11.3415,3.38415
195.76,43.8814,58.002,0,7.08686,7.18266,1.46815,3.04878,-1.70732,-25.0915,-4.92177,0.431104,8.49753,-0.548781,-11.0366,2.95732
195.77,43.6413,58.1147,0,7.00304,7.18985,1.55197,2.80488,-0.914634,-25.2439,-4.79243,0.407153,8.57417,-0.396341,-10.2439,2.9878
195.78,43.4149,58.2482,0,6.96711,7.03896,1.61424,2.92683,-0.335366,-25.2744,-4.65592,0.301772,8.55262,0.365854,-9.72561,2.92683
195.79,43.1884,58.3888,0,6.88808,6.99106,1.59269,3.10976,0.884146,-25.4878,-4.56012,0.189207,8.48795,1.15854,-9.11585,3.14024
195.8,42.9661,58.5298,0,6.86892,6.96711,1.59508,3.68902,1.37195,-25.5488,-4.50024,0.110171,8.43047,2.46951,-8.29268,3.47561
195.81,42.7598,58.6734,0,6.95274,6.95514,1.55916,3.5061,0.213415,-25.1829,-4.42839,0.0766406,8.3682,3.17073,-7.40854,3.96341
195.82,42.5563,58.8082,0,6.93598,6.91442,1.42504,2.65244,0.670732,-25.5183,-4.42121,0.0502954,8.32509,3.68902,-6.21951,4.45122
195.83,42.3496,58.9313,0,6.84257,6.94795,1.46575,2.86585,0.213415,-25.1829,-4.44037,0.0838257,8.29874,3.75,-5.4878,4.11585
195.84,42.1408,59.0539,0,6.69168,6.91921,1.54,3.62805,0.457317,-24.7561,-4.45234,0.158071,8.35862,4.84756,-5.2439,3.71951
195.85,41.9433,59.172,0,6.65815,6.85694,1.45617,4.87805,-0.121951,-24.2683,-4.4739,0.265847,8.39694,4.96951,-4.84756,3.35366
195.86,41.7591,59.2862,0,6.63181,6.84018,1.60466,5.2439,-2.16463,-23.2317,-4.48108,0.285007,8.38257,4.48171,-3.78049,2.92683
195.87,41.5878,59.4334,0,6.67971,6.76833,1.68849,5.42683,-4.2378,-23.3232,-4.43318,0.378413,8.44005,3.44512,-2.40854,2.95732
195.88,41.406,59.6164,0,6.69647,6.96711,1.44899,5.06098,-4.32927,-23.2012,-4.43797,0.476609,8.57656,1.98171,-1.64634,3.75
195.89,41.2282,59.8866,0,6.69887,7.03417,1.42983,3.38415,-4.39024,-22.622,-4.50024,0.517324,8.66997,0.426829,-0.426829,4.14634
195.9,41.0562,60.0865,0,6.6366,6.95993,1.43222,3.35366,-4.81707,-22.4695,-4.52419,0.536484,8.59093,-0.304878,0.609756,4.42073
195.91,40.8803,60.1738,0,6.58391,7.04854,1.45138,3.87195,-6.03659,-22.0122,-4.55533,0.440684,8.42089,-0.335366,1.64634,3.9939
195.92,40.7038,60.258,0,6.57433,7.13716,1.35079,3.78049,-5.27439,-21.6159,-4.53617,0.366438,8.48795,0.426829,2.22561,3.5061
195.93,40.5117,60.3454,0,6.50487,7.2617,1.27415,2.28659,-3.96341,-21.9512,-4.53377,0.277822,8.52387,0.304878,2.10366,2.83537
195.94,40.3196,60.4618,0,6.50966,7.39343,1.46336,2.53049,-4.14634,-21.3415,-4.48587,0.261057,8.53106,0.487805,1.46341,2.40854
195.95,40.1194,60.5846,0,6.48811,7.52515,1.43941,2.07317,-2.53049,-21.3415,-4.49306,0.325723,8.51669,0.304878,1.06707,2.7439
195.96,39.9174,60.6623,0,6.40428,7.55629,1.46096,1.55488,-2.89634,-20.9451,-4.53377,0.373623,8.464,-0.548781,1.40244,3.32317
195.97,39.7251,60.7146,0,6.46655,7.49402,1.30768,1.21951,-1.64634,-21.4024,-4.58407,0.435894,8.49992,-1.40244,1.92073,3.78049
195.98,39.5408,60.7312,0,6.50727,7.52994,1.42983,1.28049,-1.28049,-21.0671,-4.69663,0.498164,8.47837,-1.4939,1.61585,4.14634
195.99,39.3561,60.7405,0,6.45937,7.52036,1.47294,1.4939,-0.579268,-21.128,-4.711,0.512534,8.46879,-1.79878,1.82927,4.14634
196,39.1611,60.7474,0,6.30369,7.52036,1.24781,0.487805,-0.731707,-21.1585,-4.72537,0.469424,8.48555,-2.46951,2.07317,3.81098
196.01,38.9592,60.7828,0,6.08574,7.37187,1.42983,0.365854,-2.0122,-21.372,-4.64155,0.443079,8.5095,-3.01829,1.67683,2.92683
196.02,38.7545,60.8431,0,5.97797,7.4054,1.41785,2.40854,-2.37805,-20.7927,-4.52419,0.507744,8.45442,-3.47561,1.70732,2.86585
196.03,38.5257,60.9069,0,5.75523,7.47486,1.43701,2.86585,-2.2561,-20.9756,-4.51701,0.65384,8.45921,-3.87195,1.4939,3.2622
196.04,38.295,61.0103,0,5.77439,7.69759,1.4418,2.22561,-4.29878,-20.1829,-4.49066,0.732876,8.52387,-4.78659,0.823171,3.81098
196.05,38.0827,61.0773,0,5.99234,7.75507,1.22625,2.19512,-4.48171,-20.4268,-4.62957,0.665815,8.6053,-4.54268,-0.365854,4.72561
196.06,37.8716,61.1141,0,5.99713,7.67604,1.48491,2.65244,-5.18293,-21.372,-4.68945,0.514929,8.63884,-4.35976,-0.487805,4.84756
196.07,37.6707,61.1252,0,6.13604,7.74549,1.69567,3.07927,-5.45732,-21.5549,-4.74932,0.313748,8.65321,-3.59756,-0.426829,4.5122
196.08,37.4767,61.1361,0,6.36117,7.89398,1.59987,2.95732,-3.84146,-22.2256,-4.69663,0.179626,8.5598,-2.95732,0.457317,4.17683
196.09,37.2895,61.168,0,6.43542,7.9323,1.72202,2.43902,-2.16463,-22.3171,-4.6176,0.114961,8.54782,-2.7439,1.15854,4.05488
196.1,37.1008,61.1983,0,6.42105,8.01134,1.59987,1.61585,0.762195,-22.1646,-4.57928,0.131726,8.45921,-1.92073,0.945122,4.08537
196.11,36.9189,61.2018,0,6.36357,7.82453,1.55197,1.79878,4.14634,-22.6829,-4.50503,0.203577,8.21492,-0.97561,1.55488,4.20732
196.12,36.7313,61.2027,0,6.25819,7.66646,1.5376,0.97561,5.54878,-23.8415,-4.44516,0.282612,8.09517,-0.27439,2.13415,5.51829
196.13,36.5293,61.1951,0,6.03784,7.56826,1.52802,0.97561,6.31098,-24.3902,-4.48827,0.340093,8.12151,-0.121951,2.19512,6.43293
196.14,36.3064,61.1501,0,5.77679,7.58982,1.46575,1.98171,5.15244,-24.2683,-4.53856,0.380808,7.97062,0.426829,2.46951,7.37805
196.15,36.0945,61.0973,0,5.76242,7.68801,1.46336,3.59756,1.61585,-22.7439,-4.59125,0.390388,8.01613,0.945122,2.19512,7.9878
196.16,35.892,61.0395,0,5.7696,7.85566,1.59748,4.57317,0.426829,-21.0671,-4.62478,0.340093,8.05924,1.37195,1.82927,8.2622
196.17,35.7223,60.9953,0,5.82469,7.87482,1.52563,5.06098,0.0609756,-18.5366,-4.57928,0.270637,8.06403,2.56098,1.4939,7.77439
196.18,35.5576,61.0042,0,5.75763,7.88919,1.39151,4.66463,-0.182927,-17.622,-4.53617,0.210762,8.22689,3.5061,1.34146,7.68293
196.19,35.4117,61.071,0,5.75763,7.6449,1.46096,4.20732,-1.0061,-17.8049,-4.45953,0.153281,8.33706,3.90244,1.03659,7.86585
196.2,35.2772,61.161,0,5.84624,7.43175,1.53521,3.71951,0.152439,-19.3902,-4.3302,0.215552,8.26761,3.2622,1.40244,8.20122
196.21,35.1289,61.2341,0,5.6762,7.28325,1.52802,3.96341,0.152439,-20.5488,-4.18889,0.313748,8.12391,2.34756,2.9878,8.75
196.22,34.9703,61.3148,0,5.63069,7.36469,1.38911,4.60366,-0.213415,-20.8232,-4.13859,0.495769,8.10714,1.43293,3.01829,9.39024
196.23,34.8008,61.3791,0,5.53729,7.49402,1.3005,4.05488,-0.0914634,-20.3354,-4.17931,0.617915,8.06403,0.762195,2.68293,10.0915
196.24,34.6531,61.4078,0,5.61632,7.54431,1.24302,3.81098,-0.121951,-18.872,-4.232,0.742456,7.92991,0.182927,2.40854,10.2744
196.25,34.5099,61.3775,0,5.58519,7.71915,1.13763,3.84146,1.4939,-17.1341,-4.35175,0.775986,7.77902,-1.09756,3.23171,9.93902
196.26,34.3798,61.3452,0,5.5325,7.75986,1.14721,4.35976,1.4939,-15.2744,-4.43797,0.764011,7.89877,-1.82927,3.47561,9.66463
196.27,34.2689,61.3301,0,5.51813,7.73591,0.902922,4.39024,2.28659,-13.5976,-4.48348,0.797541,8.09996,-2.53049,2.95732,8.90244
196.28,34.1736,61.3221,0,5.4798,7.65927,1.13284,3.56707,1.55488,-12.4085,-4.5218,0.708926,8.21492,-3.07927,2.95732,8.29268
196.29,34.0924,61.3136,0,5.49896,7.54431,1.24541,3.71951,-0.823171,-12.1951,-4.51701,0.60115,8.19576,-4.08537,3.87195,7.43902
196.3,33.9924,61.3015,0,5.35766,7.52276,1.22625,3.59756,-0.365854,-12.9878,-4.50982,0.443079,8.15025,-4.78659,4.39024,6.79878
196.31,33.8727,61.3046,0,5.24988,7.7407,1.13045,3.96341,-0.396341,-12.5305,-4.44755,0.294587,8.15744,-4.66463,4.87805,6.03659
196.32,33.7584,61.2896,0,5.30736,7.87722,1.23823,4.69512,-1.58537,-11.8598,-4.44755,0.114961,8.01134,-4.14634,4.54268,5.91463
196.33,33.6492,61.2749,0,5.40316,8.05924,1.20469,6.25,-1.34146,-11.311,-4.43079,-0.0239502,7.98021,-2.59146,4.17683,5.33537
196.34,33.5377,61.2712,0,5.31934,8.14307,1.18074,5.51829,0.27439,-10.3659,-4.4236,-0.0910107,8.04966,-0.884146,3.75,4.7561
196.35,33.4394,61.2912,0,5.37682,8.04248,1.23823,6.92073,-0.0304878,-10.4878,-4.39007,-0.0838257,8.14786,0.335366,2.59146,5.54878
196.36,33.3428,61.3182,0,5.40316,7.97062,1.22146,7.34756,1.52439,-11.2805,-4.41402,0.0766406,8.25084,0.121951,2.56098,6.4939
196.37,33.2273,61.3388,0,5.25228,8.02571,1.25499,6.06707,3.78049,-11.4939,-4.4739,0.237107,8.32988,-0.640244,2.59146,7.46951
196.38,33.125,61.3313,0,5.36005,8.12391,1.30768,4.20732,3.20122,-10.8232,-4.56491,0.337698,8.30593,-1.28049,2.10366,8.20122
196.39,33.0225,61.2788,0,5.40077,8.28677,1.15679,2.80488,3.01829,-10.3963,-4.67268,0.392783,8.26282,-1.79878,1.4939,8.23171
196.4,32.9208,61.1772,0,5.40795,8.39933,1.1999,1.98171,3.14024,-9.87805,-4.73016,0.352068,8.22689,-1.70732,0.823171,7.86585
196.41,32.8043,61.0185,0,5.25467,8.44005,1.33403,1.09756,2.65244,-9.81707,-4.82357,0.306563,8.15983,-1.28049,0.762195,7.22561
196.42,32.6767,60.8495,0,5.18282,8.47118,1.3005,0.0609756,1.98171,-10.2744,-4.83794,0.150886,8.18618,-1.03659,0.457317,6.64634
196.43,32.5642,60.7205,0,5.26186,8.41131,1.36516,0.213415,2.04268,-10.1524,-4.8571,0.0119751,8.27958,0.0914634,-0.396341,6.76829
196.44,32.4555,60.6485,0,5.1924,8.25803,1.47773,0.579268,3.2622,-10.2744,-4.84273,-0.0670605,8.33946,0.914634,-0.731707,6.64634
196.45,32.3564,60.6244,0,5.21875,8.10954,1.3963,1.31098,3.59756,-10.7317,-4.83554,-0.0287402,8.48555,1.18902,-0.823171,7.13415
196.46,32.2565,60.6312,0,5.25467,8.14546,1.17116,1.70732,3.9939,-11.1585,-4.76369,0.0311353,8.49992,1.21951,-1.43293,7.46951
196.47,32.1381,60.63,0,5.12774,8.2724,1.41546,1.89024,2.43902,-11.128,-4.7613,0.131726,8.45202,1.37195,-1.28049,7.77439
196.48,32.0224,60.6146,0,5.18282,8.4161,1.29571,2.0122,0.365854,-10.7622,-4.77806,0.0838257,8.40173,2.16463,-1.40244,7.9878
196.49,31.9085,60.5816,0,5.21156,8.53106,1.28134,1.15854,-1.40244,-10.3963,-4.78046,0.0526904,8.32748,3.17073,-1.12805,7.71341
196.5,31.7979,60.5243,0,5.23072,8.59093,1.39869,1.67683,-2.62195,-10.122,-4.7589,0.0431104,8.19097,4.5122,-1.03659,7.31707
196.51,31.6862,60.4791,0,5.23072,8.66039,1.41067,-0.0304878,-3.20122,-10.0305,-4.74453,0.0311353,8.25084,5.09146,-0.426829,7.40854
196.52,31.6024,60.4778,0,5.46064,8.59093,1.13763,-2.07317,-1.95122,-10.0915,-4.73974,0.0311353,8.36341,6.18902,-0.853659,7.40854
196.53,31.5019,60.469,0,5.20677,8.44484,1.45138,-3.23171,-0.914634,-10.3659,-4.74453,0.0526904,8.35383,7.5,-0.121951,7.34756
196.54,31.4101,60.4881,0,5.17324,8.25324,1.41546,-2.86585,-1.95122,-10.5488,-4.78525,0.146096,8.52387,7.80488,0.518293,7.80488
196.55,31.3368,60.4948,0,5.25946,8.13109,1.18314,-2.59146,-1.40244,-10.5183,-4.84512,0.232317,8.59093,7.68293,0.670732,8.14024
196.56,31.2563,60.486,0,5.13971,8.15744,0.989143,-3.59756,-1.25,-10,-4.87147,0.356858,8.56219,7.77439,1.12805,8.10976
196.57,31.1907,60.4758,0,5.23312,8.22689,1.03944,-3.87195,-3.29268,-9.14634,-4.89302,0.371228,8.59333,7.83537,0.884146,7.59146
196.58,31.1414,60.4492,0,5.34089,8.25803,0.931663,-2.34756,-5.73171,-8.5061,-4.86907,0.414338,8.44484,7.80488,1.43293,6.89024
196.59,31.0908,60.4704,0,5.2882,8.30353,0.974773,-1.28049,-6.12805,-7.92683,-4.75651,0.500559,8.53585,8.07927,1.92073,6.89024
196.6,31.0402,60.4894,0,5.21875,8.19097,1.18793,1.28049,-5.91463,-8.04878,-4.79962,0.517324,8.6053,8.29268,1.82927,7.37805
196.61,30.9936,60.4879,0,5.20438,8.0784,1.14961,2.19512,-6.06707,-8.32317,-4.76609,0.514929,8.4137,8.01829,2.43902,7.5
196.62,30.9565,60.4919,0,5.26665,7.98021,1.13524,2.59146,-6.4939,-8.75,-4.73016,0.479004,8.39694,7.22561,4.39024,7.5
196.63,30.923,60.5334,0,5.30018,7.98739,1.28613,1.95122,-6.55488,-8.75,-4.68945,0.498164,8.658,6.95122,5.39634,6.79878
196.64,30.9049,60.5648,0,5.384,7.98499,1.14482,1.85976,-6.98171,-8.10976,-4.7134,0.536484,8.62926,6.55488,6.4939,6.15854
196.65,30.8882,60.5364,0,5.44148,8.04487,0.974773,1.46341,-6.46341,-8.17073,-4.70861,0.479004,8.11912,6.09756,8.23171,5.45732
196.66,30.8821,60.5079,0,5.56363,8.15265,1.01309,0.365854,-6.95122,-7.62195,-4.70621,0.426313,8.10714,5.15244,10.0305,4.57317
196.67,30.8867,60.4991,0,5.6738,8.20534,0.840652,-1.03659,-7.65244,-7.2561,-4.7589,0.378413,8.35622,4.42073,10.1829,3.84146
196.68,30.8722,60.4547,0,5.54447,8.34185,0.917292,-1.43293,-7.22561,-7.04268,-4.74214,0.392783,8.02811,4.11585,10.9756,3.07927
196.69,30.8572,60.36,0,5.38161,8.20773,1.09931,-1.67683,-5.82317,-6.40244,-4.55293,0.495769,7.32636,3.62805,15.7317,3.10976
196.7,30.8201,60.3722,0,5.11576,8.20055,1.24062,-1.98171,-7.92683,-6.03659,-4.48827,0.471819,8.02092,2.7439,20.1829,4.08537
196.71,30.7972,60.3997,0,5.18761,8.20055,1.10171,-1.67683,-10.122,-5.42683,-4.68226,0.392783,8.50471,2.95732,19.9695,4.87805
196.72,30.7686,60.3091,0,5.13732,8.25084,1.12566,0.335366,-12.4695,-5.21341,-4.83554,0.311353,7.80537,4.17683,22.2561,5.21341
196.73,30.7376,60.2071,0,5.23072,8.34904,1.20709,1.37195,-13.7195,-5.82317,-4.91458,0.237107,7.82213,5.36585,25.4573,5.15244
196.74,30.7103,60.1126,0,5.29539,8.44244,1.09931,0.670732,-13.8415,-5.57927,-5.12534,0.179626,8.18618,5.60976,25.9146,4.90854
196.75,30.695,59.9679,0,5.384,8.4616,1.03465,0.426829,-12.4085,-5.18293,-5.31934,0.143701,8.06403,6.70732,26.4939,3.96341
196.76,30.6705,59.8299,0,5.27623,8.6101,1.12805,-0.548781,-10.9146,-4.17683,-5.4798,0.296982,8.31311,7.68293,25.4573,3.2622
196.77,30.6474,59.606,0,5.2906,8.66997,1.00591,-1.25,-10.4573,-3.87195,-5.41514,0.469424,7.53952,7.89634,27.2561,2.65244
196.78,30.6154,59.4053,0,5.2403,8.62686,1.0586,0,-9.57317,-4.57317,-5.32413,0.6251,7.51797,7.56098,31.7378,2.62195
196.79,30.5506,59.2841,0,5.0032,8.72985,0.960403,0.640244,-11.9207,-4.96951,-5.36484,0.696951,8.10714,7.95732,32.5915,3.01829
196.8,30.4637,59.1918,0,4.82117,8.7993,1.11129,0.853659,-13.3841,-5.09146,-5.49417,0.665815,8.49513,8.90244,30.9451,2.7439
196.81,30.3821,59.0773,0,4.8571,8.78493,0.967588,1.4939,-15.6098,-5.18293,-5.65704,0.55325,8.52866,9.29878,29.4512,2.83537
196.82,30.3371,58.9171,0,5.08463,8.75859,1.04902,0.792683,-15.3354,-4.08537,-5.80313,0.59157,8.34185,9.02439,28.8415,2.71341
196.83,30.321,58.7307,0,5.30497,8.72266,0.998723,0.884146,-14.8476,-3.68902,-5.90851,0.598755,8.23887,8.41463,29.0549,2.65244
196.84,30.3098,58.5057,0,5.384,8.82804,0.756826,0.304878,-12.5915,-3.38415,-6.00192,0.62031,8.02092,8.29268,28.7805,3.20122
196.85,30.2885,58.2989,0,5.32892,8.92145,0.960403,-0.731707,-11.4634,-3.32317,-5.90851,0.646655,7.96344,7.46951,29.2683,3.32317
196.86,30.2505,58.1254,0,5.17324,8.86397,1.01309,-1.34146,-9.72561,-3.84146,-5.87259,0.680186,8.10235,6.98171,29.8171,3.56707
196.87,30.1949,57.9492,0,5.18043,8.83523,0.764011,-2.46951,-6.09756,-5.94512,-5.88456,0.768801,8.04727,6.4939,29.5732,3.35366
196.88,30.1175,57.7574,0,5.01996,8.68913,0.967588,-1.95122,-7.28659,-7.53049,-5.86061,0.799937,7.84848,7.16463,29.3598,3.32317
196.89,30.0441,57.5771,0,5.17564,8.64363,1.08494,-0.97561,-8.87195,-9.11585,-5.91091,0.855022,7.94428,7.83537,29.2683,3.62805
196.9,29.981,57.3921,0,5.33371,8.52627,1.00351,0,-8.59756,-10.4878,-5.98276,0.857417,7.95386,8.14024,29.3293,3.53659
196.91,29.9275,57.1807,0,5.51813,8.45921,0.965193,0.792683,-7.86585,-11.8598,-6.08095,0.725691,7.84129,9.45122,30.7622,3.10976
196.92,29.8737,57.0003,0,5.65943,8.38496,1.07057,2.71341,-7.07317,-13.8415,-6.22705,0.526904,8.19815,9.81707,31.4939,2.68293
196.93,29.8113,56.8154,0,5.76002,8.42089,0.711321,3.47561,-7.13415,-15.5488,-6.37315,0.390388,8.30114,10.3049,30.9756,2.13415
196.94,29.7251,56.6278,0,5.80074,8.56938,0.627495,2.80488,-3.29268,-17.5305,-6.38033,0.385598,8.23408,10.0305,30.6707,2.10366
196.95,29.6019,56.4568,0,5.55645,8.58375,0.773591,3.78049,-1.67683,-19.0854,-6.27735,0.574805,8.16941,9.60366,30.4268,2.80488
196.96,29.4323,56.3009,0,5.21635,8.62686,0.692161,4.5122,-0.426829,-20.4878,-6.21987,0.823887,8.15504,9.11585,30.0305,3.96341
196.97,29.233,56.1621,0,4.8547,8.5574,0.876577,4.39024,-0.0609756,-20.6098,-6.14083,1.09213,8.13349,8.62805,30.4268,5.15244
196.98,29.0408,56.0179,0,4.86189,8.37299,0.775986,5.36585,-1.98171,-21.4634,-6.08335,1.2502,7.97781,7.40854,30.6707,5.60976
196.99,28.8287,55.8817,0,4.66071,8.14307,0.876577,5.03049,-2.04268,-23.1707,-6.02587,1.38432,7.92033,5.88415,31.7988,5.39634
197,28.5948,55.7367,0,4.51461,8.23168,0.946033,4.81707,-2.65244,-23.689,-6.02347,1.46575,7.81734,4.32927,33.1402,4.48171
197.01,28.3405,55.5752,0,4.38768,8.53585,0.991538,5.36585,-3.56707,-23.1098,-6.01389,1.48252,7.64969,3.01829,34.2378,3.53659
197.02,28.1066,55.3984,0,4.5697,8.35622,0.785566,4.87805,-4.7561,-24.5427,-6.07856,1.36037,7.58263,2.04268,35.061,2.19512
197.03,27.8818,55.1791,0,4.79004,8.19815,0.828677,3.35366,-4.7561,-27.4085,-6.25579,1.16398,7.46528,1.09756,35.4878,0.487805
197.04,27.6287,54.9447,0,4.711,8.24366,0.778381,3.38415,-3.87195,-29.6341,-6.27495,0.960403,7.33115,0.670732,36.4024,-1.0061
197.05,27.318,54.6771,0,4.38289,8.64602,1.0107,3.44512,-3.41463,-30.1829,-6.38752,0.764011,7.18745,1.12805,37.378,-2.22561
197.06,26.9742,54.4232,0,4.26792,9.29986,0.946033,3.41463,-3.59756,-29.6341,-6.40189,0.555645,7.22338,2.40854,37.1646,-2.46951
197.07,26.6473,54.1713,0,4.28948,9.64953,0.752036,4.32927,-5.45732,-27.2256,-6.45458,0.445474,7.23056,3.32317,37.2866,-2.10366
197.08,26.3913,53.922,0,4.68945,9.1346,0.773591,4.20732,-5.45732,-27.1951,-6.48571,0.387993,7.21859,4.14634,37.2256,-0.579268
197.09,26.1611,53.6592,0,4.78764,8.76098,0.869392,4.66463,-5.4878,-28.1098,-6.58151,0.493374,7.17548,4.14634,37.7134,0.853659
197.1,25.912,53.4005,0,4.63197,8.78254,0.816702,4.60366,-3.68902,-28.7805,-6.65815,0.608335,7.21859,4.60366,37.6524,2.10366
197.11,25.6291,53.1061,0,4.34936,9.11305,1.08015,4.35976,-3.9939,-28.0488,-6.6845,0.811912,6.95993,4.90854,38.5366,2.95732
197.12,25.3681,52.8403,0,4.37331,8.82325,1.00351,4.32927,-4.45122,-28.1402,-6.62702,0.974773,7.00543,5.2439,39.7561,3.35366
197.13,25.12,52.5668,0,4.426,8.48076,0.886157,4.93902,-5.73171,-29.7866,-6.58151,1.06818,6.84736,4.72561,40.2134,2.9878
197.14,24.8678,52.3176,0,4.41881,8.50711,0.950823,4.45122,-5.12195,-30.4878,-6.51924,1.14721,6.86413,3.78049,40.9146,2.68293
197.15,24.6069,52.0825,0,4.39486,8.58136,0.850232,4.81707,-3.23171,-31.2195,-6.52643,1.17595,6.89766,2.83537,41.0976,2.68293
197.16,24.3399,51.8387,0,4.34696,8.69153,0.919688,5.51829,-3.10976,-31.25,-6.50727,1.19032,6.77072,2.34756,42.2866,2.80488
197.17,24.0648,51.5754,0,4.25834,8.88792,0.771196,5,-3.10976,-30.6402,-6.50487,1.17356,6.59828,1.34146,44.3902,3.35366
197.18,23.803,51.2924,0,4.28709,8.80649,0.838257,4.5122,-2.22561,-30.5793,-6.59828,1.07057,6.51924,0.213415,45.7012,4.14634
197.19,23.5395,50.9903,0,4.232,8.7514,0.986748,4.63415,-3.32317,-30.9756,-6.76114,1.00112,6.50487,-0.335366,46.4024,4.48171
197.2,23.2766,50.6756,0,4.18889,8.76098,0.723296,5.42683,-3.71951,-30.9451,-6.84257,0.967588,6.4426,-0.853659,47.1037,4.84756
197.21,23.0063,50.3244,0,4.13141,8.87834,0.797541,5.2439,-4.35976,-31.0061,-6.95514,0.936453,6.27256,-1.31098,48.0183,4.93902
197.22,22.7365,49.9675,0,4.12183,8.85918,0.696951,5.7622,-4.66463,-31.4939,-7.04375,0.905317,6.24382,-1.82927,49.2988,4.57317
197.23,22.4636,49.6092,0,4.00208,8.85678,0.498164,6.06707,-4.29878,-31.0671,-7.09405,0.962798,6.2031,-2.56098,49.878,4.57317
197.24,22.1768,49.2477,0,3.85359,8.82086,0.711321,5.82317,-3.20122,-31.5854,-7.12039,0.984353,6.13125,-3.29268,50.5183,4.57317
197.25,21.8987,48.8616,0,3.92783,8.85199,0.704136,7.9878,-3.56707,-31.9512,-7.1635,0.938848,5.95881,-3.78049,51.8902,4.02439
197.26,21.6184,48.4726,0,3.87275,8.84002,0.675395,7.71341,-3.9939,-32.1951,-7.21619,0.946033,5.90612,-4.2378,52.8049,4.26829
197.27,21.3375,48.0527,0,3.8009,8.7993,0.718506,7.19512,-3.20122,-32.2256,-7.28804,0.876577,5.7217,-4.63415,53.5061,3.78049
197.28,21.054,47.63,0,3.77934,8.83283,0.56762,6.7378,-3.93293,-32.6524,-7.38385,0.883762,5.69536,-4.48171,53.628,3.96341
197.29,20.7623,47.2079,0,3.69552,8.91666,0.593965,6.09756,-3.68902,-32.7439,-7.47486,0.828677,5.68099,-4.45122,53.7195,4.17683
197.3,20.4792,46.7582,0,3.69312,8.97414,0.603545,7.13415,-3.78049,-32.1646,-7.56826,0.771196,5.52291,-4.66463,53.9024,3.93293
197.31,20.2134,46.3026,0,3.73384,9.06754,0.447869,9.32927,-4.5122,-31.0061,-7.63532,0.766406,5.45106,-5.2439,54.939,3.75
197.32,19.935,45.8429,0,3.57816,9.18729,0.356858,9.54268,-3.07927,-30.5793,-7.68322,0.740061,5.37442,-5.12195,56.25,3.17073
197.33,19.6461,45.3775,0,3.43685,9.32381,0.507744,7.2561,-2.2561,-30.0915,-7.68562,0.723296,5.25707,-5.45732,56.7683,3.10976
197.34,19.3693,44.9159,0,3.45601,9.17532,0.371228,6.85976,-1.92073,-30.2744,-7.75028,0.732876,5.22833,-5.36585,57.3476,2.68293
197.35,19.0783,44.4521,0,3.37219,9.11784,0.627495,6.76829,-2.13415,-31.5854,-7.77184,0.773591,5.14211,-5.82317,57.6829,2.22561
197.36,18.7619,44.0079,0,3.14945,9.12023,0.720901,6.7378,-3.62805,-32.2256,-7.81734,0.797541,5.17803,-6.46341,57.5915,2.19512
197.37,18.4706,43.5598,0,3.29794,9.07473,0.455054,7.77439,-4.69512,-32.1951,-7.89159,0.785566,5.12055,-7.0122,58.0183,2.31707
197.38,18.1767,43.0699,0,3.27639,9.09149,0.349673,8.84146,-4.78659,-32.7439,-7.93949,0.764011,4.86189,-7.37805,59.2073,2.92683
197.39,17.8725,42.5811,0,3.18777,9.22801,0.301772,8.65854,-5.45732,-32.8354,-8.04487,0.718506,4.83794,-7.65244,59.6646,3.17073
197.4,17.555,42.0768,0,2.9794,9.28789,0.165256,8.20122,-6.15854,-32.2256,-8.07122,0.60115,4.68705,-7.62195,59.878,3.47561
197.41,17.2605,41.535,0,3.08,9.24238,0.344883,7.53049,-4.78659,-31.8293,-8.09517,0.548459,4.43079,-7.80488,60.2744,3.56707
197.42,16.959,40.9801,0,2.84289,9.12502,0.431104,9.20732,-7.7439,-30.8537,-8.16462,0.486189,4.30864,-6.64634,60.7317,3.78049
197.43,16.6552,40.4502,0,2.70398,9.2352,0.335303,8.47561,-7.31707,-29.6951,-8.20534,0.404758,4.34457,-5.85366,60.7927,3.44512
197.44,16.3558,39.9173,0,2.61297,9.19687,0.246687,9.45122,-6.7378,-28.9329,-8.34185,0.428708,4.30385,-5.70122,59.9695,3.04878
197.45,16.0465,39.3741,0,2.4046,9.21843,0.191602,9.11585,-10.8537,-28.0183,-8.42568,0.407153,4.20086,-5.57927,60.4878,2.04268
197.46,15.7619,38.8439,0,2.62494,9.34297,0.229922,8.44512,-11.3415,-28.3232,-8.50471,0.464634,4.20086,-5.73171,60.9451,1.52439
197.47,15.4933,38.3005,0,2.83331,9.33339,0.172441,8.65854,-14.2988,-29.6951,-8.5598,0.440684,4.06914,-5.18293,61.4939,1.06707
197.48,15.2175,37.7488,0,2.73751,9.29268,0.352068,9.63415,-15.8232,-30.0305,-8.60052,0.390388,3.95178,-4.45122,62.5,1.06707
197.49,14.9453,37.1972,0,2.76864,9.37171,0.191602,9.81707,-13.2927,-30.3049,-8.53824,0.399968,3.82485,-4.78659,62.7134,1.25
197.5,14.6803,36.6185,0,2.77104,9.39087,-0.00239502,9.17683,-9.96951,-30.0915,-8.51908,0.316143,3.59732,-4.32927,62.8963,1.28049
197.51,14.398,36.0629,0,2.56028,9.46991,-0.102986,10,-7.65244,-29.7256,-8.66997,0.280217,3.66198,-3.62805,62.378,1.0061
197.52,14.108,35.53,0,2.36867,9.56092,0.0790356,10.0915,-7.86585,-28.5976,-8.68195,0.294587,3.66917,-2.68293,61.5854,0.884146
197.53,13.7971,34.9533,0,2.00942,9.62079,0.0502954,7.07317,-7.28659,-27.0122,-8.82086,0.289797,3.43446,-1.92073,61.8293,0.762195
197.54,13.5161,34.3873,0,2.18426,9.46272,0.186812,7.13415,-8.41463,-27.0427,-8.95019,0.352068,3.42967,-1.67683,61.9512,0.609756
197.55,13.2464,33.8473,0,2.23695,9.38848,0.330513,7.37805,-10.4878,-27.2866,-8.90229,0.392783,3.42727,-2.31707,61.4939,0.396341
197.56,12.9543,33.292,0,2.10762,9.40045,0.129331,6.55488,-12.3476,-28.5671,-8.89989,0.404758,3.26202,-2.56098,61.6463,0.457317
197.57,12.657,32.7116,0,2.0669,9.3286,0.220342,6.46341,-15.3963,-29.3902,-9.02443,0.395178,3.09676,-2.16463,61.5244,0.548781
197.58,12.3769,32.1367,0,2.18665,9.39806,-0.102986,9.42073,-16.9207,-29.4817,-9.06754,0.323328,3.03449,-1.55488,62.1646,0.97561
197.59,12.0922,31.5635,0,2.18665,9.60403,-0.225132,8.65854,-16.0366,-29.9695,-9.137,0.304167,2.96264,-1.76829,61.311,1.25
197.6,11.8284,30.9884,0,2.28006,9.75491,-0.0383203,8.59756,-13.2012,-29.0854,-9.19927,0.217947,2.87163,-1.40244,60.061,1.70732
197.61,11.5866,30.4175,0,2.32317,9.78126,-0.122146,4.60366,-11.6159,-27.8049,-9.21603,0.189207,2.79499,-1.0061,60.122,1.92073
197.62,11.3689,29.8743,0,2.44052,9.53697,-0.0502954,5.85366,-10.3963,-27.8659,-9.18969,0.196392,2.80936,-1.25,60.2439,2.37805
197.63,11.1275,29.3288,0,2.20342,9.56571,0.0742456,5.73171,-9.63415,-27.8963,-9.08431,0.217947,2.67284,-0.792683,60,2.7439
197.64,10.8709,28.7753,0,1.99984,9.5705,0.0167651,5.27439,-8.29268,-27.561,-9.05557,0.249082,2.53633,-0.609756,59.8171,3.17073
197.65,10.6102,28.1997,0,1.93757,9.50583,-0.210762,5.27439,-8.04878,-27.9268,-9.12502,0.263452,2.36628,0.365854,59.878,3.17073
197.66,10.3662,27.662,0,1.99505,9.55613,0.0263452,6.25,-10.061,-27.3171,-9.17053,0.280217,2.44292,0.426829,59.9695,3.04878
197.67,10.1321,27.1289,0,1.95913,9.59445,-0.0526904,6.03659,-7.71341,-26.2805,-9.10586,0.387993,2.3543,-0.0304878,59.6037,2.95732
197.68,9.89045,26.5924,0,1.88009,9.6184,-0.167651,6.98171,-6.09756,-26.5549,-9.12023,0.383203,2.25371,-0.518293,60.3963,2.7439
197.69,9.62166,26.0555,0,1.65735,9.75491,-0.294587,5.18293,-4.42073,-26.9207,-9.24717,0.462239,2.19144,-1.34146,60.2744,2.89634
197.7,9.36379,25.5231,0,1.71483,9.55613,-0.141306,5.64024,-4.81707,-27.439,-9.43877,0.479004,2.1627,-1.55488,59.3598,3.01829
197.71,9.11331,24.9382,0,1.72202,9.60403,-0.376018,5.60976,-5.09146,-27.1951,-9.46991,0.467029,1.84896,-2.22561,59.8171,3.56707
197.72,8.86433,24.399,0,1.68849,9.64474,-0.268242,4.81707,-6.06707,-27.0732,-9.55134,0.378413,1.96392,-2.62195,59.7561,3.9939
197.73,8.63378,23.8403,0,1.7316,9.49625,-0.404758,6.15854,-6.40244,-26.5244,-9.57768,0.349673,1.78908,-2.5,59.0549,4.45122
197.74,8.40569,23.2946,0,1.65017,9.57529,-0.308958,6.58537,-2.68293,-25.6098,-9.58247,0.241897,1.75076,-2.65244,59.4512,3.78049
197.75,8.20428,22.7737,0,1.75076,9.63277,-0.313748,6.55488,0.304878,-24.4207,-9.65193,0.0622705,1.7771,-2.59146,58.9024,3.23171
197.76,7.97862,22.2273,0,1.48012,9.7142,-0.217947,6.79878,1.98171,-23.9634,-9.55852,0.0263452,1.55916,-2.07317,58.2012,2.71341
197.77,7.74446,21.6968,0,1.33403,9.79084,-0.222737,5.36585,4.17683,-23.4451,-9.55613,0.122146,1.53281,-1.92073,57.1037,2.31707
197.78,7.50291,21.1515,0,1.16398,9.74533,-0.0934058,4.87805,5.12195,-22.7439,-9.41482,0.112566,1.35798,-1.92073,56.7988,2.22561
197.79,7.2822,20.6001,0,1.24541,9.72378,-0.119751,6.18902,2.10366,-22.1037,-9.48907,0.119751,1.2502,-1.82927,55.9146,2.13415
197.8,7.07308,20.0729,0,1.31726,9.89622,-0.342488,4.05488,2.53049,-21.9512,-9.43398,0.160466,1.2526,-2.13415,56.0366,2.65244
197.81,6.80656,19.5649,0,0.761616,9.63756,-0.222737,4.69512,1.43293,-21.9817,-9.5226,0.244292,1.25739,-2.2561,55.6707,2.95732
197.82,6.5615,19.067,0,1.02028,9.78605,-0.433499,4.87805,2.95732,-23.2622,-9.48907,0.251477,1.20948,-2.10366,55.3963,3.75
197.83,6.29588,18.5801,0,0.816702,9.7597,-0.146096,4.5122,0.579268,-23.4756,-9.65193,0.170046,1.19272,-1.92073,55.122,3.87195
197.84,6.04605,18.0698,0,0.881367,9.70701,-0.258662,6.52439,4.2378,-23.2317,-9.67827,0.110171,1.0107,-1.34146,53.9634,4.02439
197.85,5.81314,17.5405,0,0.926873,9.84114,-0.308958,5.91463,5.57927,-22.4085,-9.69983,0.158071,0.843047,-0.97561,53.4756,3.68902
197.86,5.58213,17.0414,0,0.799937,9.75012,-0.189207,4.32927,5.82317,-21.2805,-9.84593,0.179626,0.895737,-0.579268,52.4695,3.93293
197.87,5.38185,16.5389,0,0.902922,9.74533,-0.232317,6.52439,7.0122,-19.8476,-9.81719,0.205972,0.790356,-0.121951,50.6402,3.75
197.88,5.18066,16.0381,0,0.905317,9.89622,-0.411943,8.20122,7.43902,-20.2134,-9.90101,0.208367,0.716111,-0.640244,49.4207,4.48171
197.89,4.94915,15.5371,0,0.59157,10.0303,-0.399968,6.58537,9.45122,-19.939,-9.89862,0.160466,0.627495,-0.213415,48.75,4.54268
197.9,4.73489,15.0268,0,0.764011,9.9082,-0.201182,6.0061,8.5061,-20.7622,-9.96568,0.222737,0.502954,-0.579268,48.2317,4.69512
197.91,4.50692,14.4771,0,0.622705,9.73575,-0.292192,5.57927,6.52439,-21.0671,-9.99921,0.275427,0.241897,-0.792683,48.628,5.2439
197.92,4.28528,13.9367,0,0.684976,9.68306,-0.435894,5.64024,8.93293,-21.6768,-9.8603,0.256267,0.184417,-0.97561,48.5671,5.82317
197.93,4.02661,13.422,0,0.323328,9.75252,-0.246687,5.57927,6.46341,-21.5244,-10.0256,0.215552,0.205972,-1.06707,48.2622,5.73171
197.94,3.79417,12.908,0,0.55804,9.87227,-0.304167,5.18293,9.42073,-22.1037,-10.1118,0.208367,0.119751,-0.884146,47.439,5.60976
197.95,3.57163,12.3938,0,0.574805,9.86748,-0.198787,5.67073,8.87195,-21.7683,-9.99202,0.239502,0.0263452,-1.40244,46.2195,5.42683
197.96,3.35372,11.8942,0,0.565225,9.81,-0.217947,5.51829,9.57317,-21.6768,-9.86269,0.160466,0,-1.61585,45.061,5.33537
197.97,3.14463,11.4007,0,0.617915,9.79323,-0.399968,4.96951,11.6768,-21.8598,-9.8124,0.222737,-0.0598755,-1.43293,43.811,5.60976
197.98,2.91565,10.9175,0,0.368833,9.81,-0.352068,3.78049,12.7744,-21.3415,-9.96807,0.141306,-0.102986,-1.4939,42.3171,5.91463
197.99,2.71664,10.4528,0,0.55804,9.80281,-0.584385,3.93293,15.1524,-21.0061,-10.0471,0.0742456,-0.107776,-1.46341,41.128,5.91463
198,2.4648,9.97443,0,0.0455054,9.71659,-0.330513,5.09146,13.4451,-20.7012,-9.99921,0.0359253,-0.249082,-1.46341,40.3659,5.82317
198.01,2.22276,9.51433,0,0.0407153,9.83635,-0.416733,6.25,10.5488,-20.1524,-10.0447,0.0335303,-0.253872,-1.37195,39.6646,5.94512
198.02,1.99758,9.07185,0,0.0718506,9.79563,-0.481399,6.06707,10,-19.2988,-10.0854,0.0143701,-0.258662,-0.670732,38.4756,5.85366
198.03,1.75597,8.6385,0,-0.119751,9.78366,-0.6251,5.21341,11.8293,-19.1463,-10.0806,0.0981958,-0.296982,-0.243902,37.1341,5.39634
198.04,1.53726,8.20881,0,-0.0215552,9.76449,-0.311353,4.42073,9.90854,-18.4756,-10.0471,0.0958008,-0.356858,-0.0914634,35.9756,5.18293
198.05,1.31474,7.7639,0,-0.189207,9.69504,-0.308958,4.72561,6.15854,-17.2866,-10.0351,0.119751,-0.500559,0.670732,34.4817,5.27439
198.06,1.09994,7.31386,0,-0.249082,9.65432,-0.498164,4.17683,6.09756,-16.2195,-10.095,0.249082,-0.60594,0.823171,33.4756,4.72561
198.07,0.904887,6.83777,0,-0.244292,9.53936,-0.356858,3.62805,2.22561,-14.6646,-10.1142,0.352068,-0.804727,0.548781,32.2256,4.72561
198.08,0.737878,6.34071,0,-0.170046,9.67588,-0.416733,2.28659,-1.31098,-13.1402,-10.1573,0.407153,-0.989143,-0.182927,30.7622,4.78659
198.09,0.58592,5.8767,0,-0.141306,9.81719,-0.364043,1.03659,-3.41463,-12.3171,-10.4088,0.431104,-0.953218,-0.396341,29.1463,4.57317
198.1,0.464269,5.41025,0,-0.00239502,9.8076,-0.677791,0.182927,-3.9939,-11.189,-10.5572,0.292192,-1.06578,-0.853659,27.8049,4.39024
198.11,0.367577,4.92612,0,0.143701,9.7621,-0.517324,0.670732,-4.17683,-10.6402,-10.5237,0.237107,-1.23344,-1.25,26.372,4.39024
198.12,0.287894,4.44696,0,0.306563,9.72138,-0.6251,0.243902,-1.79878,-11.0671,-10.5405,0.179626,-1.30289,-1.21951,25.7012,4.60366
198.13,0.210292,3.94742,0,0.354463,9.73815,-0.60594,-1.12805,-0.853659,-11.5854,-10.3752,0.191602,-1.46575,-1.28049,25.5488,4.54268
198.14,0.145406,3.46733,0,0.440684,9.65672,-0.500559,-0.609756,0.579268,-11.5244,-10.3489,0.0934058,-1.46336,-1.12805,25.7927,4.32927
198.15,0.0855618,2.99441,0,0.510139,9.75252,-0.534089,0.426829,1.46341,-11.9207,-10.1884,0.0790356,-1.49449,-0.396341,26.3415,4.54268
198.16,0.0154601,2.53461,0,0.512534,9.81479,-0.613125,0.792683,3.44512,-13.0793,-10.0974,-0.0119751,-1.50647,-0.457317,26.4634,4.42073
198.17,-0.0598455,2.08402,0,0.534089,9.93454,-0.570015,0.365854,5.2439,-13.9329,-9.95849,0.0455054,-1.52563,-0.426829,27.1037,4.17683
198.18,-0.140839,1.64671,0,0.529299,10.0447,-0.423918,0.365854,5.51829,-14.5427,-9.91778,-0.00479004,-1.54,-0.213415,26.8293,4.14634
198.19,-0.233841,1.24575,0,0.464634,9.98723,-0.479004,0.0914634,8.10976,-15.2134,-9.8579,0.0622705,-1.44659,-0.243902,26.311,4.08537
198.2,-0.340644,0.844202,0,0.352068,9.8603,-0.462239,0.579268,10.3049,-15.5488,-9.70462,0.105381,-1.49689,-0.0304878,25.4573,4.69512
198.21,-0.459569,0.465246,0,0.265847,9.78605,-0.529299,0.945122,10.1524,-16.0061,-9.76928,0.167651,-1.47773,0.152439,25.0305,5.2439
198.22,-0.598698,0.0854286,0,0.0598755,9.73815,-0.66342,0.884146,11.5244,-15.8537,-9.70462,0.222737,-1.5376,0.182927,24.8476,5.51829
198.23,-0.766116,-0.287412,0,-0.241897,9.82437,-0.526904,0.731707,9.78659,-15.4268,-9.67588,0.232317,-1.56874,0.335366,24.3598,5.64024
198.24,-0.938643,-0.632331,0,-0.387993,9.80281,-0.404758,1.06707,5.97561,-14.5427,-9.75252,0.170046,-1.52323,0.182927,24.2988,5.60976
198.25,-1.08709,-0.981532,0,-0.292192,9.76928,-0.325723,1.09756,3.59756,-13.5671,-9.72138,0.196392,-1.59748,0.121951,23.9939,5.36585
198.26,-1.21635,-1.32024,0,-0.229922,9.75252,-0.440684,1.0061,0.762195,-12.6524,-9.74773,0.158071,-1.61664,-0.213415,23.8415,4.93902
198.27,-1.31428,-1.67365,0,-0.0718506,9.77886,-0.603545,0.243902,1.18902,-11.6159,-9.65432,0.129331,-1.72441,0.731707,23.7805,4.78659
198.28,-1.4208,-2.00768,0,-0.167651,9.81958,-0.55325,-0.243902,-0.304878,-11.5549,-9.65432,0.0742456,-1.70046,0.701219,24.1159,4.96951
198.29,-1.51578,-2.34251,0,-0.136516,9.87706,-0.529299,-1.09756,-1.52439,-10.9756,-9.73815,0.0407153,-1.7771,1.34146,24.4512,5.2439
198.3,-1.5828,-2.66095,0,0.0311353,9.78844,-0.589175,-1.4939,-1.4939,-10.3049,-9.74773,0.0167651,-1.76513,1.28049,24.2073,5.4878
198.31,-1.6393,-3.01351,0,0.0886157,9.72378,-0.445474,-0.365854,-2.04268,-10.061,-9.82197,-0.0263452,-1.98787,1.67683,24.7866,5.73171
198.32,-1.69289,-3.33723,0,0.0431104,9.79563,-0.673001,-0.609756,-0.152439,-9.32927,-9.84832,0.0143701,-1.9256,1.82927,25.2439,5.70122
198.33,-1.75834,-3.67891,0,-0.0263452,9.70941,-0.713716,-0.396341,-0.0609756,-9.81707,-9.90341,0.0167651,-2.07648,2.2561,25,5.54878
198.34,-1.82449,-4.01267,0,-0.0407153,9.69504,-0.59157,-0.0304878,-0.853659,-9.84756,-9.96328,-0.0143701,-2.1148,2.92683,24.939,5.42683
198.35,-1.89055,-4.33671,0,-0.0742456,9.73815,-0.728086,0.426829,-0.792683,-9.57317,-9.99921,0.0718506,-2.13875,3.68902,24.7256,4.90854
198.36,-1.96101,-4.62945,0,-0.134121,9.81719,-0.632285,-0.487805,-0.335366,-9.45122,-10.0232,0.155676,-2.05972,3.44512,23.5671,4.20732
198.37,-2.03781,-4.90251,0,-0.241897,9.83395,-0.55325,-0.670732,-0.0304878,-8.96341,-10.0471,0.222737,-2.02858,3.41463,22.2256,4.14634
198.38,-2.11884,-5.18029,0,-0.337698,9.83635,-0.402363,-0.548781,-0.396341,-8.41463,-9.94891,0.287402,-2.08127,3.17073,20.5183,4.05488
198.39,-2.19619,-5.44006,0,-0.364043,9.91778,-0.416733,-0.670732,-0.121951,-7.92683,-9.92257,0.301772,-2.04535,3.17073,18.75,3.93293
198.4,-2.26904,-5.69208,0,-0.387993,9.92736,-0.428708,-0.548781,0,-7.34756,-9.97526,0.251477,-2.0693,2.5,17.1037,3.96341
198.41,-2.3347,-5.92829,0,-0.366438,9.84593,-0.337698,-0.579268,-0.396341,-6.98171,-10.0974,0.213157,-2.0693,1.52439,15.2744,3.84146
198.42,-2.39499,-6.15366,0,-0.392783,9.83395,-0.514929,-0.213415,0.579268,-6.25,-10.0208,0.241897,-2.04774,0.762195,14.1768,4.29878
198.43,-2.4454,-6.3924,0,-0.325723,9.81958,-0.60115,-0.365854,0.457317,-6.15854,-9.98484,0.265847,-2.14354,-0.304878,13.3232,4.63415
198.44,-2.50372,-6.62886,0,-0.435894,9.83395,-0.522114,-1.37195,0.823171,-5.7622,-9.94891,0.237107,-2.16989,-0.914634,12.1037,5.51829
198.45,-2.56921,-6.84436,0,-0.498164,9.8076,-0.409548,-1.15854,0.457317,-5.85366,-10.0256,0.186812,-2.13396,-1.67683,10.9756,6.09756
198.46,-2.63675,-7.06445,0,-0.531694,9.75491,-0.431104,-0.426829,0.365854,-5.7622,-10.0615,0.165256,-2.20342,-2.07317,10,6.25
198.47,-2.70891,-7.28595,0,-0.584385,9.78844,-0.519719,-0.579268,0.792683,-5.7622,-10.0279,0.138911,-2.24413,-2.10366,8.56707,6.52439
198.48,-2.77509,-7.49647,0,-0.56762,9.77168,-0.474214,-0.152439,1.55488,-5.4878,-9.97526,0.143701,-2.22258,-2.65244,7.56098,6.85976
198.49,-2.84498,-7.71373,0,-0.670605,9.88904,-0.507744,-0.640244,1.46341,-4.84756,-9.99921,0.0958008,-2.29682,-2.43902,6.03659,6.7378
198.5,-2.91248,-7.93172,0,-0.725691,9.81479,-0.387993,-0.365854,0.487805,-3.96341,-10.0016,0.0814307,-2.32796,-2.59146,4.26829,6.85976
198.51,-2.96603,-8.15204,0,-0.713716,9.82437,-0.208367,0.457317,-2.43902,-2.56098,-10.0399,-0.00239502,-2.33514,-1.7378,2.77439,6.52439
198.52,-3.00613,-8.42111,0,-0.673001,9.94891,-0.438289,-0.640244,-4.90854,-1.67683,-10.0351,-0.0790356,-2.3543,-1.0061,1.25,6.52439
198.53,-3.03784,-8.85801,0,-0.608335,9.97047,-0.62031,-1.28049,-3.35366,-2.04268,-10.0303,-0.0742456,-2.4046,0,0,5.88415
198.54,-3.06726,-9.16995,0,-0.598755,9.89622,-0.522114,-1.55488,-2.7439,-1.92073,-9.97286,-0.0455054,-2.4022,0.579268,-0.609756,6.34146
198.55,-3.07624,-9.38263,0,-0.464634,9.70941,-0.457449,-1.15854,-2.92683,-1.82927,-9.89143,0.0383203,-2.31598,1.09756,-1.40244,6.18902
198.56,-3.07944,-9.5404,0,-0.423918,9.68546,-0.589175,-1.03659,-0.853659,-1.89024,-9.89862,0.136516,-2.25611,1.55488,-2.19512,6.76829
198.57,-3.08679,-9.67733,0,-0.471819,9.68067,-0.479004,-1.15854,-1.12805,-1.61585,-9.8603,0.198787,-2.23455,0.731707,-2.95732,6.79878
198.58,-3.09599,-9.80188,0,-0.486189,9.80042,-0.493374,-1.98171,-0.579268,-1.64634,-9.86748,0.268242,-2.22737,-0.152439,-3.59756,7.37805
198.59,-3.11009,-9.91655,0,-0.510139,9.75731,-0.435894,-0.945122,-2.2561,-1.7378,-9.89383,0.306563,-2.22497,-0.396341,-4.48171,7.16463
198.6,-3.11758,-10.0342,0,-0.505349,9.85072,-0.450264,-0.426829,-1.79878,-1.31098,-9.92736,0.282612,-2.27287,-0.792683,-5.39634,6.82927
198.61,-3.12213,-10.1641,0,-0.467029,9.87227,-0.471819,-0.823171,-1.46341,-1.61585,-9.89383,0.244292,-2.34472,-0.884146,-5.88415,6.34146
198.62,-3.11865,-10.2891,0,-0.416733,9.82197,-0.438289,-0.426829,-1.52439,-1.61585,-9.88425,0.268242,-2.34472,-1.0061,-6.40244,6.34146
198.63,-3.11965,-10.3949,0,-0.455054,9.8603,-0.428708,-0.914634,-2.07317,-1.4939,-9.87706,0.227527,-2.27766,-0.884146,-6.52439,6.18902
198.64,-3.11153,-10.5043,0,-0.411943,9.87706,-0.455054,-1.85976,-1.12805,-1.37195,-9.82197,0.189207,-2.30161,-1.09756,-6.98171,6.37195
198.65,-3.09725,-10.5975,0,-0.368833,9.8076,-0.380808,-2.10366,-1.64634,-1.43293,-9.83395,0.134121,-2.25132,-0.731707,-7.56098,6.37195
198.66,-3.06005,-10.6904,0,-0.306563,9.80521,-0.349673,-1.15854,-1.85976,-0.945122,-9.82677,0.110171,-2.26569,-1.28049,-8.5061,6.40244
198.67,-2.98125,-10.7796,0,-0.201182,9.8076,-0.479004,-0.762195,-0.823171,-0.487805,-9.83395,0.0814307,-2.26808,-0.853659,-9.08537,6.55488
198.68,-2.89396,-10.8727,0,-0.201182,9.8124,-0.5772,-0.518293,1.79878,-0.27439,-9.81958,0.102986,-2.29922,-0.762195,-9.42073,6.34146
198.69,-2.84236,-10.9666,0,-0.294587,9.77886,-0.421523,-0.762195,2.83537,-0.396341,-9.75491,0.107776,-2.30401,-0.792683,-9.42073,6.7378
198.7,-2.7837,-11.0595,0,-0.313748,9.83156,-0.354463,-1.34146,2.31707,0.0304878,-9.7621,0.162861,-2.31838,-0.365854,-9.20732,6.67683
198.71,-2.73041,-11.158,0,-0.296982,9.77886,-0.395178,-1.98171,0.640244,0.396341,-9.72857,0.198787,-2.35191,-0.0304878,-9.20732,7.10366
198.72,-2.68818,-11.2438,0,-0.323328,9.7597,-0.359253,-1.25,-0.640244,0.518293,-9.76449,0.177231,-2.32077,-0.0914634,-9.08537,7.04268
198.73,-2.65669,-11.3074,0,-0.356858,9.79323,-0.383203,-0.182927,-1.31098,0.487805,-9.75012,0.172441,-2.23216,-0.0609756,-9.29878,6.55488
198.74,-2.6349,-11.3615,0,-0.390388,9.87467,-0.493374,-0.182927,-1.31098,0.121951,-9.77407,0.208367,-2.20581,-0.152439,-8.9939,6.31098
198.75,-2.61282,-11.4133,0,-0.385598,9.92257,-0.445474,0.0914634,-1.55488,0.121951,-9.77647,0.270637,-2.20581,-0.243902,-9.08537,6.15854
198.76,-2.58948,-11.4509,0,-0.337698,9.8603,-0.423918,-0.548781,-1.43293,-0.487805,-9.8076,0.301772,-2.15791,-0.487805,-9.29878,6.06707
198.77,-2.57492,-11.4892,0,-0.340093,9.83874,-0.316143,-0.426829,-1.76829,-0.823171,-9.81479,0.342488,-2.16989,-0.548781,-9.54268,6.25
198.781,-2.52726,-11.5222,0,-0.198787,9.78605,-0.347278,-1.18902,-1.7378,-0.762195,-9.82677,0.289797,-2.15552,-1.06707,-10.0305,6.46341
198.79,-2.47201,-11.5619,0,-0.143701,9.76449,-0.368833,-0.97561,-1.40244,-0.853659,-9.8124,0.256267,-2.18905,-1.34146,-10.3659,6.37195
198.8,-2.41547,-11.5916,0,-0.136516,9.74294,-0.395178,-0.670732,-0.609756,-0.823171,-9.76689,0.225132,-2.14115,-1.4939,-11.0061,6.70732
198.81,-2.37588,-11.6413,0,-0.165256,9.80042,-0.332908,-0.396341,-0.426829,-1.03659,-9.76689,0.177231,-2.23695,-1.37195,-10.7622,6.70732
198.82,-2.33338,-11.6789,0,-0.179626,9.81958,-0.409548,-1.09756,-0.487805,-0.792683,-9.74773,0.107776,-2.18665,-1.61585,-10.6707,7.07317
198.83,-2.29113,-11.7076,0,-0.129331,9.83395,-0.479004,-0.457317,0.335366,-1.06707,-9.77886,0.165256,-2.16031,-1.34146,-10.6707,6.95122
198.84,-2.25084,-11.7325,0,-0.0934058,9.89143,-0.490979,0.0914634,2.71341,-1.28049,-9.80281,0.143701,-2.15312,-1.12805,-10.6402,6.92073
198.85,-2.23821,-11.7338,0,-0.222737,9.87946,-0.376018,-0.152439,3.14024,-1.4939,-9.91059,0.136516,-2.07409,-1.18902,-11.1585,6.92073
198.86,-2.23191,-11.7308,0,-0.282612,9.82437,-0.349673,0.27439,2.10366,-1.25,-9.95131,0.189207,-2.06451,-0.609756,-12.2866,7.13415
198.87,-2.21862,-11.7344,0,-0.287402,9.83395,-0.342488,0.152439,0.914634,-0.792683,-9.92257,0.174836,-2.08846,-0.0914634,-13.2622,7.10366
198.88,-2.19306,-11.7528,0,-0.270637,9.76689,-0.404758,-0.213415,0.853659,-0.426829,-9.90101,0.205972,-2.15312,0.0609756,-13.7195,7.40854
198.89,-2.16011,-11.8008,0,-0.237107,9.75252,-0.287402,-0.121951,0.487805,-0.457317,-9.80281,0.191602,-2.26808,0.762195,-12.9573,7.19512
198.9,-2.11983,-11.8478,0,-0.222737,9.82197,-0.320933,-0.396341,0.365854,-0.27439,-9.72617,0.129331,-2.25371,0.792683,-11.7988,7.28659
198.91,-2.064,-11.8812,0,-0.129331,9.85072,-0.471819,-0.396341,-0.0609756,-0.457317,-9.67109,0.160466,-2.18665,0.518293,-9.93902,7.0122
198.92,-2.03959,-11.8975,0,-0.155676,9.84593,-0.421523,-0.27439,-0.182927,-1.21951,-9.61361,0.203577,-2.10283,0.335366,-8.87195,7.22561
198.93,-2.01464,-11.8712,0,-0.105381,9.83874,-0.519719,-0.182927,-0.0304878,-1.55488,-9.61361,0.225132,-1.91602,0.121951,-7.86585,7.16463
198.94,-2.00662,-11.8442,0,-0.150886,9.82916,-0.455054,0.152439,0.701219,-2.07317,-9.59205,0.160466,-1.90404,0.121951,-7.22561,7.59146
198.95,-2.00598,-11.7981,0,-0.155676,9.84114,-0.474214,0.853659,0.335366,-2.53049,-9.60642,0.131726,-1.81782,0.121951,-6.79878,7.16463
198.96,-2.01176,-11.7563,0,-0.172441,9.91059,-0.402363,0.792683,0.27439,-2.86585,-9.58726,0.0383203,-1.825,0.487805,-6.40244,6.7378
198.97,-2.01842,-11.7107,0,-0.160466,9.89383,-0.361648,0.609756,-0.152439,-3.07927,-9.6639,0.0311353,-1.81542,0.548781,-6.15854,6.55488
198.98,-2.01783,-11.6622,0,-0.134121,9.84593,-0.383203,0.548781,0.701219,-2.77439,-9.69743,0.0335303,-1.80105,1.06707,-5.82317,6.55488
198.99,-2.00276,-11.6184,0,-0.136516,9.87946,-0.313748,0.121951,1.55488,-1.76829,-9.74773,0.0335303,-1.82261,1.40244,-5.73171,6.52439
199,-1.98171,-11.5798,0,-0.172441,9.88904,-0.387993,-0.152439,0.426829,-1.12805,-9.81719,0.0479004,-1.85135,1.64634,-5.09146,7.04268
199.01,-1.96861,-11.5591,0,-0.237107,9.82437,-0.431104,-0.457317,0.0914634,-0.884146,-9.87467,0.0622705,-1.93518,1.89024,-5.15244,7.22561
199.02,-1.96827,-11.5384,0,-0.306563,9.81,-0.443079,-0.0609756,-1.09756,-0.701219,-9.89622,0.0694556,-1.93518,2.07317,-5.03049,7.59146
199.03,-1.97848,-11.523,0,-0.354463,9.73815,-0.467029,0.121951,-2.53049,-0.518293,-9.90101,0.0862207,-1.95673,2.40854,-5.15244,7.46951
199.04,-1.97716,-11.4956,0,-0.316143,9.69025,-0.457449,1.12805,-2.80488,-0.426829,-9.87227,0.129331,-1.89446,2.65244,-5.12195,7.53049
199.05,-1.96722,-11.4549,0,-0.289797,9.72617,-0.548459,0.945122,-1.64634,-0.365854,-9.84593,0.208367,-1.825,2.77439,-5.60976,7.46951
199.06,-1.97498,-11.4158,0,-0.330513,9.76689,-0.467029,0.792683,-2.59146,-0.914634,-9.80521,0.198787,-1.81782,2.7439,-5.33537,6.89024
199.07,-1.98313,-11.3736,0,-0.323328,9.79084,-0.457449,0.152439,-2.7439,-1.12805,-9.77647,0.229922,-1.79147,2.46951,-5.36585,6.46341
199.08,-1.99351,-11.3152,0,-0.296982,9.74773,-0.416733,0.27439,-2.68293,-1.7378,-9.75731,0.182021,-1.71004,2.62195,-5.18293,6.12805
199.09,-2.00826,-11.2677,0,-0.328118,9.75491,-0.368833,0.457317,-2.19512,-1.70732,-9.74773,0.155676,-1.74597,2.89634,-5.09146,5.88415
199.1,-2.02467,-11.2131,0,-0.332908,9.74773,-0.426313,0.762195,-1.64634,-1.82927,-9.77168,0.112566,-1.71004,2.68293,-5.2439,5.88415
199.11,-2.04674,-11.1483,0,-0.359253,9.75252,-0.419128,0.365854,-1.40244,-2.04268,-9.81,0.0838257,-1.66214,3.14024,-5.51829,5.70122
199.12,-2.06106,-11.0792,0,-0.287402,9.74773,-0.498164,-0.27439,-0.97561,-2.34756,-9.83874,0.0526904,-1.6358,3.2622,-5.79268,5.57927
199.13,-2.07261,-11.0166,0,-0.263452,9.81958,-0.450264,-0.670732,-0.213415,-2.43902,-9.86748,0.0335303,-1.65735,3.2622,-6.52439,6.06707
199.14,-2.07404,-10.9616,0,-0.234712,9.76449,-0.438289,-0.609756,-0.731707,-1.98171,-9.88904,0.0383203,-1.6837,3.5061,-6.46341,6.28049
199.15,-2.06199,-10.8981,0,-0.165256,9.78126,-0.481399,-0.457317,-0.27439,-1.79878,-9.90101,0.0526904,-1.63819,3.5061,-6.67683,6.0061
199.16,-2.05139,-10.8462,0,-0.170046,9.75491,-0.423918,0.0609756,0.0304878,-1.82927,-9.87467,0.122146,-1.67412,4.02439,-6.40244,6.21951
199.17,-2.04464,-10.8023,0,-0.222737,9.78126,-0.435894,0.548781,-0.548781,-1.52439,-9.8579,0.153281,-1.69807,3.65854,-6.03659,6.0061
199.18,-2.0408,-10.7448,0,-0.273032,9.83156,-0.433499,0.548781,-1.46341,-1.12805,-9.83874,0.179626,-1.62622,3.56707,-5.64024,6.21951
199.19,-2.03169,-10.6841,0,-0.261057,9.82916,-0.371228,0.0609756,-1.98171,-0.945122,-9.79323,0.174836,-1.59508,3.44512,-5.51829,6.21951
199.2,-2.02656,-10.6224,0,-0.294587,9.83874,-0.433499,0.0914634,-1.46341,-0.731707,-9.79563,0.162861,-1.58071,3.14024,-5.09146,6.34146
199.21,-2.00997,-10.5606,0,-0.261057,9.86748,-0.464634,-0.0609756,-1.67683,-0.518293,-9.80042,0.131726,-1.57113,2.68293,-4.90854,6.67683
199.22,-1.97692,-10.5067,0,-0.196392,9.83874,-0.488584,-0.487805,-1.82927,-0.487805,-9.75491,0.141306,-1.5879,2.62195,-4.66463,6.58537
199.23,-1.93206,-10.4608,0,-0.143701,9.80042,-0.409548,-0.121951,-1.58537,-0.518293,-9.77407,0.0814307,-1.61664,2.43902,-4.48171,7.13415
199.24,-1.92542,-10.417,0,-0.246687,9.83635,-0.471819,-0.152439,-0.487805,-1.03659,-9.80042,0.143701,-1.62382,2.5,-4.02439,7.19512
199.25,-1.92298,-10.3789,0,-0.280217,9.81,-0.385598,-0.0609756,-1.4939,-0.853659,-9.81,0.124541,-1.64538,2.77439,-3.5061,6.95122
199.26,-1.91075,-10.3294,0,-0.225132,9.83874,-0.481399,0.213415,-2.0122,-0.945122,-9.83635,0.136516,-1.59748,2.71341,-3.20122,7.46951
199.27,-1.88453,-10.2765,0,-0.182021,9.8579,-0.495769,0.0609756,-2.07317,-0.701219,-9.78366,0.155676,-1.57353,2.2561,-2.80488,7.28659
199.28,-1.85755,-10.2358,0,-0.117356,9.80281,-0.488584,0.0304878,-2.10366,-1.18902,-9.77168,0.134121,-1.61664,2.31707,-2.5,7.37805
199.29,-1.83498,-10.184,0,-0.131726,9.75491,-0.438289,0.0304878,-1.95122,-1.25,-9.73815,0.162861,-1.56634,2.37805,-2.34756,7.37805
199.3,-1.82539,-10.1296,0,-0.229922,9.74533,-0.392783,0.304878,-1.58537,-0.884146,-9.74773,0.117356,-1.55676,2.10366,-2.10366,7.59146
199.31,-1.81099,-10.0908,0,-0.193997,9.76928,-0.445474,-0.335366,-1.76829,-1.0061,-9.73336,0.153281,-1.60466,2.0122,-1.98171,7.5
199.32,-1.78964,-10.0223,0,-0.182021,9.81958,-0.414338,-0.548781,-2.22561,-0.762195,-9.80521,0.138911,-1.50647,1.98171,-1.89024,7.31707
199.33,-1.76609,-9.96212,0,-0.189207,9.8555,-0.502954,-0.487805,-1.52439,-0.548781,-9.82677,0.148491,-1.51605,1.79878,-2.13415,7.56098
199.34,-1.74065,-9.91163,0,-0.136516,9.84593,-0.488584,-0.365854,-1.25,-0.914634,-9.85311,0.177231,-1.56155,1.58537,-1.64634,7.59146
199.35,-1.71484,-9.86961,0,-0.155676,9.84114,-0.452659,0.0304878,-1.52439,-0.701219,-9.9058,0.182021,-1.59508,1.12805,-1.43293,7.28659
199.36,-1.69459,-9.82088,0,-0.177231,9.80042,-0.490979,0.304878,-1.58537,-0.701219,-9.92017,0.189207,-1.56634,0.884146,-1.46341,7.59146
199.37,-1.69469,-9.77505,0,-0.246687,9.8555,-0.512534,0.182927,-0.670732,-0.945122,-9.92017,0.170046,-1.57592,1.0061,-1.25,7.43902
199.38,-1.69188,-9.72055,0,-0.232317,9.81,-0.519719,-0.152439,-1.40244,-0.945122,-9.93454,0.196392,-1.53521,0.426829,-1.40244,7.56098
199.39,-1.64537,-9.6802,0,-0.0958008,9.72378,-0.488584,-0.579268,-1.98171,-0.518293,-9.94412,0.162861,-1.55676,0.304878,-1.92073,7.56098
199.4,-1.61671,-9.63917,0,-0.148491,9.77168,-0.416733,-0.487805,-2.04268,-0.548781,-9.92257,0.146096,-1.54958,0.0304878,-1.7378,6.92073
199.41,-1.60219,-9.60752,0,-0.196392,9.86988,-0.474214,-0.457317,-1.06707,-0.548781,-9.90101,0.131726,-1.56155,-0.0304878,-2.28659,7.13415
199.42,-1.57632,-9.57713,0,-0.153281,9.86988,-0.445474,-0.548781,-1.4939,-0.487805,-9.8603,0.148491,-1.55197,-0.518293,-2.5,7.16463
199.43,-1.53976,-9.51633,0,-0.0981958,9.81719,-0.486189,-0.213415,-1.76829,-0.579268,-9.85311,0.172441,-1.41785,-0.853659,-2.89634,7.22561
199.44,-1.49459,-9.46472,0,-0.0311353,9.83874,-0.534089,-0.335366,-1.21951,-0.731707,-9.87706,0.184417,-1.4418,-1.03659,-3.29268,7.71341
199.45,-1.44013,-9.42834,0,-0.00958008,9.78605,-0.55325,-0.243902,0.182927,-0.609756,-9.88425,0.191602,-1.49449,-1.46341,-3.78049,7.7439
199.46,-1.42287,-9.39088,0,-0.0958008,9.81479,-0.517324,-0.365854,1.28049,-1.15854,-9.89622,0.119751,-1.48731,-1.58537,-3.41463,8.01829
199.47,-1.40431,-9.36841,0,-0.0359253,9.75491,-0.546064,-0.884146,2.83537,-1.61585,-9.97526,0.179626,-1.55437,-1.98171,-4.20732,7.43902
199.48,-1.39522,-9.32168,0,-0.0670605,9.76928,-0.493374,-0.731707,4.32927,-1.82927,-9.96089,0.141306,-1.4418,-1.70732,-4.17683,7.37805
199.49,-1.39868,-9.27224,0,-0.153281,9.83395,-0.479004,-0.792683,4.69512,-1.7378,-9.94652,0.153281,-1.41785,-2.10366,-4.78659,7.13415
199.5,-1.41347,-9.23194,0,-0.217947,9.82197,-0.526904,-1.25,4.5122,-1.85976,-9.94652,0.160466,-1.44899,-2.22561,-5.45732,6.70732
199.51,-1.42779,-9.18116,0,-0.217947,9.72378,-0.479004,-1.34146,4.81707,-1.82927,-9.90341,0.167651,-1.38911,-2.71341,-5.85366,6.7378
199.52,-1.45801,-9.14222,0,-0.306563,9.69504,-0.570015,-1.28049,5.94512,-2.10366,-9.85072,0.117356,-1.42504,-3.20122,-5.79268,6.92073
199.53,-1.49832,-9.10686,0,-0.383203,9.75491,-0.622705,-2.22561,5.30488,-2.10366,-9.90341,0.0143701,-1.4418,-3.84146,-6.28049,6.98171
199.54,-1.53344,-9.05965,0,-0.342488,9.6663,-0.696951,-3.56707,4.63415,-2.2561,-9.96328,-0.0359253,-1.39151,-4.32927,-6.92073,6.79878
199.55,-1.57414,-8.99366,0,-0.378413,9.69983,-0.62031,-3.32317,4.48171,-2.46951,-10.0615,-0.0694556,-1.31247,-4.87805,-7.62195,6.7378
199.56,-1.62063,-8.92448,0,-0.428708,9.84353,-0.804727,-3.23171,5.45732,-2.62195,-10.1094,-0.0862207,-1.29331,-5.18293,-8.71951,6.09756
199.57,-1.67976,-8.85108,0,-0.495769,9.82437,-0.749641,-3.04878,5.06098,-3.2622,-10.0878,-0.0287402,-1.25978,-6.06707,-9.54268,6.43293
199.58,-1.73007,-8.76863,0,-0.402363,9.82916,-0.732876,-3.14024,3.78049,-3.71951,-10.0735,0.00239502,-1.20469,-7.19512,-10.2134,6.64634
199.59,-1.77093,-8.70455,0,-0.330513,9.81719,-0.670605,-3.32317,3.38415,-3.75,-10.0232,0.0407153,-1.26697,-8.14024,-10.8537,7.16463
199.6,-1.81094,-8.62432,0,-0.330513,9.81719,-0.752036,-3.93293,4.2378,-3.75,-9.9561,0.0143701,-1.17595,-9.69512,-11.6768,7.9878
199.61,-1.85375,-8.54714,0,-0.368833,9.79084,-0.670605,-4.48171,3.81098,-3.62805,-9.91538,-0.0646655,-1.17116,-10.4573,-12.2866,8.75
199.62,-1.88314,-8.49027,0,-0.323328,9.80521,-0.661025,-4.39024,3.29268,-2.92683,-9.81958,-0.110171,-1.23583,-11.4939,-12.561,9.39024
199.63,-1.88685,-8.44101,0,-0.189207,9.91778,-0.706531,-5.42683,3.32317,-2.28659,-9.81719,-0.205972,-1.25978,-11.9512,-13.3841,9.7561
199.64,-1.88858,-8.39397,0,-0.186812,9.91059,-0.716111,-6.46341,3.59756,-2.16463,-9.74773,-0.313748,-1.2526,-11.8598,-13.9939,9.69512
199.65,-1.88056,-8.35793,0,-0.167651,9.92257,-0.823887,-7.40854,3.87195,-1.67683,-9.76928,-0.407153,-1.29571,-11.5244,-14.3902,10
199.66,-1.87797,-8.33405,0,-0.143701,9.79563,-0.919688,-8.10976,5.42683,-2.28659,-9.8124,-0.469424,-1.3484,-11.7073,-14.0549,9.66463
199.67,-1.90145,-8.33824,0,-0.325723,9.74773,-0.941243,-8.59756,4.29878,-2.31707,-9.83156,-0.517324,-1.47054,-11.5244,-13.5366,9.54268
199.68,-1.93742,-8.34264,0,-0.364043,9.78605,-1.00351,-9.72561,2.53049,-3.17073,-9.87227,-0.598755,-1.47773,-12.1037,-12.8659,9.2378
199.69,-1.95806,-8.36058,0,-0.210762,9.83156,-1.09452,-10.0915,0.792683,-3.62805,-9.88185,-0.65384,-1.54,-12.7744,-12.5305,9.02439
199.7,-1.96061,-8.36059,0,-0.0574805,9.86988,-1.17116,-10.8537,1.09756,-3.71951,-9.92975,-0.775986,-1.47054,-12.8354,-12.7744,8.96341
199.71,-1.9372,-8.3588,0,0.131726,9.87467,-1.21906,-10.8232,1.70732,-3.47561,-9.86509,-0.929268,-1.45378,-12.4085,-13.6585,8.59756
199.72,-1.89139,-8.34719,0,0.251477,10.0016,-1.30289,-11.5854,2.71341,-2.83537,-9.80042,-1.00591,-1.40109,-11.6159,-14.2378,8.62805
199.73,-1.8325,-8.30424,0,0.392783,9.95849,-1.27415,-12.561,3.41463,-3.07927,-9.8603,-1.14003,-1.26936,-10.2744,-14.7561,8.84146
199.74,-1.74046,-8.23937,0,0.495769,9.92017,-1.26697,-13.8415,4.29878,-2.10366,-9.92496,-1.17835,-1.17356,-9.48171,-15.6402,8.96341
199.75,-1.5129,-8.18237,0,0.62031,9.86269,-1.18314,-14.5427,4.69512,-0.396341,-9.98484,-1.14961,-1.20469,-8.2622,-16.0976,8.84146
199.76,-1.34817,-8.13614,0,0.694556,9.89622,-1.16637,-16.0061,5.39634,1.55488,-10.0256,-1.15919,-1.24781,-7.13415,-16.0976,8.68902
199.77,-1.19952,-8.10859,0,0.682581,9.88664,-0.943638,-17.439,4.11585,4.02439,-10.0711,-1.12087,-1.32924,-5.57927,-15.8537,8.5061
199.78,-1.04316,-8.10476,0,0.550855,9.83874,-0.546064,-17.5,1.18902,6.95122,-10.0112,-1.0562,-1.42264,-4.48171,-15.3354,8.14024
199.79,-0.907256,-8.11617,0,0.258662,10.0184,-0.661025,-19.2988,4.60366,8.71951,-9.91299,-0.946033,-1.47533,-3.81098,-14.6037,8.32317
199.8,-0.783342,-8.11741,0,0,9.97765,-0.673001,-19.6341,3.47561,10.7927,-9.80521,-0.871787,-1.41546,-2.65244,-13.5061,8.87195
199.81,-0.639304,-8.13314,0,0.0886157,9.8076,-0.902922,-20.1829,-0.27439,12.0427,-9.68785,-0.740061,-1.46096,-2.19512,-12.3171,9.35976
199.82,-0.472542,-8.15652,0,0.170046,9.68306,-0.852627,-20.1524,-4.05488,13.6585,-9.68067,-0.665815,-1.49449,-2.04268,-10.6402,10.2134
199.83,-0.281238,-8.16815,0,0.316143,9.72378,-0.687371,-19.878,-7.86585,14.7561,-9.70222,-0.677791,-1.44899,-1.46341,-8.87195,10.4878
199.84,-0.0593804,-8.19034,0,0.467029,9.79563,-0.517324,-20.3049,-11.4634,16.4939,-9.69504,-0.704136,-1.49449,-0.640244,-7.16463,10.4573
199.85,0.223824,-8.17333,0,0.811912,10.0591,-0.435894,-21.0366,-14.8476,19.3598,-9.86748,-0.737666,-1.35079,1.0061,-6.7378,9.2378
199.86,0.596347,-8.11254,0,1.29571,10.3034,-0.404758,-22.622,-18.1098,23.8415,-10.1669,-0.759221,-1.19032,2.5,-7.80488,7.56098
199.87,1.0807,-8.03825,0,1.7771,10.2243,-0.352068,-24.3293,-20.4268,30.5183,-10.3321,-0.768801,-1.13763,4.7561,-9.45122,5.67073
199.88,1.68242,-7.9319,0,2.15552,9.93694,-0.143701,-26.4939,-20.0915,38.628,-10.4447,-0.65863,-0.989143,7.22561,-11.5549,5.33537
199.89,2.40413,-7.77776,0,2.47166,9.71899,0.0335303,-30.2439,-17.439,47.9573,-10.4375,-0.55804,-0.749641,10.5793,-13.872,5.97561
199.9,3.23832,-7.58591,0,2.67524,9.38608,0.246687,-33.9634,-14.5427,57.561,-10.3393,-0.373623,-0.543669,13.75,-15.5488,7.34756
199.91,4.16002,-7.38471,0,2.78301,9.25196,0.450264,-36.4024,-13.5366,66.4939,-10.016,-0.0479004,-0.452659,16.6768,-16.6463,8.81098
199.92,5.15024,-7.16472,0,2.97701,9.44835,0.603545,-36.25,-11.0671,73.8415,-9.82677,0.342488,-0.328118,18.6585,-16.7988,9.84756
199.93,6.17323,-6.96604,0,3.13269,9.96089,0.687371,-33.0793,-8.10976,79.2683,-9.69983,0.689766,-0.378413,20.4573,-17.5,10.5488
199.94,7.22055,-6.77233,0,3.44883,10.7608,0.450264,-27.2866,-2.65244,83.2012,-9.77407,1.05141,-0.368833,21.7073,-17.5,10.8841
199.95,8.26012,-6.5909,0,3.25723,11.3404,0.201182,-20.6402,2.71341,88.1098,-10.1166,1.02028,-0.402363,22.7134,-17.5305,10.7012
199.96,9.34057,-6.40959,0,3.25004,11.2446,0.122146,-15.6402,9.26829,94.2073,-10.4399,1.02267,-0.383203,22.8354,-18.1402,9.90854
199.97,10.4666,-6.27285,0,3.1758,10.6866,0.60115,-8.93293,13.2317,100.183,-10.4351,1.06818,-0.555645,23.1402,-18.4756,9.69512
199.98,11.6232,-6.17626,0,3.06323,10.4782,1.21906,-1.25,13.872,106.128,-10.1309,1.27894,-0.694556,22.9268,-17.8354,11.4939
199.99,12.7821,-6.13466,0,2.64889,10.4303,1.8777,6.43293,12.9878,112.896,-9.78605,1.51605,-0.890947,22.0732,-15.3963,14.4207
200,13.8835,-6.14259,0,1.59508,10.3585,2.91474,13.9329,4.42073,120.61,-9.48188,1.71723,-1.06339,19.939,-12.9268,17.5305
200.01,14.9487,-6.20237,0,0.814307,9.97526,3.59971,22.5305,-10.3963,127.5,-9.22322,1.8777,-1.24781,17.622,-10.6707,19.4512
200.02,16.0239,-6.25506,0,0.835862,9.5705,3.43685,30.2439,-24.0244,130.03,-9.24957,1.9735,-1.23104,15.5793,-9.72561,20.5793
200.03,17.0714,-6.31046,0,1.11129,9.94891,2.45729,31.2805,-29.4207,126.585,-9.5705,2.019,-1.29331,13.9634,-8.59756,20.2439
200.04,17.9963,-6.34164,0,1.15919,10.8686,0.914897,17.7134,-21.8902,116.799,-9.94652,1.88488,-1.24541,11.8293,-7.9878,18.5976
200.05,18.7312,-6.37181,0,1.28613,10.689,0.0934058,1.92073,-7.80488,97.7134,-10.392,1.71244,-1.30289,9.57317,-8.62805,15.4268
200.06,19.2535,-6.42172,0,1.19272,9.96807,0.117356,-6.15854,3.29268,77.5915,-10.5572,1.61903,-1.42264,7.68293,-8.59756,12.8659
200.07,19.6447,-6.48017,0,1.51126,9.69264,0.292192,-7.28659,10.8232,61.128,-10.4806,1.5376,-1.46096,6.64634,-7.80488,12.3476
200.08,19.9394,-6.55821,0,1.61903,9.57529,0.64426,-5.73171,9.93902,50.5793,-10.3082,1.45857,-1.5376,5.33537,-7.0122,13.0793
200.09,20.1762,-6.62542,0,1.64538,9.19448,1.32205,-3.96341,0.213415,44.1463,-10.1477,1.31966,-1.47773,4.08537,-6.58537,14.3902
200.1,20.401,-6.68558,0,1.83458,8.74422,1.66693,0.0304878,-11.4024,39.939,-9.99921,1.25739,-1.43701,4.63415,-7.10366,15.1524
200.11,20.6351,-6.73544,0,2.23934,8.49992,1.72441,6.03659,-17.622,35.3963,-9.83395,1.20469,-1.37953,5.60976,-8.35366,15.9756
200.12,20.8637,-6.79624,0,2.58183,8.34664,1.57353,11.5854,-16.8902,30.3659,-9.70222,1.09213,-1.41785,8.14024,-8.84146,15.7927
200.13,21.0919,-6.85716,0,3.04167,8.40173,1.13045,12.9268,-10.6402,25.2439,-9.57768,0.984353,-1.41067,10.7622,-8.96341,14.6341
200.14,21.3117,-6.91045,0,3.47996,8.44244,0.574805,9.7561,-2.53049,19.7561,-9.55613,0.888552,-1.38432,13.1707,-8.23171,13.3841
200.15,21.51,-6.95755,0,3.93741,8.3203,0.100591,7.7439,7.89634,12.0427,-9.50104,0.962798,-1.35798,15.2744,-7.28659,12.1341
200.16,21.6506,-7.00117,0,4.01645,8.14786,0.119751,7.40854,20.5183,3.5061,-9.47709,1.08255,-1.346,16.4329,-6.09756,11.5549
200.17,21.7058,-7.01887,0,3.83443,7.83171,0.706531,9.26829,30.5183,-4.20732,-9.46272,1.32445,-1.24062,16.9817,-5.30488,11.3415
200.18,21.6719,-7.03435,0,3.58055,7.78381,1.11129,12.0427,38.2927,-9.57317,-9.3765,1.56155,-1.22146,16.8902,-4.54268,12.2866
200.19,21.6002,-7.06961,0,3.48954,7.82692,1.22146,12.8963,37.9268,-12.1341,-9.28549,1.7316,-1.28373,15.6707,-3.41463,12.4695
200.2,21.4836,-7.1031,0,3.26202,7.91314,1.31487,15.8537,36.1585,-13.5366,-9.23999,1.81303,-1.26218,14.3902,-2.53049,12.6524
200.21,21.3223,-7.15253,0,2.96982,7.82932,1.4442,20.2134,33.2317,-15,-9.21364,1.8777,-1.27176,12.5915,-1.40244,12.1341
200.22,21.1412,-7.16922,0,2.85486,7.84129,1.55437,27.4085,27.8963,-15.7927,-9.29986,1.94955,-1.21188,10.4268,-1.43293,11.2805
200.23,20.9673,-7.12903,0,2.96743,7.94428,1.33642,32.1951,19.5732,-16.4024,-9.46751,1.96631,-1.06578,8.68902,-1.82927,10.3963
200.24,20.8173,-7.073,0,3.06802,7.76944,1.0562,36.5549,10.8841,-16.4939,-9.61361,1.93757,-0.998723,6.79878,-2.40854,9.02439
200.25,20.7144,-7.0271,0,3.53505,7.76226,0.775986,39.5732,5.91463,-17.9878,-9.69264,1.89925,-1.02267,4.87805,-2.9878,7.65244
200.26,20.6297,-6.99534,0,3.82245,7.97542,0.934058,41.2805,2.86585,-18.628,-9.70941,1.7316,-1.07057,3.5061,-3.2622,5.94512
200.27,20.6054,-6.95312,0,4.43318,8.15504,0.878972,41.4939,-0.0914634,-18.5976,-9.70701,1.69328,-1.02746,1.61585,-2.86585,4.5122
200.28,20.6126,-6.92337,0,4.89063,8.42328,0.850232,41.7683,-0.457317,-18.7195,-9.75731,1.5879,-1.07776,0.0609756,-2.56098,3.23171
200.29,20.6176,-6.88117,0,5.1445,8.91426,0.179626,37.5305,3.29268,-18.628,-9.77647,1.47773,-1.02746,-1.85976,-2.53049,1.46341
200.3,20.5901,-6.82728,0,5.09421,9.42201,0.00958008,28.689,8.20122,-18.689,-9.81719,1.45617,-0.972378,-3.41463,-2.83537,0.487805
200.31,20.5523,-6.79635,0,4.98404,9.58008,0.608335,23.8415,17.622,-17.9268,-9.78844,1.38911,-1.04662,-4.48171,-3.47561,-0.579268
200.32,20.522,-6.76421,0,4.89063,9.59924,0.948428,21.189,22.2866,-16.25,-9.84832,1.37714,-1.03944,-5.4878,-4.20732,-1.15854
200.33,20.5404,-6.74679,0,5.05828,9.45314,1.04902,18.9329,20.7622,-13.689,-9.89383,1.27176,-1.10171,-6.21951,-5.2439,-1.34146
200.34,20.6105,-6.73185,0,5.22114,9.31423,1.00112,15.3354,18.7805,-10.6707,-9.9082,1.20469,-1.11129,-6.58537,-5.60976,-1.98171
200.35,20.7184,-6.70947,0,5.30976,9.2831,0.692161,12.1037,19.939,-7.68293,-9.90101,1.12087,-1.07536,-6.46341,-6.0061,-1.98171
200.36,20.8668,-6.70921,0,5.39358,9.25675,0.608335,8.90244,23.9939,-4.45122,-9.8579,1.10171,-1.16398,-5.88415,-6.31098,-2.34756
200.37,21.0728,-6.74814,0,5.36724,9.01485,0.435894,5.54878,29.2073,-1.98171,-9.70462,1.18074,-1.31487,-5.4878,-5.85366,-2.65244
200.38,21.3217,-6.79389,0,5.05828,8.67237,0.421523,4.14634,34.0854,-1.31098,-9.62079,1.1544,-1.33882,-4.84756,-5.57927,-2.16463
200.39,21.5133,-6.85443,0,4.55772,8.50711,0.471819,5,34.1768,-1.52439,-9.58966,1.16398,-1.40588,-4.02439,-5.70122,-2.46951
200.4,21.5724,-6.91485,0,3.94939,8.54303,0.488584,4.32927,31.0671,-2.43902,-9.67827,1.24781,-1.42743,-3.56707,-5.18293,-2.31707
200.41,21.5526,-7.01732,0,3.48954,8.49992,0.780776,3.75,25.2134,-3.68902,-9.67827,1.21667,-1.61664,-2.9878,-4.69512,-2.34756
200.42,21.4841,-7.13211,0,3.18777,8.48076,1.04902,3.9939,16.4634,-5,-9.6184,1.26457,-1.66933,-2.31707,-4.08537,-2.16463
200.43,21.3966,-7.24631,0,3.09916,8.49753,1.29571,3.23171,7.92683,-5.94512,-9.66869,1.26697,-1.69328,-2.16463,-3.90244,-2.10366
200.44,21.3243,-7.3707,0,3.23328,8.43047,1.42983,2.34756,-0.304878,-6.52439,-9.62319,1.23344,-1.75076,-1.70732,-4.08537,-2.43902
200.45,21.304,-7.50395,0,3.61408,8.29156,1.50168,2.83537,-6.40244,-6.64634,-9.59924,1.28373,-1.80105,-0.945122,-3.87195,-2.19512
200.46,21.3319,-7.65027,0,4.02363,8.18378,1.52084,5.06098,-9.60366,-7.13415,-9.59684,1.3005,-1.8753,-0.823171,-3.71951,-2.0122
200.47,21.41,-7.79297,0,4.3302,7.9826,1.57592,9.84756,-11.7683,-6.67683,-9.64953,1.40109,-1.89686,-0.518293,-3.68902,-2.07317
200.48,21.538,-7.87678,0,4.73256,8.00895,1.36516,13.9939,-14.4207,-5.82317,-9.6184,1.54479,-1.67172,-0.304878,-3.9939,-2.28659
200.49,21.6372,-7.88453,0,5.08942,8.76577,0.902922,17.0732,-11.1585,-7.43902,-9.91299,1.61424,-1.41067,-0.640244,-5.54878,-2.9878
200.5,21.6063,-7.83614,0,4.86907,10.0998,0.708926,16.0671,-7.5,-11.5244,-10.2124,1.50886,-1.1999,0.182927,-7.71341,-4.11585
200.51,21.4509,-7.7756,0,4.31582,11.0937,0.720901,13.2622,-3.32317,-15.1524,-10.5692,1.27176,-1.17595,1.79878,-8.32317,-5.88415
200.52,21.2496,-7.70426,0,3.93981,11.2279,0.783171,10.3049,-4.81707,-16.2195,-10.7991,0.979563,-1.13763,4.5122,-7.89634,-6.43293
200.53,21.0914,-7.61941,0,4.02363,10.8087,0.907712,8.5061,-13.3537,-14.4512,-10.95,0.857417,-1.07297,7.43902,-6.70732,-5.09146
200.54,21.0526,-7.55099,0,4.64873,10.3489,0.912502,9.29878,-21.6463,-10.2744,-10.9189,0.768801,-1.13284,9.84756,-5.79268,-2.43902
200.55,21.1755,-7.49244,0,5.68338,10.1214,0.65863,12.7744,-23.2317,-4.39024,-10.6554,0.543669,-1.14003,12.3476,-4.60366,1.15854
200.56,21.4748,-7.46591,0,6.93598,10.0399,0.153281,15.3049,-19.3598,2.7439,-10.3632,0.241897,-1.24541,15.061,-4.42073,3.35366
200.57,21.8992,-7.39276,0,8.0329,9.87227,-0.316143,21.5549,-1.92073,7.2561,-10.2483,0.0838257,-1.01549,18.9024,-4.96951,3.96341
200.58,22.2493,-7.25166,0,7.28804,10.2148,-1.54239,27.6829,32.5305,7.95732,-10.1309,0.337698,-0.687371,21.4634,-5.2439,3.47561
200.59,22.3595,-7.08234,0,4.67747,10.3561,-1.43941,27.8659,59.8171,7.04268,-10.1908,0.866997,-0.56283,21.9207,-3.44512,3.47561
200.6,22.0815,-6.84642,0,2.82612,9.75731,0.0431104,29.1159,65.9756,0.121951,-10.2722,1.43222,-0.687371,19.8476,0.27439,3.65854
200.61,21.741,-6.73034,0,1.59269,8.76098,1.03944,27.8659,52.8354,-10.7012,-10.5596,1.89686,-0.720901,17.0732,5,4.26829
200.62,21.2173,-6.60248,0,0.855022,8.05685,1.76513,29.3293,26.5854,-21.4329,-10.78,2.32317,-0.651445,13.0793,8.84146,5.36585
200.63,20.5784,-6.40646,0,0.673001,8.50232,0.730481,26.8598,9.60366,-31.128,-11.0219,2.68242,-0.306563,8.23171,11.9512,6.92073
200.64,19.8814,-6.13888,0,0.692161,9.40285,-0.407153,23.811,-0.121951,-37.7134,-11.2877,2.84289,0.0838257,1.64634,15.122,8.20122
200.65,19.1252,-5.80996,0,0.414338,10.1405,-1.02267,22.5,-2.04268,-41.372,-11.4985,2.62255,0.452659,-6.46341,17.622,8.35366
200.66,18.324,-5.43521,0,-0.0143701,10.301,-1.01309,25.1829,-8.38415,-42.561,-11.8673,1.94476,0.775986,-13.628,17.7439,6.31098
200.67,17.5418,-5.02646,0,0.0215552,10.5836,-1.07776,28.8415,-14.7561,-42.6524,-12.0254,1.18553,1.04423,-19.0244,15.3659,2.16463
200.68,16.7995,-4.6385,0,0.311353,11.0722,-1.36037,27.439,-19.7256,-43.2317,-11.8098,0.665815,0.998723,-22.378,12.8049,-1.61585
200.69,16.0992,-4.29065,0,0.699346,10.8614,-1.36995,25.3354,-22.2866,-44.6951,-11.3692,0.256267,0.835862,-23.9634,11.9817,-3.71951
200.7,15.4373,-3.96817,0,1.13045,10.1022,-1.52084,24.2683,-23.3537,-47.7134,-10.792,-0.0718506,0.737666,-25.0915,11.6159,-4.66463
200.71,14.7882,-3.63975,0,1.2526,9.25915,-1.54958,24.4817,-23.7195,-50.4573,-9.94173,-0.399968,0.761616,-25.3963,11.2195,-4.63415
200.72,14.1387,-3.26545,0,1.37953,8.86397,-1.6334,23.628,-22.4695,-54.1463,-9.36213,-0.531694,0.960403,-26.189,9.5122,-4.20732
200.73,13.4712,-2.89638,0,1.41306,8.85199,-1.69807,22.2561,-22.8963,-57.7744,-8.90708,-0.687371,0.950823,-26.3415,8.93293,-3.68902
200.74,12.8094,-2.50607,0,1.52802,8.93103,-2.18186,21.6768,-20.3659,-59.8476,-8.71308,-0.847837,1.0586,-26.5549,6.67683,-3.04878
200.75,12.1708,-2.14152,0,1.75076,9.15137,-2.56507,19.6951,-12.561,-61.128,-8.71548,-0.984353,1.00112,-26.372,5.60976,-2.5
200.76,11.5462,-1.7562,0,1.66693,9.26873,-2.47406,19.6341,-5.97561,-59.6951,-8.943,-1.06818,1.01309,-25.2439,3.44512,-1.82927
200.77,10.9295,-1.38587,0,1.47054,9.29747,-2.54112,19.4817,2.16463,-57.7134,-9.19209,-1.04662,0.826282,-24.3293,2.22561,-1.09756
200.78,10.2971,-1.17545,0,1.0562,9.31663,-2.29682,18.9024,5.70122,-55.4268,-9.45554,-1.11608,0.507744,-23.0488,2.59146,-1.06707
200.79,9.63368,-1.08016,0,0.522114,9.35016,-2.13636,18.6585,6.34146,-53.2012,-9.69025,-1.21427,0.184417,-20.7622,3.38415,-1.67683
200.8,8.95007,-1.05472,0,0.148491,9.51302,-1.96871,16.7988,0.823171,-51.9207,-9.7142,-1.23104,-0.0718506,-18.4146,4.84756,-2.56098
200.81,8.23923,-1.06323,0,-0.273032,9.51541,-1.63819,16.7378,-10.4878,-50.9146,-9.66869,-1.22146,-0.208367,-16.5244,6.98171,-4.08537
200.82,7.52867,-1.08215,0,-0.421523,9.69264,-1.52563,15.4878,-22.1037,-50.6098,-9.68306,-1.21188,-0.253872,-14.9695,7.83537,-5.42683
200.83,6.80926,-1.10716,0,-0.617915,9.78605,-1.67651,13.2012,-34.2683,-50.6707,-9.7621,-1.12566,-0.285007,-13.7805,8.32317,-6.0061
200.84,6.10933,-1.17965,0,-0.60115,9.84832,-1.5879,12.2561,-48.4451,-50.3963,-9.8579,-0.984353,-0.498164,-13.3537,8.96341,-6.37195
200.85,5.45003,-1.26065,0,-0.378413,10.0256,-1.75076,10.5183,-54.5427,-50.3963,-9.96328,-0.768801,-0.55325,-12.9268,9.42073,-6.0061
200.86,4.8254,-1.36143,0,-0.265847,10.1166,-1.55916,8.62805,-61.9512,-49.5427,-10.0256,-0.63947,-0.65863,-12.378,9.39024,-5.21341
200.87,4.26109,-1.48927,0,0.0742456,10.0639,-1.80584,8.17073,-66.5549,-48.5976,-9.97526,-0.63468,-0.792751,-11.9817,9.17683,-4.2378
200.88,3.7789,-1.60331,0,0.608335,9.8579,-2.12438,6.67683,-63.5976,-47.7134,-9.85072,-0.61552,-0.744851,-11.2805,8.90244,-3.23171
200.89,3.33162,-1.70277,0,0.694556,9.5681,-1.93997,5.39634,-65.1219,-46.4024,-9.81479,-0.66342,-0.699346,-10.6098,7.37805,-2.04268
200.9,2.95761,-1.7936,0,1.1999,9.51302,-2.43094,5.18293,-59.9695,-46.0366,-9.69983,-0.725691,-0.670605,-9.48171,6.0061,-1.37195
200.91,2.60725,-1.89228,0,1.29571,9.49146,-2.47166,5.97561,-57.1037,-45.5793,-9.53697,-0.764011,-0.699346,-8.10976,4.45122,-0.731707
200.92,2.28985,-1.98684,0,1.48491,9.3789,-2.46448,7.46951,-48.4756,-45.4268,-9.4723,-0.831072,-0.680186,-6.61585,3.62805,0.0304878
200.93,1.96915,-2.08991,0,1.35319,9.40764,-2.34951,7.9878,-39.2683,-44.7561,-9.44356,-0.960403,-0.689766,-5.12195,2.68293,0.518293
200.94,1.66091,-2.21509,0,1.41546,9.18969,-2.44292,8.65854,-32.7439,-45.3049,-9.41722,-1.13763,-0.732876,-3.35366,2.07317,0.701219
200.95,1.31742,-2.35702,0,0.998723,8.92145,-2.4501,8.68902,-28.0793,-44.6951,-9.35016,-1.23104,-0.61552,-1.70732,0.762195,1.21951
200.96,0.924409,-2.49564,0,0.555645,8.98851,-2.32317,9.14634,-24.7561,-44.6341,-9.29268,-1.31008,-0.58678,-0.609756,-0.487805,1.70732
200.97,0.502491,-2.57996,0,0.270637,9.12263,-2.33035,9.11585,-25,-44.6341,-9.12742,-1.3484,-0.608335,0.0609756,-1.70732,2.28659
200.98,0.0720007,-2.64974,0,0.117356,9.22083,-1.98068,7.68293,-28.2317,-44.3902,-8.99569,-1.30289,-0.608335,0.914634,-2.34756,2.9878
200.99,-0.346026,-2.71209,0,0.0574805,9.29747,-1.76752,7.77439,-31.7073,-43.2317,-8.89271,-1.27655,-0.61552,0.701219,-3.01829,3.71951
201,-0.715404,-2.79332,0,0.268242,9.38848,-1.94715,8.29268,-30.3354,-41.7378,-8.8472,-1.29331,-0.694556,1.82927,-3.32317,4.42073
201.01,-1.05175,-2.90762,0,0.347278,9.22083,-1.92799,9.17683,-31.7988,-40.1829,-8.79691,-1.23823,-0.831072,3.07927,-3.71951,5.03049
201.02,-1.34858,-3.03655,0,0.464634,9.03162,-1.89446,9.26829,-32.2866,-38.4451,-8.77056,-1.26457,-0.898132,4.42073,-3.75,6.18902
201.03,-1.61865,-3.16765,0,0.467029,9.13939,-2.21539,8.71951,-32.1646,-36.2805,-8.83523,-1.29571,-0.943638,6.0061,-3.93293,6.95122
201.04,-1.84767,-3.3199,0,0.66342,9.26633,-2.16989,7.9878,-33.4146,-35.0305,-8.95977,-1.35079,-1.0562,7.28659,-3.81098,7.5
201.05,-2.0086,-3.48251,0,1.07057,9.27591,-2.55788,7.16463,-30.0305,-33.628,-9.01246,-1.27176,-1.09692,8.44512,-3.29268,7.9878
201.06,-2.11817,-3.66085,0,1.37235,8.83762,-2.71116,7.37805,-27.0122,-33.2927,-8.91905,-1.10889,-1.14721,9.60366,-3.17073,8.56707
201.07,-2.23759,-3.98558,0,1.30768,8.67955,-2.61536,9.05488,-23.75,-33.9939,-8.7059,-0.900527,-1.27655,10.7012,-1.92073,9.93902
201.08,-2.33119,-4.90497,0,1.37714,8.47358,-2.81894,9.5122,-15.2134,-32.9573,-8.48316,-0.706531,-1.36516,11.4939,-0.579268,11.5854
201.09,-2.43055,-5.92151,0,1.3005,8.48316,-2.62734,10.7317,-12.9878,-32.6829,-8.37538,-0.65384,-1.53521,12.2866,0.609756,12.8963
201.1,-2.52375,-6.36675,0,1.30768,8.68195,-2.60818,12.9268,-11.2195,-31.9512,-8.54303,-0.713716,-1.59029,12.378,1.40244,13.689
201.11,-2.62917,-6.60527,0,1.23583,9.36453,-2.68961,14.1463,-5.73171,-31.25,-8.77296,-0.780776,-1.56395,12.8354,2.04268,13.872
201.12,-2.81083,-6.79552,0,0.704136,9.91299,-2.44531,13.5671,-4.39024,-32.1951,-9.10347,-0.878972,-1.69328,12.378,2.71341,14.1768
201.13,-3.05939,-6.95988,0,0.234712,10.119,-2.03337,10.7927,-4.48171,-33.811,-9.58247,-1.02267,-1.81303,11.7378,3.59756,13.2927
201.14,-3.35892,-7.0615,0,-0.253872,10.1094,-1.86572,5.60976,-10.6402,-33.872,-10.0447,-1.17356,-1.67412,10.0305,4.32927,12.3476
201.15,-3.62669,-7.07513,0,-0.138911,10.0423,-1.95673,0.182927,-16.189,-32.561,-10.4854,-1.26457,-1.35798,7.83537,3.41463,11.4024
201.16,-3.83823,-7.06994,0,0.222737,9.9082,-2.213,-5.09146,-18.811,-31.6159,-10.5596,-1.11368,-1.28852,5.45732,1.4939,11.0671
201.17,-4.0359,-7.05766,0,0.131726,9.8124,-2.42855,-8.17073,-19.6037,-29.5732,-10.3249,-0.890947,-1.24781,2.95732,0.335366,11.8598
201.18,-4.1888,-7.00002,0,0.280217,9.75731,-2.74469,-9.90854,-18.9939,-27.1951,-10.1621,-0.66342,-1.08255,0.853659,-0.97561,13.3232
201.19,-4.28724,-6.98816,0,0.603545,9.58726,-3.14706,-8.62805,-20.122,-25.9451,-10.0974,-0.488584,-1.19751,-1.25,-1.82927,14.5427
201.2,-4.30217,-7.02353,0,1.33403,9.22083,-3.42488,-7.86585,-11.372,-27.0732,-10.0711,-0.294587,-1.36277,-3.01829,-1.67683,15.122
201.21,-4.38014,-7.2556,0,0.878972,8.98372,-3.28357,-7.10366,-4.63415,-28.1402,-10.1285,-0.0862207,-1.88249,-3.35366,-0.579268,15
201.22,-4.54204,-7.58659,0,0.203577,8.87834,-3.05844,-4.63415,4.63415,-28.1402,-10.2267,-0.0311353,-2.27287,-2.40854,0.548781,14.6646
201.23,-4.7738,-7.8489,0,-0.443079,9.19209,-2.73032,-1.92073,8.20122,-27.2866,-10.3034,-0.232317,-2.50759,-0.121951,2.34756,13.3232
201.24,-5.02989,-8.16527,0,-0.876577,9.69983,-2.61297,-2.80488,5.06098,-25.3354,-10.3585,-0.720901,-2.92192,3.04878,4.54268,11.0061
201.25,-5.23121,-8.53462,0,-0.780776,10.2531,-2.54112,-4.84756,-2.89634,-21.9207,-10.3609,-1.29571,-3.25723,7.56098,7.31707,7.77439
201.26,-5.37284,-8.89881,0,-0.64905,10.6147,-2.34712,-7.16463,-12.7744,-17.9878,-10.3824,-1.91602,-3.30992,12.1037,9.84756,5.15244
201.27,-5.4422,-9.16161,0,-0.359253,10.95,-2.23455,-12.1341,-20.9756,-14.2073,-10.5932,-2.36867,-2.9339,16.25,11.0366,2.28659
201.28,-5.40773,-9.33518,0,0.337698,11.0602,-2.39023,-18.5366,-28.5976,-11.1585,-10.9237,-2.65608,-2.62015,18.9939,11.4024,0.640244
201.29,-5.26467,-9.44319,0,1.02507,10.9309,-2.65129,-22.6524,-30.6707,-7.37805,-11.2758,-2.37107,-2.39741,20.2134,12.0122,-0.243902
201.3,-4.99947,-9.51081,0,1.8274,10.9045,-2.80936,-26.5854,-29.2378,-3.47561,-11.5057,-1.69807,-2.25611,20.0305,11.4329,0.914634
201.31,-4.61926,-9.49496,0,2.44531,11.1536,-2.68242,-29.4817,-27.0427,2.16463,-11.6637,-0.871787,-1.85854,18.9024,11.5244,3.68902
201.32,-4.14708,-9.31297,0,2.84528,11.0434,-2.37346,-32.4695,-22.5305,9.26829,-11.9224,-0.0215552,-1.0107,16.128,10.8232,6.06707
201.33,-3.57207,-8.9236,0,3.23328,10.9213,-2.18905,-35.4268,-21.25,16.5549,-12.229,0.598755,0.119751,11.4634,8.44512,9.02439
201.34,-2.87346,-8.34636,0,3.8009,11.0267,-2.32556,-39.1463,-14.9695,25.1829,-12.7032,1.37235,1.25978,4.45122,4.69512,11.7073
201.35,-2.09611,-7.68465,0,3.8967,11.1416,-2.46448,-43.1707,-6.58537,34.1159,-13.1415,2.13157,1.91602,-3.35366,2.37805,13.2927
201.36,-1.26082,-7.16342,0,3.57337,11.0913,-2.20102,-44.1159,6.52439,44.5122,-13.1151,2.2609,1.26218,-8.71951,4.96951,13.689
201.37,-0.395383,-6.92636,0,2.79259,11.065,-1.60227,-41.7988,19.9085,56.8293,-12.5954,1.81542,-0.249082,-10.9146,8.93293,11.4634
201.38,0.52989,-6.6643,0,2.07169,11.0889,-0.63947,-41.5244,26.4329,72.0122,-11.9009,0.950823,-0.0502954,-8.87195,13.4451,5.82317
201.39,1.55127,-6.50709,0,1.4897,10.8997,0.225132,-42.4695,22.9268,89.4207,-10.0375,-0.397573,-0.455054,-2.83537,19.9085,0.0304878
201.4,2.70172,-6.32804,0,1.1544,10.3177,0.689766,-45.3963,12.5915,107.53,-9.04838,-1.46815,-0.296982,6.03659,21.372,-4.17683
201.41,3.9324,-6.0913,0,0.814307,10.0567,0.431104,-46.4939,2.56098,121.646,-8.84241,-2.30161,-0.0407153,17.439,17.378,-5.79268
201.42,5.12253,-5.80356,0,-0.208367,10.313,0.419128,-43.7805,-6.61585,131.829,-8.80649,-2.67524,0.189207,28.9329,11.3415,-3.75
201.43,6.20495,-5.5169,0,-1.49928,10.962,0.126936,-39.8171,-15.4268,136.799,-8.93821,-2.54591,0.222737,37.622,6.40244,0.426829
201.44,7.2084,-4.84341,0,-2.28964,11.4937,-0.416733,-35.8841,-26.311,138.049,-9.54894,-1.89446,0.608335,41.9207,0.884146,4.90854
201.45,8.17617,-4.42599,0,-2.51956,12.1308,-0.862207,-31.6463,-34.3293,137.409,-10.4207,-0.747246,1.00112,42.561,-3.9939,8.14024
201.46,9.15736,-4.00819,0,-1.83219,12.672,-1.17595,-30.6098,-32.6829,133.598,-11.4051,1.21667,1.21427,37.7134,-9.48171,10.9146
201.47,10.0934,-3.74292,0,-1.51126,12.8134,-0.684976,-28.7195,-33.3841,127.927,-11.0051,2.68961,0.510139,32.6829,-6.21951,13.5671
201.48,11.0368,-3.52935,0,-0.819097,12.5595,-0.61552,-26.4024,-25.9451,124.482,-10.4519,3.49673,0.253872,24.9085,2.40854,16.4024
201.49,11.9762,-3.19206,0,-0.495769,11.659,-0.289797,-22.378,-23.5366,123.354,-10.2339,3.38895,0.898132,15.4878,6.85976,16.4024
201.5,12.9508,-2.79035,0,0.431104,11.3572,-0.256267,-14.5122,-16.311,119.451,-9.59924,2.53154,1.17356,5.64024,6.92073,13.1707
201.51,13.9671,-2.41642,0,1.47533,11.4721,-0.622705,-7.71341,-8.35366,115.183,-8.943,1.66693,1.00591,-2.19512,4.90854,8.14024
201.52,15.0669,-2.08942,0,2.53633,11.1225,-0.766406,-2.37805,-0.213415,114.512,-8.87115,1.0562,0.711321,-5.09146,3.23171,4.14634
201.53,16.1511,-1.81897,0,2.63452,10.38,-0.807122,4.69512,12.9268,112.317,-9.29986,0.617915,0.356858,-5,1.67683,3.01829
